{
  "resourceType": "Bundle",
  "id": "630307c30968f80122477ae5",
  "type": "transaction",
  "entry": [ {
    "fullUrl": "https://madie.cms.gov/Patient/b3921225-60ae-4ad0-a0b9-fa5d02815150",
    "resource": {
      "resourceType": "Patient",
      "id": "b3921225-60ae-4ad0-a0b9-fa5d02815150",
      "meta": {
        "profile": [ "http://hl7.org/fhir/us/qicore/StructureDefinition/qicore-patient" ]
      },
      "extension": [ {
        "url": "http://hl7.org/fhir/us/core/StructureDefinition/us-core-race",
        "extension": [ {
          "url": "ombCategory",
          "valueCoding": {
            "system": "urn:oid:2.16.840.1.113883.6.238",
            "code": "2106-3",
            "display": "White"
          }
        }, {
          "url": "text",
          "valueString": "White"
        } ]
      }, {
        "url": "http://hl7.org/fhir/us/core/StructureDefinition/us-core-ethnicity",
        "extension": [ {
          "url": "ombCategory",
          "valueCoding": {
            "system": "urn:oid:2.16.840.1.113883.6.238",
            "code": "2186-5",
            "display": "Not Hispanic or Latino"
          }
        }, {
          "url": "text",
          "valueString": "Not Hispanic or Latino"
        } ]
      } ],
      "identifier": [ {
        "type": {
          "coding": [ {
            "system": "http://terminology.hl7.org/CodeSystem/v2-0203",
            "code": "MR"
          } ]
        },
        "system": "https://bonnie-fhir.healthit.gov/",
        "value": "630307c30968f80122477ae5"
      } ],
      "name": [ {
        "family": "DENEXPopStrat1Pass",
        "given": [ "HospiceEncounterduringMP" ]
      } ],
      "gender": "female",
      "birthDate": "2011-01-01"
    },
    "request": {
      "method": "PUT",
      "url": "Patient/b3921225-60ae-4ad0-a0b9-fa5d02815150"
    }
  }, {
    "fullUrl": "https://madie.cms.gov/Encounter/85a1844d-6492-4664-bbf6-2bda77ad319c",
    "resource": {
      "resourceType": "Encounter",
      "id": "85a1844d-6492-4664-bbf6-2bda77ad319c",
      "meta": {
        "profile": [ "http://hl7.org/fhir/us/qicore/StructureDefinition/qicore-encounter" ]
      },
      "status": "finished",
      "class": {
        "system": "http://terminology.hl7.org/CodeSystem/v3-ActCode",
        "code": "AMB",
        "display": "ambulatory"
      },
      "type": [ {
        "coding": [ {
          "system": "http://www.ama-assn.org/go/cpt",
          "version": "2024",
          "code": "90791"
        } ]
      } ],
      "subject": {
        "reference": "Patient/b3921225-60ae-4ad0-a0b9-fa5d02815150"
      },
      "period": {
        "start": "2025-02-25T14:30:00+00:00",
        "end": "2025-02-25T14:50:00+00:00"
      },
      "length": {
        "value": 0,
        "unit": "days"
      }
    },
    "request": {
      "method": "PUT",
      "url": "Encounter/85a1844d-6492-4664-bbf6-2bda77ad319c"
    }
  }, {
    "fullUrl": "https://madie.cms.gov/Observation/c4af315b-4b2f-4b86-aee3-0233c540715e",
    "resource": {
      "resourceType": "Observation",
      "id": "c4af315b-4b2f-4b86-aee3-0233c540715e",
      "meta": {
        "profile": [ "http://hl7.org/fhir/us/qicore/StructureDefinition/qicore-observation-screening-assessment" ]
      },
      "status": "final",
      "category": [ {
        "coding": [ {
          "system": "http://terminology.hl7.org/CodeSystem/observation-category",
          "code": "survey",
          "display": "Survey"
        } ]
      } ],
      "code": {
        "coding": [ {
          "system": "http://loinc.org",
          "version": "2.76",
          "code": "44261-6"
        } ]
      },
      "subject": {
        "reference": "Patient/b3921225-60ae-4ad0-a0b9-fa5d02815150"
      },
      "effectiveDateTime": "2025-02-25T14:35:00+00:00",
      "valueInteger": 10
    },
    "request": {
      "method": "PUT",
      "url": "Observation/c4af315b-4b2f-4b86-aee3-0233c540715e"
    }
  }, {
    "fullUrl": "https://madie.cms.gov/Observation/53f582fb-f4ce-4fc7-a295-c74f0bca1689",
    "resource": {
      "resourceType": "Observation",
      "id": "53f582fb-f4ce-4fc7-a295-c74f0bca1689",
      "meta": {
        "profile": [ "http://hl7.org/fhir/us/qicore/StructureDefinition/qicore-observation-screening-assessment" ]
      },
      "status": "final",
      "category": [ {
        "coding": [ {
          "system": "http://terminology.hl7.org/CodeSystem/observation-category",
          "code": "survey",
          "display": "Survey"
        } ]
      } ],
      "code": {
        "coding": [ {
          "system": "http://loinc.org",
          "version": "2.76",
          "code": "44261-6"
        } ]
      },
      "subject": {
        "reference": "Patient/b3921225-60ae-4ad0-a0b9-fa5d02815150"
      },
      "effectiveDateTime": "2026-02-19T14:30:00+00:00",
      "valueInteger": 3
    },
    "request": {
      "method": "PUT",
      "url": "Observation/53f582fb-f4ce-4fc7-a295-c74f0bca1689"
    }
  }, {
    "fullUrl": "https://madie.cms.gov/Condition/12d8fab8-6a28-430a-b8af-36054da507c4",
    "resource": {
      "resourceType": "Condition",
      "id": "12d8fab8-6a28-430a-b8af-36054da507c4",
      "meta": {
        "profile": [ "http://hl7.org/fhir/us/qicore/StructureDefinition/qicore-condition-problems-health-concerns" ]
      },
      "clinicalStatus": {
        "coding": [ {
          "system": "http://terminology.hl7.org/CodeSystem/condition-clinical",
          "code": "active",
          "display": "active"
        } ]
      },
      "verificationStatus": {
        "coding": [ {
          "system": "http://terminology.hl7.org/CodeSystem/condition-ver-status",
          "code": "confirmed"
        } ]
      },
      "category": [ {
        "coding": [ {
          "system": "http://terminology.hl7.org/CodeSystem/condition-category",
          "code": "problem-list-item",
          "display": "Problem List Item"
        } ]
      } ],
      "code": {
        "coding": [ {
          "system": "http://hl7.org/fhir/sid/icd-10-cm",
          "version": "2024",
          "code": "F32.9"
        } ]
      },
      "subject": {
        "reference": "Patient/b3921225-60ae-4ad0-a0b9-fa5d02815150"
      },
      "onsetDateTime": "2025-02-25T14:35:00+00:00"
    },
    "request": {
      "method": "PUT",
      "url": "Condition/12d8fab8-6a28-430a-b8af-36054da507c4"
    }
  }, {
    "fullUrl": "https://madie.cms.gov/Encounter/f29039f1-ded8-45df-b6f9-981afd11d497",
    "resource": {
      "resourceType": "Encounter",
      "id": "f29039f1-ded8-45df-b6f9-981afd11d497",
      "meta": {
        "profile": [ "http://hl7.org/fhir/us/qicore/StructureDefinition/qicore-encounter" ]
      },
      "status": "finished",
      "class": {
        "system": "http://terminology.hl7.org/CodeSystem/v3-ActCode",
        "code": "NONAC",
        "display": "inpatient non-acute"
      },
      "type": [ {
        "coding": [ {
          "system": "http://snomed.info/sct",
          "version": "http://snomed.info/sct/731000124108/version/20240301",
          "code": "305336008"
        } ]
      } ],
      "subject": {
        "reference": "Patient/b3921225-60ae-4ad0-a0b9-fa5d02815150"
      },
      "period": {
        "start": "2025-12-31T08:00:00+00:00",
        "end": "2026-01-01T12:00:00+00:00"
      },
      "length": {
        "value": 0,
        "unit": "days"
      }
    },
    "request": {
      "method": "PUT",
      "url": "Encounter/f29039f1-ded8-45df-b6f9-981afd11d497"
    }
  }, {
    "fullUrl": "https://madie.cms.gov/MeasureReport/cc12bcf3-05fa-4b45-8791-c62f5cc5790d",
    "resource": {
      "resourceType": "MeasureReport",
      "id": "cc12bcf3-05fa-4b45-8791-c62f5cc5790d",
      "meta": {
        "profile": [ "http://hl7.org/fhir/us/cqfmeasures/StructureDefinition/test-case-cqfm" ]
      },
      "contained": [ {
        "resourceType": "Parameters",
        "id": "4d18abe5-a409-43e1-8703-49ade6a4dd7d-parameters",
        "parameter": [ {
          "name": "subject",
          "valueString": "b3921225-60ae-4ad0-a0b9-fa5d02815150"
        } ]
      } ],
      "extension": [ {
        "url": "http://hl7.org/fhir/StructureDefinition/cqf-inputParameters",
        "valueReference": {
          "reference": "#4d18abe5-a409-43e1-8703-49ade6a4dd7d-parameters"
        }
      }, {
        "url": "http://hl7.org/fhir/us/cqfmeasures/StructureDefinition/cqfm-testCaseDescription",
        "valueMarkdown": "Hospice encounter during MP."
      } ],
      "modifierExtension": [ {
        "url": "http://hl7.org/fhir/us/cqfmeasures/StructureDefinition/cqfm-isTestCase",
        "valueBoolean": true
      } ],
      "status": "complete",
      "type": "individual",
      "measure": "https://madie.cms.gov/Measure/CMS159FHIRDepressionRemissionatTwelveMonths",
      "period": {
        "start": "2026-01-01",
        "end": "2026-12-31"
      },
      "group": [ {
        "id": "Group_1",
        "population": [ {
          "id": "InitialPopulation_1",
          "code": {
            "coding": [ {
              "system": "http://terminology.hl7.org/CodeSystem/measure-population",
              "code": "initial-population",
              "display": "Initial Population"
            } ]
          },
          "count": 1
        }, {
          "id": "Denominator_1",
          "code": {
            "coding": [ {
              "system": "http://terminology.hl7.org/CodeSystem/measure-population",
              "code": "denominator",
              "display": "Denominator"
            } ]
          },
          "count": 1
        }, {
          "id": "DenominatorExclusion_1",
          "code": {
            "coding": [ {
              "system": "http://terminology.hl7.org/CodeSystem/measure-population",
              "code": "denominator-exclusion",
              "display": "Denominator Exclusion"
            } ]
          },
          "count": 1
        }, {
          "id": "Numerator_1",
          "code": {
            "coding": [ {
              "system": "http://terminology.hl7.org/CodeSystem/measure-population",
              "code": "numerator",
              "display": "Numerator"
            } ]
          },
          "count": 0
        } ],
        "measureScore": {
          "value": 1.0
        }
      } ],
      "evaluatedResource": [ {
        "reference": "Patient/b3921225-60ae-4ad0-a0b9-fa5d02815150"
      }, {
        "reference": "Encounter/85a1844d-6492-4664-bbf6-2bda77ad319c"
      }, {
        "reference": "Observation/c4af315b-4b2f-4b86-aee3-0233c540715e"
      }, {
        "reference": "Observation/53f582fb-f4ce-4fc7-a295-c74f0bca1689"
      }, {
        "reference": "Condition/12d8fab8-6a28-430a-b8af-36054da507c4"
      }, {
        "reference": "Encounter/f29039f1-ded8-45df-b6f9-981afd11d497"
      } ]
    },
    "request": {
      "method": "PUT",
      "url": "MeasureReport/cc12bcf3-05fa-4b45-8791-c62f5cc5790d"
    }
  } ]
}