{"resourceType":"Bundle","id":"tests-d70985bf-27fc-4f62-b44f-fecfac881b6a-bundle","type":"transaction","entry":[{"resource":{"resourceType":"Patient","id":"d70985bf-27fc-4f62-b44f-fecfac881b6a","meta":{"profile":["http://hl7.org/fhir/us/qicore/StructureDefinition/qicore-patient"]},"extension":[{"url":"http://hl7.org/fhir/us/core/StructureDefinition/us-core-race","extension":[{"url":"ombCategory","valueCoding":{"system":"urn:oid:2.16.840.1.113883.6.238","code":"2028-9","display":"Asian","userSelected":true}},{"url":"text","valueString":"Asian"}]},{"url":"http://hl7.org/fhir/us/core/StructureDefinition/us-core-ethnicity","extension":[{"url":"ombCategory","valueCoding":{"system":"urn:oid:2.16.840.1.113883.6.238","code":"2135-2","display":"Hispanic or Latino","userSelected":true}},{"url":"text","valueString":"Hispanic or Latino"}]}],"identifier":[{"type":{"coding":[{"system":"http://terminology.hl7.org/CodeSystem/v2-0203","code":"MR"}]},"system":"http://hospital.smarthealthit.org","value":"999999995"}],"name":[{"family":"Bertha","given":["Betty"]}],"gender":"male","birthDate":"2001-01-01"},"request":{"method":"PUT","url":"Patient/d70985bf-27fc-4f62-b44f-fecfac881b6a"}},{"resource":{"resourceType":"MeasureReport","id":"043ca507-4f88-4ce6-9ccb-d566aefbf504","meta":{"profile":["http://hl7.org/fhir/us/cqfmeasures/StructureDefinition/test-case-cqfm"]},"contained":[{"resourceType":"Parameters","id":"98b9d3e0-0a30-41bd-984b-b2e3159d60bb-parameters","parameter":[{"name":"subject","valueString":"d70985bf-27fc-4f62-b44f-fecfac881b6a"}]}],"extension":[{"url":"http://hl7.org/fhir/StructureDefinition/cqf-inputParameters","valueReference":{"reference":"#98b9d3e0-0a30-41bd-984b-b2e3159d60bb-parameters"}},{"url":"http://hl7.org/fhir/us/cqfmeasures/StructureDefinition/cqfm-testCaseDescription","valueMarkdown":"Qualifying encounter is Preventive Care Services Established Office Visit, 18 and Up"}],"modifierExtension":[{"url":"http://hl7.org/fhir/us/cqfmeasures/StructureDefinition/cqfm-isTestCase","valueBoolean":true}],"status":"complete","type":"individual","measure":"https://madie.cms.gov/Measure/CMS146FHIRAppropriateTestingforPharyngitis","period":{"start":"2026-01-01","end":"2026-12-31"},"group":[{"id":"Group_1","population":[{"id":"InitialPopulation_1","code":{"coding":[{"system":"http://terminology.hl7.org/CodeSystem/measure-population","code":"initial-population","display":"Initial Population"}]},"count":1},{"id":"Denominator_1","code":{"coding":[{"system":"http://terminology.hl7.org/CodeSystem/measure-population","code":"denominator","display":"Denominator"}]},"count":1},{"id":"DenominatorExclusion_1","code":{"coding":[{"system":"http://terminology.hl7.org/CodeSystem/measure-population","code":"denominator-exclusion","display":"Denominator Exclusion"}]},"count":0},{"id":"Numerator_1","code":{"coding":[{"system":"http://terminology.hl7.org/CodeSystem/measure-population","code":"numerator","display":"Numerator"}]},"count":0}],"measureScore":{"value":0.0},"stratifier":[{"id":"Stratification_1_1","code":[{"text":"Strata-1"}],"stratum":[{"value":{"text":"Strata-1"},"population":[{"id":"InitialPopulation_1","code":{"coding":[{"system":"http://terminology.hl7.org/CodeSystem/measure-population","code":"initial-population","display":"Initial Population"}]},"count":1}]}]},{"id":"Stratification_1_2","code":[{"text":"Strata-2"}],"stratum":[{"value":{"text":"Strata-2"},"population":[{"id":"InitialPopulation_1","code":{"coding":[{"system":"http://terminology.hl7.org/CodeSystem/measure-population","code":"initial-population","display":"Initial Population"}]},"count":1}]}]},{"id":"Stratification_1_3","code":[{"text":"Strata-3"}],"stratum":[{"value":{"text":"Strata-3"},"population":[{"id":"InitialPopulation_1","code":{"coding":[{"system":"http://terminology.hl7.org/CodeSystem/measure-population","code":"initial-population","display":"Initial Population"}]},"count":1}]}]}]}],"evaluatedResource":[{"reference":"Patient/d70985bf-27fc-4f62-b44f-fecfac881b6a"},{"reference":"Encounter/fbbc8faf-f998-4207-b8d7-1c934183382d"},{"reference":"Condition/642529f6-83d9-4756-ac78-25c1ba636dbe"},{"reference":"MedicationRequest/0ac4d8d4-b5f7-4e52-a131-76dd81b35e9b"}]},"request":{"method":"PUT","url":"MeasureReport/043ca507-4f88-4ce6-9ccb-d566aefbf504"}},{"resource":{"resourceType":"Encounter","id":"fbbc8faf-f998-4207-b8d7-1c934183382d","meta":{"profile":["http://hl7.org/fhir/us/qicore/StructureDefinition/qicore-encounter"]},"status":"finished","class":{"system":"http://terminology.hl7.org/CodeSystem/v3-ActCode","code":"AMB","display":"ambulatory"},"type":[{"coding":[{"system":"http://www.ama-assn.org/go/cpt","code":"99395","display":"\tPeriodic comprehensive preventive medicine reevaluation and management of an individual including an age and gender appropriate history, examination, counseling/anticipatory guidance/risk factor reduction interventions, and the ordering of laboratory/diagnostic procedures, established patient; 18-39 years"}]}],"subject":{"reference":"Patient/d70985bf-27fc-4f62-b44f-fecfac881b6a"},"period":{"start":"2026-10-11T00:00:00.000Z","end":"2026-10-11T23:59:59.000Z"}},"request":{"method":"PUT","url":"Encounter/fbbc8faf-f998-4207-b8d7-1c934183382d"}},{"resource":{"resourceType":"MedicationRequest","id":"0ac4d8d4-b5f7-4e52-a131-76dd81b35e9b","meta":{"profile":["http://hl7.org/fhir/us/qicore/StructureDefinition/qicore-medicationrequest"]},"status":"completed","intent":"order","category":[{"coding":[{"system":"http://terminology.hl7.org/CodeSystem/medicationrequest-category","code":"discharge","display":"Discharge"}]}],"medicationCodeableConcept":{"coding":[{"system":"http://www.nlm.nih.gov/research/umls/rxnorm","code":"141963","display":"azithromycin 40 MG/ML Oral Suspension","userSelected":true}]},"subject":{"reference":"Patient/d70985bf-27fc-4f62-b44f-fecfac881b6a"},"authoredOn":"2026-10-12T00:00:00.000Z","requester":{"reference":"Practitioner/example"},"dosageInstruction":[{"timing":{"repeat":{"boundsPeriod":{"start":"2026-10-12T00:00:00.000Z","end":"2026-10-20T00:00:00.000Z"}}}}]},"request":{"method":"PUT","url":"MedicationRequest/0ac4d8d4-b5f7-4e52-a131-76dd81b35e9b"}},{"resource":{"resourceType":"Bundle","id":"IPPass-PreventiveCareEstablishedVisit18Up","type":"transaction","entry":[{"fullUrl":"https://madie.cms.gov/Patient/d70985bf-27fc-4f62-b44f-fecfac881b6a","resource":{"resourceType":"Patient","id":"d70985bf-27fc-4f62-b44f-fecfac881b6a","meta":{"profile":["http://hl7.org/fhir/us/qicore/StructureDefinition/qicore-patient"]},"extension":[{"url":"http://hl7.org/fhir/us/core/StructureDefinition/us-core-race","extension":[{"url":"ombCategory","valueCoding":{"system":"urn:oid:2.16.840.1.113883.6.238","code":"2028-9","display":"Asian","userSelected":true}},{"url":"text","valueString":"Asian"}]},{"url":"http://hl7.org/fhir/us/core/StructureDefinition/us-core-ethnicity","extension":[{"url":"ombCategory","valueCoding":{"system":"urn:oid:2.16.840.1.113883.6.238","code":"2135-2","display":"Hispanic or Latino","userSelected":true}},{"url":"text","valueString":"Hispanic or Latino"}]}],"identifier":[{"type":{"coding":[{"system":"http://terminology.hl7.org/CodeSystem/v2-0203","code":"MR"}]},"system":"http://hospital.smarthealthit.org","value":"999999995"}],"name":[{"family":"Bertha","given":["Betty"]}],"gender":"male","birthDate":"2001-01-01"},"request":{"method":"PUT","url":"Patient/d70985bf-27fc-4f62-b44f-fecfac881b6a"}},{"fullUrl":"https://madie.cms.gov/Encounter/fbbc8faf-f998-4207-b8d7-1c934183382d","resource":{"resourceType":"Encounter","id":"fbbc8faf-f998-4207-b8d7-1c934183382d","meta":{"profile":["http://hl7.org/fhir/us/qicore/StructureDefinition/qicore-encounter"]},"status":"finished","class":{"system":"http://terminology.hl7.org/CodeSystem/v3-ActCode","code":"AMB","display":"ambulatory"},"type":[{"coding":[{"system":"http://www.ama-assn.org/go/cpt","code":"99395","display":"\tPeriodic comprehensive preventive medicine reevaluation and management of an individual including an age and gender appropriate history, examination, counseling/anticipatory guidance/risk factor reduction interventions, and the ordering of laboratory/diagnostic procedures, established patient; 18-39 years"}]}],"subject":{"reference":"Patient/d70985bf-27fc-4f62-b44f-fecfac881b6a"},"period":{"start":"2026-10-11T00:00:00.000Z","end":"2026-10-11T23:59:59.000Z"}},"request":{"method":"PUT","url":"Encounter/fbbc8faf-f998-4207-b8d7-1c934183382d"}},{"fullUrl":"https://madie.cms.gov/Condition/642529f6-83d9-4756-ac78-25c1ba636dbe","resource":{"resourceType":"Condition","id":"642529f6-83d9-4756-ac78-25c1ba636dbe","meta":{"profile":["http://hl7.org/fhir/us/qicore/StructureDefinition/qicore-condition-encounter-diagnosis"]},"clinicalStatus":{"coding":[{"system":"http://terminology.hl7.org/CodeSystem/condition-clinical","code":"active"}]},"category":[{"coding":[{"system":"http://terminology.hl7.org/CodeSystem/condition-category","code":"problem-list-item","display":"Problem List Item"}]}],"code":{"coding":[{"system":"http://snomed.info/sct","code":"17741008","display":"Acute tonsillitis (disorder)"}]},"subject":{"reference":"Patient/d70985bf-27fc-4f62-b44f-fecfac881b6a"},"onsetDateTime":"2026-10-11T12:48:00.000Z"},"request":{"method":"PUT","url":"Condition/642529f6-83d9-4756-ac78-25c1ba636dbe"}},{"fullUrl":"https://madie.cms.gov/MedicationRequest/0ac4d8d4-b5f7-4e52-a131-76dd81b35e9b","resource":{"resourceType":"MedicationRequest","id":"0ac4d8d4-b5f7-4e52-a131-76dd81b35e9b","meta":{"profile":["http://hl7.org/fhir/us/qicore/StructureDefinition/qicore-medicationrequest"]},"status":"completed","intent":"order","category":[{"coding":[{"system":"http://terminology.hl7.org/CodeSystem/medicationrequest-category","code":"discharge","display":"Discharge"}]}],"medicationCodeableConcept":{"coding":[{"system":"http://www.nlm.nih.gov/research/umls/rxnorm","code":"141963","display":"azithromycin 40 MG/ML Oral Suspension","userSelected":true}]},"subject":{"reference":"Patient/d70985bf-27fc-4f62-b44f-fecfac881b6a"},"authoredOn":"2026-10-12T00:00:00.000Z","requester":{"reference":"Practitioner/example"},"dosageInstruction":[{"timing":{"repeat":{"boundsPeriod":{"start":"2026-10-12T00:00:00.000Z","end":"2026-10-20T00:00:00.000Z"}}}}]},"request":{"method":"PUT","url":"MedicationRequest/0ac4d8d4-b5f7-4e52-a131-76dd81b35e9b"}},{"fullUrl":"https://madie.cms.gov/MeasureReport/043ca507-4f88-4ce6-9ccb-d566aefbf504","resource":{"resourceType":"MeasureReport","id":"043ca507-4f88-4ce6-9ccb-d566aefbf504","meta":{"profile":["http://hl7.org/fhir/us/cqfmeasures/StructureDefinition/test-case-cqfm"]},"contained":[{"resourceType":"Parameters","id":"98b9d3e0-0a30-41bd-984b-b2e3159d60bb-parameters","parameter":[{"name":"subject","valueString":"d70985bf-27fc-4f62-b44f-fecfac881b6a"}]}],"extension":[{"url":"http://hl7.org/fhir/StructureDefinition/cqf-inputParameters","valueReference":{"reference":"#98b9d3e0-0a30-41bd-984b-b2e3159d60bb-parameters"}},{"url":"http://hl7.org/fhir/us/cqfmeasures/StructureDefinition/cqfm-testCaseDescription","valueMarkdown":"Qualifying encounter is Preventive Care Services Established Office Visit, 18 and Up"}],"modifierExtension":[{"url":"http://hl7.org/fhir/us/cqfmeasures/StructureDefinition/cqfm-isTestCase","valueBoolean":true}],"status":"complete","type":"individual","measure":"https://madie.cms.gov/Measure/CMS146FHIRAppropriateTestingforPharyngitis","period":{"start":"2026-01-01","end":"2026-12-31"},"group":[{"id":"Group_1","population":[{"id":"InitialPopulation_1","code":{"coding":[{"system":"http://terminology.hl7.org/CodeSystem/measure-population","code":"initial-population","display":"Initial Population"}]},"count":1},{"id":"Denominator_1","code":{"coding":[{"system":"http://terminology.hl7.org/CodeSystem/measure-population","code":"denominator","display":"Denominator"}]},"count":1},{"id":"DenominatorExclusion_1","code":{"coding":[{"system":"http://terminology.hl7.org/CodeSystem/measure-population","code":"denominator-exclusion","display":"Denominator Exclusion"}]},"count":0},{"id":"Numerator_1","code":{"coding":[{"system":"http://terminology.hl7.org/CodeSystem/measure-population","code":"numerator","display":"Numerator"}]},"count":0}],"measureScore":{"value":0.0},"stratifier":[{"id":"Stratification_1_1","code":[{"text":"Strata-1"}],"stratum":[{"value":{"text":"Strata-1"},"population":[{"id":"InitialPopulation_1","code":{"coding":[{"system":"http://terminology.hl7.org/CodeSystem/measure-population","code":"initial-population","display":"Initial Population"}]},"count":1}]}]},{"id":"Stratification_1_2","code":[{"text":"Strata-2"}],"stratum":[{"value":{"text":"Strata-2"},"population":[{"id":"InitialPopulation_1","code":{"coding":[{"system":"http://terminology.hl7.org/CodeSystem/measure-population","code":"initial-population","display":"Initial Population"}]},"count":1}]}]},{"id":"Stratification_1_3","code":[{"text":"Strata-3"}],"stratum":[{"value":{"text":"Strata-3"},"population":[{"id":"InitialPopulation_1","code":{"coding":[{"system":"http://terminology.hl7.org/CodeSystem/measure-population","code":"initial-population","display":"Initial Population"}]},"count":1}]}]}]}],"evaluatedResource":[{"reference":"Patient/d70985bf-27fc-4f62-b44f-fecfac881b6a"},{"reference":"Encounter/fbbc8faf-f998-4207-b8d7-1c934183382d"},{"reference":"Condition/642529f6-83d9-4756-ac78-25c1ba636dbe"},{"reference":"MedicationRequest/0ac4d8d4-b5f7-4e52-a131-76dd81b35e9b"}]},"request":{"method":"PUT","url":"MeasureReport/043ca507-4f88-4ce6-9ccb-d566aefbf504"}}]},"request":{"method":"PUT","url":"Bundle/IPPass-PreventiveCareEstablishedVisit18Up"}},{"resource":{"resourceType":"Condition","id":"642529f6-83d9-4756-ac78-25c1ba636dbe","meta":{"profile":["http://hl7.org/fhir/us/qicore/StructureDefinition/qicore-condition-encounter-diagnosis"]},"clinicalStatus":{"coding":[{"system":"http://terminology.hl7.org/CodeSystem/condition-clinical","code":"active"}]},"category":[{"coding":[{"system":"http://terminology.hl7.org/CodeSystem/condition-category","code":"problem-list-item","display":"Problem List Item"}]}],"code":{"coding":[{"system":"http://snomed.info/sct","code":"17741008","display":"Acute tonsillitis (disorder)"}]},"subject":{"reference":"Patient/d70985bf-27fc-4f62-b44f-fecfac881b6a"},"onsetDateTime":"2026-10-11T12:48:00.000Z"},"request":{"method":"PUT","url":"Condition/642529f6-83d9-4756-ac78-25c1ba636dbe"}}]}