{"resourceType":"Bundle","id":"tests-0b0bcb31-89d5-4246-8b55-fae200385eab-bundle","type":"transaction","entry":[{"resource":{"resourceType":"Encounter","id":"6de88ed8-c9c5-48fc-aac0-63f1d78273d1","meta":{"profile":["http://hl7.org/fhir/us/qicore/StructureDefinition/qicore-encounter"]},"status":"finished","class":{"system":"http://terminology.hl7.org/CodeSystem/v3-ActCode","code":"AMB","display":"ambulatory"},"type":[{"coding":[{"system":"http://www.ama-assn.org/go/cpt","code":"99429","display":"Unlisted preventive medicine service"}]}],"subject":{"reference":"Patient/0b0bcb31-89d5-4246-8b55-fae200385eab"},"period":{"start":"2026-10-11T00:00:00.000Z","end":"2026-10-11T23:59:59.000Z"}},"request":{"method":"PUT","url":"Encounter/6de88ed8-c9c5-48fc-aac0-63f1d78273d1"}},{"resource":{"resourceType":"Bundle","id":"IPPass-UnlistedPreventativeMedSer","type":"transaction","entry":[{"fullUrl":"https://madie.cms.gov/Patient/0b0bcb31-89d5-4246-8b55-fae200385eab","resource":{"resourceType":"Patient","id":"0b0bcb31-89d5-4246-8b55-fae200385eab","meta":{"profile":["http://hl7.org/fhir/us/qicore/StructureDefinition/qicore-patient"]},"extension":[{"url":"http://hl7.org/fhir/us/core/StructureDefinition/us-core-race","extension":[{"url":"ombCategory","valueCoding":{"system":"urn:oid:2.16.840.1.113883.6.238","code":"2028-9","display":"Asian","userSelected":true}},{"url":"text","valueString":"Asian"}]},{"url":"http://hl7.org/fhir/us/core/StructureDefinition/us-core-ethnicity","extension":[{"url":"ombCategory","valueCoding":{"system":"urn:oid:2.16.840.1.113883.6.238","code":"2135-2","display":"Hispanic or Latino","userSelected":true}},{"url":"text","valueString":"Hispanic or Latino"}]}],"identifier":[{"type":{"coding":[{"system":"http://terminology.hl7.org/CodeSystem/v2-0203","code":"MR"}]},"system":"http://hospital.smarthealthit.org","value":"999999995"}],"name":[{"family":"Bertha","given":["Betty"]}],"gender":"male","birthDate":"2021-01-01"},"request":{"method":"PUT","url":"Patient/0b0bcb31-89d5-4246-8b55-fae200385eab"}},{"fullUrl":"https://madie.cms.gov/Encounter/6de88ed8-c9c5-48fc-aac0-63f1d78273d1","resource":{"resourceType":"Encounter","id":"6de88ed8-c9c5-48fc-aac0-63f1d78273d1","meta":{"profile":["http://hl7.org/fhir/us/qicore/StructureDefinition/qicore-encounter"]},"status":"finished","class":{"system":"http://terminology.hl7.org/CodeSystem/v3-ActCode","code":"AMB","display":"ambulatory"},"type":[{"coding":[{"system":"http://www.ama-assn.org/go/cpt","code":"99429","display":"Unlisted preventive medicine service"}]}],"subject":{"reference":"Patient/0b0bcb31-89d5-4246-8b55-fae200385eab"},"period":{"start":"2026-10-11T00:00:00.000Z","end":"2026-10-11T23:59:59.000Z"}},"request":{"method":"PUT","url":"Encounter/6de88ed8-c9c5-48fc-aac0-63f1d78273d1"}},{"fullUrl":"https://madie.cms.gov/Condition/47754321-a49e-4090-b3a8-d9f85d8e906e","resource":{"resourceType":"Condition","id":"47754321-a49e-4090-b3a8-d9f85d8e906e","meta":{"profile":["http://hl7.org/fhir/us/qicore/StructureDefinition/qicore-condition-encounter-diagnosis"]},"clinicalStatus":{"coding":[{"system":"http://terminology.hl7.org/CodeSystem/condition-clinical","code":"active"}]},"category":[{"coding":[{"system":"http://terminology.hl7.org/CodeSystem/condition-category","code":"problem-list-item","display":"Problem List Item"}]}],"code":{"coding":[{"system":"http://snomed.info/sct","code":"17741008","display":"Acute tonsillitis (disorder)"}]},"subject":{"reference":"Patient/0b0bcb31-89d5-4246-8b55-fae200385eab"},"onsetDateTime":"2026-10-11T12:48:00.000Z"},"request":{"method":"PUT","url":"Condition/47754321-a49e-4090-b3a8-d9f85d8e906e"}},{"fullUrl":"https://madie.cms.gov/MedicationRequest/a5fc3354-fae4-4b14-8b1d-46ffd7eafe9d","resource":{"resourceType":"MedicationRequest","id":"a5fc3354-fae4-4b14-8b1d-46ffd7eafe9d","meta":{"profile":["http://hl7.org/fhir/us/qicore/StructureDefinition/qicore-medicationrequest"]},"status":"completed","intent":"order","category":[{"coding":[{"system":"http://terminology.hl7.org/CodeSystem/medicationrequest-category","code":"discharge","display":"Discharge"}]}],"medicationCodeableConcept":{"coding":[{"system":"http://www.nlm.nih.gov/research/umls/rxnorm","code":"141963","display":"azithromycin 40 MG/ML Oral Suspension","userSelected":true}]},"subject":{"reference":"Patient/0b0bcb31-89d5-4246-8b55-fae200385eab"},"authoredOn":"2026-10-12T00:00:00.000Z","requester":{"reference":"Practitioner/example"},"dosageInstruction":[{"timing":{"repeat":{"boundsPeriod":{"start":"2026-10-12T00:00:00.000Z","end":"2026-10-20T00:00:00.000Z"}}}}]},"request":{"method":"PUT","url":"MedicationRequest/a5fc3354-fae4-4b14-8b1d-46ffd7eafe9d"}},{"fullUrl":"https://madie.cms.gov/MeasureReport/bf7a1370-f686-4209-a5b1-4bd4bcc59cfd","resource":{"resourceType":"MeasureReport","id":"bf7a1370-f686-4209-a5b1-4bd4bcc59cfd","meta":{"profile":["http://hl7.org/fhir/us/cqfmeasures/StructureDefinition/test-case-cqfm"]},"contained":[{"resourceType":"Parameters","id":"2635319a-0243-45e8-a357-42af515d7c29-parameters","parameter":[{"name":"subject","valueString":"0b0bcb31-89d5-4246-8b55-fae200385eab"}]}],"extension":[{"url":"http://hl7.org/fhir/StructureDefinition/cqf-inputParameters","valueReference":{"reference":"#2635319a-0243-45e8-a357-42af515d7c29-parameters"}},{"url":"http://hl7.org/fhir/us/cqfmeasures/StructureDefinition/cqfm-testCaseDescription","valueMarkdown":"Qualifying encounter is Unlisted preventive medicine service"}],"modifierExtension":[{"url":"http://hl7.org/fhir/us/cqfmeasures/StructureDefinition/cqfm-isTestCase","valueBoolean":true}],"status":"complete","type":"individual","measure":"https://madie.cms.gov/Measure/CMS146FHIRAppropriateTestingforPharyngitis","period":{"start":"2026-01-01","end":"2026-12-31"},"group":[{"id":"Group_1","population":[{"id":"InitialPopulation_1","code":{"coding":[{"system":"http://terminology.hl7.org/CodeSystem/measure-population","code":"initial-population","display":"Initial Population"}]},"count":1},{"id":"Denominator_1","code":{"coding":[{"system":"http://terminology.hl7.org/CodeSystem/measure-population","code":"denominator","display":"Denominator"}]},"count":1},{"id":"DenominatorExclusion_1","code":{"coding":[{"system":"http://terminology.hl7.org/CodeSystem/measure-population","code":"denominator-exclusion","display":"Denominator Exclusion"}]},"count":0},{"id":"Numerator_1","code":{"coding":[{"system":"http://terminology.hl7.org/CodeSystem/measure-population","code":"numerator","display":"Numerator"}]},"count":0}],"measureScore":{"value":0.0},"stratifier":[{"id":"Stratification_1_1","code":[{"text":"Strata-1"}],"stratum":[{"value":{"text":"Strata-1"},"population":[{"id":"InitialPopulation_1","code":{"coding":[{"system":"http://terminology.hl7.org/CodeSystem/measure-population","code":"initial-population","display":"Initial Population"}]},"count":1}]}]},{"id":"Stratification_1_2","code":[{"text":"Strata-2"}],"stratum":[{"value":{"text":"Strata-2"},"population":[{"id":"InitialPopulation_1","code":{"coding":[{"system":"http://terminology.hl7.org/CodeSystem/measure-population","code":"initial-population","display":"Initial Population"}]},"count":1}]}]},{"id":"Stratification_1_3","code":[{"text":"Strata-3"}],"stratum":[{"value":{"text":"Strata-3"},"population":[{"id":"InitialPopulation_1","code":{"coding":[{"system":"http://terminology.hl7.org/CodeSystem/measure-population","code":"initial-population","display":"Initial Population"}]},"count":1}]}]}]}],"evaluatedResource":[{"reference":"Patient/0b0bcb31-89d5-4246-8b55-fae200385eab"},{"reference":"Encounter/6de88ed8-c9c5-48fc-aac0-63f1d78273d1"},{"reference":"Condition/47754321-a49e-4090-b3a8-d9f85d8e906e"},{"reference":"MedicationRequest/a5fc3354-fae4-4b14-8b1d-46ffd7eafe9d"}]},"request":{"method":"PUT","url":"MeasureReport/bf7a1370-f686-4209-a5b1-4bd4bcc59cfd"}}]},"request":{"method":"PUT","url":"Bundle/IPPass-UnlistedPreventativeMedSer"}},{"resource":{"resourceType":"MeasureReport","id":"bf7a1370-f686-4209-a5b1-4bd4bcc59cfd","meta":{"profile":["http://hl7.org/fhir/us/cqfmeasures/StructureDefinition/test-case-cqfm"]},"contained":[{"resourceType":"Parameters","id":"2635319a-0243-45e8-a357-42af515d7c29-parameters","parameter":[{"name":"subject","valueString":"0b0bcb31-89d5-4246-8b55-fae200385eab"}]}],"extension":[{"url":"http://hl7.org/fhir/StructureDefinition/cqf-inputParameters","valueReference":{"reference":"#2635319a-0243-45e8-a357-42af515d7c29-parameters"}},{"url":"http://hl7.org/fhir/us/cqfmeasures/StructureDefinition/cqfm-testCaseDescription","valueMarkdown":"Qualifying encounter is Unlisted preventive medicine service"}],"modifierExtension":[{"url":"http://hl7.org/fhir/us/cqfmeasures/StructureDefinition/cqfm-isTestCase","valueBoolean":true}],"status":"complete","type":"individual","measure":"https://madie.cms.gov/Measure/CMS146FHIRAppropriateTestingforPharyngitis","period":{"start":"2026-01-01","end":"2026-12-31"},"group":[{"id":"Group_1","population":[{"id":"InitialPopulation_1","code":{"coding":[{"system":"http://terminology.hl7.org/CodeSystem/measure-population","code":"initial-population","display":"Initial Population"}]},"count":1},{"id":"Denominator_1","code":{"coding":[{"system":"http://terminology.hl7.org/CodeSystem/measure-population","code":"denominator","display":"Denominator"}]},"count":1},{"id":"DenominatorExclusion_1","code":{"coding":[{"system":"http://terminology.hl7.org/CodeSystem/measure-population","code":"denominator-exclusion","display":"Denominator Exclusion"}]},"count":0},{"id":"Numerator_1","code":{"coding":[{"system":"http://terminology.hl7.org/CodeSystem/measure-population","code":"numerator","display":"Numerator"}]},"count":0}],"measureScore":{"value":0.0},"stratifier":[{"id":"Stratification_1_1","code":[{"text":"Strata-1"}],"stratum":[{"value":{"text":"Strata-1"},"population":[{"id":"InitialPopulation_1","code":{"coding":[{"system":"http://terminology.hl7.org/CodeSystem/measure-population","code":"initial-population","display":"Initial Population"}]},"count":1}]}]},{"id":"Stratification_1_2","code":[{"text":"Strata-2"}],"stratum":[{"value":{"text":"Strata-2"},"population":[{"id":"InitialPopulation_1","code":{"coding":[{"system":"http://terminology.hl7.org/CodeSystem/measure-population","code":"initial-population","display":"Initial Population"}]},"count":1}]}]},{"id":"Stratification_1_3","code":[{"text":"Strata-3"}],"stratum":[{"value":{"text":"Strata-3"},"population":[{"id":"InitialPopulation_1","code":{"coding":[{"system":"http://terminology.hl7.org/CodeSystem/measure-population","code":"initial-population","display":"Initial Population"}]},"count":1}]}]}]}],"evaluatedResource":[{"reference":"Patient/0b0bcb31-89d5-4246-8b55-fae200385eab"},{"reference":"Encounter/6de88ed8-c9c5-48fc-aac0-63f1d78273d1"},{"reference":"Condition/47754321-a49e-4090-b3a8-d9f85d8e906e"},{"reference":"MedicationRequest/a5fc3354-fae4-4b14-8b1d-46ffd7eafe9d"}]},"request":{"method":"PUT","url":"MeasureReport/bf7a1370-f686-4209-a5b1-4bd4bcc59cfd"}},{"resource":{"resourceType":"Patient","id":"0b0bcb31-89d5-4246-8b55-fae200385eab","meta":{"profile":["http://hl7.org/fhir/us/qicore/StructureDefinition/qicore-patient"]},"extension":[{"url":"http://hl7.org/fhir/us/core/StructureDefinition/us-core-race","extension":[{"url":"ombCategory","valueCoding":{"system":"urn:oid:2.16.840.1.113883.6.238","code":"2028-9","display":"Asian","userSelected":true}},{"url":"text","valueString":"Asian"}]},{"url":"http://hl7.org/fhir/us/core/StructureDefinition/us-core-ethnicity","extension":[{"url":"ombCategory","valueCoding":{"system":"urn:oid:2.16.840.1.113883.6.238","code":"2135-2","display":"Hispanic or Latino","userSelected":true}},{"url":"text","valueString":"Hispanic or Latino"}]}],"identifier":[{"type":{"coding":[{"system":"http://terminology.hl7.org/CodeSystem/v2-0203","code":"MR"}]},"system":"http://hospital.smarthealthit.org","value":"999999995"}],"name":[{"family":"Bertha","given":["Betty"]}],"gender":"male","birthDate":"2021-01-01"},"request":{"method":"PUT","url":"Patient/0b0bcb31-89d5-4246-8b55-fae200385eab"}},{"resource":{"resourceType":"Condition","id":"47754321-a49e-4090-b3a8-d9f85d8e906e","meta":{"profile":["http://hl7.org/fhir/us/qicore/StructureDefinition/qicore-condition-encounter-diagnosis"]},"clinicalStatus":{"coding":[{"system":"http://terminology.hl7.org/CodeSystem/condition-clinical","code":"active"}]},"category":[{"coding":[{"system":"http://terminology.hl7.org/CodeSystem/condition-category","code":"problem-list-item","display":"Problem List Item"}]}],"code":{"coding":[{"system":"http://snomed.info/sct","code":"17741008","display":"Acute tonsillitis (disorder)"}]},"subject":{"reference":"Patient/0b0bcb31-89d5-4246-8b55-fae200385eab"},"onsetDateTime":"2026-10-11T12:48:00.000Z"},"request":{"method":"PUT","url":"Condition/47754321-a49e-4090-b3a8-d9f85d8e906e"}},{"resource":{"resourceType":"MedicationRequest","id":"a5fc3354-fae4-4b14-8b1d-46ffd7eafe9d","meta":{"profile":["http://hl7.org/fhir/us/qicore/StructureDefinition/qicore-medicationrequest"]},"status":"completed","intent":"order","category":[{"coding":[{"system":"http://terminology.hl7.org/CodeSystem/medicationrequest-category","code":"discharge","display":"Discharge"}]}],"medicationCodeableConcept":{"coding":[{"system":"http://www.nlm.nih.gov/research/umls/rxnorm","code":"141963","display":"azithromycin 40 MG/ML Oral Suspension","userSelected":true}]},"subject":{"reference":"Patient/0b0bcb31-89d5-4246-8b55-fae200385eab"},"authoredOn":"2026-10-12T00:00:00.000Z","requester":{"reference":"Practitioner/example"},"dosageInstruction":[{"timing":{"repeat":{"boundsPeriod":{"start":"2026-10-12T00:00:00.000Z","end":"2026-10-20T00:00:00.000Z"}}}}]},"request":{"method":"PUT","url":"MedicationRequest/a5fc3354-fae4-4b14-8b1d-46ffd7eafe9d"}}]}