{"resourceType":"Bundle","id":"tests-d2f3c4a0-b4bb-4407-9a78-e76775ff5bd1-bundle","type":"transaction","entry":[{"resource":{"resourceType":"Encounter","id":"019ed070-3122-412e-8b41-49fd4bcc48e8","meta":{"profile":["http://hl7.org/fhir/us/qicore/StructureDefinition/qicore-encounter"]},"status":"finished","class":{"system":"http://terminology.hl7.org/CodeSystem/v3-ActCode","code":"AMB","display":"ambulatory"},"type":[{"coding":[{"system":"http://snomed.info/sct","code":"185463005","display":"Visit out of hours (procedure)"}]}],"subject":{"reference":"Patient/d2f3c4a0-b4bb-4407-9a78-e76775ff5bd1"},"period":{"start":"2026-10-11T12:45:00.000Z","end":"2026-10-11T12:59:00.000Z"}},"request":{"method":"PUT","url":"Encounter/019ed070-3122-412e-8b41-49fd4bcc48e8"}},{"resource":{"resourceType":"Condition","id":"6d929271-acc2-4d72-89ba-2929185e6ad8","meta":{"profile":["http://hl7.org/fhir/us/qicore/StructureDefinition/qicore-condition-encounter-diagnosis"]},"clinicalStatus":{"coding":[{"system":"http://terminology.hl7.org/CodeSystem/condition-clinical","code":"active"}]},"category":[{"coding":[{"system":"http://terminology.hl7.org/CodeSystem/condition-category","code":"problem-list-item","display":"Problem List Item"}]}],"code":{"coding":[{"system":"http://snomed.info/sct","code":"17741008","display":"Acute tonsillitis (disorder)"}]},"subject":{"reference":"Patient/d2f3c4a0-b4bb-4407-9a78-e76775ff5bd1"},"onsetDateTime":"2026-10-11T12:48:00.000Z"},"request":{"method":"PUT","url":"Condition/6d929271-acc2-4d72-89ba-2929185e6ad8"}},{"resource":{"resourceType":"MeasureReport","id":"c96e2610-e03f-4663-b38d-0e12d9bd95a5","meta":{"profile":["http://hl7.org/fhir/us/cqfmeasures/StructureDefinition/test-case-cqfm"]},"contained":[{"resourceType":"Parameters","id":"eb9a91db-acca-4f07-9ce6-a453838f568b-parameters","parameter":[{"name":"subject","valueString":"d2f3c4a0-b4bb-4407-9a78-e76775ff5bd1"}]}],"extension":[{"url":"http://hl7.org/fhir/StructureDefinition/cqf-inputParameters","valueReference":{"reference":"#eb9a91db-acca-4f07-9ce6-a453838f568b-parameters"}},{"url":"http://hl7.org/fhir/us/cqfmeasures/StructureDefinition/cqfm-testCaseDescription","valueMarkdown":"Qualifying encounter is Office Visit"}],"modifierExtension":[{"url":"http://hl7.org/fhir/us/cqfmeasures/StructureDefinition/cqfm-isTestCase","valueBoolean":true}],"status":"complete","type":"individual","measure":"https://madie.cms.gov/Measure/CMS146FHIRAppropriateTestingforPharyngitis","period":{"start":"2026-01-01","end":"2026-12-31"},"group":[{"id":"Group_1","population":[{"id":"InitialPopulation_1","code":{"coding":[{"system":"http://terminology.hl7.org/CodeSystem/measure-population","code":"initial-population","display":"Initial Population"}]},"count":1},{"id":"Denominator_1","code":{"coding":[{"system":"http://terminology.hl7.org/CodeSystem/measure-population","code":"denominator","display":"Denominator"}]},"count":1},{"id":"DenominatorExclusion_1","code":{"coding":[{"system":"http://terminology.hl7.org/CodeSystem/measure-population","code":"denominator-exclusion","display":"Denominator Exclusion"}]},"count":0},{"id":"Numerator_1","code":{"coding":[{"system":"http://terminology.hl7.org/CodeSystem/measure-population","code":"numerator","display":"Numerator"}]},"count":0}],"measureScore":{"value":0.0},"stratifier":[{"id":"Stratification_1_1","code":[{"text":"Strata-1"}],"stratum":[{"value":{"text":"Strata-1"},"population":[{"id":"InitialPopulation_1","code":{"coding":[{"system":"http://terminology.hl7.org/CodeSystem/measure-population","code":"initial-population","display":"Initial Population"}]},"count":1}]}]},{"id":"Stratification_1_2","code":[{"text":"Strata-2"}],"stratum":[{"value":{"text":"Strata-2"},"population":[{"id":"InitialPopulation_1","code":{"coding":[{"system":"http://terminology.hl7.org/CodeSystem/measure-population","code":"initial-population","display":"Initial Population"}]},"count":1}]}]},{"id":"Stratification_1_3","code":[{"text":"Strata-3"}],"stratum":[{"value":{"text":"Strata-3"},"population":[{"id":"InitialPopulation_1","code":{"coding":[{"system":"http://terminology.hl7.org/CodeSystem/measure-population","code":"initial-population","display":"Initial Population"}]},"count":1}]}]}]}],"evaluatedResource":[{"reference":"Patient/d2f3c4a0-b4bb-4407-9a78-e76775ff5bd1"},{"reference":"Encounter/019ed070-3122-412e-8b41-49fd4bcc48e8"},{"reference":"Condition/6d929271-acc2-4d72-89ba-2929185e6ad8"},{"reference":"MedicationRequest/07f56fa9-fadd-4a11-bba3-812732617a37"}]},"request":{"method":"PUT","url":"MeasureReport/c96e2610-e03f-4663-b38d-0e12d9bd95a5"}},{"resource":{"resourceType":"MedicationRequest","id":"07f56fa9-fadd-4a11-bba3-812732617a37","meta":{"profile":["http://hl7.org/fhir/us/qicore/StructureDefinition/qicore-medicationrequest"]},"status":"completed","intent":"order","category":[{"coding":[{"system":"http://terminology.hl7.org/CodeSystem/medicationrequest-category","code":"discharge","display":"Discharge"}]}],"medicationCodeableConcept":{"coding":[{"system":"http://www.nlm.nih.gov/research/umls/rxnorm","code":"141963","display":"azithromycin 40 MG/ML Oral Suspension","userSelected":true}]},"subject":{"reference":"Patient/d2f3c4a0-b4bb-4407-9a78-e76775ff5bd1"},"authoredOn":"2026-10-12T00:00:00.000Z","requester":{"reference":"Practitioner/example"},"dosageInstruction":[{"timing":{"repeat":{"boundsPeriod":{"start":"2026-10-12T00:00:00.000Z","end":"2026-10-20T00:00:00.000Z"}}}}]},"request":{"method":"PUT","url":"MedicationRequest/07f56fa9-fadd-4a11-bba3-812732617a37"}},{"resource":{"resourceType":"Patient","id":"d2f3c4a0-b4bb-4407-9a78-e76775ff5bd1","meta":{"profile":["http://hl7.org/fhir/us/qicore/StructureDefinition/qicore-patient"]},"extension":[{"url":"http://hl7.org/fhir/us/core/StructureDefinition/us-core-race","extension":[{"url":"ombCategory","valueCoding":{"system":"urn:oid:2.16.840.1.113883.6.238","code":"2028-9","display":"Asian","userSelected":true}},{"url":"text","valueString":"Asian"}]},{"url":"http://hl7.org/fhir/us/core/StructureDefinition/us-core-ethnicity","extension":[{"url":"ombCategory","valueCoding":{"system":"urn:oid:2.16.840.1.113883.6.238","code":"2135-2","display":"Hispanic or Latino","userSelected":true}},{"url":"text","valueString":"Hispanic or Latino"}]}],"identifier":[{"type":{"coding":[{"system":"http://terminology.hl7.org/CodeSystem/v2-0203","code":"MR"}]},"system":"http://hospital.smarthealthit.org","value":"999999995"}],"name":[{"family":"Bertha","given":["Betty"]}],"gender":"male","birthDate":"2021-01-01"},"request":{"method":"PUT","url":"Patient/d2f3c4a0-b4bb-4407-9a78-e76775ff5bd1"}},{"resource":{"resourceType":"Bundle","id":"IPPass-OfficeVisit","type":"transaction","entry":[{"fullUrl":"https://madie.cms.gov/Patient/d2f3c4a0-b4bb-4407-9a78-e76775ff5bd1","resource":{"resourceType":"Patient","id":"d2f3c4a0-b4bb-4407-9a78-e76775ff5bd1","meta":{"profile":["http://hl7.org/fhir/us/qicore/StructureDefinition/qicore-patient"]},"extension":[{"url":"http://hl7.org/fhir/us/core/StructureDefinition/us-core-race","extension":[{"url":"ombCategory","valueCoding":{"system":"urn:oid:2.16.840.1.113883.6.238","code":"2028-9","display":"Asian","userSelected":true}},{"url":"text","valueString":"Asian"}]},{"url":"http://hl7.org/fhir/us/core/StructureDefinition/us-core-ethnicity","extension":[{"url":"ombCategory","valueCoding":{"system":"urn:oid:2.16.840.1.113883.6.238","code":"2135-2","display":"Hispanic or Latino","userSelected":true}},{"url":"text","valueString":"Hispanic or Latino"}]}],"identifier":[{"type":{"coding":[{"system":"http://terminology.hl7.org/CodeSystem/v2-0203","code":"MR"}]},"system":"http://hospital.smarthealthit.org","value":"999999995"}],"name":[{"family":"Bertha","given":["Betty"]}],"gender":"male","birthDate":"2021-01-01"},"request":{"method":"PUT","url":"Patient/d2f3c4a0-b4bb-4407-9a78-e76775ff5bd1"}},{"fullUrl":"https://madie.cms.gov/Encounter/019ed070-3122-412e-8b41-49fd4bcc48e8","resource":{"resourceType":"Encounter","id":"019ed070-3122-412e-8b41-49fd4bcc48e8","meta":{"profile":["http://hl7.org/fhir/us/qicore/StructureDefinition/qicore-encounter"]},"status":"finished","class":{"system":"http://terminology.hl7.org/CodeSystem/v3-ActCode","code":"AMB","display":"ambulatory"},"type":[{"coding":[{"system":"http://snomed.info/sct","code":"185463005","display":"Visit out of hours (procedure)"}]}],"subject":{"reference":"Patient/d2f3c4a0-b4bb-4407-9a78-e76775ff5bd1"},"period":{"start":"2026-10-11T12:45:00.000Z","end":"2026-10-11T12:59:00.000Z"}},"request":{"method":"PUT","url":"Encounter/019ed070-3122-412e-8b41-49fd4bcc48e8"}},{"fullUrl":"https://madie.cms.gov/Condition/6d929271-acc2-4d72-89ba-2929185e6ad8","resource":{"resourceType":"Condition","id":"6d929271-acc2-4d72-89ba-2929185e6ad8","meta":{"profile":["http://hl7.org/fhir/us/qicore/StructureDefinition/qicore-condition-encounter-diagnosis"]},"clinicalStatus":{"coding":[{"system":"http://terminology.hl7.org/CodeSystem/condition-clinical","code":"active"}]},"category":[{"coding":[{"system":"http://terminology.hl7.org/CodeSystem/condition-category","code":"problem-list-item","display":"Problem List Item"}]}],"code":{"coding":[{"system":"http://snomed.info/sct","code":"17741008","display":"Acute tonsillitis (disorder)"}]},"subject":{"reference":"Patient/d2f3c4a0-b4bb-4407-9a78-e76775ff5bd1"},"onsetDateTime":"2026-10-11T12:48:00.000Z"},"request":{"method":"PUT","url":"Condition/6d929271-acc2-4d72-89ba-2929185e6ad8"}},{"fullUrl":"https://madie.cms.gov/MedicationRequest/07f56fa9-fadd-4a11-bba3-812732617a37","resource":{"resourceType":"MedicationRequest","id":"07f56fa9-fadd-4a11-bba3-812732617a37","meta":{"profile":["http://hl7.org/fhir/us/qicore/StructureDefinition/qicore-medicationrequest"]},"status":"completed","intent":"order","category":[{"coding":[{"system":"http://terminology.hl7.org/CodeSystem/medicationrequest-category","code":"discharge","display":"Discharge"}]}],"medicationCodeableConcept":{"coding":[{"system":"http://www.nlm.nih.gov/research/umls/rxnorm","code":"141963","display":"azithromycin 40 MG/ML Oral Suspension","userSelected":true}]},"subject":{"reference":"Patient/d2f3c4a0-b4bb-4407-9a78-e76775ff5bd1"},"authoredOn":"2026-10-12T00:00:00.000Z","requester":{"reference":"Practitioner/example"},"dosageInstruction":[{"timing":{"repeat":{"boundsPeriod":{"start":"2026-10-12T00:00:00.000Z","end":"2026-10-20T00:00:00.000Z"}}}}]},"request":{"method":"PUT","url":"MedicationRequest/07f56fa9-fadd-4a11-bba3-812732617a37"}},{"fullUrl":"https://madie.cms.gov/MeasureReport/c96e2610-e03f-4663-b38d-0e12d9bd95a5","resource":{"resourceType":"MeasureReport","id":"c96e2610-e03f-4663-b38d-0e12d9bd95a5","meta":{"profile":["http://hl7.org/fhir/us/cqfmeasures/StructureDefinition/test-case-cqfm"]},"contained":[{"resourceType":"Parameters","id":"eb9a91db-acca-4f07-9ce6-a453838f568b-parameters","parameter":[{"name":"subject","valueString":"d2f3c4a0-b4bb-4407-9a78-e76775ff5bd1"}]}],"extension":[{"url":"http://hl7.org/fhir/StructureDefinition/cqf-inputParameters","valueReference":{"reference":"#eb9a91db-acca-4f07-9ce6-a453838f568b-parameters"}},{"url":"http://hl7.org/fhir/us/cqfmeasures/StructureDefinition/cqfm-testCaseDescription","valueMarkdown":"Qualifying encounter is Office Visit"}],"modifierExtension":[{"url":"http://hl7.org/fhir/us/cqfmeasures/StructureDefinition/cqfm-isTestCase","valueBoolean":true}],"status":"complete","type":"individual","measure":"https://madie.cms.gov/Measure/CMS146FHIRAppropriateTestingforPharyngitis","period":{"start":"2026-01-01","end":"2026-12-31"},"group":[{"id":"Group_1","population":[{"id":"InitialPopulation_1","code":{"coding":[{"system":"http://terminology.hl7.org/CodeSystem/measure-population","code":"initial-population","display":"Initial Population"}]},"count":1},{"id":"Denominator_1","code":{"coding":[{"system":"http://terminology.hl7.org/CodeSystem/measure-population","code":"denominator","display":"Denominator"}]},"count":1},{"id":"DenominatorExclusion_1","code":{"coding":[{"system":"http://terminology.hl7.org/CodeSystem/measure-population","code":"denominator-exclusion","display":"Denominator Exclusion"}]},"count":0},{"id":"Numerator_1","code":{"coding":[{"system":"http://terminology.hl7.org/CodeSystem/measure-population","code":"numerator","display":"Numerator"}]},"count":0}],"measureScore":{"value":0.0},"stratifier":[{"id":"Stratification_1_1","code":[{"text":"Strata-1"}],"stratum":[{"value":{"text":"Strata-1"},"population":[{"id":"InitialPopulation_1","code":{"coding":[{"system":"http://terminology.hl7.org/CodeSystem/measure-population","code":"initial-population","display":"Initial Population"}]},"count":1}]}]},{"id":"Stratification_1_2","code":[{"text":"Strata-2"}],"stratum":[{"value":{"text":"Strata-2"},"population":[{"id":"InitialPopulation_1","code":{"coding":[{"system":"http://terminology.hl7.org/CodeSystem/measure-population","code":"initial-population","display":"Initial Population"}]},"count":1}]}]},{"id":"Stratification_1_3","code":[{"text":"Strata-3"}],"stratum":[{"value":{"text":"Strata-3"},"population":[{"id":"InitialPopulation_1","code":{"coding":[{"system":"http://terminology.hl7.org/CodeSystem/measure-population","code":"initial-population","display":"Initial Population"}]},"count":1}]}]}]}],"evaluatedResource":[{"reference":"Patient/d2f3c4a0-b4bb-4407-9a78-e76775ff5bd1"},{"reference":"Encounter/019ed070-3122-412e-8b41-49fd4bcc48e8"},{"reference":"Condition/6d929271-acc2-4d72-89ba-2929185e6ad8"},{"reference":"MedicationRequest/07f56fa9-fadd-4a11-bba3-812732617a37"}]},"request":{"method":"PUT","url":"MeasureReport/c96e2610-e03f-4663-b38d-0e12d9bd95a5"}}]},"request":{"method":"PUT","url":"Bundle/IPPass-OfficeVisit"}}]}