{"resourceType":"Bundle","id":"tests-8120cffc-faec-4295-93f9-a30275075ee5-bundle","type":"transaction","entry":[{"resource":{"resourceType":"Patient","id":"8120cffc-faec-4295-93f9-a30275075ee5","meta":{"profile":["http://hl7.org/fhir/us/qicore/StructureDefinition/qicore-patient"]},"extension":[{"url":"http://hl7.org/fhir/us/core/StructureDefinition/us-core-race","extension":[{"url":"ombCategory","valueCoding":{"system":"urn:oid:2.16.840.1.113883.6.238","code":"2028-9","display":"Asian","userSelected":true}},{"url":"text","valueString":"Asian"}]},{"url":"http://hl7.org/fhir/us/core/StructureDefinition/us-core-ethnicity","extension":[{"url":"ombCategory","valueCoding":{"system":"urn:oid:2.16.840.1.113883.6.238","code":"2135-2","display":"Hispanic or Latino","userSelected":true}},{"url":"text","valueString":"Hispanic or Latino"}]}],"identifier":[{"type":{"coding":[{"system":"http://terminology.hl7.org/CodeSystem/v2-0203","code":"MR"}]},"system":"http://hospital.smarthealthit.org","value":"999999995"}],"name":[{"family":"Bertha","given":["Betty"]}],"gender":"male","birthDate":"2021-01-01"},"request":{"method":"PUT","url":"Patient/8120cffc-faec-4295-93f9-a30275075ee5"}},{"resource":{"resourceType":"MeasureReport","id":"cc906ec5-eee0-45d6-942d-cd199c7e12f7","meta":{"profile":["http://hl7.org/fhir/us/cqfmeasures/StructureDefinition/test-case-cqfm"]},"contained":[{"resourceType":"Parameters","id":"20b71730-7086-4f18-9c52-3bfada804609-parameters","parameter":[{"name":"subject","valueString":"8120cffc-faec-4295-93f9-a30275075ee5"}]}],"extension":[{"url":"http://hl7.org/fhir/StructureDefinition/cqf-inputParameters","valueReference":{"reference":"#20b71730-7086-4f18-9c52-3bfada804609-parameters"}},{"url":"http://hl7.org/fhir/us/cqfmeasures/StructureDefinition/cqfm-testCaseDescription","valueMarkdown":"Qualifying encounter is Preventive Care Services Group Counseling"}],"modifierExtension":[{"url":"http://hl7.org/fhir/us/cqfmeasures/StructureDefinition/cqfm-isTestCase","valueBoolean":true}],"status":"complete","type":"individual","measure":"https://madie.cms.gov/Measure/CMS146FHIRAppropriateTestingforPharyngitis","period":{"start":"2026-01-01","end":"2026-12-31"},"group":[{"id":"Group_1","population":[{"id":"InitialPopulation_1","code":{"coding":[{"system":"http://terminology.hl7.org/CodeSystem/measure-population","code":"initial-population","display":"Initial Population"}]},"count":1},{"id":"Denominator_1","code":{"coding":[{"system":"http://terminology.hl7.org/CodeSystem/measure-population","code":"denominator","display":"Denominator"}]},"count":1},{"id":"DenominatorExclusion_1","code":{"coding":[{"system":"http://terminology.hl7.org/CodeSystem/measure-population","code":"denominator-exclusion","display":"Denominator Exclusion"}]},"count":0},{"id":"Numerator_1","code":{"coding":[{"system":"http://terminology.hl7.org/CodeSystem/measure-population","code":"numerator","display":"Numerator"}]},"count":0}],"measureScore":{"value":0.0},"stratifier":[{"id":"Stratification_1_1","code":[{"text":"Strata-1"}],"stratum":[{"value":{"text":"Strata-1"},"population":[{"id":"InitialPopulation_1","code":{"coding":[{"system":"http://terminology.hl7.org/CodeSystem/measure-population","code":"initial-population","display":"Initial Population"}]},"count":1}]}]},{"id":"Stratification_1_2","code":[{"text":"Strata-2"}],"stratum":[{"value":{"text":"Strata-2"},"population":[{"id":"InitialPopulation_1","code":{"coding":[{"system":"http://terminology.hl7.org/CodeSystem/measure-population","code":"initial-population","display":"Initial Population"}]},"count":1}]}]},{"id":"Stratification_1_3","code":[{"text":"Strata-3"}],"stratum":[{"value":{"text":"Strata-3"},"population":[{"id":"InitialPopulation_1","code":{"coding":[{"system":"http://terminology.hl7.org/CodeSystem/measure-population","code":"initial-population","display":"Initial Population"}]},"count":1}]}]}]}],"evaluatedResource":[{"reference":"Patient/8120cffc-faec-4295-93f9-a30275075ee5"},{"reference":"Encounter/14aaeabf-0a98-4b25-a706-eefd81ede51d"},{"reference":"Condition/0b86440a-967b-433e-9fc8-d5fdfae797c6"},{"reference":"MedicationRequest/5c03f1f9-9d0f-4127-8e67-7ffd5d889f1c"}]},"request":{"method":"PUT","url":"MeasureReport/cc906ec5-eee0-45d6-942d-cd199c7e12f7"}},{"resource":{"resourceType":"Bundle","id":"IPPass-PreventiveCareGroupCounseling","type":"transaction","entry":[{"fullUrl":"https://madie.cms.gov/Patient/8120cffc-faec-4295-93f9-a30275075ee5","resource":{"resourceType":"Patient","id":"8120cffc-faec-4295-93f9-a30275075ee5","meta":{"profile":["http://hl7.org/fhir/us/qicore/StructureDefinition/qicore-patient"]},"extension":[{"url":"http://hl7.org/fhir/us/core/StructureDefinition/us-core-race","extension":[{"url":"ombCategory","valueCoding":{"system":"urn:oid:2.16.840.1.113883.6.238","code":"2028-9","display":"Asian","userSelected":true}},{"url":"text","valueString":"Asian"}]},{"url":"http://hl7.org/fhir/us/core/StructureDefinition/us-core-ethnicity","extension":[{"url":"ombCategory","valueCoding":{"system":"urn:oid:2.16.840.1.113883.6.238","code":"2135-2","display":"Hispanic or Latino","userSelected":true}},{"url":"text","valueString":"Hispanic or Latino"}]}],"identifier":[{"type":{"coding":[{"system":"http://terminology.hl7.org/CodeSystem/v2-0203","code":"MR"}]},"system":"http://hospital.smarthealthit.org","value":"999999995"}],"name":[{"family":"Bertha","given":["Betty"]}],"gender":"male","birthDate":"2021-01-01"},"request":{"method":"PUT","url":"Patient/8120cffc-faec-4295-93f9-a30275075ee5"}},{"fullUrl":"https://madie.cms.gov/Encounter/14aaeabf-0a98-4b25-a706-eefd81ede51d","resource":{"resourceType":"Encounter","id":"14aaeabf-0a98-4b25-a706-eefd81ede51d","meta":{"profile":["http://hl7.org/fhir/us/qicore/StructureDefinition/qicore-encounter"]},"status":"finished","class":{"system":"http://terminology.hl7.org/CodeSystem/v3-ActCode","code":"AMB","display":"ambulatory"},"type":[{"coding":[{"system":"http://www.ama-assn.org/go/cpt","code":"99411","display":"Preventive medicine counseling and/or risk factor reduction intervention(s) provided to individuals in a group setting (separate procedure); approximately 30 minutes"}]}],"subject":{"reference":"Patient/8120cffc-faec-4295-93f9-a30275075ee5"},"period":{"start":"2026-10-11T00:00:00.000Z","end":"2026-10-11T23:59:59.000Z"}},"request":{"method":"PUT","url":"Encounter/14aaeabf-0a98-4b25-a706-eefd81ede51d"}},{"fullUrl":"https://madie.cms.gov/Condition/0b86440a-967b-433e-9fc8-d5fdfae797c6","resource":{"resourceType":"Condition","id":"0b86440a-967b-433e-9fc8-d5fdfae797c6","meta":{"profile":["http://hl7.org/fhir/us/qicore/StructureDefinition/qicore-condition-encounter-diagnosis"]},"clinicalStatus":{"coding":[{"system":"http://terminology.hl7.org/CodeSystem/condition-clinical","code":"active"}]},"category":[{"coding":[{"system":"http://terminology.hl7.org/CodeSystem/condition-category","code":"problem-list-item","display":"Problem List Item"}]}],"code":{"coding":[{"system":"http://snomed.info/sct","code":"17741008","display":"Acute tonsillitis (disorder)"}]},"subject":{"reference":"Patient/8120cffc-faec-4295-93f9-a30275075ee5"},"onsetDateTime":"2026-10-11T12:48:00.000Z"},"request":{"method":"PUT","url":"Condition/0b86440a-967b-433e-9fc8-d5fdfae797c6"}},{"fullUrl":"https://madie.cms.gov/MedicationRequest/5c03f1f9-9d0f-4127-8e67-7ffd5d889f1c","resource":{"resourceType":"MedicationRequest","id":"5c03f1f9-9d0f-4127-8e67-7ffd5d889f1c","meta":{"profile":["http://hl7.org/fhir/us/qicore/StructureDefinition/qicore-medicationrequest"]},"status":"completed","intent":"order","category":[{"coding":[{"system":"http://terminology.hl7.org/CodeSystem/medicationrequest-category","code":"discharge","display":"Discharge"}]}],"medicationCodeableConcept":{"coding":[{"system":"http://www.nlm.nih.gov/research/umls/rxnorm","code":"141963","display":"azithromycin 40 MG/ML Oral Suspension","userSelected":true}]},"subject":{"reference":"Patient/8120cffc-faec-4295-93f9-a30275075ee5"},"authoredOn":"2026-10-12T00:00:00.000Z","requester":{"reference":"Practitioner/example"},"dosageInstruction":[{"timing":{"repeat":{"boundsPeriod":{"start":"2026-10-12T00:00:00.000Z","end":"2026-10-20T00:00:00.000Z"}}}}]},"request":{"method":"PUT","url":"MedicationRequest/5c03f1f9-9d0f-4127-8e67-7ffd5d889f1c"}},{"fullUrl":"https://madie.cms.gov/MeasureReport/cc906ec5-eee0-45d6-942d-cd199c7e12f7","resource":{"resourceType":"MeasureReport","id":"cc906ec5-eee0-45d6-942d-cd199c7e12f7","meta":{"profile":["http://hl7.org/fhir/us/cqfmeasures/StructureDefinition/test-case-cqfm"]},"contained":[{"resourceType":"Parameters","id":"20b71730-7086-4f18-9c52-3bfada804609-parameters","parameter":[{"name":"subject","valueString":"8120cffc-faec-4295-93f9-a30275075ee5"}]}],"extension":[{"url":"http://hl7.org/fhir/StructureDefinition/cqf-inputParameters","valueReference":{"reference":"#20b71730-7086-4f18-9c52-3bfada804609-parameters"}},{"url":"http://hl7.org/fhir/us/cqfmeasures/StructureDefinition/cqfm-testCaseDescription","valueMarkdown":"Qualifying encounter is Preventive Care Services Group Counseling"}],"modifierExtension":[{"url":"http://hl7.org/fhir/us/cqfmeasures/StructureDefinition/cqfm-isTestCase","valueBoolean":true}],"status":"complete","type":"individual","measure":"https://madie.cms.gov/Measure/CMS146FHIRAppropriateTestingforPharyngitis","period":{"start":"2026-01-01","end":"2026-12-31"},"group":[{"id":"Group_1","population":[{"id":"InitialPopulation_1","code":{"coding":[{"system":"http://terminology.hl7.org/CodeSystem/measure-population","code":"initial-population","display":"Initial Population"}]},"count":1},{"id":"Denominator_1","code":{"coding":[{"system":"http://terminology.hl7.org/CodeSystem/measure-population","code":"denominator","display":"Denominator"}]},"count":1},{"id":"DenominatorExclusion_1","code":{"coding":[{"system":"http://terminology.hl7.org/CodeSystem/measure-population","code":"denominator-exclusion","display":"Denominator Exclusion"}]},"count":0},{"id":"Numerator_1","code":{"coding":[{"system":"http://terminology.hl7.org/CodeSystem/measure-population","code":"numerator","display":"Numerator"}]},"count":0}],"measureScore":{"value":0.0},"stratifier":[{"id":"Stratification_1_1","code":[{"text":"Strata-1"}],"stratum":[{"value":{"text":"Strata-1"},"population":[{"id":"InitialPopulation_1","code":{"coding":[{"system":"http://terminology.hl7.org/CodeSystem/measure-population","code":"initial-population","display":"Initial Population"}]},"count":1}]}]},{"id":"Stratification_1_2","code":[{"text":"Strata-2"}],"stratum":[{"value":{"text":"Strata-2"},"population":[{"id":"InitialPopulation_1","code":{"coding":[{"system":"http://terminology.hl7.org/CodeSystem/measure-population","code":"initial-population","display":"Initial Population"}]},"count":1}]}]},{"id":"Stratification_1_3","code":[{"text":"Strata-3"}],"stratum":[{"value":{"text":"Strata-3"},"population":[{"id":"InitialPopulation_1","code":{"coding":[{"system":"http://terminology.hl7.org/CodeSystem/measure-population","code":"initial-population","display":"Initial Population"}]},"count":1}]}]}]}],"evaluatedResource":[{"reference":"Patient/8120cffc-faec-4295-93f9-a30275075ee5"},{"reference":"Encounter/14aaeabf-0a98-4b25-a706-eefd81ede51d"},{"reference":"Condition/0b86440a-967b-433e-9fc8-d5fdfae797c6"},{"reference":"MedicationRequest/5c03f1f9-9d0f-4127-8e67-7ffd5d889f1c"}]},"request":{"method":"PUT","url":"MeasureReport/cc906ec5-eee0-45d6-942d-cd199c7e12f7"}}]},"request":{"method":"PUT","url":"Bundle/IPPass-PreventiveCareGroupCounseling"}},{"resource":{"resourceType":"MedicationRequest","id":"5c03f1f9-9d0f-4127-8e67-7ffd5d889f1c","meta":{"profile":["http://hl7.org/fhir/us/qicore/StructureDefinition/qicore-medicationrequest"]},"status":"completed","intent":"order","category":[{"coding":[{"system":"http://terminology.hl7.org/CodeSystem/medicationrequest-category","code":"discharge","display":"Discharge"}]}],"medicationCodeableConcept":{"coding":[{"system":"http://www.nlm.nih.gov/research/umls/rxnorm","code":"141963","display":"azithromycin 40 MG/ML Oral Suspension","userSelected":true}]},"subject":{"reference":"Patient/8120cffc-faec-4295-93f9-a30275075ee5"},"authoredOn":"2026-10-12T00:00:00.000Z","requester":{"reference":"Practitioner/example"},"dosageInstruction":[{"timing":{"repeat":{"boundsPeriod":{"start":"2026-10-12T00:00:00.000Z","end":"2026-10-20T00:00:00.000Z"}}}}]},"request":{"method":"PUT","url":"MedicationRequest/5c03f1f9-9d0f-4127-8e67-7ffd5d889f1c"}},{"resource":{"resourceType":"Encounter","id":"14aaeabf-0a98-4b25-a706-eefd81ede51d","meta":{"profile":["http://hl7.org/fhir/us/qicore/StructureDefinition/qicore-encounter"]},"status":"finished","class":{"system":"http://terminology.hl7.org/CodeSystem/v3-ActCode","code":"AMB","display":"ambulatory"},"type":[{"coding":[{"system":"http://www.ama-assn.org/go/cpt","code":"99411","display":"Preventive medicine counseling and/or risk factor reduction intervention(s) provided to individuals in a group setting (separate procedure); approximately 30 minutes"}]}],"subject":{"reference":"Patient/8120cffc-faec-4295-93f9-a30275075ee5"},"period":{"start":"2026-10-11T00:00:00.000Z","end":"2026-10-11T23:59:59.000Z"}},"request":{"method":"PUT","url":"Encounter/14aaeabf-0a98-4b25-a706-eefd81ede51d"}},{"resource":{"resourceType":"Condition","id":"0b86440a-967b-433e-9fc8-d5fdfae797c6","meta":{"profile":["http://hl7.org/fhir/us/qicore/StructureDefinition/qicore-condition-encounter-diagnosis"]},"clinicalStatus":{"coding":[{"system":"http://terminology.hl7.org/CodeSystem/condition-clinical","code":"active"}]},"category":[{"coding":[{"system":"http://terminology.hl7.org/CodeSystem/condition-category","code":"problem-list-item","display":"Problem List Item"}]}],"code":{"coding":[{"system":"http://snomed.info/sct","code":"17741008","display":"Acute tonsillitis (disorder)"}]},"subject":{"reference":"Patient/8120cffc-faec-4295-93f9-a30275075ee5"},"onsetDateTime":"2026-10-11T12:48:00.000Z"},"request":{"method":"PUT","url":"Condition/0b86440a-967b-433e-9fc8-d5fdfae797c6"}}]}