{
    "entry": [
        {
            "request": {
                "method": "PUT",
                "url": "Patient/1f16120b-56c9-4d72-8dd4-01d8a0175d77"
            },
            "resource": {
                "identifier": [{
                    "system": "https://bonnie-fhir.healthit.gov/",
                    "type": {"coding": [{
                        "system": "http://terminology.hl7.org/CodeSystem/v2-0203",
                        "code": "MR"
                    }]},
                    "value": "62d7354fc22c612899b40d6c1"
                }],
                "extension": [
                    {
                        "extension": [
                            {
                                "valueCoding": {
                                    "system": "urn:oid:2.16.840.1.113883.6.238",
                                    "code": "2106-3",
                                    "userSelected": true,
                                    "display": "White"
                                },
                                "url": "ombCategory"
                            },
                            {
                                "valueString": "White",
                                "url": "text"
                            }
                        ],
                        "url": "http://hl7.org/fhir/us/core/StructureDefinition/us-core-race"
                    },
                    {
                        "extension": [
                            {
                                "valueCoding": {
                                    "system": "urn:oid:2.16.840.1.113883.6.238",
                                    "code": "2186-5",
                                    "userSelected": true,
                                    "display": "Not Hispanic or Latino"
                                },
                                "url": "ombCategory"
                            },
                            {
                                "valueString": "Not Hispanic or Latino",
                                "url": "text"
                            }
                        ],
                        "url": "http://hl7.org/fhir/us/core/StructureDefinition/us-core-ethnicity"
                    }
                ],
                "gender": "male",
                "meta": {"profile": ["http://hl7.org/fhir/us/qicore/StructureDefinition/qicore-patient"]},
                "name": [{
                    "given": ["ElevatedDeclineFU"],
                    "family": "DENEXCEPPass"
                }],
                "id": "1f16120b-56c9-4d72-8dd4-01d8a0175d77",
                "birthDate": "2006-01-01",
                "resourceType": "Patient"
            },
            "fullUrl": "https://madie.cms.gov/Patient/1f16120b-56c9-4d72-8dd4-01d8a0175d77"
        },
        {
            "request": {
                "method": "PUT",
                "url": "Encounter/dec7bce2-379c-4373-8937-eaec98968b3c"
            },
            "resource": {
                "period": {
                    "start": "2026-01-01T08:00:00.000+00:00",
                    "end": "2026-01-01T08:30:00.000+00:00"
                },
                "meta": {"profile": ["http://hl7.org/fhir/us/qicore/StructureDefinition/qicore-encounter"]},
                "subject": {"reference": "Patient/1f16120b-56c9-4d72-8dd4-01d8a0175d77"},
                "id": "dec7bce2-379c-4373-8937-eaec98968b3c",
                "type": [{"coding": [{
                    "system": "http://snomed.info/sct",
                    "code": "103705002",
                    "userSelected": true,
                    "display": "Patient status observation (procedure)",
                    "version": "2022-03"
                }]}],
                "class": {
                    "system": "http://terminology.hl7.org/CodeSystem/v3-ActCode",
                    "code": "AMB",
                    "display": "ambulatory"
                },
                "resourceType": "Encounter",
                "status": "finished"
            },
            "fullUrl": "https://madie.cms.gov/Encounter/dec7bce2-379c-4373-8937-eaec98968b3c"
        },
        {
            "request": {
                "method": "PUT",
                "url": "Observation/b36b4f19-7541-4abd-a2dd-e342e83c6464"
            },
            "resource": {
                "component": [
                    {
                        "code": {"coding": [{
                            "system": "http://loinc.org",
                            "code": "8480-6",
                            "display": "Systolic blood pressure"
                        }]},
                        "valueQuantity": {
                            "unit": "mmHg",
                            "system": "http://unitsofmeasure.org",
                            "code": "mm[Hg]",
                            "value": 120
                        }
                    },
                    {
                        "code": {"coding": [{
                            "system": "http://loinc.org",
                            "code": "8462-4",
                            "display": "Diastolic blood pressure"
                        }]},
                        "valueQuantity": {
                            "unit": "mmHg",
                            "system": "http://unitsofmeasure.org",
                            "code": "mm[Hg]",
                            "value": 79
                        }
                    }
                ],
                "code": {"coding": [{
                    "system": "http://loinc.org",
                    "code": "85354-9",
                    "display": "Blood pressure panel"
                }]},
                "effectiveDateTime": "2026-01-01T08:05:00.000+00:00",
                "meta": {"profile": ["http://hl7.org/fhir/us/core/StructureDefinition/us-core-blood-pressure"]},
                "subject": {"reference": "Patient/1f16120b-56c9-4d72-8dd4-01d8a0175d77"},
                "id": "b36b4f19-7541-4abd-a2dd-e342e83c6464",
                "category": [{
                    "coding": [{
                        "system": "http://terminology.hl7.org/CodeSystem/observation-category",
                        "code": "vital-signs",
                        "display": "Vital Signs"
                    }],
                    "text": "Vital Signs"
                }],
                "resourceType": "Observation",
                "status": "amended"
            },
            "fullUrl": "https://madie.cms.gov/Observation/b36b4f19-7541-4abd-a2dd-e342e83c6464"
        },
        {
            "request": {
                "method": "PUT",
                "url": "ServiceRequest/389b3df6-97d2-401e-94d8-c2d5004e8fd9"
            },
            "resource": {
                "extension": [{
                    "valueCodeableConcept": {"coding": [{
                        "system": "http://snomed.info/sct",
                        "code": "1296859006",
                        "userSelected": true,
                        "display": "Procedure declined by patient (situation)"
                    }]},
                    "url": "http://hl7.org/fhir/us/qicore/StructureDefinition/qicore-doNotPerformReason"
                }],
                "code": {"coding": [{
                    "system": "http://snomed.info/sct",
                    "code": "308470006",
                    "userSelected": true,
                    "display": "Referral to general physician (procedure)"
                }]},
                "authoredOn": "2026-01-01T08:20:00.000+00:00",
                "meta": {"profile": ["http://hl7.org/fhir/us/qicore/StructureDefinition/qicore-servicenotrequested"]},
                "subject": {"reference": "Patient/1f16120b-56c9-4d72-8dd4-01d8a0175d77"},
                "id": "389b3df6-97d2-401e-94d8-c2d5004e8fd9",
                "doNotPerform": true,
                "intent": "order",
                "resourceType": "ServiceRequest",
                "status": "completed"
            },
            "fullUrl": "https://madie.cms.gov/ServiceRequest/389b3df6-97d2-401e-94d8-c2d5004e8fd9"
        },
        {
            "request": {
                "method": "PUT",
                "url": "Coverage/f80e62e5-6ced-4574-8a36-907d7d705894"
            },
            "resource": {
                "payor": [{"reference": "Organization/f50b7463-14c0-4d5c-9398-55614b40c0f2"}],
                "beneficiary": {"reference": "Patient/1f16120b-56c9-4d72-8dd4-01d8a0175d77"},
                "meta": {"profile": ["http://hl7.org/fhir/us/qicore/StructureDefinition/qicore-coverage"]},
                "id": "f80e62e5-6ced-4574-8a36-907d7d705894",
                "resourceType": "Coverage",
                "status": "active"
            },
            "fullUrl": "https://madie.cms.gov/Coverage/f80e62e5-6ced-4574-8a36-907d7d705894"
        },
        {
            "request": {
                "method": "PUT",
                "url": "Organization/f50b7463-14c0-4d5c-9398-55614b40c0f2"
            },
            "resource": {
                "identifier": [{
                    "system": "urn:oid:2.16.840.1.113883.4.4",
                    "use": "temp",
                    "value": "21-3259825"
                }],
                "address": [{
                    "country": "USA",
                    "city": "Dallas",
                    "use": "billing",
                    "line": ["P.O. Box 660044"],
                    "postalCode": "75266-0044",
                    "state": "TX",
                    "type": "postal"
                }],
                "meta": {"profile": ["http://hl7.org/fhir/us/qicore/StructureDefinition/qicore-organization"]},
                "name": "Blue Cross Blue Shield of Texas",
                "active": true,
                "telecom": [{
                    "system": "phone",
                    "value": "(+1) 972-766-6900"
                }],
                "id": "f50b7463-14c0-4d5c-9398-55614b40c0f2",
                "type": [{"coding": [{
                    "system": "http://terminology.hl7.org/CodeSystem/organization-type",
                    "code": "pay",
                    "display": "Payer"
                }]}],
                "resourceType": "Organization"
            },
            "fullUrl": "https://madie.cms.gov/Organization/f50b7463-14c0-4d5c-9398-55614b40c0f2"
        },
        {
            "request": {
                "method": "PUT",
                "url": "Practitioner/5131c2a1-c996-4b56-9f0c-a3c15546b7e9"
            },
            "resource": {
                "identifier": [{
                    "system": "http://hl7.org/fhir/sid/us-npi",
                    "value": "123456"
                }],
                "meta": {"profile": ["http://hl7.org/fhir/us/qicore/StructureDefinition/qicore-practitioner"]},
                "name": [{
                    "prefix": ["Dr"],
                    "family": "Evil"
                }],
                "id": "5131c2a1-c996-4b56-9f0c-a3c15546b7e9",
                "resourceType": "Practitioner"
            },
            "fullUrl": "https://madie.cms.gov/Practitioner/5131c2a1-c996-4b56-9f0c-a3c15546b7e9"
        },
        {
            "request": {
                "method": "PUT",
                "url": "MeasureReport/0b0d9877-6616-4d36-a32e-800cdaf222ba"
            },
            "resource": {
                "contained": [{
                    "parameter": [{
                        "valueString": "1f16120b-56c9-4d72-8dd4-01d8a0175d77",
                        "name": "subject"
                    }],
                    "id": "0dccea57-bb16-402c-a443-8dc8df050ddc-parameters",
                    "resourceType": "Parameters"
                }],
                "extension": [
                    {
                        "valueReference": {"reference": "#0dccea57-bb16-402c-a443-8dc8df050ddc-parameters"},
                        "url": "http://hl7.org/fhir/StructureDefinition/cqf-inputParameters"
                    },
                    {
                        "valueMarkdown": "Encounter first day of MP BP 120/79, declined referral to primary care/alternate",
                        "url": "http://hl7.org/fhir/us/cqfmeasures/StructureDefinition/cqfm-testCaseDescription"
                    }
                ],
                "period": {
                    "start": "2026-01-01",
                    "end": "2026-12-31"
                },
                "measure": "https://madie.cms.gov/Measure/CMS22FHIRPCSBPScreeningFollowUp",
                "meta": {"profile": ["http://hl7.org/fhir/us/cqfmeasures/StructureDefinition/test-case-cqfm"]},
                "modifierExtension": [{
                    "valueBoolean": true,
                    "url": "http://hl7.org/fhir/us/cqfmeasures/StructureDefinition/cqfm-isTestCase"
                }],
                "id": "0b0d9877-6616-4d36-a32e-800cdaf222ba",
                "evaluatedResource": [
                    {"reference": "Patient/1f16120b-56c9-4d72-8dd4-01d8a0175d77"},
                    {"reference": "Encounter/dec7bce2-379c-4373-8937-eaec98968b3c"},
                    {"reference": "Observation/b36b4f19-7541-4abd-a2dd-e342e83c6464"},
                    {"reference": "ServiceRequest/389b3df6-97d2-401e-94d8-c2d5004e8fd9"},
                    {"reference": "Coverage/f80e62e5-6ced-4574-8a36-907d7d705894"},
                    {"reference": "Organization/f50b7463-14c0-4d5c-9398-55614b40c0f2"},
                    {"reference": "Practitioner/5131c2a1-c996-4b56-9f0c-a3c15546b7e9"}
                ],
                "type": "individual",
                "resourceType": "MeasureReport",
                "status": "complete",
                "group": [{
                    "id": "Group_1",
                    "measureScore": {"value": 0},
                    "population": [
                        {
                            "code": {"coding": [{
                                "system": "http://terminology.hl7.org/CodeSystem/measure-population",
                                "code": "initial-population",
                                "display": "Initial Population"
                            }]},
                            "count": 1,
                            "id": "InitialPopulation_1"
                        },
                        {
                            "code": {"coding": [{
                                "system": "http://terminology.hl7.org/CodeSystem/measure-population",
                                "code": "denominator",
                                "display": "Denominator"
                            }]},
                            "count": 1,
                            "id": "Denominator_1"
                        },
                        {
                            "code": {"coding": [{
                                "system": "http://terminology.hl7.org/CodeSystem/measure-population",
                                "code": "denominator-exclusion",
                                "display": "Denominator Exclusion"
                            }]},
                            "count": 0,
                            "id": "DenominatorExclusion_1"
                        },
                        {
                            "code": {"coding": [{
                                "system": "http://terminology.hl7.org/CodeSystem/measure-population",
                                "code": "numerator",
                                "display": "Numerator"
                            }]},
                            "count": 0,
                            "id": "Numerator_1"
                        },
                        {
                            "code": {"coding": [{
                                "system": "http://terminology.hl7.org/CodeSystem/measure-population",
                                "code": "denominator-exception",
                                "display": "Denominator Exception"
                            }]},
                            "count": 1,
                            "id": "DenominatorException_1"
                        }
                    ]
                }]
            },
            "fullUrl": "https://madie.cms.gov/MeasureReport/0b0d9877-6616-4d36-a32e-800cdaf222ba"
        }
    ],
    "id": "62d7354fc22c612899b40d6c1",
    "type": "transaction",
    "resourceType": "Bundle"
}