{
    "entry": [
        {
            "request": {
                "method": "PUT",
                "url": "Patient/28bf1260-965f-4682-b427-2c2a2084312a"
            },
            "resource": {
                "identifier": [{
                    "system": "https://bonnie-fhir.healthit.gov/",
                    "type": {"coding": [{
                        "system": "http://terminology.hl7.org/CodeSystem/v2-0203",
                        "code": "MR"
                    }]},
                    "value": "62b1dfab3968556e5150cf35"
                }],
                "extension": [
                    {
                        "extension": [
                            {
                                "valueCoding": {
                                    "system": "urn:oid:2.16.840.1.113883.6.238",
                                    "code": "1002-5",
                                    "userSelected": true,
                                    "display": "American Indian or Alaska Native"
                                },
                                "url": "ombCategory"
                            },
                            {
                                "valueString": "American Indian or Alaska Native",
                                "url": "text"
                            }
                        ],
                        "url": "http://hl7.org/fhir/us/core/StructureDefinition/us-core-race"
                    },
                    {
                        "extension": [
                            {
                                "valueCoding": {
                                    "system": "urn:oid:2.16.840.1.113883.6.238",
                                    "code": "2135-2",
                                    "userSelected": true,
                                    "display": "Hispanic or Latino"
                                },
                                "url": "ombCategory"
                            },
                            {
                                "valueString": "Hispanic or Latino",
                                "url": "text"
                            }
                        ],
                        "url": "http://hl7.org/fhir/us/core/StructureDefinition/us-core-ethnicity"
                    }
                ],
                "gender": "male",
                "meta": {"profile": ["http://hl7.org/fhir/us/qicore/StructureDefinition/qicore-patient"]},
                "name": [{
                    "given": ["17yoPositiveAdultDepressionScreeningandFollowUp"],
                    "family": "NUMERPass"
                }],
                "id": "28bf1260-965f-4682-b427-2c2a2084312a",
                "birthDate": "2009-01-01",
                "resourceType": "Patient"
            },
            "fullUrl": "https://madie.cms.gov/Patient/28bf1260-965f-4682-b427-2c2a2084312a"
        },
        {
            "request": {
                "method": "PUT",
                "url": "Encounter/5241a665-4e30-4a4a-b9f6-8532193d4192"
            },
            "resource": {
                "period": {
                    "start": "2026-01-01T08:00:00.000+00:00",
                    "end": "2026-01-01T08:15:00.000+00:00"
                },
                "meta": {"profile": ["http://hl7.org/fhir/us/qicore/StructureDefinition/qicore-encounter"]},
                "subject": {"reference": "Patient/28bf1260-965f-4682-b427-2c2a2084312a"},
                "id": "5241a665-4e30-4a4a-b9f6-8532193d4192",
                "type": [{"coding": [{
                    "system": "http://snomed.info/sct",
                    "code": "10197000",
                    "userSelected": true,
                    "display": "Psychiatric interview and evaluation (procedure)",
                    "version": "2021-09"
                }]}],
                "class": {
                    "system": "http://terminology.hl7.org/CodeSystem/v3-ActCode",
                    "code": "AMB",
                    "display": "ambulatory"
                },
                "resourceType": "Encounter",
                "status": "finished"
            },
            "fullUrl": "https://madie.cms.gov/Encounter/5241a665-4e30-4a4a-b9f6-8532193d4192"
        },
        {
            "request": {
                "method": "PUT",
                "url": "Observation/e511d3c4-02b0-4d40-b4c3-553715e9250a"
            },
            "resource": {
                "valueCodeableConcept": {"coding": [{
                    "system": "http://snomed.info/sct",
                    "code": "428181000124104",
                    "userSelected": true,
                    "display": "Depression screening positive (finding)"
                }]},
                "code": {"coding": [{
                    "system": "http://loinc.org",
                    "code": "73832-8",
                    "userSelected": true,
                    "display": "Adult depression screening assessment"
                }]},
                "effectiveDateTime": "2026-01-01T08:01:00.000+00:00",
                "meta": {"profile": ["http://hl7.org/fhir/us/qicore/StructureDefinition/qicore-observation-screening-assessment"]},
                "subject": {"reference": "Patient/28bf1260-965f-4682-b427-2c2a2084312a"},
                "id": "e511d3c4-02b0-4d40-b4c3-553715e9250a",
                "category": [{"coding": [{
                    "system": "http://terminology.hl7.org/CodeSystem/observation-category",
                    "code": "procedure",
                    "display": "Procedure"
                }]}],
                "resourceType": "Observation",
                "status": "final"
            },
            "fullUrl": "https://madie.cms.gov/Observation/e511d3c4-02b0-4d40-b4c3-553715e9250a"
        },
        {
            "request": {
                "method": "PUT",
                "url": "MedicationRequest/c4b2def8-c372-4e64-814d-72fd2a47b527"
            },
            "resource": {
                "requester": {"reference": "Practitioner/Practitioner-123456"},
                "authoredOn": "2026-01-01T08:14:00.000+00:00",
                "meta": {"profile": ["http://hl7.org/fhir/us/qicore/StructureDefinition/qicore-medicationrequest"]},
                "subject": {"reference": "Patient/28bf1260-965f-4682-b427-2c2a2084312a"},
                "id": "c4b2def8-c372-4e64-814d-72fd2a47b527",
                "doNotPerform": false,
                "medicationCodeableConcept": {"coding": [{
                    "system": "http://www.nlm.nih.gov/research/umls/rxnorm",
                    "code": "1000048",
                    "userSelected": true,
                    "display": "doxepin hydrochloride 10 MG Oral Capsule"
                }]},
                "intent": "order",
                "resourceType": "MedicationRequest",
                "status": "active"
            },
            "fullUrl": "https://madie.cms.gov/MedicationRequest/c4b2def8-c372-4e64-814d-72fd2a47b527"
        },
        {
            "request": {
                "method": "PUT",
                "url": "Coverage/cf8ec7c3-4d07-4988-8d28-c723437e4489"
            },
            "resource": {
                "payor": [{"reference": "Organization/d5b15d2d-98b1-4660-93c6-a859f872522d"}],
                "beneficiary": {"reference": "Patient/28bf1260-965f-4682-b427-2c2a2084312a"},
                "meta": {"profile": ["http://hl7.org/fhir/us/qicore/StructureDefinition/qicore-coverage"]},
                "id": "cf8ec7c3-4d07-4988-8d28-c723437e4489",
                "resourceType": "Coverage",
                "status": "active"
            },
            "fullUrl": "https://madie.cms.gov/Coverage/cf8ec7c3-4d07-4988-8d28-c723437e4489"
        },
        {
            "request": {
                "method": "PUT",
                "url": "Organization/d5b15d2d-98b1-4660-93c6-a859f872522d"
            },
            "resource": {
                "identifier": [{
                    "system": "urn:oid:2.16.840.1.113883.4.4",
                    "use": "temp",
                    "value": "21-3259825"
                }],
                "address": [{
                    "country": "USA",
                    "city": "Dallas",
                    "use": "billing",
                    "line": ["P.O. Box 660044"],
                    "postalCode": "75266-0044",
                    "state": "TX",
                    "type": "postal"
                }],
                "meta": {"profile": ["http://hl7.org/fhir/us/qicore/StructureDefinition/qicore-organization"]},
                "name": "Blue Cross Blue Shield of Texas",
                "active": true,
                "telecom": [{
                    "system": "phone",
                    "value": "(+1) 972-766-6900"
                }],
                "id": "d5b15d2d-98b1-4660-93c6-a859f872522d",
                "type": [{"coding": [{
                    "system": "http://terminology.hl7.org/CodeSystem/organization-type",
                    "code": "pay",
                    "display": "Payer"
                }]}],
                "resourceType": "Organization"
            },
            "fullUrl": "https://madie.cms.gov/Organization/d5b15d2d-98b1-4660-93c6-a859f872522d"
        },
        {
            "request": {
                "method": "PUT",
                "url": "Practitioner/9d0dfc24-1d09-4e3e-98db-525ac4c362c7"
            },
            "resource": {
                "identifier": [{
                    "system": "http://hl7.org/fhir/sid/us-npi",
                    "value": "123456"
                }],
                "meta": {"profile": ["http://hl7.org/fhir/us/qicore/StructureDefinition/qicore-practitioner"]},
                "name": [{
                    "prefix": ["Dr"],
                    "family": "Evil"
                }],
                "id": "9d0dfc24-1d09-4e3e-98db-525ac4c362c7",
                "resourceType": "Practitioner"
            },
            "fullUrl": "https://madie.cms.gov/Practitioner/9d0dfc24-1d09-4e3e-98db-525ac4c362c7"
        },
        {
            "request": {
                "method": "PUT",
                "url": "MeasureReport/8260edd5-ec79-4fe4-9f4c-ab3e3797ce9a"
            },
            "resource": {
                "contained": [{
                    "parameter": [{
                        "valueString": "28bf1260-965f-4682-b427-2c2a2084312a",
                        "name": "subject"
                    }],
                    "id": "bb54b8d4-a553-4c7c-9f73-901b93289f7f-parameters",
                    "resourceType": "Parameters"
                }],
                "extension": [
                    {
                        "valueReference": {"reference": "#bb54b8d4-a553-4c7c-9f73-901b93289f7f-parameters"},
                        "url": "http://hl7.org/fhir/StructureDefinition/cqf-inputParameters"
                    },
                    {
                        "valueMarkdown": "17yo with previous positive adult depression screening and medication request follow up",
                        "url": "http://hl7.org/fhir/us/cqfmeasures/StructureDefinition/cqfm-testCaseDescription"
                    }
                ],
                "period": {
                    "start": "2026-01-01",
                    "end": "2026-12-31"
                },
                "measure": "https://madie.cms.gov/Measure/CMS2FHIRPCSDepressionScreenAndFollowUp",
                "meta": {"profile": ["http://hl7.org/fhir/us/cqfmeasures/StructureDefinition/test-case-cqfm"]},
                "modifierExtension": [{
                    "valueBoolean": true,
                    "url": "http://hl7.org/fhir/us/cqfmeasures/StructureDefinition/cqfm-isTestCase"
                }],
                "id": "8260edd5-ec79-4fe4-9f4c-ab3e3797ce9a",
                "evaluatedResource": [
                    {"reference": "Patient/28bf1260-965f-4682-b427-2c2a2084312a"},
                    {"reference": "Encounter/5241a665-4e30-4a4a-b9f6-8532193d4192"},
                    {"reference": "Observation/e511d3c4-02b0-4d40-b4c3-553715e9250a"},
                    {"reference": "MedicationRequest/c4b2def8-c372-4e64-814d-72fd2a47b527"},
                    {"reference": "Coverage/cf8ec7c3-4d07-4988-8d28-c723437e4489"},
                    {"reference": "Organization/d5b15d2d-98b1-4660-93c6-a859f872522d"},
                    {"reference": "Practitioner/9d0dfc24-1d09-4e3e-98db-525ac4c362c7"}
                ],
                "type": "individual",
                "resourceType": "MeasureReport",
                "status": "complete",
                "group": [{
                    "id": "Group_1",
                    "measureScore": {"value": 1},
                    "population": [
                        {
                            "code": {"coding": [{
                                "system": "http://terminology.hl7.org/CodeSystem/measure-population",
                                "code": "initial-population",
                                "display": "Initial Population"
                            }]},
                            "count": 1,
                            "id": "InitialPopulation_1"
                        },
                        {
                            "code": {"coding": [{
                                "system": "http://terminology.hl7.org/CodeSystem/measure-population",
                                "code": "denominator",
                                "display": "Denominator"
                            }]},
                            "count": 1,
                            "id": "Denominator_1"
                        },
                        {
                            "code": {"coding": [{
                                "system": "http://terminology.hl7.org/CodeSystem/measure-population",
                                "code": "denominator-exclusion",
                                "display": "Denominator Exclusion"
                            }]},
                            "count": 0,
                            "id": "DenominatorExclusion_1"
                        },
                        {
                            "code": {"coding": [{
                                "system": "http://terminology.hl7.org/CodeSystem/measure-population",
                                "code": "numerator",
                                "display": "Numerator"
                            }]},
                            "count": 1,
                            "id": "Numerator_1"
                        },
                        {
                            "code": {"coding": [{
                                "system": "http://terminology.hl7.org/CodeSystem/measure-population",
                                "code": "denominator-exception",
                                "display": "Denominator Exception"
                            }]},
                            "count": 0,
                            "id": "DenominatorException_1"
                        }
                    ]
                }]
            },
            "fullUrl": "https://madie.cms.gov/MeasureReport/8260edd5-ec79-4fe4-9f4c-ab3e3797ce9a"
        }
    ],
    "id": "62b1dfab3968556e5150cf35",
    "type": "transaction",
    "resourceType": "Bundle"
}