{
  "resourceType": "Bundle",
  "id": "62b1dfab3968556e5150cf35",
  "type": "transaction",
  "entry": [ {
    "fullUrl": "https://madie.cms.gov/Patient/28bf1260-965f-4682-b427-2c2a2084312a",
    "resource": {
      "resourceType": "Patient",
      "id": "28bf1260-965f-4682-b427-2c2a2084312a",
      "meta": {
        "profile": [ "http://hl7.org/fhir/us/qicore/StructureDefinition/qicore-patient" ]
      },
      "extension": [ {
        "url": "http://hl7.org/fhir/us/core/StructureDefinition/us-core-race",
        "extension": [ {
          "url": "ombCategory",
          "valueCoding": {
            "system": "urn:oid:2.16.840.1.113883.6.238",
            "code": "1002-5",
            "display": "American Indian or Alaska Native",
            "userSelected": true
          }
        }, {
          "url": "text",
          "valueString": "American Indian or Alaska Native"
        } ]
      }, {
        "url": "http://hl7.org/fhir/us/core/StructureDefinition/us-core-ethnicity",
        "extension": [ {
          "url": "ombCategory",
          "valueCoding": {
            "system": "urn:oid:2.16.840.1.113883.6.238",
            "code": "2135-2",
            "display": "Hispanic or Latino",
            "userSelected": true
          }
        }, {
          "url": "text",
          "valueString": "Hispanic or Latino"
        } ]
      } ],
      "identifier": [ {
        "type": {
          "coding": [ {
            "system": "http://terminology.hl7.org/CodeSystem/v2-0203",
            "code": "MR"
          } ]
        },
        "system": "https://bonnie-fhir.healthit.gov/",
        "value": "62b1dfab3968556e5150cf35"
      } ],
      "name": [ {
        "family": "NUMERPass",
        "given": [ "17yoPositiveAdultDepressionScreeningandFollowUp" ]
      } ],
      "gender": "male",
      "birthDate": "2009-01-01"
    },
    "request": {
      "method": "PUT",
      "url": "Patient/28bf1260-965f-4682-b427-2c2a2084312a"
    }
  }, {
    "fullUrl": "https://madie.cms.gov/Encounter/4f943b7f-f4dd-4660-9ea3-8a3c6d244540",
    "resource": {
      "resourceType": "Encounter",
      "id": "4f943b7f-f4dd-4660-9ea3-8a3c6d244540",
      "meta": {
        "profile": [ "http://hl7.org/fhir/us/qicore/StructureDefinition/qicore-encounter" ]
      },
      "status": "finished",
      "class": {
        "system": "http://terminology.hl7.org/CodeSystem/v3-ActCode",
        "code": "AMB",
        "display": "ambulatory"
      },
      "type": [ {
        "coding": [ {
          "system": "http://snomed.info/sct",
          "code": "10197000",
          "display": "Psychiatric interview and evaluation (procedure)",
          "userSelected": true
        } ]
      } ],
      "subject": {
        "reference": "Patient/28bf1260-965f-4682-b427-2c2a2084312a"
      },
      "period": {
        "start": "2026-01-01T08:00:00Z",
        "end": "2026-01-01T08:15:00Z"
      }
    },
    "request": {
      "method": "PUT",
      "url": "Encounter/4f943b7f-f4dd-4660-9ea3-8a3c6d244540"
    }
  }, {
    "fullUrl": "https://madie.cms.gov/Observation/ec8dcdd2-9a57-403b-9b6c-0a16c1aed83d",
    "resource": {
      "resourceType": "Observation",
      "id": "ec8dcdd2-9a57-403b-9b6c-0a16c1aed83d",
      "meta": {
        "profile": [ "http://hl7.org/fhir/us/qicore/StructureDefinition/qicore-observation-screening-assessment" ]
      },
      "status": "final",
      "category": [ {
        "coding": [ {
          "system": "http://terminology.hl7.org/CodeSystem/observation-category",
          "code": "procedure",
          "display": "Procedure"
        } ]
      }, {
        "coding": [ {
          "system": "http://terminology.hl7.org/CodeSystem/observation-category",
          "code": "survey",
          "display": "Survey"
        } ]
      } ],
      "code": {
        "coding": [ {
          "system": "http://loinc.org",
          "code": "73832-8",
          "display": "Adult depression screening assessment",
          "userSelected": true
        } ]
      },
      "subject": {
        "reference": "Patient/28bf1260-965f-4682-b427-2c2a2084312a"
      },
      "effectiveDateTime": "2026-01-01T08:01:00Z",
      "valueCodeableConcept": {
        "coding": [ {
          "system": "http://snomed.info/sct",
          "code": "428181000124104",
          "display": "Depression screening positive (finding)",
          "userSelected": true
        } ]
      }
    },
    "request": {
      "method": "PUT",
      "url": "Observation/ec8dcdd2-9a57-403b-9b6c-0a16c1aed83d"
    }
  }, {
    "fullUrl": "https://madie.cms.gov/MedicationRequest/9f62297d-0112-4f56-a1a5-8fdcc67dcc84",
    "resource": {
      "resourceType": "MedicationRequest",
      "id": "9f62297d-0112-4f56-a1a5-8fdcc67dcc84",
      "meta": {
        "profile": [ "http://hl7.org/fhir/us/qicore/StructureDefinition/qicore-medicationrequest" ]
      },
      "status": "active",
      "intent": "order",
      "doNotPerform": false,
      "medicationCodeableConcept": {
        "coding": [ {
          "system": "http://www.nlm.nih.gov/research/umls/rxnorm",
          "code": "1000048",
          "display": "doxepin 10 MG Oral Capsule",
          "userSelected": true
        } ]
      },
      "subject": {
        "reference": "Patient/28bf1260-965f-4682-b427-2c2a2084312a"
      },
      "authoredOn": "2026-01-01T08:14:00Z",
      "requester": {
        "reference": "Practitioner/123456"
      },
      "dispenseRequest": {
        "expectedSupplyDuration": {
          "value": 30,
          "system": "http://unitsofmeasure.org",
          "code": "days"
        }
      }
    },
    "request": {
      "method": "PUT",
      "url": "MedicationRequest/9f62297d-0112-4f56-a1a5-8fdcc67dcc84"
    }
  }, {
    "fullUrl": "https://madie.cms.gov/Coverage/f390533f-ed78-4590-9536-bdc87c301485",
    "resource": {
      "resourceType": "Coverage",
      "id": "f390533f-ed78-4590-9536-bdc87c301485",
      "meta": {
        "profile": [ "http://hl7.org/fhir/us/qicore/StructureDefinition/qicore-coverage" ]
      },
      "status": "active",
      "subscriberId": "123456789",
      "beneficiary": {
        "reference": "Patient/28bf1260-965f-4682-b427-2c2a2084312a"
      },
      "relationship": {
        "coding": [ {
          "system": "http://terminology.hl7.org/CodeSystem/subscriber-relationship",
          "code": "self",
          "display": "Self",
          "userSelected": true
        } ]
      },
      "payor": [ {
        "reference": "Organization/64170338-1f9e-431a-b1f7-3fed3f5b8e10"
      } ]
    },
    "request": {
      "method": "PUT",
      "url": "Coverage/f390533f-ed78-4590-9536-bdc87c301485"
    }
  }, {
    "fullUrl": "https://madie.cms.gov/Organization/64170338-1f9e-431a-b1f7-3fed3f5b8e10",
    "resource": {
      "resourceType": "Organization",
      "id": "64170338-1f9e-431a-b1f7-3fed3f5b8e10",
      "meta": {
        "profile": [ "http://hl7.org/fhir/us/qicore/StructureDefinition/qicore-organization" ]
      },
      "identifier": [ {
        "use": "temp",
        "system": "urn:oid:2.16.840.1.113883.4.4",
        "value": "21-3259825"
      } ],
      "active": true,
      "type": [ {
        "coding": [ {
          "system": "http://terminology.hl7.org/CodeSystem/organization-type",
          "code": "pay",
          "display": "Payer"
        } ]
      } ],
      "name": "Blue Cross Blue Shield of Texas",
      "telecom": [ {
        "system": "phone",
        "value": "(+1) 972-766-6900"
      } ],
      "address": [ {
        "use": "billing",
        "type": "postal",
        "line": [ "P.O. Box 660044" ],
        "city": "Dallas",
        "state": "TX",
        "postalCode": "75266-0044",
        "country": "USA"
      } ]
    },
    "request": {
      "method": "PUT",
      "url": "Organization/64170338-1f9e-431a-b1f7-3fed3f5b8e10"
    }
  }, {
    "fullUrl": "https://madie.cms.gov/Practitioner/c21602b2-17cf-46a0-bc77-03f15a80ce39",
    "resource": {
      "resourceType": "Practitioner",
      "id": "c21602b2-17cf-46a0-bc77-03f15a80ce39",
      "meta": {
        "profile": [ "http://hl7.org/fhir/us/qicore/StructureDefinition/qicore-practitioner" ]
      },
      "identifier": [ {
        "system": "http://hl7.org/fhir/sid/us-npi",
        "value": "1234567893"
      } ],
      "name": [ {
        "family": "Evil",
        "prefix": [ "Dr" ]
      } ]
    },
    "request": {
      "method": "PUT",
      "url": "Practitioner/c21602b2-17cf-46a0-bc77-03f15a80ce39"
    }
  }, {
    "fullUrl": "https://madie.cms.gov/MeasureReport/7cbf09c9-20fe-42ff-9cc6-288b4f103e7c",
    "resource": {
      "resourceType": "MeasureReport",
      "id": "7cbf09c9-20fe-42ff-9cc6-288b4f103e7c",
      "meta": {
        "profile": [ "http://hl7.org/fhir/us/cqfmeasures/StructureDefinition/test-case-cqfm" ]
      },
      "contained": [ {
        "resourceType": "Parameters",
        "id": "8df254f2-fc81-43e8-aac8-9db8164521fc-parameters",
        "parameter": [ {
          "name": "subject",
          "valueString": "28bf1260-965f-4682-b427-2c2a2084312a"
        } ]
      } ],
      "extension": [ {
        "url": "http://hl7.org/fhir/StructureDefinition/cqf-inputParameters",
        "valueReference": {
          "reference": "#8df254f2-fc81-43e8-aac8-9db8164521fc-parameters"
        }
      }, {
        "url": "http://hl7.org/fhir/us/cqfmeasures/StructureDefinition/cqfm-testCaseDescription",
        "valueMarkdown": "17yo with previous positive adult depression screening and medication request follow up"
      } ],
      "modifierExtension": [ {
        "url": "http://hl7.org/fhir/us/cqfmeasures/StructureDefinition/cqfm-isTestCase",
        "valueBoolean": true
      } ],
      "status": "complete",
      "type": "individual",
      "measure": "https://madie.cms.gov/Measure/CMS2FHIRPCSDepressionScreenAndFollowUp",
      "period": {
        "start": "2026-01-01",
        "end": "2026-12-31"
      },
      "group": [ {
        "id": "Group_1",
        "population": [ {
          "id": "InitialPopulation_1",
          "code": {
            "coding": [ {
              "system": "http://terminology.hl7.org/CodeSystem/measure-population",
              "code": "initial-population",
              "display": "Initial Population"
            } ]
          },
          "count": 1
        }, {
          "id": "Denominator_1",
          "code": {
            "coding": [ {
              "system": "http://terminology.hl7.org/CodeSystem/measure-population",
              "code": "denominator",
              "display": "Denominator"
            } ]
          },
          "count": 1
        }, {
          "id": "DenominatorExclusion_1",
          "code": {
            "coding": [ {
              "system": "http://terminology.hl7.org/CodeSystem/measure-population",
              "code": "denominator-exclusion",
              "display": "Denominator Exclusion"
            } ]
          },
          "count": 0
        }, {
          "id": "Numerator_1",
          "code": {
            "coding": [ {
              "system": "http://terminology.hl7.org/CodeSystem/measure-population",
              "code": "numerator",
              "display": "Numerator"
            } ]
          },
          "count": 1
        }, {
          "id": "DenominatorException_1",
          "code": {
            "coding": [ {
              "system": "http://terminology.hl7.org/CodeSystem/measure-population",
              "code": "denominator-exception",
              "display": "Denominator Exception"
            } ]
          },
          "count": 0
        } ],
        "measureScore": {
          "value": 1.0
        }
      } ],
      "evaluatedResource": [ {
        "reference": "Patient/28bf1260-965f-4682-b427-2c2a2084312a"
      }, {
        "reference": "Encounter/4f943b7f-f4dd-4660-9ea3-8a3c6d244540"
      }, {
        "reference": "Observation/ec8dcdd2-9a57-403b-9b6c-0a16c1aed83d"
      }, {
        "reference": "MedicationRequest/9f62297d-0112-4f56-a1a5-8fdcc67dcc84"
      }, {
        "reference": "Coverage/f390533f-ed78-4590-9536-bdc87c301485"
      }, {
        "reference": "Organization/64170338-1f9e-431a-b1f7-3fed3f5b8e10"
      }, {
        "reference": "Practitioner/c21602b2-17cf-46a0-bc77-03f15a80ce39"
      } ]
    },
    "request": {
      "method": "PUT",
      "url": "MeasureReport/7cbf09c9-20fe-42ff-9cc6-288b4f103e7c"
    }
  } ]
}