{
  "resourceType": "Bundle",
  "id": "62b1dfab3968556e5150cf35",
  "type": "transaction",
  "entry": [ {
    "fullUrl": "https://madie.cms.gov/Patient/28bf1260-965f-4682-b427-2c2a2084312a",
    "resource": {
      "resourceType": "Patient",
      "id": "28bf1260-965f-4682-b427-2c2a2084312a",
      "meta": {
        "profile": [ "http://hl7.org/fhir/us/qicore/StructureDefinition/qicore-patient" ]
      },
      "extension": [ {
        "url": "http://hl7.org/fhir/us/core/StructureDefinition/us-core-race",
        "extension": [ {
          "url": "ombCategory",
          "valueCoding": {
            "system": "urn:oid:2.16.840.1.113883.6.238",
            "code": "1002-5",
            "display": "American Indian or Alaska Native",
            "userSelected": true
          }
        }, {
          "url": "text",
          "valueString": "American Indian or Alaska Native"
        } ]
      }, {
        "url": "http://hl7.org/fhir/us/core/StructureDefinition/us-core-ethnicity",
        "extension": [ {
          "url": "ombCategory",
          "valueCoding": {
            "system": "urn:oid:2.16.840.1.113883.6.238",
            "code": "2135-2",
            "display": "Hispanic or Latino",
            "userSelected": true
          }
        }, {
          "url": "text",
          "valueString": "Hispanic or Latino"
        } ]
      } ],
      "identifier": [ {
        "type": {
          "coding": [ {
            "system": "http://terminology.hl7.org/CodeSystem/v2-0203",
            "code": "MR"
          } ]
        },
        "system": "https://bonnie-fhir.healthit.gov/",
        "value": "62b1dfab3968556e5150cf35"
      } ],
      "name": [ {
        "family": "NUMERPass",
        "given": [ "17yoPositiveAdultDepressionScreeningandFollowUp" ]
      } ],
      "gender": "male",
      "birthDate": "2009-01-01"
    },
    "request": {
      "method": "PUT",
      "url": "Patient/28bf1260-965f-4682-b427-2c2a2084312a"
    }
  }, {
    "fullUrl": "https://madie.cms.gov/Encounter/5241a665-4e30-4a4a-b9f6-8532193d4192",
    "resource": {
      "resourceType": "Encounter",
      "id": "5241a665-4e30-4a4a-b9f6-8532193d4192",
      "meta": {
        "profile": [ "http://hl7.org/fhir/us/qicore/StructureDefinition/qicore-encounter" ]
      },
      "status": "finished",
      "class": {
        "system": "http://terminology.hl7.org/CodeSystem/v3-ActCode",
        "code": "AMB",
        "display": "ambulatory"
      },
      "type": [ {
        "coding": [ {
          "system": "http://snomed.info/sct",
          "version": "2021-09",
          "code": "10197000",
          "display": "Psychiatric interview and evaluation (procedure)",
          "userSelected": true
        } ]
      } ],
      "subject": {
        "reference": "Patient/28bf1260-965f-4682-b427-2c2a2084312a"
      },
      "period": {
        "start": "2026-01-01T08:00:00.000+00:00",
        "end": "2026-01-01T08:15:00.000+00:00"
      }
    },
    "request": {
      "method": "PUT",
      "url": "Encounter/5241a665-4e30-4a4a-b9f6-8532193d4192"
    }
  }, {
    "fullUrl": "https://madie.cms.gov/Observation/e511d3c4-02b0-4d40-b4c3-553715e9250a",
    "resource": {
      "resourceType": "Observation",
      "id": "e511d3c4-02b0-4d40-b4c3-553715e9250a",
      "meta": {
        "profile": [ "http://hl7.org/fhir/us/qicore/StructureDefinition/qicore-observation-screening-assessment" ]
      },
      "status": "final",
      "category": [ {
        "coding": [ {
          "system": "http://terminology.hl7.org/CodeSystem/observation-category",
          "code": "procedure",
          "display": "Procedure"
        } ]
      } ],
      "code": {
        "coding": [ {
          "system": "http://loinc.org",
          "code": "73832-8",
          "display": "Adult depression screening assessment",
          "userSelected": true
        } ]
      },
      "subject": {
        "reference": "Patient/28bf1260-965f-4682-b427-2c2a2084312a"
      },
      "effectiveDateTime": "2026-01-01T08:01:00.000+00:00",
      "valueCodeableConcept": {
        "coding": [ {
          "system": "http://snomed.info/sct",
          "code": "428181000124104",
          "display": "Depression screening positive (finding)",
          "userSelected": true
        } ]
      }
    },
    "request": {
      "method": "PUT",
      "url": "Observation/e511d3c4-02b0-4d40-b4c3-553715e9250a"
    }
  }, {
    "fullUrl": "https://madie.cms.gov/MedicationRequest/c4b2def8-c372-4e64-814d-72fd2a47b527",
    "resource": {
      "resourceType": "MedicationRequest",
      "id": "c4b2def8-c372-4e64-814d-72fd2a47b527",
      "meta": {
        "profile": [ "http://hl7.org/fhir/us/qicore/StructureDefinition/qicore-medicationrequest" ]
      },
      "status": "active",
      "intent": "order",
      "doNotPerform": false,
      "medicationCodeableConcept": {
        "coding": [ {
          "system": "http://www.nlm.nih.gov/research/umls/rxnorm",
          "code": "1000048",
          "display": "doxepin hydrochloride 10 MG Oral Capsule",
          "userSelected": true
        } ]
      },
      "subject": {
        "reference": "Patient/28bf1260-965f-4682-b427-2c2a2084312a"
      },
      "authoredOn": "2026-01-01T08:14:00.000+00:00",
      "requester": {
        "reference": "Practitioner/123456"
      }
    },
    "request": {
      "method": "PUT",
      "url": "MedicationRequest/c4b2def8-c372-4e64-814d-72fd2a47b527"
    }
  }, {
    "fullUrl": "https://madie.cms.gov/Coverage/cf8ec7c3-4d07-4988-8d28-c723437e4489",
    "resource": {
      "resourceType": "Coverage",
      "id": "cf8ec7c3-4d07-4988-8d28-c723437e4489",
      "meta": {
        "profile": [ "http://hl7.org/fhir/us/qicore/StructureDefinition/qicore-coverage" ]
      },
      "status": "active",
      "beneficiary": {
        "reference": "Patient/28bf1260-965f-4682-b427-2c2a2084312a"
      },
      "payor": [ {
        "reference": "Organization/d5b15d2d-98b1-4660-93c6-a859f872522d"
      } ]
    },
    "request": {
      "method": "PUT",
      "url": "Coverage/cf8ec7c3-4d07-4988-8d28-c723437e4489"
    }
  }, {
    "fullUrl": "https://madie.cms.gov/Organization/d5b15d2d-98b1-4660-93c6-a859f872522d",
    "resource": {
      "resourceType": "Organization",
      "id": "d5b15d2d-98b1-4660-93c6-a859f872522d",
      "meta": {
        "profile": [ "http://hl7.org/fhir/us/qicore/StructureDefinition/qicore-organization" ]
      },
      "identifier": [ {
        "use": "temp",
        "system": "urn:oid:2.16.840.1.113883.4.4",
        "value": "21-3259825"
      } ],
      "active": true,
      "type": [ {
        "coding": [ {
          "system": "http://terminology.hl7.org/CodeSystem/organization-type",
          "code": "pay",
          "display": "Payer"
        } ]
      } ],
      "name": "Blue Cross Blue Shield of Texas",
      "telecom": [ {
        "system": "phone",
        "value": "(+1) 972-766-6900"
      } ],
      "address": [ {
        "use": "billing",
        "type": "postal",
        "line": [ "P.O. Box 660044" ],
        "city": "Dallas",
        "state": "TX",
        "postalCode": "75266-0044",
        "country": "USA"
      } ]
    },
    "request": {
      "method": "PUT",
      "url": "Organization/d5b15d2d-98b1-4660-93c6-a859f872522d"
    }
  }, {
    "fullUrl": "https://madie.cms.gov/Practitioner/9d0dfc24-1d09-4e3e-98db-525ac4c362c7",
    "resource": {
      "resourceType": "Practitioner",
      "id": "9d0dfc24-1d09-4e3e-98db-525ac4c362c7",
      "meta": {
        "profile": [ "http://hl7.org/fhir/us/qicore/StructureDefinition/qicore-practitioner" ]
      },
      "identifier": [ {
        "system": "http://hl7.org/fhir/sid/us-npi",
        "value": "123456"
      } ],
      "name": [ {
        "family": "Evil",
        "prefix": [ "Dr" ]
      } ]
    },
    "request": {
      "method": "PUT",
      "url": "Practitioner/9d0dfc24-1d09-4e3e-98db-525ac4c362c7"
    }
  }, {
    "fullUrl": "https://madie.cms.gov/MeasureReport/8260edd5-ec79-4fe4-9f4c-ab3e3797ce9a",
    "resource": {
      "resourceType": "MeasureReport",
      "id": "8260edd5-ec79-4fe4-9f4c-ab3e3797ce9a",
      "meta": {
        "profile": [ "http://hl7.org/fhir/us/cqfmeasures/StructureDefinition/test-case-cqfm" ]
      },
      "contained": [ {
        "resourceType": "Parameters",
        "id": "bb54b8d4-a553-4c7c-9f73-901b93289f7f-parameters",
        "parameter": [ {
          "name": "subject",
          "valueString": "28bf1260-965f-4682-b427-2c2a2084312a"
        } ]
      } ],
      "extension": [ {
        "url": "http://hl7.org/fhir/StructureDefinition/cqf-inputParameters",
        "valueReference": {
          "reference": "#bb54b8d4-a553-4c7c-9f73-901b93289f7f-parameters"
        }
      }, {
        "url": "http://hl7.org/fhir/us/cqfmeasures/StructureDefinition/cqfm-testCaseDescription",
        "valueMarkdown": "17yo with previous positive adult depression screening and medication request follow up"
      } ],
      "modifierExtension": [ {
        "url": "http://hl7.org/fhir/us/cqfmeasures/StructureDefinition/cqfm-isTestCase",
        "valueBoolean": true
      } ],
      "status": "complete",
      "type": "individual",
      "measure": "https://madie.cms.gov/Measure/CMS2FHIRPCSDepressionScreenAndFollowUp",
      "period": {
        "start": "2026-01-01",
        "end": "2026-12-31"
      },
      "group": [ {
        "id": "Group_1",
        "population": [ {
          "id": "InitialPopulation_1",
          "code": {
            "coding": [ {
              "system": "http://terminology.hl7.org/CodeSystem/measure-population",
              "code": "initial-population",
              "display": "Initial Population"
            } ]
          },
          "count": 1
        }, {
          "id": "Denominator_1",
          "code": {
            "coding": [ {
              "system": "http://terminology.hl7.org/CodeSystem/measure-population",
              "code": "denominator",
              "display": "Denominator"
            } ]
          },
          "count": 1
        }, {
          "id": "DenominatorExclusion_1",
          "code": {
            "coding": [ {
              "system": "http://terminology.hl7.org/CodeSystem/measure-population",
              "code": "denominator-exclusion",
              "display": "Denominator Exclusion"
            } ]
          },
          "count": 0
        }, {
          "id": "Numerator_1",
          "code": {
            "coding": [ {
              "system": "http://terminology.hl7.org/CodeSystem/measure-population",
              "code": "numerator",
              "display": "Numerator"
            } ]
          },
          "count": 1
        }, {
          "id": "DenominatorException_1",
          "code": {
            "coding": [ {
              "system": "http://terminology.hl7.org/CodeSystem/measure-population",
              "code": "denominator-exception",
              "display": "Denominator Exception"
            } ]
          },
          "count": 0
        } ],
        "measureScore": {
          "value": 1.0
        }
      } ],
      "evaluatedResource": [ {
        "reference": "Patient/28bf1260-965f-4682-b427-2c2a2084312a"
      }, {
        "reference": "Encounter/5241a665-4e30-4a4a-b9f6-8532193d4192"
      }, {
        "reference": "Observation/e511d3c4-02b0-4d40-b4c3-553715e9250a"
      }, {
        "reference": "MedicationRequest/c4b2def8-c372-4e64-814d-72fd2a47b527"
      }, {
        "reference": "Coverage/cf8ec7c3-4d07-4988-8d28-c723437e4489"
      }, {
        "reference": "Organization/d5b15d2d-98b1-4660-93c6-a859f872522d"
      }, {
        "reference": "Practitioner/9d0dfc24-1d09-4e3e-98db-525ac4c362c7"
      } ]
    },
    "request": {
      "method": "PUT",
      "url": "MeasureReport/8260edd5-ec79-4fe4-9f4c-ab3e3797ce9a"
    }
  } ]
}