{
    "entry": [
        {
            "request": {
                "method": "PUT",
                "url": "Patient/58e117e5-ab51-4acf-92d1-55d70582eaa5"
            },
            "resource": {
                "identifier": [{
                    "system": "https://bonnie-fhir.healthit.gov/",
                    "type": {"coding": [{
                        "system": "http://terminology.hl7.org/CodeSystem/v2-0203",
                        "code": "MR"
                    }]},
                    "value": "62cc369c67cd2f796b838ab3"
                }],
                "extension": [
                    {
                        "extension": [
                            {
                                "valueCoding": {
                                    "system": "urn:oid:2.16.840.1.113883.6.238",
                                    "code": "2106-3",
                                    "userSelected": true,
                                    "display": "White"
                                },
                                "url": "ombCategory"
                            },
                            {
                                "valueString": "White",
                                "url": "text"
                            }
                        ],
                        "url": "http://hl7.org/fhir/us/core/StructureDefinition/us-core-race"
                    },
                    {
                        "extension": [
                            {
                                "valueCoding": {
                                    "system": "urn:oid:2.16.840.1.113883.6.238",
                                    "code": "2186-5",
                                    "userSelected": true,
                                    "display": "Not Hispanic or Latino"
                                },
                                "url": "ombCategory"
                            },
                            {
                                "valueString": "Not Hispanic or Latino",
                                "url": "text"
                            }
                        ],
                        "url": "http://hl7.org/fhir/us/core/StructureDefinition/us-core-ethnicity"
                    }
                ],
                "gender": "male",
                "meta": {"profile": ["http://hl7.org/fhir/us/qicore/StructureDefinition/qicore-patient"]},
                "name": [{
                    "given": ["FirstHTNWeightRecNoFU"],
                    "family": "NUMERFail"
                }],
                "id": "58e117e5-ab51-4acf-92d1-55d70582eaa5",
                "birthDate": "2006-01-31",
                "resourceType": "Patient"
            },
            "fullUrl": "https://madie.cms.gov/Patient/58e117e5-ab51-4acf-92d1-55d70582eaa5"
        },
        {
            "request": {
                "method": "PUT",
                "url": "Encounter/d63e7019-07be-4ba6-a475-727638347bb4"
            },
            "resource": {
                "period": {
                    "start": "2026-01-01T08:00:00.000+00:00",
                    "end": "2026-01-01T08:30:00.000+00:00"
                },
                "meta": {"profile": ["http://hl7.org/fhir/us/qicore/StructureDefinition/qicore-encounter"]},
                "subject": {"reference": "Patient/58e117e5-ab51-4acf-92d1-55d70582eaa5"},
                "id": "d63e7019-07be-4ba6-a475-727638347bb4",
                "type": [{"coding": [{
                    "system": "http://snomed.info/sct",
                    "code": "103705002",
                    "userSelected": true,
                    "display": "Patient status observation (procedure)",
                    "version": "2022-03"
                }]}],
                "class": {
                    "system": "http://terminology.hl7.org/CodeSystem/v3-ActCode",
                    "code": "AMB",
                    "display": "ambulatory"
                },
                "resourceType": "Encounter",
                "status": "finished"
            },
            "fullUrl": "https://madie.cms.gov/Encounter/d63e7019-07be-4ba6-a475-727638347bb4"
        },
        {
            "request": {
                "method": "PUT",
                "url": "Observation/887f0d16-bfa3-4d1f-9ff9-a81d411eb59b"
            },
            "resource": {
                "code": {"coding": [{
                    "system": "http://loinc.org",
                    "code": "8480-6",
                    "userSelected": true,
                    "display": "Systolic blood pressure"
                }]},
                "effectiveDateTime": "2026-01-01T08:05:00.000+00:00",
                "meta": {"profile": ["http://hl7.org/fhir/us/qicore/StructureDefinition/qicore-simple-observation"]},
                "subject": {"reference": "Patient/58e117e5-ab51-4acf-92d1-55d70582eaa5"},
                "id": "887f0d16-bfa3-4d1f-9ff9-a81d411eb59b",
                "category": [{"coding": [{
                    "system": "http://terminology.hl7.org/CodeSystem/observation-category",
                    "code": "procedure",
                    "display": "Procedure"
                }]}],
                "resourceType": "Observation",
                "status": "final",
                "valueQuantity": {
                    "unit": "mm[Hg]",
                    "value": 130
                }
            },
            "fullUrl": "https://madie.cms.gov/Observation/887f0d16-bfa3-4d1f-9ff9-a81d411eb59b"
        },
        {
            "request": {
                "method": "PUT",
                "url": "Observation/567b313b-f1fd-4b52-9c98-328ab3f140b7"
            },
            "resource": {
                "code": {"coding": [{
                    "system": "http://loinc.org",
                    "code": "8462-4",
                    "userSelected": true,
                    "display": "Diastolic blood pressure"
                }]},
                "effectiveDateTime": "2026-01-01T08:05:00.000+00:00",
                "meta": {"profile": ["http://hl7.org/fhir/us/qicore/StructureDefinition/qicore-simple-observation"]},
                "subject": {"reference": "Patient/58e117e5-ab51-4acf-92d1-55d70582eaa5"},
                "id": "567b313b-f1fd-4b52-9c98-328ab3f140b7",
                "category": [{"coding": [{
                    "system": "http://terminology.hl7.org/CodeSystem/observation-category",
                    "code": "procedure",
                    "display": "Procedure"
                }]}],
                "resourceType": "Observation",
                "status": "final",
                "valueQuantity": {
                    "unit": "mm[Hg]",
                    "value": 80
                }
            },
            "fullUrl": "https://madie.cms.gov/Observation/567b313b-f1fd-4b52-9c98-328ab3f140b7"
        },
        {
            "request": {
                "method": "PUT",
                "url": "ServiceRequest/80b7a19b-daf0-4821-9412-904512ca1ed6"
            },
            "resource": {
                "code": {"coding": [{
                    "system": "http://snomed.info/sct",
                    "code": "1181000175107",
                    "userSelected": true,
                    "display": "Recommendation to lose weight (procedure)",
                    "version": "2022-03"
                }]},
                "authoredOn": "2026-01-01T08:25:00.000+00:00",
                "meta": {"profile": ["http://hl7.org/fhir/us/qicore/StructureDefinition/qicore-servicerequest"]},
                "subject": {"reference": "Patient/58e117e5-ab51-4acf-92d1-55d70582eaa5"},
                "id": "80b7a19b-daf0-4821-9412-904512ca1ed6",
                "intent": "order",
                "resourceType": "ServiceRequest",
                "status": "active"
            },
            "fullUrl": "https://madie.cms.gov/ServiceRequest/80b7a19b-daf0-4821-9412-904512ca1ed6"
        },
        {
            "request": {
                "method": "PUT",
                "url": "Coverage/1920f64c-e3ee-4dfd-bfce-2fcc1d28697f"
            },
            "resource": {
                "payor": [{"reference": "Organization/af01cc29-2eda-455b-b330-d0335f07a23c"}],
                "beneficiary": {"reference": "Patient/58e117e5-ab51-4acf-92d1-55d70582eaa5"},
                "meta": {"profile": ["http://hl7.org/fhir/us/qicore/StructureDefinition/qicore-coverage"]},
                "id": "1920f64c-e3ee-4dfd-bfce-2fcc1d28697f",
                "resourceType": "Coverage",
                "status": "active"
            },
            "fullUrl": "https://madie.cms.gov/Coverage/1920f64c-e3ee-4dfd-bfce-2fcc1d28697f"
        },
        {
            "request": {
                "method": "PUT",
                "url": "Organization/af01cc29-2eda-455b-b330-d0335f07a23c"
            },
            "resource": {
                "identifier": [{
                    "system": "urn:oid:2.16.840.1.113883.4.4",
                    "use": "temp",
                    "value": "21-3259825"
                }],
                "address": [{
                    "country": "USA",
                    "city": "Dallas",
                    "use": "billing",
                    "line": ["P.O. Box 660044"],
                    "postalCode": "75266-0044",
                    "state": "TX",
                    "type": "postal"
                }],
                "meta": {"profile": ["http://hl7.org/fhir/us/qicore/StructureDefinition/qicore-organization"]},
                "name": "Blue Cross Blue Shield of Texas",
                "active": true,
                "telecom": [{
                    "system": "phone",
                    "value": "(+1) 972-766-6900"
                }],
                "id": "af01cc29-2eda-455b-b330-d0335f07a23c",
                "type": [{"coding": [{
                    "system": "http://terminology.hl7.org/CodeSystem/organization-type",
                    "code": "pay",
                    "display": "Payer"
                }]}],
                "resourceType": "Organization"
            },
            "fullUrl": "https://madie.cms.gov/Organization/af01cc29-2eda-455b-b330-d0335f07a23c"
        },
        {
            "request": {
                "method": "PUT",
                "url": "Practitioner/59087c48-03b1-4cbd-8664-a008c2cff4a5"
            },
            "resource": {
                "identifier": [{
                    "system": "http://hl7.org/fhir/sid/us-npi",
                    "value": "123456"
                }],
                "meta": {"profile": ["http://hl7.org/fhir/us/qicore/StructureDefinition/qicore-practitioner"]},
                "name": [{
                    "prefix": ["Dr"],
                    "family": "Evil"
                }],
                "id": "59087c48-03b1-4cbd-8664-a008c2cff4a5",
                "resourceType": "Practitioner"
            },
            "fullUrl": "https://madie.cms.gov/Practitioner/59087c48-03b1-4cbd-8664-a008c2cff4a5"
        },
        {
            "request": {
                "method": "PUT",
                "url": "MeasureReport/26c7e7a0-a5e1-4a73-a1b7-9265f978c65c"
            },
            "resource": {
                "contained": [{
                    "parameter": [{
                        "valueString": "58e117e5-ab51-4acf-92d1-55d70582eaa5",
                        "name": "subject"
                    }],
                    "id": "8c8f2670-8a3d-4ec1-8336-954aa56b2eb8-parameters",
                    "resourceType": "Parameters"
                }],
                "extension": [
                    {
                        "valueReference": {"reference": "#8c8f2670-8a3d-4ec1-8336-954aa56b2eb8-parameters"},
                        "url": "http://hl7.org/fhir/StructureDefinition/cqf-inputParameters"
                    },
                    {
                        "valueMarkdown": "Encounter first day of MP, BP reading 130/80, weight loss recommended but no follow up although first HTN reading. ",
                        "url": "http://hl7.org/fhir/us/cqfmeasures/StructureDefinition/cqfm-testCaseDescription"
                    }
                ],
                "period": {
                    "start": "2026-01-01",
                    "end": "2026-12-31"
                },
                "measure": "https://madie.cms.gov/Measure/CMS22FHIRPCSBPScreeningFollowUp",
                "meta": {"profile": ["http://hl7.org/fhir/us/cqfmeasures/StructureDefinition/test-case-cqfm"]},
                "modifierExtension": [{
                    "valueBoolean": true,
                    "url": "http://hl7.org/fhir/us/cqfmeasures/StructureDefinition/cqfm-isTestCase"
                }],
                "id": "26c7e7a0-a5e1-4a73-a1b7-9265f978c65c",
                "evaluatedResource": [
                    {"reference": "Patient/58e117e5-ab51-4acf-92d1-55d70582eaa5"},
                    {"reference": "Encounter/d63e7019-07be-4ba6-a475-727638347bb4"},
                    {"reference": "Observation/887f0d16-bfa3-4d1f-9ff9-a81d411eb59b"},
                    {"reference": "Observation/567b313b-f1fd-4b52-9c98-328ab3f140b7"},
                    {"reference": "ServiceRequest/80b7a19b-daf0-4821-9412-904512ca1ed6"},
                    {"reference": "Coverage/1920f64c-e3ee-4dfd-bfce-2fcc1d28697f"},
                    {"reference": "Organization/af01cc29-2eda-455b-b330-d0335f07a23c"},
                    {"reference": "Practitioner/59087c48-03b1-4cbd-8664-a008c2cff4a5"}
                ],
                "type": "individual",
                "resourceType": "MeasureReport",
                "status": "complete",
                "group": [{
                    "id": "Group_1",
                    "measureScore": {"value": 0},
                    "population": [
                        {
                            "code": {"coding": [{
                                "system": "http://terminology.hl7.org/CodeSystem/measure-population",
                                "code": "initial-population",
                                "display": "Initial Population"
                            }]},
                            "count": 1,
                            "id": "InitialPopulation_1"
                        },
                        {
                            "code": {"coding": [{
                                "system": "http://terminology.hl7.org/CodeSystem/measure-population",
                                "code": "denominator",
                                "display": "Denominator"
                            }]},
                            "count": 1,
                            "id": "Denominator_1"
                        },
                        {
                            "code": {"coding": [{
                                "system": "http://terminology.hl7.org/CodeSystem/measure-population",
                                "code": "denominator-exclusion",
                                "display": "Denominator Exclusion"
                            }]},
                            "count": 0,
                            "id": "DenominatorExclusion_1"
                        },
                        {
                            "code": {"coding": [{
                                "system": "http://terminology.hl7.org/CodeSystem/measure-population",
                                "code": "numerator",
                                "display": "Numerator"
                            }]},
                            "count": 0,
                            "id": "Numerator_1"
                        },
                        {
                            "code": {"coding": [{
                                "system": "http://terminology.hl7.org/CodeSystem/measure-population",
                                "code": "denominator-exception",
                                "display": "Denominator Exception"
                            }]},
                            "count": 0,
                            "id": "DenominatorException_1"
                        }
                    ]
                }]
            },
            "fullUrl": "https://madie.cms.gov/MeasureReport/26c7e7a0-a5e1-4a73-a1b7-9265f978c65c"
        }
    ],
    "id": "62cc369c67cd2f796b838ab3",
    "type": "transaction",
    "resourceType": "Bundle"
}