{
  "resourceType": "Bundle",
  "id": "tests-NUMERFail-OpioidAntagonistOralRoute-bundle",
  "type": "transaction",
  "entry": [ {
    "fullUrl": "https://madie.cms.gov/MedicationAdministration/1787b184-1def-4c9b-a40f-d7fcad3f437f",
    "resource": {
      "resourceType": "MedicationAdministration",
      "id": "1787b184-1def-4c9b-a40f-d7fcad3f437f",
      "meta": {
        "profile": [ "http://hl7.org/fhir/us/qicore/StructureDefinition/qicore-medicationadministration" ]
      },
      "status": "completed",
      "medicationCodeableConcept": {
        "coding": [ {
          "system": "http://www.nlm.nih.gov/research/umls/rxnorm",
          "code": "1191222",
          "display": "Opioid Antagonist"
        } ]
      },
      "subject": {
        "reference": "Patient/67f1ba74-5f3c-4729-9085-69bc55f49225"
      },
      "context": {
        "reference": "Encounter/1c5e5564-7ca8-478a-942c-3c5694d34b3d"
      },
      "effectiveDateTime": "2026-08-11T20:14:00.000+00:00",
      "note": [ {
        "text": "Administered opioid antagonist as prescribed."
      } ],
      "dosage": {
        "route": {
          "coding": [ {
            "system": "http://terminology.hl7.org/CodeSystem/v3-RouteOfAdministration",
            "code": "34206005",
            "display": "Oral route"
          } ]
        }
      }
    },
    "request": {
      "method": "PUT",
      "url": "MedicationAdministration/1787b184-1def-4c9b-a40f-d7fcad3f437f"
    }
  }, {
    "fullUrl": "https://madie.cms.gov/MedicationAdministration/1d2f7c2e-397c-4fc9-abb3-0b459a325f82",
    "resource": {
      "resourceType": "MedicationAdministration",
      "id": "1d2f7c2e-397c-4fc9-abb3-0b459a325f82",
      "meta": {
        "profile": [ "http://hl7.org/fhir/us/qicore/StructureDefinition/qicore-medicationadministration" ]
      },
      "status": "completed",
      "medicationCodeableConcept": {
        "coding": [ {
          "system": "http://www.nlm.nih.gov/research/umls/rxnorm",
          "code": "1010600",
          "display": "Opioids, All"
        } ]
      },
      "subject": {
        "reference": "Patient/67f1ba74-5f3c-4729-9085-69bc55f49225"
      },
      "context": {
        "reference": "Encounter/1c5e5564-7ca8-478a-942c-3c5694d34b3d"
      },
      "effectiveDateTime": "2026-08-11T08:00:00.000+00:00",
      "note": [ {
        "text": "Administered opioid medication as prescribed."
      } ],
      "dosage": {
        "route": {
          "coding": [ {
            "system": "http://terminology.hl7.org/CodeSystem/v3-RouteOfAdministration",
            "code": "34206005",
            "display": "Oral route"
          } ]
        },
        "rateQuantity": {
          "value": 1,
          "unit": "mg"
        }
      }
    },
    "request": {
      "method": "PUT",
      "url": "MedicationAdministration/1d2f7c2e-397c-4fc9-abb3-0b459a325f82"
    }
  }, {
    "fullUrl": "https://madie.cms.gov/Encounter/1c5e5564-7ca8-478a-942c-3c5694d34b3d",
    "resource": {
      "resourceType": "Encounter",
      "id": "1c5e5564-7ca8-478a-942c-3c5694d34b3d",
      "meta": {
        "profile": [ "http://hl7.org/fhir/us/qicore/StructureDefinition/qicore-encounter" ]
      },
      "status": "finished",
      "class": {
        "system": "http://terminology.hl7.org/CodeSystem/v3-ActCode",
        "code": "IMP",
        "display": "inpatient encounter"
      },
      "type": [ {
        "coding": [ {
          "system": "http://snomed.info/sct",
          "code": "183452005",
          "display": "Inpatient encounter"
        } ]
      } ],
      "subject": {
        "reference": "Patient/67f1ba74-5f3c-4729-9085-69bc55f49225"
      },
      "period": {
        "start": "2026-08-11T08:00:00.000+00:00",
        "end": "2026-08-14T08:15:00.000+00:00"
      }
    },
    "request": {
      "method": "PUT",
      "url": "Encounter/1c5e5564-7ca8-478a-942c-3c5694d34b3d"
    }
  }, {
    "fullUrl": "https://madie.cms.gov/Patient/67f1ba74-5f3c-4729-9085-69bc55f49225",
    "resource": {
      "resourceType": "Patient",
      "id": "67f1ba74-5f3c-4729-9085-69bc55f49225",
      "meta": {
        "profile": [ "http://hl7.org/fhir/us/qicore/StructureDefinition/qicore-patient" ]
      },
      "extension": [ {
        "url": "http://hl7.org/fhir/us/core/StructureDefinition/us-core-race",
        "extension": [ {
          "url": "ombCategory",
          "valueCoding": {
            "system": "urn:oid:2.16.840.1.113883.6.238",
            "code": "2106-3",
            "display": "White"
          }
        }, {
          "url": "text",
          "valueString": "White"
        } ]
      }, {
        "url": "http://hl7.org/fhir/us/core/StructureDefinition/us-core-ethnicity",
        "extension": [ {
          "url": "ombCategory",
          "valueCoding": {
            "system": "urn:oid:2.16.840.1.113883.6.238",
            "code": "2135-2",
            "display": "Hispanic or Latino"
          }
        }, {
          "url": "text",
          "valueString": "Hispanic or Latino"
        } ]
      }, {
        "url": "http://hl7.org/fhir/us/core/StructureDefinition/us-core-sex",
        "valueCode": "248153007"
      } ],
      "identifier": [ {
        "system": "http://hospital.smarthealthit.org",
        "value": "999999999"
      } ],
      "name": [ {
        "family": "Example",
        "given": [ "Patient" ]
      } ],
      "gender": "female",
      "birthDate": "1956-01-01"
    },
    "request": {
      "method": "PUT",
      "url": "Patient/67f1ba74-5f3c-4729-9085-69bc55f49225"
    }
  }, {
    "fullUrl": "https://madie.cms.gov/MeasureReport/2138fac9-8fdf-4f9a-81a2-482b31b093cb",
    "resource": {
      "resourceType": "MeasureReport",
      "id": "2138fac9-8fdf-4f9a-81a2-482b31b093cb",
      "meta": {
        "profile": [ "http://hl7.org/fhir/us/cqfmeasures/StructureDefinition/test-case-cqfm" ]
      },
      "contained": [ {
        "resourceType": "Parameters",
        "id": "ee8544aa-0f34-4986-a406-6efdf1c49aef-parameters",
        "parameter": [ {
          "name": "subject",
          "valueString": "67f1ba74-5f3c-4729-9085-69bc55f49225"
        } ]
      } ],
      "extension": [ {
        "url": "http://hl7.org/fhir/StructureDefinition/cqf-inputParameters",
        "valueReference": {
          "reference": "#ee8544aa-0f34-4986-a406-6efdf1c49aef-parameters"
        }
      }, {
        "url": "http://hl7.org/fhir/us/cqfmeasures/StructureDefinition/cqfm-testCaseDescription",
        "valueMarkdown": "Patient given opioid 8:15AM. Antagonist given, route is oral, given within 12 hours after opioid. Does not meet numerator, as antagonist must be given non-oral/non-enteral route"
      } ],
      "modifierExtension": [ {
        "url": "http://hl7.org/fhir/us/cqfmeasures/StructureDefinition/cqfm-isTestCase",
        "valueBoolean": true
      } ],
      "status": "complete",
      "type": "individual",
      "measure": "https://madie.cms.gov/Measure/CMS819FHIRHHORAE",
      "period": {
        "start": "2026-01-01",
        "end": "2026-12-31"
      },
      "group": [ {
        "id": "Group_1",
        "population": [ {
          "id": "InitialPopulation_1",
          "code": {
            "coding": [ {
              "system": "http://terminology.hl7.org/CodeSystem/measure-population",
              "code": "initial-population",
              "display": "Initial Population"
            } ]
          },
          "count": 1
        }, {
          "id": "Denominator_1",
          "code": {
            "coding": [ {
              "system": "http://terminology.hl7.org/CodeSystem/measure-population",
              "code": "denominator",
              "display": "Denominator"
            } ]
          },
          "count": 1
        }, {
          "id": "Numerator_1",
          "code": {
            "coding": [ {
              "system": "http://terminology.hl7.org/CodeSystem/measure-population",
              "code": "numerator",
              "display": "Numerator"
            } ]
          },
          "count": 0
        } ],
        "measureScore": {
          "value": 0.0
        }
      } ],
      "evaluatedResource": [ {
        "reference": "MedicationAdministration/1787b184-1def-4c9b-a40f-d7fcad3f437f"
      }, {
        "reference": "MedicationAdministration/1d2f7c2e-397c-4fc9-abb3-0b459a325f82"
      }, {
        "reference": "Encounter/1c5e5564-7ca8-478a-942c-3c5694d34b3d"
      }, {
        "reference": "Patient/67f1ba74-5f3c-4729-9085-69bc55f49225"
      } ]
    },
    "request": {
      "method": "PUT",
      "url": "MeasureReport/2138fac9-8fdf-4f9a-81a2-482b31b093cb"
    }
  } ]
}