{
  "resourceType": "Bundle",
  "id": "DENEXFail-HospiceEncEndsB4MP",
  "type": "transaction",
  "entry": [ {
    "fullUrl": "https://madie.cms.gov/Patient/8e477157-81e8-4b7b-ba79-4a441a2a1109",
    "resource": {
      "resourceType": "Patient",
      "id": "8e477157-81e8-4b7b-ba79-4a441a2a1109",
      "meta": {
        "profile": [ "http://hl7.org/fhir/us/qicore/StructureDefinition/qicore-patient" ]
      },
      "extension": [ {
        "url": "http://hl7.org/fhir/us/core/StructureDefinition/us-core-race",
        "extension": [ {
          "url": "ombCategory",
          "valueCoding": {
            "system": "urn:oid:2.16.840.1.113883.6.238",
            "code": "2028-9",
            "display": "Asian"
          }
        }, {
          "url": "text",
          "valueString": "Asian"
        } ]
      }, {
        "url": "http://hl7.org/fhir/us/core/StructureDefinition/us-core-ethnicity",
        "extension": [ {
          "url": "ombCategory",
          "valueCoding": {
            "system": "urn:oid:2.16.840.1.113883.6.238",
            "code": "2135-2",
            "display": "Hispanic or Latino"
          }
        }, {
          "url": "text",
          "valueString": "Hispanic or Latino"
        } ]
      } ],
      "identifier": [ {
        "system": "http://hospital.smarthealthit.org",
        "value": "999999995"
      } ],
      "name": [ {
        "family": "IPFail",
        "given": [ "HospiceEncEndsB4MP" ]
      } ],
      "gender": "female",
      "birthDate": "2007-12-31"
    },
    "request": {
      "method": "PUT",
      "url": "Patient/8e477157-81e8-4b7b-ba79-4a441a2a1109"
    }
  }, {
    "fullUrl": "https://madie.cms.gov/Encounter/37fdd8ee-d462-4a14-aae8-0a22fea906ee",
    "resource": {
      "resourceType": "Encounter",
      "id": "37fdd8ee-d462-4a14-aae8-0a22fea906ee",
      "meta": {
        "profile": [ "http://hl7.org/fhir/us/qicore/StructureDefinition/qicore-encounter" ]
      },
      "status": "finished",
      "class": {
        "system": "http://terminology.hl7.org/CodeSystem/v3-ActCode",
        "code": "AMB",
        "display": "ambulatory"
      },
      "type": [ {
        "coding": [ {
          "system": "http://snomed.info/sct",
          "code": "3391000175108",
          "display": "Office visit for pediatric care and assessment (procedure)"
        } ]
      } ],
      "subject": {
        "reference": "Patient/8e477157-81e8-4b7b-ba79-4a441a2a1109"
      },
      "period": {
        "start": "2026-01-01T00:00:00.000+00:00",
        "end": "2026-01-01T01:00:00.000+00:00"
      }
    },
    "request": {
      "method": "PUT",
      "url": "Encounter/37fdd8ee-d462-4a14-aae8-0a22fea906ee"
    }
  }, {
    "fullUrl": "https://madie.cms.gov/Condition/c814acff-7903-44c5-a5e4-e8043dd17413",
    "resource": {
      "resourceType": "Condition",
      "id": "c814acff-7903-44c5-a5e4-e8043dd17413",
      "meta": {
        "profile": [ "http://hl7.org/fhir/us/qicore/StructureDefinition/qicore-condition-encounter-diagnosis" ]
      },
      "clinicalStatus": {
        "coding": [ {
          "system": "http://terminology.hl7.org/CodeSystem/condition-clinical",
          "code": "active"
        } ]
      },
      "category": [ {
        "coding": [ {
          "system": "http://terminology.hl7.org/CodeSystem/condition-category",
          "code": "encounter-diagnosis",
          "display": "Encounter Diagnosis"
        } ]
      } ],
      "code": {
        "coding": [ {
          "system": "http://snomed.info/sct",
          "code": "371125006",
          "display": "Labile essential hypertension (disorder)"
        } ]
      },
      "subject": {
        "reference": "Patient/8e477157-81e8-4b7b-ba79-4a441a2a1109"
      },
      "onsetDateTime": "2026-06-30T23:59:59.000+00:00"
    },
    "request": {
      "method": "PUT",
      "url": "Condition/c814acff-7903-44c5-a5e4-e8043dd17413"
    }
  }, {
    "fullUrl": "https://madie.cms.gov/Encounter/1f6101df-bcc1-43b6-b7cf-e9ad2e63d9c7",
    "resource": {
      "resourceType": "Encounter",
      "id": "1f6101df-bcc1-43b6-b7cf-e9ad2e63d9c7",
      "meta": {
        "profile": [ "http://hl7.org/fhir/us/qicore/StructureDefinition/qicore-encounter" ]
      },
      "status": "finished",
      "class": {
        "system": "http://terminology.hl7.org/CodeSystem/v3-ActCode",
        "code": "AMB",
        "display": "ambulatory"
      },
      "type": [ {
        "coding": [ {
          "system": "http://snomed.info/sct",
          "code": "183921001",
          "display": "Admission to hospice for respite (procedure)"
        } ]
      } ],
      "subject": {
        "reference": "Patient/8e477157-81e8-4b7b-ba79-4a441a2a1109"
      },
      "period": {
        "start": "2025-12-31T21:59:59.000+00:00",
        "end": "2025-12-31T23:59:59.000+00:00"
      }
    },
    "request": {
      "method": "PUT",
      "url": "Encounter/1f6101df-bcc1-43b6-b7cf-e9ad2e63d9c7"
    }
  }, {
    "fullUrl": "https://madie.cms.gov/MeasureReport/4996689b-f918-4d46-8069-636d436dba2b",
    "resource": {
      "resourceType": "MeasureReport",
      "id": "4996689b-f918-4d46-8069-636d436dba2b",
      "meta": {
        "profile": [ "http://hl7.org/fhir/us/cqfmeasures/StructureDefinition/test-case-cqfm" ]
      },
      "contained": [ {
        "resourceType": "Parameters",
        "id": "b4fafd31-4d9a-4ff3-aa28-6e286dd824da-parameters",
        "parameter": [ {
          "name": "subject",
          "valueString": "8e477157-81e8-4b7b-ba79-4a441a2a1109"
        } ]
      } ],
      "extension": [ {
        "url": "http://hl7.org/fhir/StructureDefinition/cqf-inputParameters",
        "valueReference": {
          "reference": "#b4fafd31-4d9a-4ff3-aa28-6e286dd824da-parameters"
        }
      }, {
        "url": "http://hl7.org/fhir/us/cqfmeasures/StructureDefinition/cqfm-testCaseDescription",
        "valueMarkdown": "Hospice encounter ends before MP"
      } ],
      "modifierExtension": [ {
        "url": "http://hl7.org/fhir/us/cqfmeasures/StructureDefinition/cqfm-isTestCase",
        "valueBoolean": true
      } ],
      "status": "complete",
      "type": "individual",
      "measure": "https://madie.cms.gov/Measure/CMS165FHIRControllingHighBloodPressure",
      "period": {
        "start": "2026-01-01",
        "end": "2026-12-31"
      },
      "group": [ {
        "id": "Group_1",
        "population": [ {
          "id": "InitialPopulation_1",
          "code": {
            "coding": [ {
              "system": "http://terminology.hl7.org/CodeSystem/measure-population",
              "code": "initial-population",
              "display": "Initial Population"
            } ]
          },
          "count": 1
        }, {
          "id": "Denominator_1",
          "code": {
            "coding": [ {
              "system": "http://terminology.hl7.org/CodeSystem/measure-population",
              "code": "denominator",
              "display": "Denominator"
            } ]
          },
          "count": 1
        }, {
          "id": "DenominatorExclusion_1",
          "code": {
            "coding": [ {
              "system": "http://terminology.hl7.org/CodeSystem/measure-population",
              "code": "denominator-exclusion",
              "display": "Denominator Exclusion"
            } ]
          },
          "count": 0
        }, {
          "id": "Numerator_1",
          "code": {
            "coding": [ {
              "system": "http://terminology.hl7.org/CodeSystem/measure-population",
              "code": "numerator",
              "display": "Numerator"
            } ]
          },
          "count": 0
        } ],
        "measureScore": {
          "value": 1.0
        }
      } ],
      "evaluatedResource": [ {
        "reference": "Patient/8e477157-81e8-4b7b-ba79-4a441a2a1109"
      }, {
        "reference": "Encounter/37fdd8ee-d462-4a14-aae8-0a22fea906ee"
      }, {
        "reference": "Condition/c814acff-7903-44c5-a5e4-e8043dd17413"
      }, {
        "reference": "Encounter/1f6101df-bcc1-43b6-b7cf-e9ad2e63d9c7"
      } ]
    },
    "request": {
      "method": "PUT",
      "url": "MeasureReport/4996689b-f918-4d46-8069-636d436dba2b"
    }
  } ]
}