{
  "resourceType": "Bundle",
  "id": "633b3f9e0968f80122503cbf",
  "type": "transaction",
  "entry": [ {
    "fullUrl": "https://madie.cms.gov/Patient/6fe7d963-52f2-4775-a428-73f2080e3ba3",
    "resource": {
      "resourceType": "Patient",
      "id": "6fe7d963-52f2-4775-a428-73f2080e3ba3",
      "meta": {
        "profile": [ "http://hl7.org/fhir/us/qicore/StructureDefinition/qicore-patient" ]
      },
      "text": {
        "status": "generated",
        "div": "<div xmlns=\"http://www.w3.org/1999/xhtml\"><div class=\"hapiHeaderText\">Age64Yrs364DaysOnDayOfEncStart<b>IPPASS</b></div><table class=\"hapiPropertyTable\"><tbody><tr><td>Date of birth</td><td><span>02 February 1947</span></td></tr></tbody></table></div>"
      },
      "extension": [ {
        "url": "http://hl7.org/fhir/us/core/StructureDefinition/us-core-race",
        "extension": [ {
          "url": "ombCategory",
          "valueCoding": {
            "system": "urn:oid:2.16.840.1.113883.6.238",
            "code": "1002-5",
            "display": "American Indian or Alaska Native",
            "userSelected": true
          }
        }, {
          "url": "text",
          "valueString": "American Indian or Alaska Native"
        } ]
      }, {
        "url": "http://hl7.org/fhir/us/core/StructureDefinition/us-core-ethnicity",
        "extension": [ {
          "url": "ombCategory",
          "valueCoding": {
            "system": "urn:oid:2.16.840.1.113883.6.238",
            "code": "2135-2",
            "display": "Hispanic or Latino",
            "userSelected": true
          }
        }, {
          "url": "text",
          "valueString": "Hispanic or Latino"
        } ]
      } ],
      "identifier": [ {
        "type": {
          "coding": [ {
            "system": "http://terminology.hl7.org/CodeSystem/v2-0203",
            "code": "MR"
          } ]
        },
        "system": "https://bonnie-fhir.healthit.gov/",
        "value": "633b3f9e0968f80122503cbf"
      } ],
      "active": true,
      "name": [ {
        "use": "usual",
        "family": "IPPass",
        "given": [ "Age64Yrs364DaysOnDayOfEncStart" ]
      } ],
      "gender": "female",
      "birthDate": "1961-02-02"
    },
    "request": {
      "method": "PUT",
      "url": "Patient/6fe7d963-52f2-4775-a428-73f2080e3ba3"
    }
  }, {
    "fullUrl": "https://madie.cms.gov/Encounter/5b6d6764-7dc9-4ac0-88c4-a6f63afdcb9e",
    "resource": {
      "resourceType": "Encounter",
      "id": "5b6d6764-7dc9-4ac0-88c4-a6f63afdcb9e",
      "meta": {
        "profile": [ "http://hl7.org/fhir/us/qicore/StructureDefinition/qicore-encounter" ]
      },
      "status": "finished",
      "class": {
        "system": "http://terminology.hl7.org/CodeSystem/v3-ActCode",
        "code": "IMP",
        "display": "inpatient encounter"
      },
      "type": [ {
        "coding": [ {
          "system": "http://snomed.info/sct",
          "code": "183452005"
        } ]
      } ],
      "subject": {
        "reference": "Patient/6fe7d963-52f2-4775-a428-73f2080e3ba3"
      },
      "period": {
        "start": "2026-02-01T08:00:00Z",
        "end": "2026-02-05T08:15:00.000+00:00"
      }
    },
    "request": {
      "method": "PUT",
      "url": "Encounter/5b6d6764-7dc9-4ac0-88c4-a6f63afdcb9e"
    }
  }, {
    "fullUrl": "https://madie.cms.gov/Procedure/f887bb68-4c95-4c07-b65d-c9f93148eceb",
    "resource": {
      "resourceType": "Procedure",
      "id": "f887bb68-4c95-4c07-b65d-c9f93148eceb",
      "meta": {
        "profile": [ "http://hl7.org/fhir/us/qicore/StructureDefinition/qicore-procedure" ]
      },
      "extension": [ {
        "url": "http://hl7.org/fhir/us/qicore/StructureDefinition/qicore-recorded",
        "valueDateTime": "2014-04-05T13:35:00Z"
      } ],
      "status": "completed",
      "code": {
        "coding": [ {
          "system": "http://snomed.info/sct",
          "code": "10745001"
        } ]
      },
      "subject": {
        "reference": "Patient/6fe7d963-52f2-4775-a428-73f2080e3ba3"
      },
      "performedPeriod": {
        "start": "2026-02-01T08:00:00Z",
        "end": "2026-02-05T08:15:00.000+00:00"
      }
    },
    "request": {
      "method": "PUT",
      "url": "Procedure/f887bb68-4c95-4c07-b65d-c9f93148eceb"
    }
  }, {
    "fullUrl": "https://madie.cms.gov/Coverage/d1d1f87e-3d24-42ec-b7fc-839c1cd0c66d",
    "resource": {
      "resourceType": "Coverage",
      "id": "d1d1f87e-3d24-42ec-b7fc-839c1cd0c66d",
      "meta": {
        "profile": [ "http://hl7.org/fhir/us/qicore/StructureDefinition/qicore-coverage" ]
      },
      "status": "active",
      "beneficiary": {
        "reference": "Patient/6fe7d963-52f2-4775-a428-73f2080e3ba3"
      },
      "payor": [ {
        "reference": "Organization/16e39e5d-37e0-4002-8c6b-ca32afb94aea"
      } ]
    },
    "request": {
      "method": "PUT",
      "url": "Coverage/d1d1f87e-3d24-42ec-b7fc-839c1cd0c66d"
    }
  }, {
    "fullUrl": "https://madie.cms.gov/Organization/16e39e5d-37e0-4002-8c6b-ca32afb94aea",
    "resource": {
      "resourceType": "Organization",
      "id": "16e39e5d-37e0-4002-8c6b-ca32afb94aea",
      "meta": {
        "profile": [ "http://hl7.org/fhir/us/qicore/StructureDefinition/qicore-organization" ]
      },
      "identifier": [ {
        "use": "temp",
        "system": "urn:oid:2.16.840.1.113883.4.4",
        "value": "21-3259825"
      } ],
      "active": true,
      "type": [ {
        "coding": [ {
          "system": "http://terminology.hl7.org/CodeSystem/organization-type",
          "code": "pay",
          "display": "Payer"
        } ]
      } ],
      "name": "Blue Cross Blue Shield of Texas",
      "telecom": [ {
        "system": "phone",
        "value": "(+1) 972-766-6900"
      } ],
      "address": [ {
        "use": "billing",
        "type": "postal",
        "line": [ "P.O. Box 660044" ],
        "city": "Dallas",
        "state": "TX",
        "postalCode": "75266-0044",
        "country": "USA"
      } ]
    },
    "request": {
      "method": "PUT",
      "url": "Organization/16e39e5d-37e0-4002-8c6b-ca32afb94aea"
    }
  }, {
    "fullUrl": "https://madie.cms.gov/Practitioner/fa451004-bd4f-43a6-8da3-7a810ab474cb",
    "resource": {
      "resourceType": "Practitioner",
      "id": "fa451004-bd4f-43a6-8da3-7a810ab474cb",
      "identifier": [ {
        "system": "http://hl7.org/fhir/sid/us-npi",
        "value": "123456"
      } ],
      "name": [ {
        "family": "Evil",
        "prefix": [ "Dr" ]
      } ]
    },
    "request": {
      "method": "PUT",
      "url": "Practitioner/fa451004-bd4f-43a6-8da3-7a810ab474cb"
    }
  }, {
    "fullUrl": "https://madie.cms.gov/MeasureReport/f3ee7a04-1e85-4bbc-9713-82d07e87878c",
    "resource": {
      "resourceType": "MeasureReport",
      "id": "f3ee7a04-1e85-4bbc-9713-82d07e87878c",
      "meta": {
        "profile": [ "http://hl7.org/fhir/us/cqfmeasures/StructureDefinition/test-case-cqfm" ]
      },
      "contained": [ {
        "resourceType": "Parameters",
        "id": "a29d006d-0683-472d-ae74-2f269fc32e82-parameters",
        "parameter": [ {
          "name": "subject",
          "valueString": "6fe7d963-52f2-4775-a428-73f2080e3ba3"
        } ]
      } ],
      "extension": [ {
        "url": "http://hl7.org/fhir/StructureDefinition/cqf-inputParameters",
        "valueReference": {
          "reference": "#a29d006d-0683-472d-ae74-2f269fc32e82-parameters"
        }
      }, {
        "url": "http://hl7.org/fhir/us/cqfmeasures/StructureDefinition/cqfm-testCaseDescription",
        "valueMarkdown": "Patient is 64 years and 364 days of age on day encounter starts.\n"
      } ],
      "modifierExtension": [ {
        "url": "http://hl7.org/fhir/us/cqfmeasures/StructureDefinition/cqfm-isTestCase",
        "valueBoolean": true
      } ],
      "status": "complete",
      "type": "individual",
      "measure": "https://madie.cms.gov/Measure/CMS1028FHIRPCSevereOBComps",
      "period": {
        "start": "2026-01-01",
        "end": "2026-12-31"
      },
      "group": [ {
        "id": "Group_1",
        "population": [ {
          "id": "InitialPopulation_1",
          "code": {
            "coding": [ {
              "system": "http://terminology.hl7.org/CodeSystem/measure-population",
              "code": "initial-population",
              "display": "Initial Population"
            } ]
          },
          "count": 1
        }, {
          "id": "Denominator_1",
          "code": {
            "coding": [ {
              "system": "http://terminology.hl7.org/CodeSystem/measure-population",
              "code": "denominator",
              "display": "Denominator"
            } ]
          },
          "count": 0
        }, {
          "id": "Numerator_1",
          "code": {
            "coding": [ {
              "system": "http://terminology.hl7.org/CodeSystem/measure-population",
              "code": "numerator",
              "display": "Numerator"
            } ]
          },
          "count": 0
        }, {
          "id": "NumeratorExclusion_1",
          "code": {
            "coding": [ {
              "system": "http://terminology.hl7.org/CodeSystem/measure-population",
              "code": "numerator-exclusion",
              "display": "Numerator Exclusion"
            } ]
          },
          "count": 0
        } ],
        "measureScore": {
          "value": 0.0
        }
      }, {
        "id": "Group_2",
        "population": [ {
          "id": "InitialPopulation_2",
          "code": {
            "coding": [ {
              "system": "http://terminology.hl7.org/CodeSystem/measure-population",
              "code": "initial-population",
              "display": "Initial Population"
            } ]
          },
          "count": 1
        }, {
          "id": "Denominator_2",
          "code": {
            "coding": [ {
              "system": "http://terminology.hl7.org/CodeSystem/measure-population",
              "code": "denominator",
              "display": "Denominator"
            } ]
          },
          "count": 0
        }, {
          "id": "Numerator_2",
          "code": {
            "coding": [ {
              "system": "http://terminology.hl7.org/CodeSystem/measure-population",
              "code": "numerator",
              "display": "Numerator"
            } ]
          },
          "count": 0
        }, {
          "id": "NumeratorExclusion_2",
          "code": {
            "coding": [ {
              "system": "http://terminology.hl7.org/CodeSystem/measure-population",
              "code": "numerator-exclusion",
              "display": "Numerator Exclusion"
            } ]
          },
          "count": 0
        } ],
        "measureScore": {
          "value": 0.0
        }
      } ],
      "evaluatedResource": [ {
        "reference": "Patient/6fe7d963-52f2-4775-a428-73f2080e3ba3"
      }, {
        "reference": "Encounter/5b6d6764-7dc9-4ac0-88c4-a6f63afdcb9e"
      }, {
        "reference": "Procedure/f887bb68-4c95-4c07-b65d-c9f93148eceb"
      }, {
        "reference": "Coverage/d1d1f87e-3d24-42ec-b7fc-839c1cd0c66d"
      }, {
        "reference": "Organization/16e39e5d-37e0-4002-8c6b-ca32afb94aea"
      }, {
        "reference": "Practitioner/fa451004-bd4f-43a6-8da3-7a810ab474cb"
      } ]
    },
    "request": {
      "method": "PUT",
      "url": "MeasureReport/f3ee7a04-1e85-4bbc-9713-82d07e87878c"
    }
  } ]
}