{
  "resourceType": "Bundle",
  "id": "62c880ec0111a60120dc220a",
  "type": "transaction",
  "entry": [ {
    "fullUrl": "https://madie.cms.gov/Patient/91ebcd41-a1a5-45e0-95fd-e2a2799f4459",
    "resource": {
      "resourceType": "Patient",
      "id": "91ebcd41-a1a5-45e0-95fd-e2a2799f4459",
      "meta": {
        "profile": [ "http://hl7.org/fhir/us/qicore/StructureDefinition/qicore-patient" ]
      },
      "text": {
        "status": "generated",
        "div": "<div xmlns=\"http://www.w3.org/1999/xhtml\"><div class=\"hapiHeaderText\">EncPriorMP<b>IPPFailPop1</b></div><table class=\"hapiPropertyTable\"><tbody><tr><td>Identifier</td><td>3a32515f77a3f69506b686cae30ab46d</td></tr><tr><td>Date of birth</td><td><span>13 April 1921</span></td></tr></tbody></table></div>"
      },
      "extension": [ {
        "url": "http://hl7.org/fhir/us/core/StructureDefinition/us-core-race",
        "extension": [ {
          "url": "ombCategory",
          "valueCoding": {
            "system": "urn:oid:2.16.840.1.113883.6.238",
            "code": "1002-5",
            "display": "American Indian or Alaska Native",
            "userSelected": true
          }
        }, {
          "url": "text",
          "valueString": "American Indian or Alaska Native"
        } ]
      }, {
        "url": "http://hl7.org/fhir/us/core/StructureDefinition/us-core-ethnicity",
        "extension": [ {
          "url": "ombCategory",
          "valueCoding": {
            "system": "urn:oid:2.16.840.1.113883.6.238",
            "code": "2135-2",
            "display": "Hispanic or Latino",
            "userSelected": true
          }
        }, {
          "url": "text",
          "valueString": "Hispanic or Latino"
        } ]
      } ],
      "identifier": [ {
        "type": {
          "coding": [ {
            "system": "http://terminology.hl7.org/CodeSystem/v2-0203",
            "code": "MR"
          } ]
        },
        "system": "https://bonnie-fhir.healthit.gov/",
        "value": "62c880ec0111a60120dc220a"
      } ],
      "active": true,
      "name": [ {
        "use": "usual",
        "family": "IPPFailPop1",
        "given": [ "EncPriorMP" ]
      } ],
      "gender": "male",
      "birthDate": "1921-04-13"
    },
    "request": {
      "method": "PUT",
      "url": "Patient/91ebcd41-a1a5-45e0-95fd-e2a2799f4459"
    }
  }, {
    "fullUrl": "https://madie.cms.gov/Condition/318ff321-7aa0-4a3a-80a6-b01d4c1a2350",
    "resource": {
      "resourceType": "Condition",
      "id": "318ff321-7aa0-4a3a-80a6-b01d4c1a2350",
      "meta": {
        "profile": [ "http://hl7.org/fhir/us/qicore/StructureDefinition/qicore-condition" ]
      },
      "clinicalStatus": {
        "coding": [ {
          "system": "http://terminology.hl7.org/CodeSystem/condition-clinical",
          "code": "active",
          "display": "active",
          "userSelected": true
        } ]
      },
      "verificationStatus": {
        "coding": [ {
          "system": "http://terminology.hl7.org/CodeSystem/condition-ver-status",
          "code": "confirmed",
          "display": "Confirmed"
        } ]
      },
      "category": [ {
        "coding": [ {
          "system": "http://terminology.hl7.org/CodeSystem/condition-category",
          "code": "problem-list-item",
          "display": "Problem List Item"
        } ]
      } ],
      "code": {
        "coding": [ {
          "system": "http://hl7.org/fhir/sid/icd-10-cm",
          "code": "C44.229"
        } ]
      },
      "subject": {
        "reference": "Patient/91ebcd41-a1a5-45e0-95fd-e2a2799f4459"
      },
      "onsetDateTime": "2020-01-14T10:50:00.000Z"
    },
    "request": {
      "method": "PUT",
      "url": "Condition/318ff321-7aa0-4a3a-80a6-b01d4c1a2350"
    }
  }, {
    "fullUrl": "https://madie.cms.gov/Encounter/c1a18122-a3af-4df9-ae11-235cecb236db",
    "resource": {
      "resourceType": "Encounter",
      "id": "c1a18122-a3af-4df9-ae11-235cecb236db",
      "meta": {
        "profile": [ "http://hl7.org/fhir/us/qicore/StructureDefinition/qicore-encounter" ]
      },
      "status": "finished",
      "class": {
        "system": "http://terminology.hl7.org/CodeSystem/v3-ActCode",
        "code": "AMB",
        "display": "ambulatory",
        "userSelected": true
      },
      "type": [ {
        "coding": [ {
          "system": "http://snomed.info/sct",
          "code": "185463005"
        } ]
      } ],
      "subject": {
        "reference": "Patient/91ebcd41-a1a5-45e0-95fd-e2a2799f4459"
      },
      "period": {
        "start": "2023-12-29T10:50:00.000Z",
        "end": "2023-12-29T10:50:00.000Z"
      }
    },
    "request": {
      "method": "PUT",
      "url": "Encounter/c1a18122-a3af-4df9-ae11-235cecb236db"
    }
  }, {
    "fullUrl": "https://madie.cms.gov/Coverage/2cd80866-fcda-4518-bda5-84a8f83a1f03",
    "resource": {
      "resourceType": "Coverage",
      "id": "2cd80866-fcda-4518-bda5-84a8f83a1f03",
      "meta": {
        "profile": [ "http://hl7.org/fhir/us/qicore/StructureDefinition/qicore-coverage" ]
      },
      "status": "active",
      "beneficiary": {
        "reference": "Patient/91ebcd41-a1a5-45e0-95fd-e2a2799f4459"
      },
      "period": {
        "start": "1921-04-13T08:00:00.000Z"
      },
      "payor": [ {
        "reference": "Organization/9ecfed64-596c-4a8c-89a5-66a84a57afd2"
      } ]
    },
    "request": {
      "method": "PUT",
      "url": "Coverage/2cd80866-fcda-4518-bda5-84a8f83a1f03"
    }
  }, {
    "fullUrl": "https://madie.cms.gov/Procedure/09a3b08c-8f8f-48aa-844f-bd213801b217",
    "resource": {
      "resourceType": "Procedure",
      "id": "09a3b08c-8f8f-48aa-844f-bd213801b217",
      "meta": {
        "profile": [ "http://hl7.org/fhir/us/qicore/StructureDefinition/qicore-procedure" ]
      },
      "extension": [ {
        "url": "http://hl7.org/fhir/us/qicore/StructureDefinition/qicore-recorded",
        "valueDateTime": "2023-12-27T10:35:00.000Z"
      } ],
      "status": "completed",
      "code": {
        "coding": [ {
          "system": "http://www.ama-assn.org/go/cpt",
          "code": "96405"
        } ]
      },
      "subject": {
        "reference": "Patient/91ebcd41-a1a5-45e0-95fd-e2a2799f4459"
      },
      "performedPeriod": {
        "start": "2023-12-27T10:30:00.000Z",
        "end": "2023-12-27T10:30:00.000Z"
      }
    },
    "request": {
      "method": "PUT",
      "url": "Procedure/09a3b08c-8f8f-48aa-844f-bd213801b217"
    }
  }, {
    "fullUrl": "https://madie.cms.gov/Procedure/7f4cae3d-0d95-4b48-a9ce-118e5170d66a",
    "resource": {
      "resourceType": "Procedure",
      "id": "7f4cae3d-0d95-4b48-a9ce-118e5170d66a",
      "meta": {
        "profile": [ "http://hl7.org/fhir/us/qicore/StructureDefinition/qicore-procedure" ]
      },
      "extension": [ {
        "url": "http://hl7.org/fhir/us/qicore/StructureDefinition/qicore-recorded",
        "valueDateTime": "2025-01-15T12:50:00.000Z"
      } ],
      "status": "completed",
      "code": {
        "coding": [ {
          "system": "http://www.ama-assn.org/go/cpt",
          "code": "96405"
        } ]
      },
      "subject": {
        "reference": "Patient/91ebcd41-a1a5-45e0-95fd-e2a2799f4459"
      },
      "performedPeriod": {
        "start": "2025-01-15T12:45:00.000Z",
        "end": "2025-01-15T12:45:00.000Z"
      }
    },
    "request": {
      "method": "PUT",
      "url": "Procedure/7f4cae3d-0d95-4b48-a9ce-118e5170d66a"
    }
  }, {
    "fullUrl": "https://madie.cms.gov/Organization/9ecfed64-596c-4a8c-89a5-66a84a57afd2",
    "resource": {
      "resourceType": "Organization",
      "id": "9ecfed64-596c-4a8c-89a5-66a84a57afd2",
      "meta": {
        "profile": [ "http://hl7.org/fhir/us/qicore/StructureDefinition/qicore-organization" ]
      },
      "identifier": [ {
        "use": "temp",
        "system": "urn:oid:2.16.840.1.113883.4.4",
        "value": "21-3259825"
      } ],
      "active": true,
      "type": [ {
        "coding": [ {
          "system": "http://terminology.hl7.org/CodeSystem/organization-type",
          "code": "pay",
          "display": "Payer"
        } ]
      } ],
      "name": "Blue Cross Blue Shield of Texas",
      "telecom": [ {
        "system": "phone",
        "value": "(+1) 972-766-6900"
      } ],
      "address": [ {
        "use": "billing",
        "type": "postal",
        "line": [ "P.O. Box 660044" ],
        "city": "Dallas",
        "state": "TX",
        "postalCode": "75266-0044",
        "country": "USA"
      } ]
    },
    "request": {
      "method": "PUT",
      "url": "Organization/9ecfed64-596c-4a8c-89a5-66a84a57afd2"
    }
  }, {
    "fullUrl": "https://madie.cms.gov/Practitioner/60f1c6db-e152-4cdd-b6bc-bab2311da46c",
    "resource": {
      "resourceType": "Practitioner",
      "id": "60f1c6db-e152-4cdd-b6bc-bab2311da46c",
      "meta": {
        "profile": [ "http://hl7.org/fhir/us/qicore/StructureDefinition/qicore-practitioner" ]
      },
      "identifier": [ {
        "system": "http://hl7.org/fhir/sid/us-npi",
        "value": "123456"
      } ],
      "name": [ {
        "family": "Evil",
        "prefix": [ "Dr" ]
      } ]
    },
    "request": {
      "method": "PUT",
      "url": "Practitioner/60f1c6db-e152-4cdd-b6bc-bab2311da46c"
    }
  }, {
    "fullUrl": "https://madie.cms.gov/MeasureReport/132cbf89-450c-4d21-be13-7ec599e888af",
    "resource": {
      "resourceType": "MeasureReport",
      "id": "132cbf89-450c-4d21-be13-7ec599e888af",
      "meta": {
        "profile": [ "http://hl7.org/fhir/us/cqfmeasures/StructureDefinition/test-case-cqfm" ]
      },
      "contained": [ {
        "resourceType": "Parameters",
        "id": "d030c429-7ca9-4a18-b908-ba0e79c70a40-parameters",
        "parameter": [ {
          "name": "subject",
          "valueString": "91ebcd41-a1a5-45e0-95fd-e2a2799f4459"
        } ]
      } ],
      "extension": [ {
        "url": "http://hl7.org/fhir/StructureDefinition/cqf-inputParameters",
        "valueReference": {
          "reference": "#d030c429-7ca9-4a18-b908-ba0e79c70a40-parameters"
        }
      }, {
        "url": "http://hl7.org/fhir/us/cqfmeasures/StructureDefinition/cqfm-testCaseDescription",
        "valueMarkdown": "Patient with cancer diagnosis that overlaps the office visit. Office visit occurs prior to the measurement period. \n"
      } ],
      "modifierExtension": [ {
        "url": "http://hl7.org/fhir/us/cqfmeasures/StructureDefinition/cqfm-isTestCase",
        "valueBoolean": true
      } ],
      "status": "complete",
      "type": "individual",
      "measure": "https://madie.cms.gov/Measure/OncologyPainIntensityQuantifiedFHIR",
      "period": {
        "start": "2026-01-01",
        "end": "2026-12-31"
      },
      "group": [ {
        "id": "Group_1",
        "population": [ {
          "id": "InitialPopulation_1",
          "code": {
            "coding": [ {
              "system": "http://terminology.hl7.org/CodeSystem/measure-population",
              "code": "initial-population",
              "display": "Initial Population"
            } ]
          },
          "count": 0
        }, {
          "id": "Denominator_1",
          "code": {
            "coding": [ {
              "system": "http://terminology.hl7.org/CodeSystem/measure-population",
              "code": "denominator",
              "display": "Denominator"
            } ]
          },
          "count": 0
        }, {
          "id": "Numerator_1",
          "code": {
            "coding": [ {
              "system": "http://terminology.hl7.org/CodeSystem/measure-population",
              "code": "numerator",
              "display": "Numerator"
            } ]
          },
          "count": 0
        } ],
        "measureScore": {
          "value": 0.0
        }
      }, {
        "id": "Group_2",
        "population": [ {
          "id": "InitialPopulation_2",
          "code": {
            "coding": [ {
              "system": "http://terminology.hl7.org/CodeSystem/measure-population",
              "code": "initial-population",
              "display": "Initial Population"
            } ]
          },
          "count": 0
        }, {
          "id": "Denominator_2",
          "code": {
            "coding": [ {
              "system": "http://terminology.hl7.org/CodeSystem/measure-population",
              "code": "denominator",
              "display": "Denominator"
            } ]
          },
          "count": 0
        }, {
          "id": "Numerator_2",
          "code": {
            "coding": [ {
              "system": "http://terminology.hl7.org/CodeSystem/measure-population",
              "code": "numerator",
              "display": "Numerator"
            } ]
          },
          "count": 0
        } ],
        "measureScore": {
          "value": 0.0
        }
      } ],
      "evaluatedResource": [ {
        "reference": "Patient/91ebcd41-a1a5-45e0-95fd-e2a2799f4459"
      }, {
        "reference": "Condition/318ff321-7aa0-4a3a-80a6-b01d4c1a2350"
      }, {
        "reference": "Encounter/c1a18122-a3af-4df9-ae11-235cecb236db"
      }, {
        "reference": "Coverage/2cd80866-fcda-4518-bda5-84a8f83a1f03"
      }, {
        "reference": "Procedure/09a3b08c-8f8f-48aa-844f-bd213801b217"
      }, {
        "reference": "Procedure/7f4cae3d-0d95-4b48-a9ce-118e5170d66a"
      }, {
        "reference": "Organization/9ecfed64-596c-4a8c-89a5-66a84a57afd2"
      }, {
        "reference": "Practitioner/60f1c6db-e152-4cdd-b6bc-bab2311da46c"
      } ]
    },
    "request": {
      "method": "PUT",
      "url": "MeasureReport/132cbf89-450c-4d21-be13-7ec599e888af"
    }
  } ]
}