{
  "resourceType": "Bundle",
  "id": "63233350414ba67d4e1d1c2f",
  "type": "transaction",
  "entry": [ {
    "fullUrl": "https://madie.cms.gov/Patient/90d1df13-46fe-4dbf-b934-6eff4f884a72",
    "resource": {
      "resourceType": "Patient",
      "id": "90d1df13-46fe-4dbf-b934-6eff4f884a72",
      "meta": {
        "profile": [ "http://hl7.org/fhir/us/qicore/StructureDefinition/qicore-patient" ]
      },
      "extension": [ {
        "url": "http://hl7.org/fhir/us/core/StructureDefinition/us-core-sex",
        "valueCode": "248152002"
      }, {
        "url": "http://hl7.org/fhir/us/core/StructureDefinition/us-core-race",
        "extension": [ {
          "url": "ombCategory",
          "valueCoding": {
            "system": "urn:oid:2.16.840.1.113883.6.238",
            "code": "2028-9",
            "display": "Asian",
            "userSelected": true
          }
        }, {
          "url": "text",
          "valueString": "Asian"
        } ]
      }, {
        "url": "http://hl7.org/fhir/us/core/StructureDefinition/us-core-ethnicity",
        "extension": [ {
          "url": "ombCategory",
          "valueCoding": {
            "system": "urn:oid:2.16.840.1.113883.6.238",
            "code": "2186-5",
            "display": "Not Hispanic or Latino",
            "userSelected": true
          }
        }, {
          "url": "text",
          "valueString": "Not Hispanic or Latino"
        } ]
      } ],
      "identifier": [ {
        "type": {
          "coding": [ {
            "system": "http://terminology.hl7.org/CodeSystem/v2-0203",
            "code": "MR"
          } ]
        },
        "system": "https://bonnie-fhir.healthit.gov/",
        "value": "63233350414ba67d4e1d1c2f"
      } ],
      "name": [ {
        "family": "DENEXFail",
        "given": [ "HasCancer" ]
      } ],
      "gender": "female",
      "birthDate": "1944-02-01"
    },
    "request": {
      "method": "PUT",
      "url": "Patient/90d1df13-46fe-4dbf-b934-6eff4f884a72"
    }
  }, {
    "fullUrl": "https://madie.cms.gov/Encounter/1068952c-b743-425d-97d8-81a85b1a4b8f",
    "resource": {
      "resourceType": "Encounter",
      "id": "1068952c-b743-425d-97d8-81a85b1a4b8f",
      "meta": {
        "profile": [ "http://hl7.org/fhir/us/qicore/StructureDefinition/qicore-encounter" ]
      },
      "status": "finished",
      "class": {
        "system": "http://terminology.hl7.org/CodeSystem/v3-ActCode",
        "code": "IMP",
        "display": "inpatient encounter",
        "userSelected": true
      },
      "type": [ {
        "coding": [ {
          "system": "http://snomed.info/sct",
          "code": "183452005",
          "display": "Emergency hospital admission (procedure)",
          "userSelected": true
        } ]
      } ],
      "subject": {
        "reference": "Patient/90d1df13-46fe-4dbf-b934-6eff4f884a72"
      },
      "period": {
        "start": "2026-01-01T23:59:00.000+00:00",
        "end": "2026-01-03T23:59:00.000+00:00"
      },
      "diagnosis": [ {
        "condition": {
          "reference": "Condition/c3b50051-e2f5-419a-8580-fccbc3152969"
        }
      }, {
        "condition": {
          "reference": "Condition/c3b50051-e2f5-419a-8580-fccbc3152969"
        }
      } ]
    },
    "request": {
      "method": "PUT",
      "url": "Encounter/1068952c-b743-425d-97d8-81a85b1a4b8f"
    }
  }, {
    "fullUrl": "https://madie.cms.gov/MedicationRequest/277dc310-2894-4faa-bf33-930423b2b7cb",
    "resource": {
      "resourceType": "MedicationRequest",
      "id": "277dc310-2894-4faa-bf33-930423b2b7cb",
      "meta": {
        "profile": [ "http://hl7.org/fhir/us/qicore/StructureDefinition/qicore-medicationrequest" ]
      },
      "status": "active",
      "intent": "order",
      "category": [ {
        "coding": [ {
          "system": "http://terminology.hl7.org/CodeSystem/medicationrequest-category",
          "code": "discharge",
          "display": "Discharge",
          "userSelected": true
        } ]
      } ],
      "doNotPerform": false,
      "medicationCodeableConcept": {
        "coding": [ {
          "system": "http://www.nlm.nih.gov/research/umls/rxnorm",
          "code": "2103192",
          "display": "sufentanil 0.03 MG Sublingual Tablet",
          "userSelected": true
        } ]
      },
      "subject": {
        "reference": "Patient/90d1df13-46fe-4dbf-b934-6eff4f884a72"
      },
      "authoredOn": "2026-01-03T23:59:00.000+00:00",
      "requester": {
        "reference": "Practitioner/93a7346e-616d-4ef6-a235-973cbe935b92"
      }
    },
    "request": {
      "method": "PUT",
      "url": "MedicationRequest/277dc310-2894-4faa-bf33-930423b2b7cb"
    }
  }, {
    "fullUrl": "https://madie.cms.gov/Practitioner/93a7346e-616d-4ef6-a235-973cbe935b92",
    "resource": {
      "resourceType": "Practitioner",
      "id": "93a7346e-616d-4ef6-a235-973cbe935b92",
      "meta": {
        "profile": [ "http://hl7.org/fhir/us/qicore/StructureDefinition/qicore-practitioner" ]
      },
      "identifier": [ {
        "system": "http://hl7.org/fhir/sid/us-npi",
        "value": "9999999896"
      } ],
      "active": true,
      "name": [ {
        "family": "Ramires",
        "given": [ "Alma" ],
        "prefix": [ "Dr" ]
      } ],
      "address": [ {
        "use": "home",
        "line": [ "534 Erewhon St" ],
        "city": "Netherville",
        "state": "IN",
        "postalCode": "46131"
      } ],
      "qualification": [ {
        "identifier": [ {
          "system": "http://goodhealth.org/prIdentifier",
          "value": "12345"
        } ],
        "code": {
          "coding": [ {
            "system": "http://terminology.hl7.org/CodeSystem/v2-0360|2.7",
            "code": "BS",
            "display": "Bachelor of Science"
          } ],
          "text": "Bachelor of Science"
        },
        "period": {
          "start": "1995"
        },
        "issuer": {
          "display": "Example University"
        }
      } ]
    },
    "request": {
      "method": "PUT",
      "url": "Practitioner/93a7346e-616d-4ef6-a235-973cbe935b92"
    }
  }, {
    "fullUrl": "https://madie.cms.gov/Condition/c3b50051-e2f5-419a-8580-fccbc3152969",
    "resource": {
      "resourceType": "Condition",
      "id": "c3b50051-e2f5-419a-8580-fccbc3152969",
      "meta": {
        "profile": [ "http://hl7.org/fhir/us/qicore/StructureDefinition/qicore-condition" ]
      },
      "clinicalStatus": {
        "coding": [ {
          "system": "http://terminology.hl7.org/CodeSystem/condition-clinical",
          "code": "active",
          "display": "active",
          "userSelected": true
        } ]
      },
      "category": [ {
        "coding": [ {
          "system": "http://terminology.hl7.org/CodeSystem/condition-category",
          "code": "encounter-diagnosis",
          "display": "Encounter Diagnosis"
        }, {
          "system": "http://snomed.info/sct",
          "code": "439401001",
          "display": "Diagnosis"
        } ]
      } ],
      "code": {
        "coding": [ {
          "system": "http://snomed.info/sct",
          "version": "2022-03",
          "code": "145194251000119106",
          "display": "Primary basal cell carcinoma of skin of right foot (disorder)",
          "userSelected": true
        } ]
      },
      "subject": {
        "reference": "Patient/90d1df13-46fe-4dbf-b934-6eff4f884a72"
      },
      "onsetPeriod": {
        "start": "2025-12-31T08:00:00.000+00:00"
      }
    },
    "request": {
      "method": "PUT",
      "url": "Condition/c3b50051-e2f5-419a-8580-fccbc3152969"
    }
  }, {
    "fullUrl": "https://madie.cms.gov/Coverage/c8e3ecc8-25f1-437f-b115-9e5479d334bf",
    "resource": {
      "resourceType": "Coverage",
      "id": "c8e3ecc8-25f1-437f-b115-9e5479d334bf",
      "meta": {
        "profile": [ "http://hl7.org/fhir/us/qicore/StructureDefinition/qicore-coverage" ]
      },
      "status": "active",
      "subscriberId": "523435",
      "beneficiary": {
        "reference": "Patient/90d1df13-46fe-4dbf-b934-6eff4f884a72"
      },
      "relationship": {
        "coding": [ {
          "system": "http://terminology.hl7.org/CodeSystem/subscriber-relationship",
          "code": "self"
        } ]
      },
      "payor": [ {
        "reference": "Organization/81d2119d-ee88-41ad-8f25-7b8c383afd35"
      } ]
    },
    "request": {
      "method": "PUT",
      "url": "Coverage/c8e3ecc8-25f1-437f-b115-9e5479d334bf"
    }
  }, {
    "fullUrl": "https://madie.cms.gov/Organization/81d2119d-ee88-41ad-8f25-7b8c383afd35",
    "resource": {
      "resourceType": "Organization",
      "id": "81d2119d-ee88-41ad-8f25-7b8c383afd35",
      "meta": {
        "profile": [ "http://hl7.org/fhir/us/qicore/StructureDefinition/qicore-organization" ]
      },
      "identifier": [ {
        "use": "temp",
        "system": "urn:oid:2.16.840.1.113883.4.4",
        "value": "21-3259825"
      } ],
      "active": true,
      "type": [ {
        "coding": [ {
          "system": "http://terminology.hl7.org/CodeSystem/organization-type",
          "code": "pay",
          "display": "Payer"
        } ]
      } ],
      "name": "Blue Cross Blue Shield of Texas",
      "telecom": [ {
        "system": "phone",
        "value": "(+1) 972-766-6900"
      } ],
      "address": [ {
        "use": "billing",
        "type": "postal",
        "line": [ "P.O. Box 660044" ],
        "city": "Dallas",
        "state": "TX",
        "postalCode": "75266-0044",
        "country": "USA"
      } ]
    },
    "request": {
      "method": "PUT",
      "url": "Organization/81d2119d-ee88-41ad-8f25-7b8c383afd35"
    }
  }, {
    "fullUrl": "https://madie.cms.gov/MeasureReport/3531b51c-1266-4a11-84f7-a093760208dc",
    "resource": {
      "resourceType": "MeasureReport",
      "id": "3531b51c-1266-4a11-84f7-a093760208dc",
      "meta": {
        "profile": [ "http://hl7.org/fhir/us/cqfmeasures/StructureDefinition/test-case-cqfm" ]
      },
      "contained": [ {
        "resourceType": "Parameters",
        "id": "a9534c1c-f28d-49df-aae9-6cae3e5d7058-parameters",
        "parameter": [ {
          "name": "subject",
          "valueString": "90d1df13-46fe-4dbf-b934-6eff4f884a72"
        } ]
      } ],
      "extension": [ {
        "url": "http://hl7.org/fhir/StructureDefinition/cqf-inputParameters",
        "valueReference": {
          "reference": "#a9534c1c-f28d-49df-aae9-6cae3e5d7058-parameters"
        }
      }, {
        "url": "http://hl7.org/fhir/us/cqfmeasures/StructureDefinition/cqfm-testCaseDescription",
        "valueMarkdown": "Enc.  1/1  at 2359 - 1/3 at 2359; encounter dx basal cell cancer (not cancer pain/not from vs), diagnosed last day of prior year, opioid at 2359 on discharge date; "
      } ],
      "modifierExtension": [ {
        "url": "http://hl7.org/fhir/us/cqfmeasures/StructureDefinition/cqfm-isTestCase",
        "valueBoolean": true
      } ],
      "status": "complete",
      "type": "individual",
      "measure": "https://madie.cms.gov/Measure/CMS506FHIRSafeUseofOpioids",
      "period": {
        "start": "2026-01-01",
        "end": "2026-12-31"
      },
      "group": [ {
        "id": "Group_1",
        "population": [ {
          "id": "InitialPopulation_1",
          "code": {
            "coding": [ {
              "system": "http://terminology.hl7.org/CodeSystem/measure-population",
              "code": "initial-population",
              "display": "Initial Population"
            } ]
          },
          "count": 1
        }, {
          "id": "Denominator_1",
          "code": {
            "coding": [ {
              "system": "http://terminology.hl7.org/CodeSystem/measure-population",
              "code": "denominator",
              "display": "Denominator"
            } ]
          },
          "count": 1
        }, {
          "id": "DenominatorExclusion_1",
          "code": {
            "coding": [ {
              "system": "http://terminology.hl7.org/CodeSystem/measure-population",
              "code": "denominator-exclusion",
              "display": "Denominator Exclusion"
            } ]
          },
          "count": 0
        }, {
          "id": "Numerator_1",
          "code": {
            "coding": [ {
              "system": "http://terminology.hl7.org/CodeSystem/measure-population",
              "code": "numerator",
              "display": "Numerator"
            } ]
          },
          "count": 0
        } ],
        "measureScore": {
          "value": 0.0
        }
      } ],
      "evaluatedResource": [ {
        "reference": "Patient/90d1df13-46fe-4dbf-b934-6eff4f884a72"
      }, {
        "reference": "Encounter/1068952c-b743-425d-97d8-81a85b1a4b8f"
      }, {
        "reference": "MedicationRequest/277dc310-2894-4faa-bf33-930423b2b7cb"
      }, {
        "reference": "Practitioner/93a7346e-616d-4ef6-a235-973cbe935b92"
      }, {
        "reference": "Condition/c3b50051-e2f5-419a-8580-fccbc3152969"
      }, {
        "reference": "Coverage/c8e3ecc8-25f1-437f-b115-9e5479d334bf"
      }, {
        "reference": "Organization/81d2119d-ee88-41ad-8f25-7b8c383afd35"
      } ]
    },
    "request": {
      "method": "PUT",
      "url": "MeasureReport/3531b51c-1266-4a11-84f7-a093760208dc"
    }
  } ]
}