{
  "resourceType": "Bundle",
  "id": "Patient-31-NUMFail-HbA1cLessThan9",
  "type": "transaction",
  "entry": [ {
    "fullUrl": "https://madie.cms.gov/Patient/5ed37c9e-85a3-4819-8051-3d960159cae0",
    "resource": {
      "resourceType": "Patient",
      "id": "5ed37c9e-85a3-4819-8051-3d960159cae0",
      "meta": {
        "profile": [ "http://hl7.org/fhir/us/qicore/StructureDefinition/qicore-patient" ]
      },
      "extension": [ {
        "url": "http://hl7.org/fhir/us/core/StructureDefinition/us-core-race",
        "extension": [ {
          "url": "ombCategory",
          "valueCoding": {
            "system": "urn:oid:2.16.840.1.113883.6.238",
            "code": "2028-9",
            "display": "Asian"
          }
        }, {
          "url": "text",
          "valueString": "Asian"
        } ]
      }, {
        "url": "http://hl7.org/fhir/us/core/StructureDefinition/us-core-ethnicity",
        "extension": [ {
          "url": "ombCategory",
          "valueCoding": {
            "system": "urn:oid:2.16.840.1.113883.6.238",
            "code": "2135-2",
            "display": "Hispanic or Latino"
          }
        }, {
          "url": "text",
          "valueString": "Hispanic or Latino"
        } ]
      } ],
      "identifier": [ {
        "system": "http://hospital.smarthealthit.org",
        "value": "999999995"
      } ],
      "name": [ {
        "family": "Bertha",
        "given": [ "Betty" ]
      } ],
      "gender": "female",
      "birthDate": "2008-01-01"
    },
    "request": {
      "method": "PUT",
      "url": "Patient/5ed37c9e-85a3-4819-8051-3d960159cae0"
    }
  }, {
    "fullUrl": "https://madie.cms.gov/Encounter/87230d3d-eb23-4245-be2a-dc129c618106",
    "resource": {
      "resourceType": "Encounter",
      "id": "87230d3d-eb23-4245-be2a-dc129c618106",
      "meta": {
        "profile": [ "http://hl7.org/fhir/us/qicore/StructureDefinition/qicore-encounter" ]
      },
      "status": "finished",
      "class": {
        "system": "http://terminology.hl7.org/CodeSystem/v3-ActCode",
        "code": "AMB",
        "display": "ambulatory"
      },
      "type": [ {
        "coding": [ {
          "system": "http://snomed.info/sct",
          "code": "185460008",
          "display": "Home visit request by patient (procedure)"
        } ]
      } ],
      "subject": {
        "reference": "Patient/5ed37c9e-85a3-4819-8051-3d960159cae0"
      },
      "period": {
        "start": "2026-01-01T00:00:00.000+00:00",
        "end": "2026-01-01T00:15:00.000+00:00"
      }
    },
    "request": {
      "method": "PUT",
      "url": "Encounter/87230d3d-eb23-4245-be2a-dc129c618106"
    }
  }, {
    "fullUrl": "https://madie.cms.gov/Condition/d646f7b8-0178-4e67-9e0f-d090f13a2dd7",
    "resource": {
      "resourceType": "Condition",
      "id": "d646f7b8-0178-4e67-9e0f-d090f13a2dd7",
      "meta": {
        "profile": [ "http://hl7.org/fhir/us/qicore/StructureDefinition/qicore-condition-encounter-diagnosis" ]
      },
      "clinicalStatus": {
        "coding": [ {
          "system": "http://terminology.hl7.org/CodeSystem/condition-clinical",
          "code": "active"
        } ]
      },
      "category": [ {
        "coding": [ {
          "system": "http://terminology.hl7.org/CodeSystem/condition-category",
          "code": "encounter-diagnosis",
          "display": "Encounter Diagnosis"
        } ]
      } ],
      "code": {
        "coding": [ {
          "system": "http://snomed.info/sct",
          "code": "102781000119107",
          "display": "Sensory neuropathy due to type 1 diabetes mellitus (disorder)"
        } ]
      },
      "subject": {
        "reference": "Patient/5ed37c9e-85a3-4819-8051-3d960159cae0"
      },
      "onsetDateTime": "2026-01-01T23:59:00.000+00:00"
    },
    "request": {
      "method": "PUT",
      "url": "Condition/d646f7b8-0178-4e67-9e0f-d090f13a2dd7"
    }
  }, {
    "fullUrl": "https://madie.cms.gov/Observation/2aa405da-988b-4643-958c-ef963e2fe92c",
    "resource": {
      "resourceType": "Observation",
      "id": "2aa405da-988b-4643-958c-ef963e2fe92c",
      "meta": {
        "profile": [ "http://hl7.org/fhir/us/qicore/StructureDefinition/qicore-observation-lab" ]
      },
      "status": "corrected",
      "category": [ {
        "coding": [ {
          "system": "http://terminology.hl7.org/CodeSystem/observation-category",
          "code": "laboratory"
        } ]
      } ],
      "code": {
        "coding": [ {
          "system": "http://loinc.org",
          "code": "17855-8",
          "display": "Hemoglobin A1c/Hemoglobin.total in Blood by calculation"
        } ]
      },
      "subject": {
        "reference": "Patient/5ed37c9e-85a3-4819-8051-3d960159cae0"
      },
      "effectivePeriod": {
        "start": "2025-12-31T00:00:00.000+00:00",
        "end": "2026-01-01T00:00:00.000+00:00"
      },
      "valueCodeableConcept": {
        "coding": [ {
          "system": "http://snomed.info/sct",
          "code": "373066001",
          "display": "Yes (qualifier value)"
        } ]
      }
    },
    "request": {
      "method": "PUT",
      "url": "Observation/2aa405da-988b-4643-958c-ef963e2fe92c"
    }
  }, {
    "fullUrl": "https://madie.cms.gov/MeasureReport/a47f8e08-122f-46af-bf5d-92cfd2794508",
    "resource": {
      "resourceType": "MeasureReport",
      "id": "a47f8e08-122f-46af-bf5d-92cfd2794508",
      "meta": {
        "profile": [ "http://hl7.org/fhir/us/cqfmeasures/StructureDefinition/test-case-cqfm" ]
      },
      "contained": [ {
        "resourceType": "Parameters",
        "id": "5592eeaf-00c1-4f2f-bcd1-db553824d6b1-parameters",
        "parameter": [ {
          "name": "subject",
          "valueString": "5ed37c9e-85a3-4819-8051-3d960159cae0"
        } ]
      } ],
      "extension": [ {
        "url": "http://hl7.org/fhir/StructureDefinition/cqf-inputParameters",
        "valueReference": {
          "reference": "#5592eeaf-00c1-4f2f-bcd1-db553824d6b1-parameters"
        }
      }, {
        "url": "http://hl7.org/fhir/us/cqfmeasures/StructureDefinition/cqfm-testCaseDescription",
        "valueMarkdown": "HbA1c level is 8.9%"
      } ],
      "modifierExtension": [ {
        "url": "http://hl7.org/fhir/us/cqfmeasures/StructureDefinition/cqfm-isTestCase",
        "valueBoolean": true
      } ],
      "status": "complete",
      "type": "individual",
      "measure": "https://madie.cms.gov/Measure/CMS122FHIRDiabetesAssessGreaterThan9Percent",
      "period": {
        "start": "2026-01-01",
        "end": "2026-12-31"
      },
      "group": [ {
        "id": "Group_1",
        "population": [ {
          "id": "InitialPopulation_1",
          "code": {
            "coding": [ {
              "system": "http://terminology.hl7.org/CodeSystem/measure-population",
              "code": "initial-population",
              "display": "Initial Population"
            } ]
          },
          "count": 1
        }, {
          "id": "Denominator_1",
          "code": {
            "coding": [ {
              "system": "http://terminology.hl7.org/CodeSystem/measure-population",
              "code": "denominator",
              "display": "Denominator"
            } ]
          },
          "count": 1
        }, {
          "id": "DenominatorExclusion_1",
          "code": {
            "coding": [ {
              "system": "http://terminology.hl7.org/CodeSystem/measure-population",
              "code": "denominator-exclusion",
              "display": "Denominator Exclusion"
            } ]
          },
          "count": 0
        }, {
          "id": "Numerator_1",
          "code": {
            "coding": [ {
              "system": "http://terminology.hl7.org/CodeSystem/measure-population",
              "code": "numerator",
              "display": "Numerator"
            } ]
          },
          "count": 0
        } ],
        "measureScore": {
          "value": 1.0
        }
      } ],
      "evaluatedResource": [ {
        "reference": "Patient/5ed37c9e-85a3-4819-8051-3d960159cae0"
      }, {
        "reference": "Encounter/87230d3d-eb23-4245-be2a-dc129c618106"
      }, {
        "reference": "Condition/d646f7b8-0178-4e67-9e0f-d090f13a2dd7"
      }, {
        "reference": "Observation/2aa405da-988b-4643-958c-ef963e2fe92c"
      } ]
    },
    "request": {
      "method": "PUT",
      "url": "MeasureReport/a47f8e08-122f-46af-bf5d-92cfd2794508"
    }
  } ]
}