{
  "resourceType": "Bundle",
  "id": "633b3fa00968f80122503d14",
  "type": "transaction",
  "entry": [ {
    "fullUrl": "https://madie.cms.gov/Patient/17a60467-f536-44d0-9b89-cd390a1fbee7",
    "resource": {
      "resourceType": "Patient",
      "id": "17a60467-f536-44d0-9b89-cd390a1fbee7",
      "meta": {
        "profile": [ "http://hl7.org/fhir/us/qicore/StructureDefinition/qicore-patient" ]
      },
      "text": {
        "status": "generated",
        "div": "<div xmlns=\"http://www.w3.org/1999/xhtml\"><div class=\"hapiHeaderText\">DelProcRelDtTmEQEDEnd <b>IPPASS </b></div><table class=\"hapiPropertyTable\"><tbody><tr><td>Date of birth</td><td><span>31 January 2004</span></td></tr></tbody></table></div>"
      },
      "extension": [ {
        "url": "http://hl7.org/fhir/us/core/StructureDefinition/us-core-race",
        "extension": [ {
          "url": "ombCategory",
          "valueCoding": {
            "system": "urn:oid:2.16.840.1.113883.6.238",
            "code": "1002-5",
            "display": "American Indian or Alaska Native",
            "userSelected": true
          }
        }, {
          "url": "text",
          "valueString": "American Indian or Alaska Native"
        } ]
      }, {
        "url": "http://hl7.org/fhir/us/core/StructureDefinition/us-core-ethnicity",
        "extension": [ {
          "url": "ombCategory",
          "valueCoding": {
            "system": "urn:oid:2.16.840.1.113883.6.238",
            "code": "2135-2",
            "display": "Hispanic or Latino",
            "userSelected": true
          }
        }, {
          "url": "text",
          "valueString": "Hispanic or Latino"
        } ]
      } ],
      "identifier": [ {
        "type": {
          "coding": [ {
            "system": "http://terminology.hl7.org/CodeSystem/v2-0203",
            "code": "MR"
          } ]
        },
        "system": "https://bonnie-fhir.healthit.gov/",
        "value": "633b3fa00968f80122503d14"
      } ],
      "active": true,
      "name": [ {
        "use": "usual",
        "family": "IPPass",
        "given": [ "DelProcRelDtTmEQEDEnd" ]
      } ],
      "gender": "female",
      "birthDate": "2005-01-31"
    },
    "request": {
      "method": "PUT",
      "url": "Patient/17a60467-f536-44d0-9b89-cd390a1fbee7"
    }
  }, {
    "fullUrl": "https://madie.cms.gov/Encounter/4f163aa3-8dfd-4ada-96aa-db172e0605d8",
    "resource": {
      "resourceType": "Encounter",
      "id": "4f163aa3-8dfd-4ada-96aa-db172e0605d8",
      "meta": {
        "profile": [ "http://hl7.org/fhir/us/qicore/StructureDefinition/qicore-encounter" ]
      },
      "status": "finished",
      "class": {
        "system": "http://terminology.hl7.org/CodeSystem/v3-ActCode",
        "code": "IMP",
        "display": "inpatient encounter"
      },
      "type": [ {
        "coding": [ {
          "system": "http://snomed.info/sct",
          "code": "183452005"
        } ]
      } ],
      "subject": {
        "reference": "Patient/17a60467-f536-44d0-9b89-cd390a1fbee7"
      },
      "period": {
        "start": "2026-02-01T09:00:00.000+00:00",
        "end": "2026-02-05T08:15:00.000+00:00"
      }
    },
    "request": {
      "method": "PUT",
      "url": "Encounter/4f163aa3-8dfd-4ada-96aa-db172e0605d8"
    }
  }, {
    "fullUrl": "https://madie.cms.gov/Encounter/95fe08a6-67cd-4776-8395-3e9f2ac0a304",
    "resource": {
      "resourceType": "Encounter",
      "id": "95fe08a6-67cd-4776-8395-3e9f2ac0a304",
      "meta": {
        "profile": [ "http://hl7.org/fhir/us/qicore/StructureDefinition/qicore-encounter" ]
      },
      "status": "finished",
      "class": {
        "system": "http://terminology.hl7.org/CodeSystem/v3-ActCode",
        "code": "IMP",
        "display": "inpatient encounter"
      },
      "type": [ {
        "coding": [ {
          "system": "http://snomed.info/sct",
          "code": "448951000124107"
        } ]
      } ],
      "subject": {
        "reference": "Patient/17a60467-f536-44d0-9b89-cd390a1fbee7"
      },
      "period": {
        "start": "2026-02-01T08:00:00.000+00:00",
        "end": "2026-02-01T08:59:00.000+00:00"
      }
    },
    "request": {
      "method": "PUT",
      "url": "Encounter/95fe08a6-67cd-4776-8395-3e9f2ac0a304"
    }
  }, {
    "fullUrl": "https://madie.cms.gov/Encounter/9eb93266-a5b2-4839-a4f0-929b9bd26c0f",
    "resource": {
      "resourceType": "Encounter",
      "id": "9eb93266-a5b2-4839-a4f0-929b9bd26c0f",
      "meta": {
        "profile": [ "http://hl7.org/fhir/us/qicore/StructureDefinition/qicore-encounter" ]
      },
      "status": "finished",
      "class": {
        "system": "http://terminology.hl7.org/CodeSystem/v3-ActCode",
        "code": "IMP",
        "display": "inpatient encounter"
      },
      "type": [ {
        "coding": [ {
          "system": "http://snomed.info/sct",
          "code": "4525004"
        } ]
      } ],
      "subject": {
        "reference": "Patient/17a60467-f536-44d0-9b89-cd390a1fbee7"
      },
      "period": {
        "start": "2026-02-01T07:00:00.000+00:00",
        "end": "2026-02-01T07:59:00.000+00:00"
      }
    },
    "request": {
      "method": "PUT",
      "url": "Encounter/9eb93266-a5b2-4839-a4f0-929b9bd26c0f"
    }
  }, {
    "fullUrl": "https://madie.cms.gov/Coverage/76b89f75-8040-4bf3-81f5-52839d71076d",
    "resource": {
      "resourceType": "Coverage",
      "id": "76b89f75-8040-4bf3-81f5-52839d71076d",
      "status": "active",
      "beneficiary": {
        "reference": "Patient/17a60467-f536-44d0-9b89-cd390a1fbee7"
      },
      "period": {
        "start": "2005-01-31T01:00:00.000+00:00"
      },
      "payor": [ {
        "reference": "Organization/3ebb1b70-8da7-4f46-ab33-2b911ca020b1"
      } ]
    },
    "request": {
      "method": "PUT",
      "url": "Coverage/76b89f75-8040-4bf3-81f5-52839d71076d"
    }
  }, {
    "fullUrl": "https://madie.cms.gov/Procedure/9677c0f0-d61b-4b54-905d-143125a26d85",
    "resource": {
      "resourceType": "Procedure",
      "id": "9677c0f0-d61b-4b54-905d-143125a26d85",
      "meta": {
        "profile": [ "http://hl7.org/fhir/us/qicore/StructureDefinition/qicore-procedure" ]
      },
      "extension": [ {
        "url": "http://hl7.org/fhir/us/qicore/StructureDefinition/qicore-recorded",
        "valueDateTime": "2014-04-05T13:35:00.000+00:00"
      } ],
      "status": "completed",
      "code": {
        "coding": [ {
          "system": "http://snomed.info/sct",
          "code": "10745001"
        } ]
      },
      "subject": {
        "reference": "Patient/17a60467-f536-44d0-9b89-cd390a1fbee7"
      },
      "performedDateTime": "2026-02-01T07:59:00.000+00:00"
    },
    "request": {
      "method": "PUT",
      "url": "Procedure/9677c0f0-d61b-4b54-905d-143125a26d85"
    }
  }, {
    "fullUrl": "https://madie.cms.gov/Organization/3ebb1b70-8da7-4f46-ab33-2b911ca020b1",
    "resource": {
      "resourceType": "Organization",
      "id": "3ebb1b70-8da7-4f46-ab33-2b911ca020b1",
      "meta": {
        "profile": [ "http://hl7.org/fhir/us/qicore/StructureDefinition/qicore-organization" ]
      },
      "identifier": [ {
        "use": "temp",
        "system": "urn:oid:2.16.840.1.113883.4.4",
        "value": "21-3259825"
      } ],
      "active": true,
      "type": [ {
        "coding": [ {
          "system": "http://terminology.hl7.org/CodeSystem/organization-type",
          "code": "pay",
          "display": "Payer"
        } ]
      } ],
      "name": "Blue Cross Blue Shield of Texas",
      "telecom": [ {
        "system": "phone",
        "value": "(+1) 972-766-6900"
      } ],
      "address": [ {
        "use": "billing",
        "type": "postal",
        "line": [ "P.O. Box 660044" ],
        "city": "Dallas",
        "state": "TX",
        "postalCode": "75266-0044",
        "country": "USA"
      } ]
    },
    "request": {
      "method": "PUT",
      "url": "Organization/3ebb1b70-8da7-4f46-ab33-2b911ca020b1"
    }
  }, {
    "fullUrl": "https://madie.cms.gov/Practitioner/da2b3a64-1427-40ea-8493-4831aeb433fe",
    "resource": {
      "resourceType": "Practitioner",
      "id": "da2b3a64-1427-40ea-8493-4831aeb433fe",
      "identifier": [ {
        "system": "http://hl7.org/fhir/sid/us-npi",
        "value": "123456"
      } ],
      "name": [ {
        "family": "Evil",
        "prefix": [ "Dr" ]
      } ]
    },
    "request": {
      "method": "PUT",
      "url": "Practitioner/da2b3a64-1427-40ea-8493-4831aeb433fe"
    }
  }, {
    "fullUrl": "https://madie.cms.gov/MeasureReport/ab78a86d-bee9-4258-ad90-addee4c09cdc",
    "resource": {
      "resourceType": "MeasureReport",
      "id": "ab78a86d-bee9-4258-ad90-addee4c09cdc",
      "meta": {
        "profile": [ "http://hl7.org/fhir/us/cqfmeasures/StructureDefinition/test-case-cqfm" ]
      },
      "contained": [ {
        "resourceType": "Parameters",
        "id": "5c4d8db4-adb6-4ebc-a0fd-024f3031eb10-parameters",
        "parameter": [ {
          "name": "subject",
          "valueString": "17a60467-f536-44d0-9b89-cd390a1fbee7"
        } ]
      } ],
      "extension": [ {
        "url": "http://hl7.org/fhir/StructureDefinition/cqf-inputParameters",
        "valueReference": {
          "reference": "#5c4d8db4-adb6-4ebc-a0fd-024f3031eb10-parameters"
        }
      }, {
        "url": "http://hl7.org/fhir/us/cqfmeasures/StructureDefinition/cqfm-testCaseDescription",
        "valueMarkdown": "Delivery Procedure rel date/time = ED end.  ED/OBS/IP all meet global hospitalization criteria.\n"
      } ],
      "modifierExtension": [ {
        "url": "http://hl7.org/fhir/us/cqfmeasures/StructureDefinition/cqfm-isTestCase",
        "valueBoolean": true
      } ],
      "status": "complete",
      "type": "individual",
      "measure": "https://madie.cms.gov/Measure/CMS1028FHIRPCSevereOBComps",
      "period": {
        "start": "2026-01-01",
        "end": "2026-12-31"
      },
      "group": [ {
        "id": "Group_1",
        "population": [ {
          "id": "InitialPopulation_1",
          "code": {
            "coding": [ {
              "system": "http://terminology.hl7.org/CodeSystem/measure-population",
              "code": "initial-population",
              "display": "Initial Population"
            } ]
          },
          "count": 1
        }, {
          "id": "Denominator_1",
          "code": {
            "coding": [ {
              "system": "http://terminology.hl7.org/CodeSystem/measure-population",
              "code": "denominator",
              "display": "Denominator"
            } ]
          },
          "count": 0
        }, {
          "id": "Numerator_1",
          "code": {
            "coding": [ {
              "system": "http://terminology.hl7.org/CodeSystem/measure-population",
              "code": "numerator",
              "display": "Numerator"
            } ]
          },
          "count": 0
        }, {
          "id": "NumeratorExclusion_1",
          "code": {
            "coding": [ {
              "system": "http://terminology.hl7.org/CodeSystem/measure-population",
              "code": "numerator-exclusion",
              "display": "Numerator Exclusion"
            } ]
          },
          "count": 0
        } ],
        "measureScore": {
          "value": 0.0
        }
      }, {
        "id": "Group_2",
        "population": [ {
          "id": "InitialPopulation_2",
          "code": {
            "coding": [ {
              "system": "http://terminology.hl7.org/CodeSystem/measure-population",
              "code": "initial-population",
              "display": "Initial Population"
            } ]
          },
          "count": 1
        }, {
          "id": "Denominator_2",
          "code": {
            "coding": [ {
              "system": "http://terminology.hl7.org/CodeSystem/measure-population",
              "code": "denominator",
              "display": "Denominator"
            } ]
          },
          "count": 0
        }, {
          "id": "Numerator_2",
          "code": {
            "coding": [ {
              "system": "http://terminology.hl7.org/CodeSystem/measure-population",
              "code": "numerator",
              "display": "Numerator"
            } ]
          },
          "count": 0
        }, {
          "id": "NumeratorExclusion_2",
          "code": {
            "coding": [ {
              "system": "http://terminology.hl7.org/CodeSystem/measure-population",
              "code": "numerator-exclusion",
              "display": "Numerator Exclusion"
            } ]
          },
          "count": 0
        } ],
        "measureScore": {
          "value": 0.0
        }
      } ],
      "evaluatedResource": [ {
        "reference": "Patient/17a60467-f536-44d0-9b89-cd390a1fbee7"
      }, {
        "reference": "Encounter/4f163aa3-8dfd-4ada-96aa-db172e0605d8"
      }, {
        "reference": "Encounter/95fe08a6-67cd-4776-8395-3e9f2ac0a304"
      }, {
        "reference": "Encounter/9eb93266-a5b2-4839-a4f0-929b9bd26c0f"
      }, {
        "reference": "Coverage/76b89f75-8040-4bf3-81f5-52839d71076d"
      }, {
        "reference": "Procedure/9677c0f0-d61b-4b54-905d-143125a26d85"
      }, {
        "reference": "Organization/3ebb1b70-8da7-4f46-ab33-2b911ca020b1"
      }, {
        "reference": "Practitioner/da2b3a64-1427-40ea-8493-4831aeb433fe"
      } ]
    },
    "request": {
      "method": "PUT",
      "url": "MeasureReport/ab78a86d-bee9-4258-ad90-addee4c09cdc"
    }
  } ]
}