{
  "resourceType": "Bundle",
  "id": "ippfail-notduringencounter",
  "type": "transaction",
  "entry": [ {
    "fullUrl": "https://madie.cms.gov/Patient/b39185cc-754c-4c8e-85bc-497c2e6a37aa",
    "resource": {
      "resourceType": "Patient",
      "id": "b39185cc-754c-4c8e-85bc-497c2e6a37aa",
      "meta": {
        "profile": [ "http://hl7.org/fhir/us/core/StructureDefinition/us-core-patient", "http://hl7.org/fhir/us/qicore/StructureDefinition/qicore-patient" ]
      },
      "extension": [ {
        "url": "http://hl7.org/fhir/us/core/StructureDefinition/us-core-race",
        "extension": [ {
          "url": "ombCategory",
          "valueCoding": {
            "system": "urn:oid:2.16.840.1.113883.6.238",
            "code": "2028-9",
            "display": "Asian"
          }
        }, {
          "url": "text",
          "valueString": "Asian"
        } ]
      }, {
        "url": "http://hl7.org/fhir/us/core/StructureDefinition/us-core-ethnicity",
        "extension": [ {
          "url": "ombCategory",
          "valueCoding": {
            "system": "urn:oid:2.16.840.1.113883.6.238",
            "code": "2135-2",
            "display": "Hispanic or Latino"
          }
        }, {
          "url": "text",
          "valueString": "Hispanic or Latino"
        } ]
      } ],
      "identifier": [ {
        "system": "http://hospital.smarthealthit.org",
        "value": "999999995"
      } ],
      "name": [ {
        "family": "NotDuringEncounter",
        "given": [ "IPPFail" ]
      } ],
      "gender": "unknown",
      "birthDate": "1992-06-12"
    },
    "request": {
      "method": "PUT",
      "url": "Patient/b39185cc-754c-4c8e-85bc-497c2e6a37aa"
    }
  }, {
    "fullUrl": "https://madie.cms.gov/Encounter/54a19b47-7082-4013-9a8a-a734f588a9a8",
    "resource": {
      "resourceType": "Encounter",
      "id": "54a19b47-7082-4013-9a8a-a734f588a9a8",
      "meta": {
        "profile": [ "http://hl7.org/fhir/us/qicore/StructureDefinition/qicore-encounter" ]
      },
      "status": "finished",
      "class": {
        "system": "http://terminology.hl7.org/CodeSystem/v3-ActCode",
        "code": "IMP",
        "display": "inpatient encounter"
      },
      "type": [ {
        "coding": [ {
          "system": "http://snomed.info/sct",
          "code": "183452005",
          "display": "Emergency hospital admission"
        } ]
      } ],
      "subject": {
        "reference": "Patient/b39185cc-754c-4c8e-85bc-497c2e6a37aa"
      },
      "period": {
        "start": "2026-02-01T00:00:00.000+00:00",
        "end": "2026-02-03T01:00:00.000+00:00"
      }
    },
    "request": {
      "method": "PUT",
      "url": "Encounter/54a19b47-7082-4013-9a8a-a734f588a9a8"
    }
  }, {
    "fullUrl": "https://madie.cms.gov/Observation/eed0211e-e396-4be1-9793-e9256fb3a80d",
    "resource": {
      "resourceType": "Observation",
      "id": "eed0211e-e396-4be1-9793-e9256fb3a80d",
      "meta": {
        "profile": [ "http://hl7.org/fhir/us/qicore/StructureDefinition/qicore-observation-lab" ]
      },
      "status": "final",
      "category": [ {
        "coding": [ {
          "system": "http://terminology.hl7.org/CodeSystem/observation-category",
          "code": "imaging",
          "display": "Imaging"
        } ]
      } ],
      "code": {
        "coding": [ {
          "system": "http://loinc.org",
          "code": "96914-7",
          "display": "CT dose and image quality category"
        } ],
        "text": "CT dose and image quality category"
      },
      "subject": {
        "reference": "Patient/b39185cc-754c-4c8e-85bc-497c2e6a37aa"
      },
      "encounter": {
        "reference": "Encounter/54a19b47-7082-4013-9a8a-a734f588a9a8"
      },
      "effectiveDateTime": "2026-03-02T00:00:00.000+00:00",
      "valueCodeableConcept": {
        "coding": [ {
          "system": "http://loinc.org",
          "code": "LA31753-9",
          "display": "Abdomen and Pelvis Routine Dose"
        } ]
      },
      "component": [ {
        "code": {
          "coding": [ {
            "system": "http://loinc.org",
            "code": "96912-1",
            "display": "Calculated CT global noise"
          } ]
        },
        "valueQuantity": {
          "value": 63,
          "unit": "[hnsf'U]",
          "system": "http://unitsofmeasure.org",
          "code": "[hnsf'U]"
        }
      }, {
        "code": {
          "coding": [ {
            "system": "http://loinc.org",
            "code": "96913-9",
            "display": "Calculated CT size-adjusted dose"
          } ]
        },
        "valueQuantity": {
          "value": 597,
          "unit": "mGy.cm",
          "system": "http://unitsofmeasure.org",
          "code": "mGy.cm"
        }
      } ]
    },
    "request": {
      "method": "PUT",
      "url": "Observation/eed0211e-e396-4be1-9793-e9256fb3a80d"
    }
  }, {
    "fullUrl": "https://madie.cms.gov/MeasureReport/742d3860-8a04-435c-81bc-eff11aa5a4c7",
    "resource": {
      "resourceType": "MeasureReport",
      "id": "742d3860-8a04-435c-81bc-eff11aa5a4c7",
      "meta": {
        "profile": [ "http://hl7.org/fhir/us/cqfmeasures/StructureDefinition/test-case-cqfm" ]
      },
      "contained": [ {
        "resourceType": "Parameters",
        "id": "19b206f7-88ed-4571-ac3f-6b6ffaa5f5da-parameters",
        "parameter": [ {
          "name": "subject",
          "valueString": "b39185cc-754c-4c8e-85bc-497c2e6a37aa"
        } ]
      } ],
      "extension": [ {
        "url": "http://hl7.org/fhir/StructureDefinition/cqf-inputParameters",
        "valueReference": {
          "reference": "#19b206f7-88ed-4571-ac3f-6b6ffaa5f5da-parameters"
        }
      }, {
        "url": "http://hl7.org/fhir/us/cqfmeasures/StructureDefinition/cqfm-testCaseDescription",
        "valueMarkdown": "Patient has a CT scan with results but not during the encounter"
      } ],
      "modifierExtension": [ {
        "url": "http://hl7.org/fhir/us/cqfmeasures/StructureDefinition/cqfm-isTestCase",
        "valueBoolean": true
      } ],
      "status": "complete",
      "type": "individual",
      "measure": "https://madie.cms.gov/Measure/CMS1074FHIRCTIQR",
      "period": {
        "start": "2026-01-01",
        "end": "2026-12-31"
      },
      "group": [ {
        "id": "Group_1",
        "population": [ {
          "id": "InitialPopulation_1",
          "code": {
            "coding": [ {
              "system": "http://terminology.hl7.org/CodeSystem/measure-population",
              "code": "initial-population",
              "display": "Initial Population"
            } ]
          },
          "count": 0
        }, {
          "id": "Denominator_1",
          "code": {
            "coding": [ {
              "system": "http://terminology.hl7.org/CodeSystem/measure-population",
              "code": "denominator",
              "display": "Denominator"
            } ]
          },
          "count": 0
        }, {
          "id": "DenominatorExclusion_1",
          "code": {
            "coding": [ {
              "system": "http://terminology.hl7.org/CodeSystem/measure-population",
              "code": "denominator-exclusion",
              "display": "Denominator Exclusion"
            } ]
          },
          "count": 0
        }, {
          "id": "Numerator_1",
          "code": {
            "coding": [ {
              "system": "http://terminology.hl7.org/CodeSystem/measure-population",
              "code": "numerator",
              "display": "Numerator"
            } ]
          },
          "count": 0
        } ],
        "measureScore": {
          "value": 0.0
        }
      } ],
      "evaluatedResource": [ {
        "reference": "Patient/b39185cc-754c-4c8e-85bc-497c2e6a37aa"
      }, {
        "reference": "Encounter/54a19b47-7082-4013-9a8a-a734f588a9a8"
      }, {
        "reference": "Observation/eed0211e-e396-4be1-9793-e9256fb3a80d"
      } ]
    },
    "request": {
      "method": "PUT",
      "url": "MeasureReport/742d3860-8a04-435c-81bc-eff11aa5a4c7"
    }
  } ]
}