{
  "resourceType": "Bundle",
  "id": "Patient-12-DENEXPass-FrailtyEncOverlapsMP",
  "type": "transaction",
  "entry": [ {
    "fullUrl": "https://madie.cms.gov/Patient/9cba6cfa-9671-4850-803d-e286c7d59ee7",
    "resource": {
      "resourceType": "Patient",
      "id": "9cba6cfa-9671-4850-803d-e286c7d59ee7",
      "meta": {
        "profile": [ "http://hl7.org/fhir/us/qicore/StructureDefinition/qicore-patient" ]
      },
      "extension": [ {
        "url": "http://hl7.org/fhir/us/core/StructureDefinition/us-core-race",
        "extension": [ {
          "url": "ombCategory",
          "valueCoding": {
            "system": "urn:oid:2.16.840.1.113883.6.238",
            "code": "2028-9",
            "display": "Asian"
          }
        }, {
          "url": "text",
          "valueString": "Asian"
        } ]
      }, {
        "url": "http://hl7.org/fhir/us/core/StructureDefinition/us-core-ethnicity",
        "extension": [ {
          "url": "ombCategory",
          "valueCoding": {
            "system": "urn:oid:2.16.840.1.113883.6.238",
            "code": "2135-2",
            "display": "Hispanic or Latino"
          }
        }, {
          "url": "text",
          "valueString": "Hispanic or Latino"
        } ]
      } ],
      "identifier": [ {
        "system": "http://hospital.smarthealthit.org",
        "value": "999999995"
      } ],
      "name": [ {
        "family": "Bertha",
        "given": [ "Betty" ]
      } ],
      "gender": "female",
      "birthDate": "1958-12-31"
    },
    "request": {
      "method": "PUT",
      "url": "Patient/9cba6cfa-9671-4850-803d-e286c7d59ee7"
    }
  }, {
    "fullUrl": "https://madie.cms.gov/Encounter/29fcd268-eeee-40cc-b0c6-07a86882d44b",
    "resource": {
      "resourceType": "Encounter",
      "id": "29fcd268-eeee-40cc-b0c6-07a86882d44b",
      "meta": {
        "profile": [ "http://hl7.org/fhir/us/qicore/StructureDefinition/qicore-encounter" ]
      },
      "status": "finished",
      "class": {
        "system": "http://terminology.hl7.org/CodeSystem/v3-ActCode",
        "code": "AMB",
        "display": "ambulatory"
      },
      "type": [ {
        "coding": [ {
          "system": "http://snomed.info/sct",
          "code": "185460008",
          "display": "Home visit request by patient (procedure)"
        } ]
      } ],
      "subject": {
        "reference": "Patient/9cba6cfa-9671-4850-803d-e286c7d59ee7"
      },
      "period": {
        "start": "2026-01-01T00:00:00.000+00:00",
        "end": "2026-01-01T00:15:00.000+00:00"
      }
    },
    "request": {
      "method": "PUT",
      "url": "Encounter/29fcd268-eeee-40cc-b0c6-07a86882d44b"
    }
  }, {
    "fullUrl": "https://madie.cms.gov/Condition/8f60ecda-accd-4424-8ccc-08dd0aab5987",
    "resource": {
      "resourceType": "Condition",
      "id": "8f60ecda-accd-4424-8ccc-08dd0aab5987",
      "meta": {
        "profile": [ "http://hl7.org/fhir/us/qicore/StructureDefinition/qicore-condition-encounter-diagnosis" ]
      },
      "clinicalStatus": {
        "coding": [ {
          "system": "http://terminology.hl7.org/CodeSystem/condition-clinical",
          "code": "active"
        } ]
      },
      "category": [ {
        "coding": [ {
          "system": "http://terminology.hl7.org/CodeSystem/condition-category",
          "code": "encounter-diagnosis",
          "display": "Encounter Diagnosis"
        } ]
      } ],
      "code": {
        "coding": [ {
          "system": "http://snomed.info/sct",
          "code": "102781000119107",
          "display": "Sensory neuropathy due to type 1 diabetes mellitus (disorder)"
        } ]
      },
      "subject": {
        "reference": "Patient/9cba6cfa-9671-4850-803d-e286c7d59ee7"
      },
      "onsetDateTime": "2026-01-01T23:59:00.000+00:00"
    },
    "request": {
      "method": "PUT",
      "url": "Condition/8f60ecda-accd-4424-8ccc-08dd0aab5987"
    }
  }, {
    "fullUrl": "https://madie.cms.gov/MedicationRequest/c123213d-e9fb-4009-92c6-c9613062a271",
    "resource": {
      "resourceType": "MedicationRequest",
      "id": "c123213d-e9fb-4009-92c6-c9613062a271",
      "meta": {
        "profile": [ "http://hl7.org/fhir/us/qicore/StructureDefinition/qicore-medicationrequest" ]
      },
      "status": "active",
      "intent": "order",
      "doNotPerform": false,
      "medicationCodeableConcept": {
        "coding": [ {
          "system": "http://www.nlm.nih.gov/research/umls/rxnorm",
          "code": "312836",
          "display": "rivastigmine 6 MG Oral Capsule"
        } ]
      },
      "subject": {
        "reference": "Patient/9cba6cfa-9671-4850-803d-e286c7d59ee7"
      },
      "authoredOn": "2026-01-01T00:00:00.000+00:00",
      "requester": {
        "reference": "Practitioner/example"
      },
      "dispenseRequest": {
        "expectedSupplyDuration": {
          "value": 90,
          "system": "http://unitsofmeasure.org",
          "code": "days"
        }
      }
    },
    "request": {
      "method": "PUT",
      "url": "MedicationRequest/c123213d-e9fb-4009-92c6-c9613062a271"
    }
  }, {
    "fullUrl": "https://madie.cms.gov/Encounter/97c71f4f-33ab-477d-8497-35fb1861c790",
    "resource": {
      "resourceType": "Encounter",
      "id": "97c71f4f-33ab-477d-8497-35fb1861c790",
      "meta": {
        "profile": [ "http://hl7.org/fhir/us/qicore/StructureDefinition/qicore-encounter" ]
      },
      "status": "finished",
      "class": {
        "system": "http://terminology.hl7.org/CodeSystem/v3-ActCode",
        "code": "AMB",
        "display": "ambulatory"
      },
      "type": [ {
        "coding": [ {
          "system": "http://www.ama-assn.org/go/cpt",
          "code": "99509",
          "display": "Home visit for assistance with activities of daily living and personal care"
        } ]
      } ],
      "subject": {
        "reference": "Patient/9cba6cfa-9671-4850-803d-e286c7d59ee7"
      },
      "period": {
        "start": "2026-01-01T00:00:00.000+00:00",
        "end": "2026-01-02T00:00:00.000+00:00"
      }
    },
    "request": {
      "method": "PUT",
      "url": "Encounter/97c71f4f-33ab-477d-8497-35fb1861c790"
    }
  }, {
    "fullUrl": "https://madie.cms.gov/MeasureReport/78116df0-3231-4476-a97a-451af4584573",
    "resource": {
      "resourceType": "MeasureReport",
      "id": "78116df0-3231-4476-a97a-451af4584573",
      "meta": {
        "profile": [ "http://hl7.org/fhir/us/cqfmeasures/StructureDefinition/test-case-cqfm" ]
      },
      "contained": [ {
        "resourceType": "Parameters",
        "id": "188ee146-ad66-4a90-b1a9-6131c6a11781-parameters",
        "parameter": [ {
          "name": "subject",
          "valueString": "9cba6cfa-9671-4850-803d-e286c7d59ee7"
        } ]
      } ],
      "extension": [ {
        "url": "http://hl7.org/fhir/StructureDefinition/cqf-inputParameters",
        "valueReference": {
          "reference": "#188ee146-ad66-4a90-b1a9-6131c6a11781-parameters"
        }
      }, {
        "url": "http://hl7.org/fhir/us/cqfmeasures/StructureDefinition/cqfm-testCaseDescription",
        "valueMarkdown": "Frailty encounter overlaps the MP"
      } ],
      "modifierExtension": [ {
        "url": "http://hl7.org/fhir/us/cqfmeasures/StructureDefinition/cqfm-isTestCase",
        "valueBoolean": true
      } ],
      "status": "complete",
      "type": "individual",
      "measure": "https://madie.cms.gov/Measure/CMS122FHIRDiabetesAssessGreaterThan9Percent",
      "period": {
        "start": "2026-01-01",
        "end": "2026-12-31"
      },
      "group": [ {
        "id": "Group_1",
        "population": [ {
          "id": "InitialPopulation_1",
          "code": {
            "coding": [ {
              "system": "http://terminology.hl7.org/CodeSystem/measure-population",
              "code": "initial-population",
              "display": "Initial Population"
            } ]
          },
          "count": 1
        }, {
          "id": "Denominator_1",
          "code": {
            "coding": [ {
              "system": "http://terminology.hl7.org/CodeSystem/measure-population",
              "code": "denominator",
              "display": "Denominator"
            } ]
          },
          "count": 1
        }, {
          "id": "DenominatorExclusion_1",
          "code": {
            "coding": [ {
              "system": "http://terminology.hl7.org/CodeSystem/measure-population",
              "code": "denominator-exclusion",
              "display": "Denominator Exclusion"
            } ]
          },
          "count": 1
        }, {
          "id": "Numerator_1",
          "code": {
            "coding": [ {
              "system": "http://terminology.hl7.org/CodeSystem/measure-population",
              "code": "numerator",
              "display": "Numerator"
            } ]
          },
          "count": 0
        } ],
        "measureScore": {
          "value": 1.0
        }
      } ],
      "evaluatedResource": [ {
        "reference": "Patient/9cba6cfa-9671-4850-803d-e286c7d59ee7"
      }, {
        "reference": "Encounter/29fcd268-eeee-40cc-b0c6-07a86882d44b"
      }, {
        "reference": "Condition/8f60ecda-accd-4424-8ccc-08dd0aab5987"
      }, {
        "reference": "MedicationRequest/c123213d-e9fb-4009-92c6-c9613062a271"
      }, {
        "reference": "Encounter/97c71f4f-33ab-477d-8497-35fb1861c790"
      } ]
    },
    "request": {
      "method": "PUT",
      "url": "MeasureReport/78116df0-3231-4476-a97a-451af4584573"
    }
  } ]
}