{
  "resourceType": "Bundle",
  "id": "62aa507fc4be4c506d4a533a",
  "type": "transaction",
  "entry": [ {
    "fullUrl": "https://madie.cms.gov/Patient/cd81ff3a-3d2b-472e-bf0f-f951aee7d2c4",
    "resource": {
      "resourceType": "Patient",
      "id": "cd81ff3a-3d2b-472e-bf0f-f951aee7d2c4",
      "meta": {
        "profile": [ "http://hl7.org/fhir/us/qicore/StructureDefinition/qicore-patient" ]
      },
      "extension": [ {
        "url": "http://hl7.org/fhir/us/core/StructureDefinition/us-core-race",
        "extension": [ {
          "url": "ombCategory",
          "valueCoding": {
            "system": "urn:oid:2.16.840.1.113883.6.238",
            "code": "1002-5",
            "display": "American Indian or Alaska Native",
            "userSelected": true
          }
        }, {
          "url": "text",
          "valueString": "American Indian or Alaska Native"
        } ]
      }, {
        "url": "http://hl7.org/fhir/us/core/StructureDefinition/us-core-ethnicity",
        "extension": [ {
          "url": "ombCategory",
          "valueCoding": {
            "system": "urn:oid:2.16.840.1.113883.6.238",
            "code": "2186-5",
            "display": "Not Hispanic or Latino",
            "userSelected": true
          }
        }, {
          "url": "text",
          "valueString": "Not Hispanic or Latino"
        } ]
      } ],
      "identifier": [ {
        "type": {
          "coding": [ {
            "system": "http://terminology.hl7.org/CodeSystem/v2-0203",
            "code": "MR"
          } ]
        },
        "system": "https://bonnie-fhir.healthit.gov/",
        "value": "62aa507fc4be4c506d4a533a"
      } ],
      "name": [ {
        "family": "DENOMPass",
        "given": [ "Patient18DayOfEncounter" ]
      } ],
      "gender": "male",
      "birthDate": "2005-01-01"
    },
    "request": {
      "method": "PUT",
      "url": "Patient/cd81ff3a-3d2b-472e-bf0f-f951aee7d2c4"
    }
  }, {
    "fullUrl": "https://madie.cms.gov/Encounter/d6c9395f-5f3f-43ed-92b3-19e593b93adb",
    "resource": {
      "resourceType": "Encounter",
      "id": "d6c9395f-5f3f-43ed-92b3-19e593b93adb",
      "meta": {
        "profile": [ "http://hl7.org/fhir/us/qicore/StructureDefinition/qicore-encounter" ]
      },
      "status": "finished",
      "class": {
        "system": "http://terminology.hl7.org/CodeSystem/v3-ActCode",
        "code": "AMB",
        "display": "ambulatory"
      },
      "type": [ {
        "coding": [ {
          "system": "http://snomed.info/sct",
          "version": "2022-03",
          "code": "10197000",
          "display": "Psychiatric interview and evaluation (procedure)",
          "userSelected": true
        } ]
      } ],
      "subject": {
        "reference": "Patient/cd81ff3a-3d2b-472e-bf0f-f951aee7d2c4"
      },
      "period": {
        "start": "2027-01-01T00:00:00.000+00:00",
        "end": "2027-01-01T00:30:00.000+00:00"
      }
    },
    "request": {
      "method": "PUT",
      "url": "Encounter/d6c9395f-5f3f-43ed-92b3-19e593b93adb"
    }
  }, {
    "fullUrl": "https://madie.cms.gov/Coverage/6c488e1c-3c7e-4e82-bbb5-2189b903d95a",
    "resource": {
      "resourceType": "Coverage",
      "id": "6c488e1c-3c7e-4e82-bbb5-2189b903d95a",
      "meta": {
        "profile": [ "http://hl7.org/fhir/us/qicore/StructureDefinition/qicore-coverage" ]
      },
      "status": "active",
      "beneficiary": {
        "reference": "Patient/cd81ff3a-3d2b-472e-bf0f-f951aee7d2c4"
      },
      "payor": [ {
        "reference": "Organization/a6db24b6-4e4b-4031-be24-cdca73462d92"
      } ]
    },
    "request": {
      "method": "PUT",
      "url": "Coverage/6c488e1c-3c7e-4e82-bbb5-2189b903d95a"
    }
  }, {
    "fullUrl": "https://madie.cms.gov/Organization/a6db24b6-4e4b-4031-be24-cdca73462d92",
    "resource": {
      "resourceType": "Organization",
      "id": "a6db24b6-4e4b-4031-be24-cdca73462d92",
      "meta": {
        "profile": [ "http://hl7.org/fhir/us/qicore/StructureDefinition/qicore-organization" ]
      },
      "identifier": [ {
        "use": "temp",
        "system": "urn:oid:2.16.840.1.113883.4.4",
        "value": "21-3259825"
      } ],
      "active": true,
      "type": [ {
        "coding": [ {
          "system": "http://terminology.hl7.org/CodeSystem/organization-type",
          "code": "pay",
          "display": "Payer"
        } ]
      } ],
      "name": "Blue Cross Blue Shield of Texas",
      "telecom": [ {
        "system": "phone",
        "value": "(+1) 972-766-6900"
      } ],
      "address": [ {
        "use": "billing",
        "type": "postal",
        "line": [ "P.O. Box 660044" ],
        "city": "Dallas",
        "state": "TX",
        "postalCode": "75266-0044",
        "country": "USA"
      } ]
    },
    "request": {
      "method": "PUT",
      "url": "Organization/a6db24b6-4e4b-4031-be24-cdca73462d92"
    }
  }, {
    "fullUrl": "https://madie.cms.gov/MeasureReport/927a7182-bd93-460e-a23b-a02e65cf2eb0",
    "resource": {
      "resourceType": "MeasureReport",
      "id": "927a7182-bd93-460e-a23b-a02e65cf2eb0",
      "meta": {
        "profile": [ "http://hl7.org/fhir/us/cqfmeasures/StructureDefinition/test-case-cqfm" ]
      },
      "contained": [ {
        "resourceType": "Parameters",
        "id": "0c58c9c9-d0d6-4e50-b415-1cd666a71e16-parameters",
        "parameter": [ {
          "name": "subject",
          "valueString": "cd81ff3a-3d2b-472e-bf0f-f951aee7d2c4"
        } ]
      } ],
      "extension": [ {
        "url": "http://hl7.org/fhir/StructureDefinition/cqf-inputParameters",
        "valueReference": {
          "reference": "#0c58c9c9-d0d6-4e50-b415-1cd666a71e16-parameters"
        }
      }, {
        "url": "http://hl7.org/fhir/us/cqfmeasures/StructureDefinition/cqfm-testCaseDescription",
        "valueMarkdown": "Ambulatory Encounter 1 day after MP"
      } ],
      "modifierExtension": [ {
        "url": "http://hl7.org/fhir/us/cqfmeasures/StructureDefinition/cqfm-isTestCase",
        "valueBoolean": true
      } ],
      "status": "complete",
      "type": "individual",
      "measure": "https://madie.cms.gov/Measure/CMS69FHIRPCSBMIScreenAndFollowUp",
      "period": {
        "start": "2026-01-01",
        "end": "2026-12-31"
      },
      "group": [ {
        "id": "Group_1",
        "population": [ {
          "id": "InitialPopulation_1",
          "code": {
            "coding": [ {
              "system": "http://terminology.hl7.org/CodeSystem/measure-population",
              "code": "initial-population",
              "display": "Initial Population"
            } ]
          },
          "count": 0
        }, {
          "id": "Denominator_1",
          "code": {
            "coding": [ {
              "system": "http://terminology.hl7.org/CodeSystem/measure-population",
              "code": "denominator",
              "display": "Denominator"
            } ]
          },
          "count": 0
        }, {
          "id": "DenominatorExclusion_1",
          "code": {
            "coding": [ {
              "system": "http://terminology.hl7.org/CodeSystem/measure-population",
              "code": "denominator-exclusion",
              "display": "Denominator Exclusion"
            } ]
          },
          "count": 0
        }, {
          "id": "Numerator_1",
          "code": {
            "coding": [ {
              "system": "http://terminology.hl7.org/CodeSystem/measure-population",
              "code": "numerator",
              "display": "Numerator"
            } ]
          },
          "count": 0
        }, {
          "id": "DenominatorException_1",
          "code": {
            "coding": [ {
              "system": "http://terminology.hl7.org/CodeSystem/measure-population",
              "code": "denominator-exception",
              "display": "Denominator Exception"
            } ]
          },
          "count": 0
        } ],
        "measureScore": {
          "value": 1.0
        }
      } ],
      "evaluatedResource": [ {
        "reference": "Patient/cd81ff3a-3d2b-472e-bf0f-f951aee7d2c4"
      }, {
        "reference": "Encounter/d6c9395f-5f3f-43ed-92b3-19e593b93adb"
      }, {
        "reference": "Coverage/6c488e1c-3c7e-4e82-bbb5-2189b903d95a"
      }, {
        "reference": "Organization/a6db24b6-4e4b-4031-be24-cdca73462d92"
      } ]
    },
    "request": {
      "method": "PUT",
      "url": "MeasureReport/927a7182-bd93-460e-a23b-a02e65cf2eb0"
    }
  } ]
}