{
  "resourceType": "Bundle",
  "id": "DENEXPass-PalliativeCareDiagnosisDuringMP",
  "type": "transaction",
  "entry": [ {
    "fullUrl": "https://madie.cms.gov/Patient/50d7cf81-dff4-45eb-b43d-0e40b08c3a75",
    "resource": {
      "resourceType": "Patient",
      "id": "50d7cf81-dff4-45eb-b43d-0e40b08c3a75",
      "meta": {
        "profile": [ "http://hl7.org/fhir/us/qicore/StructureDefinition/qicore-patient" ]
      },
      "extension": [ {
        "url": "http://hl7.org/fhir/us/core/StructureDefinition/us-core-race",
        "extension": [ {
          "url": "ombCategory",
          "valueCoding": {
            "system": "urn:oid:2.16.840.1.113883.6.238",
            "code": "2028-9",
            "display": "Asian"
          }
        }, {
          "url": "text",
          "valueString": "Asian"
        } ]
      }, {
        "url": "http://hl7.org/fhir/us/core/StructureDefinition/us-core-ethnicity",
        "extension": [ {
          "url": "ombCategory",
          "valueCoding": {
            "system": "urn:oid:2.16.840.1.113883.6.238",
            "code": "2135-2",
            "display": "Hispanic or Latino"
          }
        }, {
          "url": "text",
          "valueString": "Hispanic or Latino"
        } ]
      } ],
      "identifier": [ {
        "system": "http://hospital.smarthealthit.org",
        "value": "999999995"
      } ],
      "name": [ {
        "family": "DENEXPass",
        "given": [ "PalliativeCareDiagnosisDuringMP" ]
      } ],
      "gender": "female",
      "birthDate": "2007-12-31"
    },
    "request": {
      "method": "PUT",
      "url": "Patient/50d7cf81-dff4-45eb-b43d-0e40b08c3a75"
    }
  }, {
    "fullUrl": "https://madie.cms.gov/Encounter/0191cfbf-6451-40d2-a5b8-9da7475a39b4",
    "resource": {
      "resourceType": "Encounter",
      "id": "0191cfbf-6451-40d2-a5b8-9da7475a39b4",
      "meta": {
        "profile": [ "http://hl7.org/fhir/us/qicore/StructureDefinition/qicore-encounter" ]
      },
      "status": "finished",
      "class": {
        "system": "http://terminology.hl7.org/CodeSystem/v3-ActCode",
        "code": "AMB",
        "display": "ambulatory"
      },
      "type": [ {
        "coding": [ {
          "system": "http://snomed.info/sct",
          "code": "3391000175108",
          "display": "Office visit for pediatric care and assessment (procedure)"
        } ]
      } ],
      "subject": {
        "reference": "Patient/50d7cf81-dff4-45eb-b43d-0e40b08c3a75"
      },
      "period": {
        "start": "2026-01-01T00:00:00.000+00:00",
        "end": "2026-01-01T01:00:00.000+00:00"
      }
    },
    "request": {
      "method": "PUT",
      "url": "Encounter/0191cfbf-6451-40d2-a5b8-9da7475a39b4"
    }
  }, {
    "fullUrl": "https://madie.cms.gov/Condition/d6fec017-7253-4e38-9e12-fe097081af89",
    "resource": {
      "resourceType": "Condition",
      "id": "d6fec017-7253-4e38-9e12-fe097081af89",
      "meta": {
        "profile": [ "http://hl7.org/fhir/us/qicore/StructureDefinition/qicore-condition-problems-health-concerns" ]
      },
      "clinicalStatus": {
        "coding": [ {
          "system": "http://terminology.hl7.org/CodeSystem/condition-clinical",
          "code": "active"
        } ]
      },
      "category": [ {
        "coding": [ {
          "system": "http://terminology.hl7.org/CodeSystem/condition-category",
          "code": "problem-list-item",
          "display": "Problem List Item"
        } ]
      } ],
      "code": {
        "coding": [ {
          "system": "http://snomed.info/sct",
          "code": "371125006",
          "display": "Labile essential hypertension (disorder)"
        } ]
      },
      "subject": {
        "reference": "Patient/50d7cf81-dff4-45eb-b43d-0e40b08c3a75"
      },
      "onsetDateTime": "2026-06-30T23:59:59.000+00:00"
    },
    "request": {
      "method": "PUT",
      "url": "Condition/d6fec017-7253-4e38-9e12-fe097081af89"
    }
  }, {
    "fullUrl": "https://madie.cms.gov/Condition/47a2114c-15e1-4b18-ac73-85b53c386f2b",
    "resource": {
      "resourceType": "Condition",
      "id": "47a2114c-15e1-4b18-ac73-85b53c386f2b",
      "meta": {
        "profile": [ "http://hl7.org/fhir/us/qicore/StructureDefinition/qicore-condition-problems-health-concerns" ]
      },
      "clinicalStatus": {
        "coding": [ {
          "system": "http://terminology.hl7.org/CodeSystem/condition-clinical",
          "code": "active"
        } ]
      },
      "category": [ {
        "coding": [ {
          "system": "http://terminology.hl7.org/CodeSystem/condition-category",
          "code": "problem-list-item",
          "display": "Problem List Item"
        } ]
      } ],
      "code": {
        "coding": [ {
          "system": "http://snomed.info/sct",
          "code": "441874000",
          "display": "Seen by palliative care service (finding)"
        } ]
      },
      "subject": {
        "reference": "Patient/50d7cf81-dff4-45eb-b43d-0e40b08c3a75"
      },
      "onsetDateTime": "2026-12-31T23:59:59.000+00:00"
    },
    "request": {
      "method": "PUT",
      "url": "Condition/47a2114c-15e1-4b18-ac73-85b53c386f2b"
    }
  }, {
    "fullUrl": "https://madie.cms.gov/MeasureReport/8ce36cf4-e39d-4ba1-9bcc-daea669048bc",
    "resource": {
      "resourceType": "MeasureReport",
      "id": "8ce36cf4-e39d-4ba1-9bcc-daea669048bc",
      "meta": {
        "profile": [ "http://hl7.org/fhir/us/cqfmeasures/StructureDefinition/test-case-cqfm" ]
      },
      "contained": [ {
        "resourceType": "Parameters",
        "id": "bc21c87c-6d09-4de5-bb2c-e757287fba83-parameters",
        "parameter": [ {
          "name": "subject",
          "valueString": "50d7cf81-dff4-45eb-b43d-0e40b08c3a75"
        } ]
      } ],
      "extension": [ {
        "url": "http://hl7.org/fhir/StructureDefinition/cqf-inputParameters",
        "valueReference": {
          "reference": "#bc21c87c-6d09-4de5-bb2c-e757287fba83-parameters"
        }
      }, {
        "url": "http://hl7.org/fhir/us/cqfmeasures/StructureDefinition/cqfm-testCaseDescription",
        "valueMarkdown": "Palliative care diagnosis during MP - ConditionProblemsHealthConcerns"
      } ],
      "modifierExtension": [ {
        "url": "http://hl7.org/fhir/us/cqfmeasures/StructureDefinition/cqfm-isTestCase",
        "valueBoolean": true
      } ],
      "status": "complete",
      "type": "individual",
      "measure": "https://madie.cms.gov/Measure/CMS165FHIRControllingHighBloodPressure",
      "period": {
        "start": "2026-01-01",
        "end": "2026-12-31"
      },
      "group": [ {
        "id": "Group_1",
        "population": [ {
          "id": "InitialPopulation_1",
          "code": {
            "coding": [ {
              "system": "http://terminology.hl7.org/CodeSystem/measure-population",
              "code": "initial-population",
              "display": "Initial Population"
            } ]
          },
          "count": 1
        }, {
          "id": "Denominator_1",
          "code": {
            "coding": [ {
              "system": "http://terminology.hl7.org/CodeSystem/measure-population",
              "code": "denominator",
              "display": "Denominator"
            } ]
          },
          "count": 1
        }, {
          "id": "DenominatorExclusion_1",
          "code": {
            "coding": [ {
              "system": "http://terminology.hl7.org/CodeSystem/measure-population",
              "code": "denominator-exclusion",
              "display": "Denominator Exclusion"
            } ]
          },
          "count": 1
        }, {
          "id": "Numerator_1",
          "code": {
            "coding": [ {
              "system": "http://terminology.hl7.org/CodeSystem/measure-population",
              "code": "numerator",
              "display": "Numerator"
            } ]
          },
          "count": 0
        } ],
        "measureScore": {
          "value": 1.0
        }
      } ],
      "evaluatedResource": [ {
        "reference": "Patient/50d7cf81-dff4-45eb-b43d-0e40b08c3a75"
      }, {
        "reference": "Encounter/0191cfbf-6451-40d2-a5b8-9da7475a39b4"
      }, {
        "reference": "Condition/d6fec017-7253-4e38-9e12-fe097081af89"
      }, {
        "reference": "Condition/47a2114c-15e1-4b18-ac73-85b53c386f2b"
      } ]
    },
    "request": {
      "method": "PUT",
      "url": "MeasureReport/8ce36cf4-e39d-4ba1-9bcc-daea669048bc"
    }
  } ]
}