{
  "resourceType": "Bundle",
  "id": "13165431313131354",
  "type": "transaction",
  "entry": [ {
    "fullUrl": "https://madie.cms.gov/Patient/e755fc51-8047-4f1a-9d15-d53963496185",
    "resource": {
      "resourceType": "Patient",
      "id": "e755fc51-8047-4f1a-9d15-d53963496185",
      "meta": {
        "profile": [ "http://hl7.org/fhir/us/qicore/StructureDefinition/qicore-patient" ]
      },
      "extension": [ {
        "url": "http://hl7.org/fhir/us/core/StructureDefinition/us-core-race",
        "extension": [ {
          "url": "ombCategory",
          "valueCoding": {
            "system": "urn:oid:2.16.840.1.113883.6.238",
            "code": "1002-5",
            "display": "American Indian or Alaska Native",
            "userSelected": true
          }
        }, {
          "url": "text",
          "valueString": "American Indian or Alaska Native"
        } ]
      }, {
        "url": "http://hl7.org/fhir/us/core/StructureDefinition/us-core-ethnicity",
        "extension": [ {
          "url": "ombCategory",
          "valueCoding": {
            "system": "urn:oid:2.16.840.1.113883.6.238",
            "code": "2135-2",
            "display": "Hispanic or Latino",
            "userSelected": true
          }
        }, {
          "url": "text",
          "valueString": "Hispanic or Latino"
        } ]
      } ],
      "identifier": [ {
        "type": {
          "coding": [ {
            "system": "http://terminology.hl7.org/CodeSystem/v2-0203",
            "code": "MR"
          } ]
        },
        "system": "https://bonnie-fhir.healthit.gov/",
        "value": "464631315435131"
      } ],
      "name": [ {
        "family": "IPFail",
        "given": [ "EncHasNoEndDate" ]
      } ],
      "gender": "female",
      "birthDate": "1982-04-02"
    },
    "request": {
      "method": "PUT",
      "url": "Patient/e755fc51-8047-4f1a-9d15-d53963496185"
    }
  }, {
    "fullUrl": "https://madie.cms.gov/Encounter/b4c9a852-f8e4-44ec-9f90-dc92179ef85a",
    "resource": {
      "resourceType": "Encounter",
      "id": "b4c9a852-f8e4-44ec-9f90-dc92179ef85a",
      "meta": {
        "profile": [ "http://hl7.org/fhir/us/qicore/StructureDefinition/qicore-encounter" ]
      },
      "status": "finished",
      "class": {
        "system": "http://terminology.hl7.org/CodeSystem/v3-ActCode",
        "code": "AMB",
        "display": "ambulatory"
      },
      "type": [ {
        "coding": [ {
          "system": "http://snomed.info/sct",
          "version": "http://snomed.info/sct/731000124108/version/20240301",
          "code": "185463005",
          "display": "Visit out of hours (procedure)"
        } ]
      } ],
      "subject": {
        "reference": "Patient/e755fc51-8047-4f1a-9d15-d53963496185"
      },
      "period": {
        "start": "2026-03-31T08:00:00.000+00:00"
      }
    },
    "request": {
      "method": "PUT",
      "url": "Encounter/b4c9a852-f8e4-44ec-9f90-dc92179ef85a"
    }
  }, {
    "fullUrl": "https://madie.cms.gov/Encounter/55e59fea-66c1-4751-a381-4643588cc99a",
    "resource": {
      "resourceType": "Encounter",
      "id": "55e59fea-66c1-4751-a381-4643588cc99a",
      "meta": {
        "profile": [ "http://hl7.org/fhir/us/qicore/StructureDefinition/qicore-encounter" ]
      },
      "status": "finished",
      "class": {
        "system": "http://terminology.hl7.org/CodeSystem/v3-ActCode",
        "code": "AMB",
        "display": "ambulatory"
      },
      "type": [ {
        "coding": [ {
          "system": "http://snomed.info/sct",
          "version": "http://snomed.info/sct/731000124108/version/20240301",
          "code": "185463005",
          "display": "Visit out of hours (procedure)"
        } ]
      } ],
      "subject": {
        "reference": "Patient/e755fc51-8047-4f1a-9d15-d53963496185"
      },
      "period": {
        "start": "2026-05-15T08:00:00.000+00:00",
        "end": "2026-05-15T08:15:00.000+00:00"
      }
    },
    "request": {
      "method": "PUT",
      "url": "Encounter/55e59fea-66c1-4751-a381-4643588cc99a"
    }
  }, {
    "fullUrl": "https://madie.cms.gov/Condition/a69dc830-c283-422e-8901-20691853fb12",
    "resource": {
      "resourceType": "Condition",
      "id": "a69dc830-c283-422e-8901-20691853fb12",
      "meta": {
        "profile": [ "http://hl7.org/fhir/us/qicore/StructureDefinition/qicore-condition-problems-health-concerns" ]
      },
      "clinicalStatus": {
        "coding": [ {
          "system": "http://terminology.hl7.org/CodeSystem/condition-clinical",
          "code": "active",
          "display": "active"
        } ]
      },
      "verificationStatus": {
        "coding": [ {
          "system": "http://terminology.hl7.org/CodeSystem/condition-ver-status",
          "code": "confirmed",
          "display": "Confirmed"
        } ]
      },
      "category": [ {
        "coding": [ {
          "system": "http://terminology.hl7.org/CodeSystem/condition-category",
          "code": "problem-list-item",
          "display": "Problem List Item"
        } ]
      } ],
      "code": {
        "coding": [ {
          "system": "http://snomed.info/sct",
          "version": "http://snomed.info/sct/731000124108/version/20240301",
          "code": "10091002",
          "display": "High output heart failure (disorder)"
        } ]
      },
      "subject": {
        "reference": "Patient/e755fc51-8047-4f1a-9d15-d53963496185"
      },
      "onsetPeriod": {
        "start": "2025-05-17T08:00:00.000+00:00"
      }
    },
    "request": {
      "method": "PUT",
      "url": "Condition/a69dc830-c283-422e-8901-20691853fb12"
    }
  }, {
    "fullUrl": "https://madie.cms.gov/Condition/529bc19a-5487-4040-b063-8054aef06c04",
    "resource": {
      "resourceType": "Condition",
      "id": "529bc19a-5487-4040-b063-8054aef06c04",
      "meta": {
        "profile": [ "http://hl7.org/fhir/us/qicore/StructureDefinition/qicore-condition-problems-health-concerns" ]
      },
      "clinicalStatus": {
        "coding": [ {
          "system": "http://terminology.hl7.org/CodeSystem/condition-clinical",
          "code": "active",
          "display": "Active"
        } ]
      },
      "verificationStatus": {
        "coding": [ {
          "system": "http://terminology.hl7.org/CodeSystem/condition-ver-status",
          "code": "confirmed",
          "display": "Confirmed"
        } ]
      },
      "category": [ {
        "coding": [ {
          "system": "http://terminology.hl7.org/CodeSystem/condition-category",
          "code": "problem-list-item",
          "display": "Problem List Item"
        } ]
      } ],
      "code": {
        "coding": [ {
          "system": "http://snomed.info/sct",
          "version": "http://snomed.info/sct/731000124108/version/20240301",
          "code": "981000124106",
          "display": "Moderate left ventricular systolic dysfunction (disorder)"
        } ]
      },
      "subject": {
        "reference": "Patient/e755fc51-8047-4f1a-9d15-d53963496185"
      },
      "onsetPeriod": {
        "start": "2026-03-25T08:00:00.000+00:00",
        "end": "2026-03-30T08:15:00.000+00:00"
      }
    },
    "request": {
      "method": "PUT",
      "url": "Condition/529bc19a-5487-4040-b063-8054aef06c04"
    }
  }, {
    "fullUrl": "https://madie.cms.gov/MeasureReport/c80c0f23-4901-4937-9870-3eb51aadbff7",
    "resource": {
      "resourceType": "MeasureReport",
      "id": "c80c0f23-4901-4937-9870-3eb51aadbff7",
      "meta": {
        "profile": [ "http://hl7.org/fhir/us/cqfmeasures/StructureDefinition/test-case-cqfm" ]
      },
      "contained": [ {
        "resourceType": "Parameters",
        "id": "12078ed9-fd03-4133-bcda-b7f8b80bec30-parameters",
        "parameter": [ {
          "name": "subject",
          "valueString": "e755fc51-8047-4f1a-9d15-d53963496185"
        } ]
      } ],
      "extension": [ {
        "url": "http://hl7.org/fhir/StructureDefinition/cqf-inputParameters",
        "valueReference": {
          "reference": "#12078ed9-fd03-4133-bcda-b7f8b80bec30-parameters"
        }
      }, {
        "url": "http://hl7.org/fhir/us/cqfmeasures/StructureDefinition/cqfm-testCaseDescription",
        "valueMarkdown": "Patient has Heart failure Dx and 2 Encounters in MP but first encounter does not qualify due to not having ending period."
      } ],
      "modifierExtension": [ {
        "url": "http://hl7.org/fhir/us/cqfmeasures/StructureDefinition/cqfm-isTestCase",
        "valueBoolean": true
      } ],
      "status": "complete",
      "type": "individual",
      "measure": "https://madie.cms.gov/Measure/CMS135FHIRHFACEIorARBorARNIforLVSD",
      "period": {
        "start": "2026-01-01",
        "end": "2026-12-31"
      },
      "group": [ {
        "id": "Group_1",
        "population": [ {
          "id": "InitialPopulation_1",
          "code": {
            "coding": [ {
              "system": "http://terminology.hl7.org/CodeSystem/measure-population",
              "code": "initial-population",
              "display": "Initial Population"
            } ]
          },
          "count": 0
        }, {
          "id": "Denominator_1",
          "code": {
            "coding": [ {
              "system": "http://terminology.hl7.org/CodeSystem/measure-population",
              "code": "denominator",
              "display": "Denominator"
            } ]
          },
          "count": 0
        }, {
          "id": "DenominatorExclusion_1",
          "code": {
            "coding": [ {
              "system": "http://terminology.hl7.org/CodeSystem/measure-population",
              "code": "denominator-exclusion",
              "display": "Denominator Exclusion"
            } ]
          },
          "count": 0
        }, {
          "id": "Numerator_1",
          "code": {
            "coding": [ {
              "system": "http://terminology.hl7.org/CodeSystem/measure-population",
              "code": "numerator",
              "display": "Numerator"
            } ]
          },
          "count": 0
        }, {
          "id": "DenominatorException_1",
          "code": {
            "coding": [ {
              "system": "http://terminology.hl7.org/CodeSystem/measure-population",
              "code": "denominator-exception",
              "display": "Denominator Exception"
            } ]
          },
          "count": 0
        } ],
        "measureScore": {
          "value": 1.0
        }
      } ],
      "evaluatedResource": [ {
        "reference": "Patient/e755fc51-8047-4f1a-9d15-d53963496185"
      }, {
        "reference": "Encounter/b4c9a852-f8e4-44ec-9f90-dc92179ef85a"
      }, {
        "reference": "Encounter/55e59fea-66c1-4751-a381-4643588cc99a"
      }, {
        "reference": "Condition/a69dc830-c283-422e-8901-20691853fb12"
      }, {
        "reference": "Condition/529bc19a-5487-4040-b063-8054aef06c04"
      } ]
    },
    "request": {
      "method": "PUT",
      "url": "MeasureReport/c80c0f23-4901-4937-9870-3eb51aadbff7"
    }
  } ]
}