{
  "resourceType": "Bundle",
  "id": "35134135463435131",
  "type": "transaction",
  "entry": [ {
    "fullUrl": "https://madie.cms.gov/Patient/9709553b-acb2-4267-a57f-ae9d51e82659",
    "resource": {
      "resourceType": "Patient",
      "id": "9709553b-acb2-4267-a57f-ae9d51e82659",
      "meta": {
        "profile": [ "http://hl7.org/fhir/us/qicore/StructureDefinition/qicore-patient" ]
      },
      "extension": [ {
        "url": "http://hl7.org/fhir/us/core/StructureDefinition/us-core-race",
        "extension": [ {
          "url": "ombCategory",
          "valueCoding": {
            "system": "urn:oid:2.16.840.1.113883.6.238",
            "code": "2106-3",
            "display": "White"
          }
        }, {
          "url": "text",
          "valueString": "White"
        } ]
      }, {
        "url": "http://hl7.org/fhir/us/core/StructureDefinition/us-core-ethnicity",
        "extension": [ {
          "url": "ombCategory",
          "valueCoding": {
            "system": "urn:oid:2.16.840.1.113883.6.238",
            "code": "2186-5",
            "display": "Not Hispanic or Latino"
          }
        }, {
          "url": "text",
          "valueString": "Not Hispanic or Latino"
        } ]
      } ],
      "identifier": [ {
        "type": {
          "coding": [ {
            "system": "http://terminology.hl7.org/CodeSystem/v2-0203",
            "code": "MR"
          } ]
        },
        "system": "https://bonnie-fhir.healthit.gov/",
        "value": "431385494631"
      } ],
      "name": [ {
        "family": "DENEXCEPPass",
        "given": [ "AllergyToNepInhibMOA" ]
      } ],
      "gender": "female",
      "birthDate": "1979-06-14"
    },
    "request": {
      "method": "PUT",
      "url": "Patient/9709553b-acb2-4267-a57f-ae9d51e82659"
    }
  }, {
    "fullUrl": "https://madie.cms.gov/Encounter/f201b2ba-10aa-4a09-8a16-080be896420b",
    "resource": {
      "resourceType": "Encounter",
      "id": "f201b2ba-10aa-4a09-8a16-080be896420b",
      "meta": {
        "profile": [ "http://hl7.org/fhir/us/qicore/StructureDefinition/qicore-encounter" ]
      },
      "status": "finished",
      "class": {
        "system": "http://terminology.hl7.org/CodeSystem/v3-ActCode",
        "code": "AMB",
        "display": "ambulatory"
      },
      "type": [ {
        "coding": [ {
          "system": "http://snomed.info/sct",
          "version": "http://snomed.info/sct/731000124108/version/20240301",
          "code": "18170008",
          "display": "Subsequent nursing facility visit (procedure)"
        } ]
      } ],
      "subject": {
        "reference": "Patient/9709553b-acb2-4267-a57f-ae9d51e82659"
      },
      "period": {
        "start": "2026-03-31T14:40:00.000+00:00",
        "end": "2026-03-31T14:40:00.000+00:00"
      }
    },
    "request": {
      "method": "PUT",
      "url": "Encounter/f201b2ba-10aa-4a09-8a16-080be896420b"
    }
  }, {
    "fullUrl": "https://madie.cms.gov/Encounter/6e426aeb-f597-4738-a5d8-00e1ee0dd39c",
    "resource": {
      "resourceType": "Encounter",
      "id": "6e426aeb-f597-4738-a5d8-00e1ee0dd39c",
      "meta": {
        "profile": [ "http://hl7.org/fhir/us/qicore/StructureDefinition/qicore-encounter" ]
      },
      "status": "finished",
      "class": {
        "system": "http://terminology.hl7.org/CodeSystem/v3-ActCode",
        "code": "AMB",
        "display": "ambulatory"
      },
      "type": [ {
        "coding": [ {
          "system": "http://snomed.info/sct",
          "version": "http://snomed.info/sct/731000124108/version/20240301",
          "code": "185466002",
          "display": "Home visit for urgent condition (procedure)"
        } ]
      } ],
      "subject": {
        "reference": "Patient/9709553b-acb2-4267-a57f-ae9d51e82659"
      },
      "period": {
        "start": "2026-05-15T11:50:00.000+00:00",
        "end": "2026-05-15T11:50:00.000+00:00"
      }
    },
    "request": {
      "method": "PUT",
      "url": "Encounter/6e426aeb-f597-4738-a5d8-00e1ee0dd39c"
    }
  }, {
    "fullUrl": "https://madie.cms.gov/Condition/7e784128-5adf-43eb-bfd6-49b57d4be62a",
    "resource": {
      "resourceType": "Condition",
      "id": "7e784128-5adf-43eb-bfd6-49b57d4be62a",
      "meta": {
        "profile": [ "http://hl7.org/fhir/us/qicore/StructureDefinition/qicore-condition-problems-health-concerns" ]
      },
      "clinicalStatus": {
        "coding": [ {
          "system": "http://terminology.hl7.org/CodeSystem/condition-clinical",
          "code": "active",
          "display": "active"
        } ]
      },
      "verificationStatus": {
        "coding": [ {
          "system": "http://terminology.hl7.org/CodeSystem/condition-ver-status",
          "code": "confirmed",
          "display": "Confirmed"
        } ]
      },
      "category": [ {
        "coding": [ {
          "system": "http://terminology.hl7.org/CodeSystem/condition-category",
          "code": "problem-list-item",
          "display": "Problem List Item"
        } ]
      } ],
      "code": {
        "coding": [ {
          "system": "http://snomed.info/sct",
          "version": "http://snomed.info/sct/731000124108/version/20240301",
          "code": "10091002",
          "display": "High output heart failure (disorder)"
        } ]
      },
      "subject": {
        "reference": "Patient/9709553b-acb2-4267-a57f-ae9d51e82659"
      },
      "onsetPeriod": {
        "start": "2025-05-17T10:00:00.000+00:00"
      }
    },
    "request": {
      "method": "PUT",
      "url": "Condition/7e784128-5adf-43eb-bfd6-49b57d4be62a"
    }
  }, {
    "fullUrl": "https://madie.cms.gov/Condition/2efea536-749d-4acf-ad6f-aee9870e11fb",
    "resource": {
      "resourceType": "Condition",
      "id": "2efea536-749d-4acf-ad6f-aee9870e11fb",
      "meta": {
        "profile": [ "http://hl7.org/fhir/us/qicore/StructureDefinition/qicore-condition-problems-health-concerns" ]
      },
      "clinicalStatus": {
        "coding": [ {
          "system": "http://terminology.hl7.org/CodeSystem/condition-clinical",
          "code": "active",
          "display": "Active"
        } ]
      },
      "verificationStatus": {
        "coding": [ {
          "system": "http://terminology.hl7.org/CodeSystem/condition-ver-status",
          "code": "confirmed",
          "display": "Confirmed"
        } ]
      },
      "category": [ {
        "coding": [ {
          "system": "http://terminology.hl7.org/CodeSystem/condition-category",
          "code": "problem-list-item",
          "display": "Problem List Item"
        } ]
      } ],
      "code": {
        "coding": [ {
          "system": "http://snomed.info/sct",
          "version": "http://snomed.info/sct/731000124108/version/20240301",
          "code": "991000124109",
          "display": "Severe left ventricular systolic dysfunction (disorder)"
        } ]
      },
      "subject": {
        "reference": "Patient/9709553b-acb2-4267-a57f-ae9d51e82659"
      },
      "onsetPeriod": {
        "start": "2026-03-25T16:00:00.000+00:00",
        "end": "2026-03-30T16:00:00.000+00:00"
      }
    },
    "request": {
      "method": "PUT",
      "url": "Condition/2efea536-749d-4acf-ad6f-aee9870e11fb"
    }
  }, {
    "fullUrl": "https://madie.cms.gov/AllergyIntolerance/9f1b0b72-caa3-4877-8842-1b66c726777a",
    "resource": {
      "resourceType": "AllergyIntolerance",
      "id": "9f1b0b72-caa3-4877-8842-1b66c726777a",
      "meta": {
        "profile": [ "http://hl7.org/fhir/us/qicore/StructureDefinition/qicore-allergyintolerance" ]
      },
      "clinicalStatus": {
        "coding": [ {
          "system": "http://terminology.hl7.org/CodeSystem/allergyintolerance-clinical",
          "code": "active",
          "display": "Active"
        } ]
      },
      "verificationStatus": {
        "coding": [ {
          "system": "http://terminology.hl7.org/CodeSystem/allergyintolerance-verification",
          "code": "confirmed",
          "display": "Confirmed"
        } ]
      },
      "type": "allergy",
      "category": [ "medication" ],
      "criticality": "high",
      "code": {
        "coding": [ {
          "system": "http://snomed.info/sct",
          "version": "http://snomed.info/sct/731000124108/version/20240301",
          "code": "786886009",
          "display": "Substance with neprilysin inhibitor mechanism of action (substance)"
        } ]
      },
      "patient": {
        "reference": "Patient/9709553b-acb2-4267-a57f-ae9d51e82659"
      },
      "onsetDateTime": "2005",
      "recordedDate": "2025-09-25T16:00:00.000+00:00"
    },
    "request": {
      "method": "PUT",
      "url": "AllergyIntolerance/9f1b0b72-caa3-4877-8842-1b66c726777a"
    }
  }, {
    "fullUrl": "https://madie.cms.gov/MeasureReport/311ed1ce-0fd2-450d-b6cf-20ecf07c4876",
    "resource": {
      "resourceType": "MeasureReport",
      "id": "311ed1ce-0fd2-450d-b6cf-20ecf07c4876",
      "meta": {
        "profile": [ "http://hl7.org/fhir/us/cqfmeasures/StructureDefinition/test-case-cqfm" ]
      },
      "contained": [ {
        "resourceType": "Parameters",
        "id": "03134012-9a2e-4008-900a-c6202c17a168-parameters",
        "parameter": [ {
          "name": "subject",
          "valueString": "9709553b-acb2-4267-a57f-ae9d51e82659"
        } ]
      } ],
      "extension": [ {
        "url": "http://hl7.org/fhir/StructureDefinition/cqf-inputParameters",
        "valueReference": {
          "reference": "#03134012-9a2e-4008-900a-c6202c17a168-parameters"
        }
      }, {
        "url": "http://hl7.org/fhir/us/cqfmeasures/StructureDefinition/cqfm-testCaseDescription",
        "valueMarkdown": "Patient has 2 ambulatory encounters, HF diagnosis and LVSD and meets denominator exception with confirmed of allergy to  ARNI ingredient"
      } ],
      "modifierExtension": [ {
        "url": "http://hl7.org/fhir/us/cqfmeasures/StructureDefinition/cqfm-isTestCase",
        "valueBoolean": true
      } ],
      "status": "complete",
      "type": "individual",
      "measure": "https://madie.cms.gov/Measure/CMS135FHIRHFACEIorARBorARNIforLVSD",
      "period": {
        "start": "2026-01-01",
        "end": "2026-12-31"
      },
      "group": [ {
        "id": "Group_1",
        "population": [ {
          "id": "InitialPopulation_1",
          "code": {
            "coding": [ {
              "system": "http://terminology.hl7.org/CodeSystem/measure-population",
              "code": "initial-population",
              "display": "Initial Population"
            } ]
          },
          "count": 1
        }, {
          "id": "Denominator_1",
          "code": {
            "coding": [ {
              "system": "http://terminology.hl7.org/CodeSystem/measure-population",
              "code": "denominator",
              "display": "Denominator"
            } ]
          },
          "count": 1
        }, {
          "id": "DenominatorExclusion_1",
          "code": {
            "coding": [ {
              "system": "http://terminology.hl7.org/CodeSystem/measure-population",
              "code": "denominator-exclusion",
              "display": "Denominator Exclusion"
            } ]
          },
          "count": 0
        }, {
          "id": "Numerator_1",
          "code": {
            "coding": [ {
              "system": "http://terminology.hl7.org/CodeSystem/measure-population",
              "code": "numerator",
              "display": "Numerator"
            } ]
          },
          "count": 0
        }, {
          "id": "DenominatorException_1",
          "code": {
            "coding": [ {
              "system": "http://terminology.hl7.org/CodeSystem/measure-population",
              "code": "denominator-exception",
              "display": "Denominator Exception"
            } ]
          },
          "count": 1
        } ],
        "measureScore": {
          "value": 1.0
        }
      } ],
      "evaluatedResource": [ {
        "reference": "Patient/9709553b-acb2-4267-a57f-ae9d51e82659"
      }, {
        "reference": "Encounter/f201b2ba-10aa-4a09-8a16-080be896420b"
      }, {
        "reference": "Encounter/6e426aeb-f597-4738-a5d8-00e1ee0dd39c"
      }, {
        "reference": "Condition/7e784128-5adf-43eb-bfd6-49b57d4be62a"
      }, {
        "reference": "Condition/2efea536-749d-4acf-ad6f-aee9870e11fb"
      }, {
        "reference": "AllergyIntolerance/9f1b0b72-caa3-4877-8842-1b66c726777a"
      } ]
    },
    "request": {
      "method": "PUT",
      "url": "MeasureReport/311ed1ce-0fd2-450d-b6cf-20ecf07c4876"
    }
  } ]
}