{
  "resourceType": "Bundle",
  "id": "146343513131",
  "type": "transaction",
  "entry": [ {
    "fullUrl": "https://madie.cms.gov/Patient/298d5342-fa0a-4386-bf48-b9c977a1c367",
    "resource": {
      "resourceType": "Patient",
      "id": "298d5342-fa0a-4386-bf48-b9c977a1c367",
      "meta": {
        "profile": [ "http://hl7.org/fhir/us/qicore/StructureDefinition/qicore-patient" ]
      },
      "extension": [ {
        "url": "http://hl7.org/fhir/us/core/StructureDefinition/us-core-race",
        "extension": [ {
          "url": "ombCategory",
          "valueCoding": {
            "system": "urn:oid:2.16.840.1.113883.6.238",
            "code": "1002-5",
            "display": "American Indian or Alaska Native"
          }
        }, {
          "url": "text",
          "valueString": "American Indian or Alaska Native"
        } ]
      }, {
        "url": "http://hl7.org/fhir/us/core/StructureDefinition/us-core-ethnicity",
        "extension": [ {
          "url": "ombCategory",
          "valueCoding": {
            "system": "urn:oid:2.16.840.1.113883.6.238",
            "code": "2186-5",
            "display": "Not Hispanic or Latino"
          }
        }, {
          "url": "text",
          "valueString": "Not Hispanic or Latino"
        } ]
      } ],
      "identifier": [ {
        "type": {
          "coding": [ {
            "system": "http://terminology.hl7.org/CodeSystem/v2-0203",
            "code": "MR"
          } ]
        },
        "system": "https://bonnie-fhir.healthit.gov/",
        "value": "431385494631"
      } ],
      "name": [ {
        "family": "DENOMPass",
        "given": [ "ModtoSevLVSD" ]
      } ],
      "gender": "male",
      "birthDate": "1969-06-14"
    },
    "request": {
      "method": "PUT",
      "url": "Patient/298d5342-fa0a-4386-bf48-b9c977a1c367"
    }
  }, {
    "fullUrl": "https://madie.cms.gov/MedicationRequest/af48fa75-2ba3-486e-ae1a-d5c71d37562c",
    "resource": {
      "resourceType": "MedicationRequest",
      "id": "af48fa75-2ba3-486e-ae1a-d5c71d37562c",
      "meta": {
        "profile": [ "http://hl7.org/fhir/us/qicore/StructureDefinition/qicore-medicationnotrequested" ]
      },
      "status": "completed",
      "intent": "order",
      "doNotPerform": true,
      "medicationCodeableConcept": {
        "coding": [ {
          "system": "http://www.nlm.nih.gov/research/umls/rxnorm",
          "code": "1000001",
          "display": "amlodipine 5 MG / hydrochlorothiazide 25 MG / olmesartan medoxomil 40 MG Oral Tablet",
          "userSelected": true
        } ]
      },
      "subject": {
        "reference": "Patient/298d5342-fa0a-4386-bf48-b9c977a1c367"
      },
      "authoredOn": "2026-05-15T11:50:00.000+00:00",
      "requester": {
        "reference": "Practitioner/123456"
      },
      "reasonCode": [ {
        "coding": [ {
          "system": "http://snomed.info/sct",
          "code": "183932001",
          "display": "Procedure contraindicated (situation)",
          "userSelected": true
        } ]
      } ]
    },
    "request": {
      "method": "PUT",
      "url": "MedicationRequest/af48fa75-2ba3-486e-ae1a-d5c71d37562c"
    }
  }, {
    "fullUrl": "https://madie.cms.gov/Encounter/6916199d-3c31-4ef2-b375-ce1265530c7e",
    "resource": {
      "resourceType": "Encounter",
      "id": "6916199d-3c31-4ef2-b375-ce1265530c7e",
      "meta": {
        "profile": [ "http://hl7.org/fhir/us/qicore/StructureDefinition/qicore-encounter" ]
      },
      "status": "finished",
      "class": {
        "system": "http://terminology.hl7.org/CodeSystem/v3-ActCode",
        "code": "AMB",
        "display": "ambulatory"
      },
      "type": [ {
        "coding": [ {
          "system": "http://snomed.info/sct",
          "version": "http://snomed.info/sct/731000124108/version/20240301",
          "code": "185463005",
          "display": "Visit out of hours (procedure)"
        } ]
      } ],
      "subject": {
        "reference": "Patient/298d5342-fa0a-4386-bf48-b9c977a1c367"
      },
      "period": {
        "start": "2026-03-31T14:40:00.000+00:00",
        "end": "2026-03-31T14:40:00.000+00:00"
      }
    },
    "request": {
      "method": "PUT",
      "url": "Encounter/6916199d-3c31-4ef2-b375-ce1265530c7e"
    }
  }, {
    "fullUrl": "https://madie.cms.gov/Encounter/80e635fc-974c-4f09-8465-e9695b819a49",
    "resource": {
      "resourceType": "Encounter",
      "id": "80e635fc-974c-4f09-8465-e9695b819a49",
      "meta": {
        "profile": [ "http://hl7.org/fhir/us/qicore/StructureDefinition/qicore-encounter" ]
      },
      "status": "finished",
      "class": {
        "system": "http://terminology.hl7.org/CodeSystem/v3-ActCode",
        "code": "AMB",
        "display": "ambulatory"
      },
      "type": [ {
        "coding": [ {
          "system": "http://snomed.info/sct",
          "version": "http://snomed.info/sct/731000124108/version/20240301",
          "code": "185463005",
          "display": "Visit out of hours (procedure)"
        } ]
      } ],
      "subject": {
        "reference": "Patient/298d5342-fa0a-4386-bf48-b9c977a1c367"
      },
      "period": {
        "start": "2026-05-15T11:50:00.000+00:00",
        "end": "2026-05-15T11:50:00.000+00:00"
      }
    },
    "request": {
      "method": "PUT",
      "url": "Encounter/80e635fc-974c-4f09-8465-e9695b819a49"
    }
  }, {
    "fullUrl": "https://madie.cms.gov/Condition/b5755cca-cab0-4bd4-aae8-05f7178d1ccd",
    "resource": {
      "resourceType": "Condition",
      "id": "b5755cca-cab0-4bd4-aae8-05f7178d1ccd",
      "meta": {
        "profile": [ "http://hl7.org/fhir/us/qicore/StructureDefinition/qicore-condition-problems-health-concerns" ]
      },
      "clinicalStatus": {
        "coding": [ {
          "system": "http://terminology.hl7.org/CodeSystem/condition-clinical",
          "code": "active",
          "display": "active"
        } ]
      },
      "verificationStatus": {
        "coding": [ {
          "system": "http://terminology.hl7.org/CodeSystem/condition-ver-status",
          "code": "confirmed",
          "display": "Confirmed"
        } ]
      },
      "category": [ {
        "coding": [ {
          "system": "http://terminology.hl7.org/CodeSystem/condition-category",
          "code": "problem-list-item",
          "display": "Problem List Item"
        } ]
      } ],
      "code": {
        "coding": [ {
          "system": "http://snomed.info/sct",
          "version": "http://snomed.info/sct/731000124108/version/20240301",
          "code": "10091002",
          "display": "High output heart failure (disorder)"
        } ]
      },
      "subject": {
        "reference": "Patient/298d5342-fa0a-4386-bf48-b9c977a1c367"
      },
      "onsetPeriod": {
        "start": "2025-05-17T10:00:00.000+00:00"
      }
    },
    "request": {
      "method": "PUT",
      "url": "Condition/b5755cca-cab0-4bd4-aae8-05f7178d1ccd"
    }
  }, {
    "fullUrl": "https://madie.cms.gov/Condition/2bad872b-670b-4f35-af4e-8da2b959cc41",
    "resource": {
      "resourceType": "Condition",
      "id": "2bad872b-670b-4f35-af4e-8da2b959cc41",
      "meta": {
        "profile": [ "http://hl7.org/fhir/us/qicore/StructureDefinition/qicore-condition-problems-health-concerns" ]
      },
      "clinicalStatus": {
        "coding": [ {
          "system": "http://terminology.hl7.org/CodeSystem/condition-clinical",
          "code": "active",
          "display": "Active"
        } ]
      },
      "verificationStatus": {
        "coding": [ {
          "system": "http://terminology.hl7.org/CodeSystem/condition-ver-status",
          "code": "confirmed",
          "display": "Confirmed"
        } ]
      },
      "category": [ {
        "coding": [ {
          "system": "http://terminology.hl7.org/CodeSystem/condition-category",
          "code": "problem-list-item",
          "display": "Problem List Item"
        } ]
      } ],
      "code": {
        "coding": [ {
          "system": "http://snomed.info/sct",
          "version": "http://snomed.info/sct/731000124108/version/20240301",
          "code": "991000124109",
          "display": "Severe left ventricular systolic dysfunction (disorder)"
        } ]
      },
      "subject": {
        "reference": "Patient/298d5342-fa0a-4386-bf48-b9c977a1c367"
      },
      "onsetDateTime": "2026-05-14T11:50:00.000+00:00"
    },
    "request": {
      "method": "PUT",
      "url": "Condition/2bad872b-670b-4f35-af4e-8da2b959cc41"
    }
  }, {
    "fullUrl": "https://madie.cms.gov/MeasureReport/ee6aac41-9d36-4405-b4c1-114aa6ac7dcf",
    "resource": {
      "resourceType": "MeasureReport",
      "id": "ee6aac41-9d36-4405-b4c1-114aa6ac7dcf",
      "meta": {
        "profile": [ "http://hl7.org/fhir/us/cqfmeasures/StructureDefinition/test-case-cqfm" ]
      },
      "contained": [ {
        "resourceType": "Parameters",
        "id": "b832309d-72dc-4a50-83ad-cfed7dba1439-parameters",
        "parameter": [ {
          "name": "subject",
          "valueString": "298d5342-fa0a-4386-bf48-b9c977a1c367"
        } ]
      } ],
      "extension": [ {
        "url": "http://hl7.org/fhir/StructureDefinition/cqf-inputParameters",
        "valueReference": {
          "reference": "#b832309d-72dc-4a50-83ad-cfed7dba1439-parameters"
        }
      }, {
        "url": "http://hl7.org/fhir/us/cqfmeasures/StructureDefinition/cqfm-testCaseDescription",
        "valueMarkdown": "Patient has two qualifying encounters, HF diagnosis and LVSD history, is not prescribed/taking ACE/ARB medication and has documentation of reason for not being prescribed."
      } ],
      "modifierExtension": [ {
        "url": "http://hl7.org/fhir/us/cqfmeasures/StructureDefinition/cqfm-isTestCase",
        "valueBoolean": true
      } ],
      "status": "complete",
      "type": "individual",
      "measure": "https://madie.cms.gov/Measure/CMS135FHIRHFACEIorARBorARNIforLVSD",
      "period": {
        "start": "2026-01-01",
        "end": "2026-12-31"
      },
      "group": [ {
        "id": "Group_1",
        "population": [ {
          "id": "InitialPopulation_1",
          "code": {
            "coding": [ {
              "system": "http://terminology.hl7.org/CodeSystem/measure-population",
              "code": "initial-population",
              "display": "Initial Population"
            } ]
          },
          "count": 1
        }, {
          "id": "Denominator_1",
          "code": {
            "coding": [ {
              "system": "http://terminology.hl7.org/CodeSystem/measure-population",
              "code": "denominator",
              "display": "Denominator"
            } ]
          },
          "count": 1
        }, {
          "id": "DenominatorExclusion_1",
          "code": {
            "coding": [ {
              "system": "http://terminology.hl7.org/CodeSystem/measure-population",
              "code": "denominator-exclusion",
              "display": "Denominator Exclusion"
            } ]
          },
          "count": 0
        }, {
          "id": "Numerator_1",
          "code": {
            "coding": [ {
              "system": "http://terminology.hl7.org/CodeSystem/measure-population",
              "code": "numerator",
              "display": "Numerator"
            } ]
          },
          "count": 0
        }, {
          "id": "DenominatorException_1",
          "code": {
            "coding": [ {
              "system": "http://terminology.hl7.org/CodeSystem/measure-population",
              "code": "denominator-exception",
              "display": "Denominator Exception"
            } ]
          },
          "count": 1
        } ],
        "measureScore": {
          "value": 1.0
        }
      } ],
      "evaluatedResource": [ {
        "reference": "Patient/298d5342-fa0a-4386-bf48-b9c977a1c367"
      }, {
        "reference": "MedicationRequest/af48fa75-2ba3-486e-ae1a-d5c71d37562c"
      }, {
        "reference": "Encounter/6916199d-3c31-4ef2-b375-ce1265530c7e"
      }, {
        "reference": "Encounter/80e635fc-974c-4f09-8465-e9695b819a49"
      }, {
        "reference": "Condition/b5755cca-cab0-4bd4-aae8-05f7178d1ccd"
      }, {
        "reference": "Condition/2bad872b-670b-4f35-af4e-8da2b959cc41"
      } ]
    },
    "request": {
      "method": "PUT",
      "url": "MeasureReport/ee6aac41-9d36-4405-b4c1-114aa6ac7dcf"
    }
  } ]
}