{
  "resourceType": "Bundle",
  "id": "60f82c2f98086b570510e2b3",
  "type": "transaction",
  "entry": [ {
    "fullUrl": "https://madie.cms.gov/Patient/c7382fb6-053b-4424-b5c2-87d79179b016",
    "resource": {
      "resourceType": "Patient",
      "id": "c7382fb6-053b-4424-b5c2-87d79179b016",
      "meta": {
        "profile": [ "http://hl7.org/fhir/us/qicore/StructureDefinition/qicore-patient" ]
      },
      "text": {
        "status": "generated",
        "div": "<div xmlns=\"http://www.w3.org/1999/xhtml\"><div class=\"hapiHeaderText\">INRdurED_ED&gt;1hrNoObsBFEncDayAft <b>DENEXCEPFAIL </b></div><table class=\"hapiPropertyTable\"><tbody><tr><td>Identifier</td><td>360ae8bb256768cb27e4cfc58e369eef4975e226a9db02431c836a153757934a</td></tr><tr><td>Date of birth</td><td><span>26 September 1975</span></td></tr></tbody></table></div>"
      },
      "extension": [ {
        "url": "http://hl7.org/fhir/us/core/StructureDefinition/us-core-race",
        "extension": [ {
          "url": "ombCategory",
          "valueCoding": {
            "system": "urn:oid:2.16.840.1.113883.6.238",
            "code": "2054-5",
            "display": "Black or African American",
            "userSelected": true
          }
        }, {
          "url": "text",
          "valueString": "Black or African American"
        } ]
      }, {
        "url": "http://hl7.org/fhir/us/core/StructureDefinition/us-core-ethnicity",
        "extension": [ {
          "url": "ombCategory",
          "valueCoding": {
            "system": "urn:oid:2.16.840.1.113883.6.238",
            "code": "2186-5",
            "display": "Not Hispanic or Latino",
            "userSelected": true
          }
        }, {
          "url": "text",
          "valueString": "Not Hispanic or Latino"
        } ]
      } ],
      "identifier": [ {
        "type": {
          "coding": [ {
            "system": "http://terminology.hl7.org/CodeSystem/v2-0203",
            "code": "MR"
          } ]
        },
        "system": "https://bonnie-fhir.healthit.gov/",
        "value": "60f82c2f98086b570510e2b3"
      } ],
      "active": true,
      "name": [ {
        "use": "usual",
        "family": "DENEXCEPFail",
        "given": [ "INRdurED_ED>1hrNoObsBFEncDayAft" ]
      } ],
      "gender": "female",
      "birthDate": "1976-09-26"
    },
    "request": {
      "method": "PUT",
      "url": "Patient/c7382fb6-053b-4424-b5c2-87d79179b016"
    }
  }, {
    "fullUrl": "https://madie.cms.gov/Encounter/d01d560c-e01a-417a-ae36-80dbaaf8d07e",
    "resource": {
      "resourceType": "Encounter",
      "id": "d01d560c-e01a-417a-ae36-80dbaaf8d07e",
      "meta": {
        "profile": [ "http://hl7.org/fhir/us/qicore/StructureDefinition/qicore-encounter" ]
      },
      "status": "finished",
      "class": {
        "system": "http://terminology.hl7.org/CodeSystem/v3-ActCode",
        "code": "EMER",
        "display": "emergency"
      },
      "type": [ {
        "coding": [ {
          "system": "http://snomed.info/sct",
          "code": "4525004"
        } ]
      } ],
      "subject": {
        "reference": "Patient/c7382fb6-053b-4424-b5c2-87d79179b016"
      },
      "period": {
        "start": "2026-10-10T06:15:00Z",
        "end": "2026-10-10T22:59:00.000+00:00"
      },
      "length": {
        "value": 0,
        "unit": "days"
      }
    },
    "request": {
      "method": "PUT",
      "url": "Encounter/d01d560c-e01a-417a-ae36-80dbaaf8d07e"
    }
  }, {
    "fullUrl": "https://madie.cms.gov/Encounter/d5644921-70d2-423c-8d16-7442a1dcf419",
    "resource": {
      "resourceType": "Encounter",
      "id": "d5644921-70d2-423c-8d16-7442a1dcf419",
      "meta": {
        "profile": [ "http://hl7.org/fhir/us/qicore/StructureDefinition/qicore-encounter" ]
      },
      "status": "finished",
      "class": {
        "system": "http://terminology.hl7.org/CodeSystem/v3-ActCode",
        "code": "IMP",
        "display": "inpatient encounter",
        "userSelected": true
      },
      "type": [ {
        "coding": [ {
          "system": "http://snomed.info/sct",
          "code": "32485007"
        } ]
      } ],
      "subject": {
        "reference": "Patient/c7382fb6-053b-4424-b5c2-87d79179b016"
      },
      "period": {
        "start": "2026-10-11T00:00:00Z",
        "end": "2026-10-15T11:30:00.000+00:00"
      },
      "length": {
        "value": 4,
        "unit": "days"
      },
      "reasonReference": [ {
        "reference": "Condition/95183b69-b759-4cd7-88d6-7d1ec48a9c95"
      } ]
    },
    "request": {
      "method": "PUT",
      "url": "Encounter/d5644921-70d2-423c-8d16-7442a1dcf419"
    }
  }, {
    "fullUrl": "https://madie.cms.gov/claim/5ca62962b8484628b8de1ec5",
    "resource": {
      "resourceType": "Claim",
      "id": "5ca62962b8484628b8de1ec5",
      "meta": {
        "profile": [ "http://hl7.org/fhir/us/qicore/StructureDefinition/qicore-claim" ]
      },
      "status": "active",
      "type": {
        "coding": [ {
          "system": "http://terminology.hl7.org/CodeSystem/claim-type",
          "code": "institutional"
        } ]
      },
      "use": "claim",
      "patient": {
        "reference": "Patient/d170a0a8-b5ad-4303-b6df-e304dd5f92ad"
      },
      "created": "2026-12-01",
      "provider": {
        "reference": "Practitioner/practitioner-123456"
      },
      "priority": {
        "coding": [ {
          "system": "http://terminology.hl7.org/CodeSystem/processpriority",
          "code": "normal"
        } ]
      },
      "diagnosis": [ {
        "sequence": 1,
        "diagnosisCodeableConcept": {
          "coding": [ {
            "system": "http://hl7.org/fhir/sid/icd-10-cm",
            "code": "I63.00"
          } ]
        },
        "type": [ {
          "coding": [ {
            "system": "http://terminology.hl7.org/CodeSystem/ex-diagnosistype",
            "code": "principal"
          } ]
        } ]
      } ],
      "insurance": [ {
        "sequence": 1,
        "focal": true,
        "coverage": {
          "reference": "Coverage/5fa041661c76ba66d9959367"
        }
      } ],
      "item": [ {
        "sequence": 1,
        "diagnosisSequence": [ 1 ],
        "productOrService": {
          "coding": [ {
            "system": "http://terminology.hl7.org/CodeSystem/ex-USCLS",
            "code": "99555"
          } ]
        },
        "encounter": [ {
          "reference": "Encounter/d5644921-70d2-423c-8d16-7442a1dcf419"
        } ]
      } ]
    },
    "request": {
      "method": "PUT",
      "url": "Claim/5ca62962b8484628b8de1ec5"
    }
  }, {
    "fullUrl": "https://madie.cms.gov/Observation/81f6de62-c9a0-4e23-bfc1-c54638e307fc",
    "resource": {
      "resourceType": "Observation",
      "id": "81f6de62-c9a0-4e23-bfc1-c54638e307fc",
      "meta": {
        "profile": [ "http://hl7.org/fhir/us/qicore/StructureDefinition/qicore-observation-lab" ]
      },
      "status": "final",
      "category": [ {
        "coding": [ {
          "system": "http://terminology.hl7.org/CodeSystem/observation-category",
          "code": "laboratory",
          "display": "Laboratory"
        } ]
      } ],
      "code": {
        "coding": [ {
          "system": "http://loinc.org",
          "code": "34714-6"
        } ]
      },
      "subject": {
        "reference": "Patient/c7382fb6-053b-4424-b5c2-87d79179b016"
      },
      "effectiveDateTime": "2026-10-10T06:15:00Z",
      "issued": "2026-10-10T23:59:00.000+00:00",
      "valueQuantity": {
        "value": 3.6
      }
    },
    "request": {
      "method": "PUT",
      "url": "Observation/81f6de62-c9a0-4e23-bfc1-c54638e307fc"
    }
  }, {
    "fullUrl": "https://madie.cms.gov/Coverage/fb0271d6-b71e-4b27-88ac-391753285963",
    "resource": {
      "resourceType": "Coverage",
      "id": "fb0271d6-b71e-4b27-88ac-391753285963",
      "status": "active",
      "subscriberId": "523435",
      "beneficiary": {
        "reference": "Patient/c7382fb6-053b-4424-b5c2-87d79179b016"
      },
      "relationship": {
        "coding": [ {
          "system": "http://terminology.hl7.org/CodeSystem/subscriber-relationship",
          "code": "self"
        } ]
      },
      "period": {
        "start": "1976-09-26T08:00:00Z"
      },
      "payor": [ {
        "reference": "Organization/7f97a60f-0168-44cc-8a60-6a077bc24db3"
      } ]
    },
    "request": {
      "method": "PUT",
      "url": "Coverage/fb0271d6-b71e-4b27-88ac-391753285963"
    }
  }, {
    "fullUrl": "https://madie.cms.gov/Condition/95183b69-b759-4cd7-88d6-7d1ec48a9c95",
    "resource": {
      "resourceType": "Condition",
      "id": "95183b69-b759-4cd7-88d6-7d1ec48a9c95",
      "meta": {
        "profile": [ "http://hl7.org/fhir/us/qicore/StructureDefinition/qicore-condition-encounter-diagnosis" ]
      },
      "clinicalStatus": {
        "coding": [ {
          "system": "http://terminology.hl7.org/CodeSystem/condition-clinical",
          "code": "active"
        } ]
      },
      "verificationStatus": {
        "coding": [ {
          "system": "http://terminology.hl7.org/CodeSystem/condition-ver-status",
          "code": "confirmed"
        } ]
      },
      "category": [ {
        "coding": [ {
          "system": "http://terminology.hl7.org/CodeSystem/condition-category",
          "code": "encounter-diagnosis",
          "display": "Encounter Diagnosis"
        } ]
      } ],
      "code": {
        "coding": [ {
          "system": "http://snomed.info/sct",
          "version": "2020-09",
          "code": "111297002",
          "display": "Nonparalytic stroke (disorder)",
          "userSelected": true
        } ]
      },
      "subject": {
        "reference": "Patient/c7382fb6-053b-4424-b5c2-87d79179b016"
      },
      "recordedDate": "2026-07-28T08:00:00Z"
    },
    "request": {
      "method": "PUT",
      "url": "Condition/95183b69-b759-4cd7-88d6-7d1ec48a9c95"
    }
  }, {
    "fullUrl": "https://madie.cms.gov/Organization/7f97a60f-0168-44cc-8a60-6a077bc24db3",
    "resource": {
      "resourceType": "Organization",
      "id": "7f97a60f-0168-44cc-8a60-6a077bc24db3",
      "meta": {
        "profile": [ "http://hl7.org/fhir/us/qicore/StructureDefinition/qicore-organization" ]
      },
      "identifier": [ {
        "use": "temp",
        "system": "urn:oid:2.16.840.1.113883.4.4",
        "value": "21-3259825"
      } ],
      "active": true,
      "type": [ {
        "coding": [ {
          "system": "http://terminology.hl7.org/CodeSystem/organization-type",
          "code": "pay",
          "display": "Payer"
        } ]
      } ],
      "name": "Blue Cross Blue Shield of Texas",
      "telecom": [ {
        "system": "phone",
        "value": "(+1) 972-766-6900"
      } ],
      "address": [ {
        "use": "billing",
        "type": "postal",
        "line": [ "P.O. Box 660044" ],
        "city": "Dallas",
        "state": "TX",
        "postalCode": "75266-0044",
        "country": "USA"
      } ]
    },
    "request": {
      "method": "PUT",
      "url": "Organization/7f97a60f-0168-44cc-8a60-6a077bc24db3"
    }
  }, {
    "fullUrl": "https://madie.cms.gov/MeasureReport/d0eec10d-76f8-4a75-9677-c261579b5923",
    "resource": {
      "resourceType": "MeasureReport",
      "id": "d0eec10d-76f8-4a75-9677-c261579b5923",
      "meta": {
        "profile": [ "http://hl7.org/fhir/us/cqfmeasures/StructureDefinition/test-case-cqfm" ]
      },
      "contained": [ {
        "resourceType": "Parameters",
        "id": "311c1eb9-d04d-427f-8ebc-ef988bf7ede2-parameters",
        "parameter": [ {
          "name": "subject",
          "valueString": "c7382fb6-053b-4424-b5c2-87d79179b016"
        } ]
      } ],
      "extension": [ {
        "url": "http://hl7.org/fhir/StructureDefinition/cqf-inputParameters",
        "valueReference": {
          "reference": "#311c1eb9-d04d-427f-8ebc-ef988bf7ede2-parameters"
        }
      }, {
        "url": "http://hl7.org/fhir/us/cqfmeasures/StructureDefinition/cqfm-testCaseDescription",
        "valueMarkdown": "Patient receives INR of 3.6 the day of ED end. ED ends 61 minute before IP the next day at midnight. No Obs. Testing Day of operator with HospitalizationWithObservation function.\n"
      } ],
      "modifierExtension": [ {
        "url": "http://hl7.org/fhir/us/cqfmeasures/StructureDefinition/cqfm-isTestCase",
        "valueBoolean": true
      } ],
      "status": "complete",
      "type": "individual",
      "measure": "https://madie.cms.gov/Measure/CMS72FHIRSTKAntithromboticDay2",
      "period": {
        "start": "2026-01-01",
        "end": "2026-12-31"
      },
      "group": [ {
        "id": "Group_1",
        "population": [ {
          "id": "InitialPopulation_1",
          "code": {
            "coding": [ {
              "system": "http://terminology.hl7.org/CodeSystem/measure-population",
              "code": "initial-population",
              "display": "Initial Population"
            } ]
          },
          "count": 1
        }, {
          "id": "Denominator_1",
          "code": {
            "coding": [ {
              "system": "http://terminology.hl7.org/CodeSystem/measure-population",
              "code": "denominator",
              "display": "Denominator"
            } ]
          },
          "count": 1
        }, {
          "id": "DenominatorExclusion_1",
          "code": {
            "coding": [ {
              "system": "http://terminology.hl7.org/CodeSystem/measure-population",
              "code": "denominator-exclusion",
              "display": "Denominator Exclusion"
            } ]
          },
          "count": 0
        }, {
          "id": "Numerator_1",
          "code": {
            "coding": [ {
              "system": "http://terminology.hl7.org/CodeSystem/measure-population",
              "code": "numerator",
              "display": "Numerator"
            } ]
          },
          "count": 0
        }, {
          "id": "DenominatorException_1",
          "code": {
            "coding": [ {
              "system": "http://terminology.hl7.org/CodeSystem/measure-population",
              "code": "denominator-exception",
              "display": "Denominator Exception"
            } ]
          },
          "count": 0
        } ],
        "measureScore": {
          "value": 0.0
        }
      } ],
      "evaluatedResource": [ {
        "reference": "Patient/c7382fb6-053b-4424-b5c2-87d79179b016"
      }, {
        "reference": "Encounter/d01d560c-e01a-417a-ae36-80dbaaf8d07e"
      }, {
        "reference": "Encounter/d5644921-70d2-423c-8d16-7442a1dcf419"
      }, {
        "reference": "Claim/5ca62962b8484628b8de1ec5"
      }, {
        "reference": "Observation/81f6de62-c9a0-4e23-bfc1-c54638e307fc"
      }, {
        "reference": "Coverage/fb0271d6-b71e-4b27-88ac-391753285963"
      }, {
        "reference": "Condition/95183b69-b759-4cd7-88d6-7d1ec48a9c95"
      }, {
        "reference": "Organization/7f97a60f-0168-44cc-8a60-6a077bc24db3"
      } ]
    },
    "request": {
      "method": "PUT",
      "url": "MeasureReport/d0eec10d-76f8-4a75-9677-c261579b5923"
    }
  } ]
}