{
  "resourceType": "Bundle",
  "id": "6353045e224f3b053967124c",
  "type": "transaction",
  "entry": [ {
    "fullUrl": "https://madie.cms.gov/Patient/2a0cc990-ccf5-466f-b8e2-df24a6f2cb98",
    "resource": {
      "resourceType": "Patient",
      "id": "2a0cc990-ccf5-466f-b8e2-df24a6f2cb98",
      "meta": {
        "profile": [ "http://hl7.org/fhir/us/qicore/StructureDefinition/qicore-patient" ]
      },
      "extension": [ {
        "url": "http://hl7.org/fhir/us/core/StructureDefinition/us-core-race",
        "extension": [ {
          "url": "ombCategory",
          "valueCoding": {
            "system": "urn:oid:2.16.840.1.113883.6.238",
            "code": "1002-5",
            "display": "American Indian or Alaska Native",
            "userSelected": true
          }
        }, {
          "url": "text",
          "valueString": "American Indian or Alaska Native"
        } ]
      }, {
        "url": "http://hl7.org/fhir/us/core/StructureDefinition/us-core-ethnicity",
        "extension": [ {
          "url": "ombCategory",
          "valueCoding": {
            "system": "urn:oid:2.16.840.1.113883.6.238",
            "code": "2135-2",
            "display": "Hispanic or Latino",
            "userSelected": true
          }
        }, {
          "url": "text",
          "valueString": "Hispanic or Latino"
        } ]
      } ],
      "identifier": [ {
        "type": {
          "coding": [ {
            "system": "http://terminology.hl7.org/CodeSystem/v2-0203",
            "code": "MR"
          } ]
        },
        "system": "https://bonnie-fhir.healthit.gov/",
        "value": "6353045e224f3b053967124c"
      } ],
      "name": [ {
        "family": "DENOMFail",
        "given": [ "LastAssPrfEDDRelvTm1MinAftLastTmDELRsltDtTime" ]
      } ],
      "gender": "female",
      "birthDate": "2005-02-01"
    },
    "request": {
      "method": "PUT",
      "url": "Patient/2a0cc990-ccf5-466f-b8e2-df24a6f2cb98"
    }
  }, {
    "fullUrl": "https://madie.cms.gov/Encounter/5dab6a43-0ac7-4edc-a497-68bc48a0b846",
    "resource": {
      "resourceType": "Encounter",
      "id": "5dab6a43-0ac7-4edc-a497-68bc48a0b846",
      "meta": {
        "profile": [ "http://hl7.org/fhir/us/qicore/StructureDefinition/qicore-encounter" ]
      },
      "status": "finished",
      "class": {
        "system": "http://terminology.hl7.org/CodeSystem/v3-ActCode",
        "code": "IMP",
        "display": "inpatient encounter"
      },
      "type": [ {
        "coding": [ {
          "system": "http://snomed.info/sct",
          "version": "2022-09",
          "code": "183452005",
          "display": "Emergency hospital admission (procedure)",
          "userSelected": true
        } ]
      } ],
      "subject": {
        "reference": "Patient/2a0cc990-ccf5-466f-b8e2-df24a6f2cb98"
      },
      "period": {
        "start": "2026-02-01T08:00:00Z",
        "end": "2026-02-05T08:15:00.000+00:00"
      }
    },
    "request": {
      "method": "PUT",
      "url": "Encounter/5dab6a43-0ac7-4edc-a497-68bc48a0b846"
    }
  }, {
    "fullUrl": "https://madie.cms.gov/Procedure/ee35ebd4-34e2-4cef-bc73-1dfe44480f06",
    "resource": {
      "resourceType": "Procedure",
      "id": "ee35ebd4-34e2-4cef-bc73-1dfe44480f06",
      "meta": {
        "profile": [ "http://hl7.org/fhir/us/qicore/StructureDefinition/qicore-procedure" ]
      },
      "extension": [ {
        "url": "http://hl7.org/fhir/us/qicore/StructureDefinition/qicore-recorded",
        "valueDateTime": "2014-04-05T13:35:00Z"
      } ],
      "status": "completed",
      "code": {
        "coding": [ {
          "system": "http://snomed.info/sct",
          "version": "2022-09",
          "code": "10745001",
          "display": "Delivery of transverse presentation (procedure)",
          "userSelected": true
        } ]
      },
      "subject": {
        "reference": "Patient/2a0cc990-ccf5-466f-b8e2-df24a6f2cb98"
      },
      "performedPeriod": {
        "start": "2026-02-01T08:00:00Z",
        "end": "2026-02-05T08:15:00.000+00:00"
      }
    },
    "request": {
      "method": "PUT",
      "url": "Procedure/ee35ebd4-34e2-4cef-bc73-1dfe44480f06"
    }
  }, {
    "fullUrl": "https://madie.cms.gov/Observation/d1344f10-8040-49d4-bcc4-2fc606eae40d",
    "resource": {
      "resourceType": "Observation",
      "id": "d1344f10-8040-49d4-bcc4-2fc606eae40d",
      "meta": {
        "profile": [ "http://hl7.org/fhir/us/qicore/StructureDefinition/qicore-simple-observation" ]
      },
      "status": "final",
      "category": [ {
        "coding": [ {
          "system": "http://terminology.hl7.org/CodeSystem/observation-category",
          "code": "exam",
          "display": "exam",
          "userSelected": true
        } ]
      } ],
      "code": {
        "coding": [ {
          "system": "http://loinc.org",
          "code": "93857-1",
          "display": "Date and time of obstetric delivery",
          "userSelected": true
        } ]
      },
      "subject": {
        "reference": "Patient/2a0cc990-ccf5-466f-b8e2-df24a6f2cb98"
      },
      "effectiveDateTime": "2026-02-01T08:00:00Z",
      "performer": [ {
        "reference": "Organization/example1",
        "display": "Hendricks Country Hospital"
      } ],
      "valueDateTime": "2026-02-01T08:00:00.000+00:00"
    },
    "request": {
      "method": "PUT",
      "url": "Observation/d1344f10-8040-49d4-bcc4-2fc606eae40d"
    }
  }, {
    "fullUrl": "https://madie.cms.gov/Observation/9c02d4c7-44d6-4d7b-894f-d032cdffcb98",
    "resource": {
      "resourceType": "Observation",
      "id": "9c02d4c7-44d6-4d7b-894f-d032cdffcb98",
      "meta": {
        "profile": [ "http://hl7.org/fhir/us/qicore/StructureDefinition/qicore-simple-observation" ]
      },
      "status": "final",
      "category": [ {
        "coding": [ {
          "system": "http://terminology.hl7.org/CodeSystem/observation-category",
          "code": "exam",
          "display": "exam",
          "userSelected": true
        } ]
      } ],
      "code": {
        "coding": [ {
          "system": "http://loinc.org",
          "code": "11778-8",
          "display": "Delivery date Estimated",
          "userSelected": true
        } ]
      },
      "subject": {
        "reference": "Patient/2a0cc990-ccf5-466f-b8e2-df24a6f2cb98"
      },
      "effectiveDateTime": "2026-02-01T08:01:00Z",
      "performer": [ {
        "reference": "Organization/example1",
        "display": "Hendricks Country Hospital"
      } ],
      "valueDateTime": "2026-02-01T08:01:00.000+00:00"
    },
    "request": {
      "method": "PUT",
      "url": "Observation/9c02d4c7-44d6-4d7b-894f-d032cdffcb98"
    }
  }, {
    "fullUrl": "https://madie.cms.gov/Coverage/d742b1cd-2f2b-41f0-85eb-b6adeb2aa69d",
    "resource": {
      "resourceType": "Coverage",
      "id": "d742b1cd-2f2b-41f0-85eb-b6adeb2aa69d",
      "meta": {
        "profile": [ "http://hl7.org/fhir/us/qicore/StructureDefinition/qicore-coverage" ]
      },
      "status": "active",
      "subscriberId": "523435",
      "beneficiary": {
        "reference": "Patient/2a0cc990-ccf5-466f-b8e2-df24a6f2cb98"
      },
      "relationship": {
        "coding": [ {
          "system": "http://terminology.hl7.org/CodeSystem/subscriber-relationship",
          "code": "self"
        } ]
      },
      "payor": [ {
        "reference": "Organization/e1a564b4-75be-44db-9567-312d7f782dc9"
      } ]
    },
    "request": {
      "method": "PUT",
      "url": "Coverage/d742b1cd-2f2b-41f0-85eb-b6adeb2aa69d"
    }
  }, {
    "fullUrl": "https://madie.cms.gov/Organization/e1a564b4-75be-44db-9567-312d7f782dc9",
    "resource": {
      "resourceType": "Organization",
      "id": "e1a564b4-75be-44db-9567-312d7f782dc9",
      "meta": {
        "profile": [ "http://hl7.org/fhir/us/qicore/StructureDefinition/qicore-organization" ]
      },
      "identifier": [ {
        "use": "temp",
        "system": "urn:oid:2.16.840.1.113883.4.4",
        "value": "21-3259825"
      } ],
      "active": true,
      "type": [ {
        "coding": [ {
          "system": "http://terminology.hl7.org/CodeSystem/organization-type",
          "code": "pay",
          "display": "Payer"
        } ]
      } ],
      "name": "Blue Cross Blue Shield of Texas",
      "telecom": [ {
        "system": "phone",
        "value": "(+1) 972-766-6900"
      } ],
      "address": [ {
        "use": "billing",
        "type": "postal",
        "line": [ "P.O. Box 660044" ],
        "city": "Dallas",
        "state": "TX",
        "postalCode": "75266-0044",
        "country": "USA"
      } ]
    },
    "request": {
      "method": "PUT",
      "url": "Organization/e1a564b4-75be-44db-9567-312d7f782dc9"
    }
  }, {
    "fullUrl": "https://madie.cms.gov/Practitioner/09cc74f7-139b-4bc9-8dbf-5b2eb92b101e",
    "resource": {
      "resourceType": "Practitioner",
      "id": "09cc74f7-139b-4bc9-8dbf-5b2eb92b101e",
      "meta": {
        "profile": [ "http://hl7.org/fhir/us/qicore/StructureDefinition/qicore-practitioner" ]
      },
      "identifier": [ {
        "system": "http://hl7.org/fhir/sid/us-npi",
        "value": "1234567890"
      } ],
      "name": [ {
        "family": "Evil",
        "prefix": [ "Dr" ]
      } ]
    },
    "request": {
      "method": "PUT",
      "url": "Practitioner/09cc74f7-139b-4bc9-8dbf-5b2eb92b101e"
    }
  }, {
    "fullUrl": "https://madie.cms.gov/MeasureReport/691c95e8-b0ef-4db5-87b0-b7d8de145bdc",
    "resource": {
      "resourceType": "MeasureReport",
      "id": "691c95e8-b0ef-4db5-87b0-b7d8de145bdc",
      "meta": {
        "profile": [ "http://hl7.org/fhir/us/cqfmeasures/StructureDefinition/test-case-cqfm" ]
      },
      "contained": [ {
        "resourceType": "Parameters",
        "id": "5340a71a-e91e-4df6-8ef2-9dadc5648b05-parameters",
        "parameter": [ {
          "name": "subject",
          "valueString": "2a0cc990-ccf5-466f-b8e2-df24a6f2cb98"
        } ]
      } ],
      "extension": [ {
        "url": "http://hl7.org/fhir/StructureDefinition/cqf-inputParameters",
        "valueReference": {
          "reference": "#5340a71a-e91e-4df6-8ef2-9dadc5648b05-parameters"
        }
      }, {
        "url": "http://hl7.org/fhir/us/cqfmeasures/StructureDefinition/cqfm-testCaseDescription",
        "valueMarkdown": "Last assessment Performed, Estimated Delivery Date, Relevant time equal to  Delivery Result Date/Time plus 1 minute"
      } ],
      "modifierExtension": [ {
        "url": "http://hl7.org/fhir/us/cqfmeasures/StructureDefinition/cqfm-isTestCase",
        "valueBoolean": true
      } ],
      "status": "complete",
      "type": "individual",
      "measure": "https://madie.cms.gov/Measure/CMS1028FHIRPCSevereOBComps",
      "period": {
        "start": "2026-01-01",
        "end": "2026-12-31"
      },
      "group": [ {
        "id": "Group_1",
        "population": [ {
          "id": "InitialPopulation_1",
          "code": {
            "coding": [ {
              "system": "http://terminology.hl7.org/CodeSystem/measure-population",
              "code": "initial-population",
              "display": "Initial Population"
            } ]
          },
          "count": 1
        }, {
          "id": "Denominator_1",
          "code": {
            "coding": [ {
              "system": "http://terminology.hl7.org/CodeSystem/measure-population",
              "code": "denominator",
              "display": "Denominator"
            } ]
          },
          "count": 0
        }, {
          "id": "Numerator_1",
          "code": {
            "coding": [ {
              "system": "http://terminology.hl7.org/CodeSystem/measure-population",
              "code": "numerator",
              "display": "Numerator"
            } ]
          },
          "count": 0
        }, {
          "id": "NumeratorExclusion_1",
          "code": {
            "coding": [ {
              "system": "http://terminology.hl7.org/CodeSystem/measure-population",
              "code": "numerator-exclusion",
              "display": "Numerator Exclusion"
            } ]
          },
          "count": 0
        } ],
        "measureScore": {
          "value": 0.0
        }
      }, {
        "id": "Group_2",
        "population": [ {
          "id": "InitialPopulation_2",
          "code": {
            "coding": [ {
              "system": "http://terminology.hl7.org/CodeSystem/measure-population",
              "code": "initial-population",
              "display": "Initial Population"
            } ]
          },
          "count": 1
        }, {
          "id": "Denominator_2",
          "code": {
            "coding": [ {
              "system": "http://terminology.hl7.org/CodeSystem/measure-population",
              "code": "denominator",
              "display": "Denominator"
            } ]
          },
          "count": 0
        }, {
          "id": "Numerator_2",
          "code": {
            "coding": [ {
              "system": "http://terminology.hl7.org/CodeSystem/measure-population",
              "code": "numerator",
              "display": "Numerator"
            } ]
          },
          "count": 0
        }, {
          "id": "NumeratorExclusion_2",
          "code": {
            "coding": [ {
              "system": "http://terminology.hl7.org/CodeSystem/measure-population",
              "code": "numerator-exclusion",
              "display": "Numerator Exclusion"
            } ]
          },
          "count": 0
        } ],
        "measureScore": {
          "value": 0.0
        }
      } ],
      "evaluatedResource": [ {
        "reference": "Patient/2a0cc990-ccf5-466f-b8e2-df24a6f2cb98"
      }, {
        "reference": "Encounter/5dab6a43-0ac7-4edc-a497-68bc48a0b846"
      }, {
        "reference": "Procedure/ee35ebd4-34e2-4cef-bc73-1dfe44480f06"
      }, {
        "reference": "Observation/d1344f10-8040-49d4-bcc4-2fc606eae40d"
      }, {
        "reference": "Observation/9c02d4c7-44d6-4d7b-894f-d032cdffcb98"
      }, {
        "reference": "Coverage/d742b1cd-2f2b-41f0-85eb-b6adeb2aa69d"
      }, {
        "reference": "Organization/e1a564b4-75be-44db-9567-312d7f782dc9"
      }, {
        "reference": "Practitioner/09cc74f7-139b-4bc9-8dbf-5b2eb92b101e"
      } ]
    },
    "request": {
      "method": "PUT",
      "url": "MeasureReport/691c95e8-b0ef-4db5-87b0-b7d8de145bdc"
    }
  } ]
}