{
  "resourceType": "Bundle",
  "id": "633b3fa00968f80122503d13",
  "type": "transaction",
  "entry": [ {
    "fullUrl": "https://madie.cms.gov/Patient/516e96fa-20cc-458c-8b63-435d78a8bd9a",
    "resource": {
      "resourceType": "Patient",
      "id": "516e96fa-20cc-458c-8b63-435d78a8bd9a",
      "meta": {
        "profile": [ "http://hl7.org/fhir/us/qicore/StructureDefinition/qicore-patient" ]
      },
      "text": {
        "status": "generated",
        "div": "<div xmlns=\"http://www.w3.org/1999/xhtml\"><div class=\"hapiHeaderText\">DelProcRelDtTmEQEDStart <b>IPPASS </b></div><table class=\"hapiPropertyTable\"><tbody><tr><td>Date of birth</td><td><span>31 January 2004</span></td></tr></tbody></table></div>"
      },
      "extension": [ {
        "url": "http://hl7.org/fhir/us/core/StructureDefinition/us-core-race",
        "extension": [ {
          "url": "ombCategory",
          "valueCoding": {
            "system": "urn:oid:2.16.840.1.113883.6.238",
            "code": "1002-5",
            "display": "American Indian or Alaska Native",
            "userSelected": true
          }
        }, {
          "url": "text",
          "valueString": "American Indian or Alaska Native"
        } ]
      }, {
        "url": "http://hl7.org/fhir/us/core/StructureDefinition/us-core-ethnicity",
        "extension": [ {
          "url": "ombCategory",
          "valueCoding": {
            "system": "urn:oid:2.16.840.1.113883.6.238",
            "code": "2135-2",
            "display": "Hispanic or Latino",
            "userSelected": true
          }
        }, {
          "url": "text",
          "valueString": "Hispanic or Latino"
        } ]
      } ],
      "identifier": [ {
        "type": {
          "coding": [ {
            "system": "http://terminology.hl7.org/CodeSystem/v2-0203",
            "code": "MR"
          } ]
        },
        "system": "https://bonnie-fhir.healthit.gov/",
        "value": "633b3fa00968f80122503d13"
      } ],
      "active": true,
      "name": [ {
        "use": "usual",
        "family": "IPPass",
        "given": [ "DelProcRelDtTmEQEDStart" ]
      } ],
      "gender": "female",
      "birthDate": "2005-01-31"
    },
    "request": {
      "method": "PUT",
      "url": "Patient/516e96fa-20cc-458c-8b63-435d78a8bd9a"
    }
  }, {
    "fullUrl": "https://madie.cms.gov/Encounter/445ff44e-5e9b-4676-924a-76f5e389ad52",
    "resource": {
      "resourceType": "Encounter",
      "id": "445ff44e-5e9b-4676-924a-76f5e389ad52",
      "meta": {
        "profile": [ "http://hl7.org/fhir/us/qicore/StructureDefinition/qicore-encounter" ]
      },
      "status": "finished",
      "class": {
        "system": "http://terminology.hl7.org/CodeSystem/v3-ActCode",
        "code": "IMP",
        "display": "inpatient encounter"
      },
      "type": [ {
        "coding": [ {
          "system": "http://snomed.info/sct",
          "code": "183452005"
        } ]
      } ],
      "subject": {
        "reference": "Patient/516e96fa-20cc-458c-8b63-435d78a8bd9a"
      },
      "period": {
        "start": "2026-02-01T09:00:00Z",
        "end": "2026-02-05T08:15:00.000+00:00"
      }
    },
    "request": {
      "method": "PUT",
      "url": "Encounter/445ff44e-5e9b-4676-924a-76f5e389ad52"
    }
  }, {
    "fullUrl": "https://madie.cms.gov/Encounter/8670531c-4d7b-4183-b2ec-721fc820e7a4",
    "resource": {
      "resourceType": "Encounter",
      "id": "8670531c-4d7b-4183-b2ec-721fc820e7a4",
      "meta": {
        "profile": [ "http://hl7.org/fhir/us/qicore/StructureDefinition/qicore-encounter" ]
      },
      "status": "finished",
      "class": {
        "system": "http://terminology.hl7.org/CodeSystem/v3-ActCode",
        "code": "IMP",
        "display": "inpatient encounter"
      },
      "type": [ {
        "coding": [ {
          "system": "http://snomed.info/sct",
          "code": "448951000124107"
        } ]
      } ],
      "subject": {
        "reference": "Patient/516e96fa-20cc-458c-8b63-435d78a8bd9a"
      },
      "period": {
        "start": "2026-02-01T08:00:00Z",
        "end": "2026-02-01T08:59:00.000+00:00"
      }
    },
    "request": {
      "method": "PUT",
      "url": "Encounter/8670531c-4d7b-4183-b2ec-721fc820e7a4"
    }
  }, {
    "fullUrl": "https://madie.cms.gov/Encounter/056c839f-7e2b-435f-9398-1faa81bb868a",
    "resource": {
      "resourceType": "Encounter",
      "id": "056c839f-7e2b-435f-9398-1faa81bb868a",
      "meta": {
        "profile": [ "http://hl7.org/fhir/us/qicore/StructureDefinition/qicore-encounter" ]
      },
      "status": "finished",
      "class": {
        "system": "http://terminology.hl7.org/CodeSystem/v3-ActCode",
        "code": "IMP",
        "display": "inpatient encounter"
      },
      "type": [ {
        "coding": [ {
          "system": "http://snomed.info/sct",
          "code": "4525004"
        } ]
      } ],
      "subject": {
        "reference": "Patient/516e96fa-20cc-458c-8b63-435d78a8bd9a"
      },
      "period": {
        "start": "2026-02-01T07:00:00Z",
        "end": "2026-02-01T07:59:00.000+00:00"
      }
    },
    "request": {
      "method": "PUT",
      "url": "Encounter/056c839f-7e2b-435f-9398-1faa81bb868a"
    }
  }, {
    "fullUrl": "https://madie.cms.gov/Procedure/5c8f07a6-f54f-4fe7-b6e2-aa4b10ac1f40",
    "resource": {
      "resourceType": "Procedure",
      "id": "5c8f07a6-f54f-4fe7-b6e2-aa4b10ac1f40",
      "meta": {
        "profile": [ "http://hl7.org/fhir/us/qicore/StructureDefinition/qicore-procedure" ]
      },
      "extension": [ {
        "url": "http://hl7.org/fhir/us/qicore/StructureDefinition/qicore-recorded",
        "valueDateTime": "2014-04-05T13:35:00Z"
      } ],
      "status": "completed",
      "code": {
        "coding": [ {
          "system": "http://snomed.info/sct",
          "code": "10745001"
        } ]
      },
      "subject": {
        "reference": "Patient/516e96fa-20cc-458c-8b63-435d78a8bd9a"
      },
      "performedDateTime": "2026-02-01T07:00:00Z"
    },
    "request": {
      "method": "PUT",
      "url": "Procedure/5c8f07a6-f54f-4fe7-b6e2-aa4b10ac1f40"
    }
  }, {
    "fullUrl": "https://madie.cms.gov/Coverage/eba03c06-d7a0-4a03-a661-00f7d4aa57a0",
    "resource": {
      "resourceType": "Coverage",
      "id": "eba03c06-d7a0-4a03-a661-00f7d4aa57a0",
      "meta": {
        "profile": [ "http://hl7.org/fhir/us/qicore/StructureDefinition/qicore-coverage" ]
      },
      "status": "active",
      "beneficiary": {
        "reference": "Patient/516e96fa-20cc-458c-8b63-435d78a8bd9a"
      },
      "payor": [ {
        "reference": "Organization/dc61f118-a031-4eee-b555-f476e647cfee"
      } ]
    },
    "request": {
      "method": "PUT",
      "url": "Coverage/eba03c06-d7a0-4a03-a661-00f7d4aa57a0"
    }
  }, {
    "fullUrl": "https://madie.cms.gov/Organization/dc61f118-a031-4eee-b555-f476e647cfee",
    "resource": {
      "resourceType": "Organization",
      "id": "dc61f118-a031-4eee-b555-f476e647cfee",
      "meta": {
        "profile": [ "http://hl7.org/fhir/us/qicore/StructureDefinition/qicore-organization" ]
      },
      "identifier": [ {
        "use": "temp",
        "system": "urn:oid:2.16.840.1.113883.4.4",
        "value": "21-3259825"
      } ],
      "active": true,
      "type": [ {
        "coding": [ {
          "system": "http://terminology.hl7.org/CodeSystem/organization-type",
          "code": "pay",
          "display": "Payer"
        } ]
      } ],
      "name": "Blue Cross Blue Shield of Texas",
      "telecom": [ {
        "system": "phone",
        "value": "(+1) 972-766-6900"
      } ],
      "address": [ {
        "use": "billing",
        "type": "postal",
        "line": [ "P.O. Box 660044" ],
        "city": "Dallas",
        "state": "TX",
        "postalCode": "75266-0044",
        "country": "USA"
      } ]
    },
    "request": {
      "method": "PUT",
      "url": "Organization/dc61f118-a031-4eee-b555-f476e647cfee"
    }
  }, {
    "fullUrl": "https://madie.cms.gov/Practitioner/aa13eec8-5b68-4496-919e-ca7c9dd07971",
    "resource": {
      "resourceType": "Practitioner",
      "id": "aa13eec8-5b68-4496-919e-ca7c9dd07971",
      "identifier": [ {
        "system": "http://hl7.org/fhir/sid/us-npi",
        "value": "123456"
      } ],
      "name": [ {
        "family": "Evil",
        "prefix": [ "Dr" ]
      } ]
    },
    "request": {
      "method": "PUT",
      "url": "Practitioner/aa13eec8-5b68-4496-919e-ca7c9dd07971"
    }
  }, {
    "fullUrl": "https://madie.cms.gov/MeasureReport/d5591f57-6565-4542-9287-d26e8cb8a90e",
    "resource": {
      "resourceType": "MeasureReport",
      "id": "d5591f57-6565-4542-9287-d26e8cb8a90e",
      "meta": {
        "profile": [ "http://hl7.org/fhir/us/cqfmeasures/StructureDefinition/test-case-cqfm" ]
      },
      "contained": [ {
        "resourceType": "Parameters",
        "id": "fa5a0250-6149-4e66-bb33-efcbb82670b9-parameters",
        "parameter": [ {
          "name": "subject",
          "valueString": "516e96fa-20cc-458c-8b63-435d78a8bd9a"
        } ]
      } ],
      "extension": [ {
        "url": "http://hl7.org/fhir/StructureDefinition/cqf-inputParameters",
        "valueReference": {
          "reference": "#fa5a0250-6149-4e66-bb33-efcbb82670b9-parameters"
        }
      }, {
        "url": "http://hl7.org/fhir/us/cqfmeasures/StructureDefinition/cqfm-testCaseDescription",
        "valueMarkdown": "Delivery Procedure rel date/time = ED start.  ED/OBS/IP all meet global hospitalization criteria.\n"
      } ],
      "modifierExtension": [ {
        "url": "http://hl7.org/fhir/us/cqfmeasures/StructureDefinition/cqfm-isTestCase",
        "valueBoolean": true
      } ],
      "status": "complete",
      "type": "individual",
      "measure": "https://madie.cms.gov/Measure/CMS1028FHIRPCSevereOBComps",
      "period": {
        "start": "2026-01-01",
        "end": "2026-12-31"
      },
      "group": [ {
        "id": "Group_1",
        "population": [ {
          "id": "InitialPopulation_1",
          "code": {
            "coding": [ {
              "system": "http://terminology.hl7.org/CodeSystem/measure-population",
              "code": "initial-population",
              "display": "Initial Population"
            } ]
          },
          "count": 1
        }, {
          "id": "Denominator_1",
          "code": {
            "coding": [ {
              "system": "http://terminology.hl7.org/CodeSystem/measure-population",
              "code": "denominator",
              "display": "Denominator"
            } ]
          },
          "count": 0
        }, {
          "id": "Numerator_1",
          "code": {
            "coding": [ {
              "system": "http://terminology.hl7.org/CodeSystem/measure-population",
              "code": "numerator",
              "display": "Numerator"
            } ]
          },
          "count": 0
        }, {
          "id": "NumeratorExclusion_1",
          "code": {
            "coding": [ {
              "system": "http://terminology.hl7.org/CodeSystem/measure-population",
              "code": "numerator-exclusion",
              "display": "Numerator Exclusion"
            } ]
          },
          "count": 0
        } ],
        "measureScore": {
          "value": 0.0
        }
      }, {
        "id": "Group_2",
        "population": [ {
          "id": "InitialPopulation_2",
          "code": {
            "coding": [ {
              "system": "http://terminology.hl7.org/CodeSystem/measure-population",
              "code": "initial-population",
              "display": "Initial Population"
            } ]
          },
          "count": 1
        }, {
          "id": "Denominator_2",
          "code": {
            "coding": [ {
              "system": "http://terminology.hl7.org/CodeSystem/measure-population",
              "code": "denominator",
              "display": "Denominator"
            } ]
          },
          "count": 0
        }, {
          "id": "Numerator_2",
          "code": {
            "coding": [ {
              "system": "http://terminology.hl7.org/CodeSystem/measure-population",
              "code": "numerator",
              "display": "Numerator"
            } ]
          },
          "count": 0
        }, {
          "id": "NumeratorExclusion_2",
          "code": {
            "coding": [ {
              "system": "http://terminology.hl7.org/CodeSystem/measure-population",
              "code": "numerator-exclusion",
              "display": "Numerator Exclusion"
            } ]
          },
          "count": 0
        } ],
        "measureScore": {
          "value": 0.0
        }
      } ],
      "evaluatedResource": [ {
        "reference": "Patient/516e96fa-20cc-458c-8b63-435d78a8bd9a"
      }, {
        "reference": "Encounter/445ff44e-5e9b-4676-924a-76f5e389ad52"
      }, {
        "reference": "Encounter/8670531c-4d7b-4183-b2ec-721fc820e7a4"
      }, {
        "reference": "Encounter/056c839f-7e2b-435f-9398-1faa81bb868a"
      }, {
        "reference": "Procedure/5c8f07a6-f54f-4fe7-b6e2-aa4b10ac1f40"
      }, {
        "reference": "Coverage/eba03c06-d7a0-4a03-a661-00f7d4aa57a0"
      }, {
        "reference": "Organization/dc61f118-a031-4eee-b555-f476e647cfee"
      }, {
        "reference": "Practitioner/aa13eec8-5b68-4496-919e-ca7c9dd07971"
      } ]
    },
    "request": {
      "method": "PUT",
      "url": "MeasureReport/d5591f57-6565-4542-9287-d26e8cb8a90e"
    }
  } ]
}