{
  "resourceType": "Bundle",
  "id": "63487c2f0968f8012254018f",
  "type": "transaction",
  "entry": [ {
    "fullUrl": "https://madie.cms.gov/Patient/5bbc4c9f-8624-412e-bc07-74898e5f41ec",
    "resource": {
      "resourceType": "Patient",
      "id": "5bbc4c9f-8624-412e-bc07-74898e5f41ec",
      "meta": {
        "profile": [ "http://hl7.org/fhir/us/qicore/StructureDefinition/qicore-patient" ]
      },
      "text": {
        "status": "generated",
        "div": "<div xmlns=\"http://www.w3.org/1999/xhtml\"><div class=\"hapiHeaderText\">AssessPreTerm0RelPerStartTime42wksB4DelivDT<b>DENOMPass</b></div><table class=\"hapiPropertyTable\"><tbody><tr><td>Identifier</td><td>ae2c858214ff9b1ffdc193923955b0f25c757408279ae2f0e7ea89ca980dbad8</td></tr><tr><td>Date of birth</td><td><span>14 February 1985</span></td></tr></tbody></table></div>"
      },
      "extension": [ {
        "url": "http://hl7.org/fhir/us/core/StructureDefinition/us-core-race",
        "extension": [ {
          "url": "ombCategory",
          "valueCoding": {
            "system": "urn:oid:2.16.840.1.113883.6.238",
            "code": "1002-5",
            "display": "American Indian or Alaska Native",
            "userSelected": true
          }
        }, {
          "url": "text",
          "valueString": "American Indian or Alaska Native"
        } ]
      }, {
        "url": "http://hl7.org/fhir/us/core/StructureDefinition/us-core-ethnicity",
        "extension": [ {
          "url": "ombCategory",
          "valueCoding": {
            "system": "urn:oid:2.16.840.1.113883.6.238",
            "code": "2135-2",
            "display": "Hispanic or Latino",
            "userSelected": true
          }
        }, {
          "url": "text",
          "valueString": "Hispanic or Latino"
        } ]
      } ],
      "identifier": [ {
        "type": {
          "coding": [ {
            "system": "http://terminology.hl7.org/CodeSystem/v2-0203",
            "code": "MR"
          } ]
        },
        "system": "https://bonnie-fhir.healthit.gov/",
        "value": "63487c2f0968f8012254018f"
      } ],
      "active": true,
      "name": [ {
        "use": "usual",
        "family": "DENOMPass",
        "given": [ "AssessPreTerm0RelPerStartTime42wksB4DelivDT" ]
      } ],
      "gender": "female",
      "birthDate": "1998-02-14"
    },
    "request": {
      "method": "PUT",
      "url": "Patient/5bbc4c9f-8624-412e-bc07-74898e5f41ec"
    }
  }, {
    "fullUrl": "https://madie.cms.gov/Observation/8a08c9fe-54ea-4e76-9afc-c01afeca1aed",
    "resource": {
      "resourceType": "Observation",
      "id": "8a08c9fe-54ea-4e76-9afc-c01afeca1aed",
      "meta": {
        "profile": [ "http://hl7.org/fhir/us/qicore/StructureDefinition/qicore-simple-observation" ]
      },
      "status": "final",
      "category": [ {
        "coding": [ {
          "system": "http://terminology.hl7.org/CodeSystem/observation-category",
          "code": "exam",
          "display": "exam",
          "userSelected": true
        } ]
      } ],
      "code": {
        "coding": [ {
          "system": "http://loinc.org",
          "code": "11637-6"
        } ]
      },
      "subject": {
        "reference": "Patient/5bbc4c9f-8624-412e-bc07-74898e5f41ec"
      },
      "effectivePeriod": {
        "start": "2025-08-19T20:00:00.000+00:00",
        "end": "2025-08-19T20:00:00.000+00:00"
      },
      "performer": [ {
        "reference": "Organization/example1",
        "display": "Hendricks Country Hospital"
      } ],
      "valueInteger": 0
    },
    "request": {
      "method": "PUT",
      "url": "Observation/8a08c9fe-54ea-4e76-9afc-c01afeca1aed"
    }
  }, {
    "fullUrl": "https://madie.cms.gov/Observation/7290765f-cb4d-4634-9abd-cb2b7ced91ff",
    "resource": {
      "resourceType": "Observation",
      "id": "7290765f-cb4d-4634-9abd-cb2b7ced91ff",
      "meta": {
        "profile": [ "http://hl7.org/fhir/us/qicore/StructureDefinition/qicore-simple-observation" ]
      },
      "status": "final",
      "category": [ {
        "coding": [ {
          "system": "http://terminology.hl7.org/CodeSystem/observation-category",
          "code": "exam",
          "display": "exam",
          "userSelected": true
        } ]
      } ],
      "code": {
        "coding": [ {
          "system": "http://loinc.org",
          "code": "11639-2"
        } ]
      },
      "subject": {
        "reference": "Patient/5bbc4c9f-8624-412e-bc07-74898e5f41ec"
      },
      "effectiveDateTime": "2025-09-19T09:00:00.000+00:00",
      "performer": [ {
        "reference": "Organization/example1",
        "display": "Hendricks Country Hospital"
      } ],
      "valueInteger": 0
    },
    "request": {
      "method": "PUT",
      "url": "Observation/7290765f-cb4d-4634-9abd-cb2b7ced91ff"
    }
  }, {
    "fullUrl": "https://madie.cms.gov/Observation/9257b41f-d218-4301-9050-68ff5a1ee966",
    "resource": {
      "resourceType": "Observation",
      "id": "9257b41f-d218-4301-9050-68ff5a1ee966",
      "meta": {
        "profile": [ "http://hl7.org/fhir/us/qicore/StructureDefinition/qicore-simple-observation" ]
      },
      "status": "final",
      "category": [ {
        "coding": [ {
          "system": "http://terminology.hl7.org/CodeSystem/observation-category",
          "code": "exam",
          "display": "exam",
          "userSelected": true
        } ]
      } ],
      "code": {
        "coding": [ {
          "system": "http://loinc.org",
          "code": "11884-4"
        } ]
      },
      "subject": {
        "reference": "Patient/5bbc4c9f-8624-412e-bc07-74898e5f41ec"
      },
      "effectiveDateTime": "2026-06-08T20:00:00.000+00:00",
      "performer": [ {
        "reference": "Organization/example1",
        "display": "Hendricks Country Hospital"
      } ],
      "valueQuantity": {
        "value": 37,
        "system": "http://unitsofmeasure.org",
        "code": "wk"
      }
    },
    "request": {
      "method": "PUT",
      "url": "Observation/9257b41f-d218-4301-9050-68ff5a1ee966"
    }
  }, {
    "fullUrl": "https://madie.cms.gov/Observation/3f327e4c-d2d0-4750-bd2b-b9aa1298e8b9",
    "resource": {
      "resourceType": "Observation",
      "id": "3f327e4c-d2d0-4750-bd2b-b9aa1298e8b9",
      "meta": {
        "profile": [ "http://hl7.org/fhir/us/qicore/StructureDefinition/qicore-simple-observation" ]
      },
      "status": "final",
      "category": [ {
        "coding": [ {
          "system": "http://terminology.hl7.org/CodeSystem/observation-category",
          "code": "exam",
          "display": "exam",
          "userSelected": true
        } ]
      } ],
      "code": {
        "coding": [ {
          "system": "http://loinc.org",
          "code": "93857-1"
        } ]
      },
      "subject": {
        "reference": "Patient/5bbc4c9f-8624-412e-bc07-74898e5f41ec"
      },
      "effectiveDateTime": "2026-06-08T20:00:00.000+00:00",
      "performer": [ {
        "reference": "Organization/example1",
        "display": "Hendricks Country Hospital"
      } ],
      "valueDateTime": "2026-06-08T20:00:00.000+00:00"
    },
    "request": {
      "method": "PUT",
      "url": "Observation/3f327e4c-d2d0-4750-bd2b-b9aa1298e8b9"
    }
  }, {
    "fullUrl": "https://madie.cms.gov/Encounter/01c576ef-a40e-42d9-9f98-1c25e6493cea",
    "resource": {
      "resourceType": "Encounter",
      "id": "01c576ef-a40e-42d9-9f98-1c25e6493cea",
      "meta": {
        "profile": [ "http://hl7.org/fhir/us/qicore/StructureDefinition/qicore-encounter" ]
      },
      "status": "finished",
      "class": {
        "system": "http://terminology.hl7.org/CodeSystem/v3-ActCode",
        "code": "IMP",
        "display": "inpatient encounter"
      },
      "type": [ {
        "coding": [ {
          "system": "http://snomed.info/sct",
          "code": "8715000"
        } ]
      } ],
      "subject": {
        "reference": "Patient/5bbc4c9f-8624-412e-bc07-74898e5f41ec"
      },
      "period": {
        "start": "2026-06-08T08:00:00.000+00:00",
        "end": "2026-06-10T08:15:00.000+00:00"
      },
      "length": {
        "value": 2,
        "unit": "days"
      },
      "reasonCode": [ {
        "coding": [ {
          "system": "http://snomed.info/sct",
          "code": "169826009",
          "display": "Single live birth from singleton pregnancy (finding)"
        } ]
      } ]
    },
    "request": {
      "method": "PUT",
      "url": "Encounter/01c576ef-a40e-42d9-9f98-1c25e6493cea"
    }
  }, {
    "fullUrl": "https://madie.cms.gov/Procedure/9971a401-2c8e-41f4-91a7-46440df4c7ea",
    "resource": {
      "resourceType": "Procedure",
      "id": "9971a401-2c8e-41f4-91a7-46440df4c7ea",
      "meta": {
        "profile": [ "http://hl7.org/fhir/us/qicore/StructureDefinition/qicore-procedure" ]
      },
      "extension": [ {
        "url": "http://hl7.org/fhir/us/qicore/StructureDefinition/qicore-recorded",
        "valueDateTime": "2014-04-05T13:35:00.000+00:00"
      } ],
      "status": "completed",
      "code": {
        "coding": [ {
          "system": "http://www.cms.gov/Medicare/Coding/ICD10",
          "code": "10D00Z0"
        }, {
          "system": "http://snomed.info/sct",
          "code": "4504004"
        } ]
      },
      "subject": {
        "reference": "Patient/5bbc4c9f-8624-412e-bc07-74898e5f41ec"
      },
      "performedPeriod": {
        "start": "2026-06-08T20:00:00.000+00:00",
        "end": "2026-06-08T20:15:00.000+00:00"
      }
    },
    "request": {
      "method": "PUT",
      "url": "Procedure/9971a401-2c8e-41f4-91a7-46440df4c7ea"
    }
  }, {
    "fullUrl": "https://madie.cms.gov/Condition/f1a48edf-ef8c-49c2-b413-999792a35358",
    "resource": {
      "resourceType": "Condition",
      "id": "f1a48edf-ef8c-49c2-b413-999792a35358",
      "meta": {
        "profile": [ "http://hl7.org/fhir/us/qicore/StructureDefinition/qicore-condition-encounter-diagnosis" ]
      },
      "category": [ {
        "coding": [ {
          "system": "http://terminology.hl7.org/CodeSystem/condition-category",
          "code": "encounter-diagnosis",
          "display": "Encounter Diagnosis"
        } ]
      } ],
      "code": {
        "coding": [ {
          "system": "http://snomed.info/sct",
          "version": "2022-09",
          "code": "169826009",
          "display": "Single live birth (finding)",
          "userSelected": true
        } ]
      },
      "subject": {
        "reference": "Patient/5bbc4c9f-8624-412e-bc07-74898e5f41ec"
      },
      "encounter": {
        "reference": "Encounter/01c576ef-a40e-42d9-9f98-1c25e6493cea"
      },
      "recordedDate": "2026-10-20T08:00:00.000+00:00"
    },
    "request": {
      "method": "PUT",
      "url": "Condition/f1a48edf-ef8c-49c2-b413-999792a35358"
    }
  }, {
    "fullUrl": "https://madie.cms.gov/Coverage/37d45b4e-ec58-46ec-8135-038d8e9d6b45",
    "resource": {
      "resourceType": "Coverage",
      "id": "37d45b4e-ec58-46ec-8135-038d8e9d6b45",
      "meta": {
        "profile": [ "http://hl7.org/fhir/us/qicore/StructureDefinition/qicore-coverage" ]
      },
      "status": "active",
      "subscriberId": "523435",
      "beneficiary": {
        "reference": "Patient/5bbc4c9f-8624-412e-bc07-74898e5f41ec"
      },
      "relationship": {
        "coding": [ {
          "system": "http://terminology.hl7.org/CodeSystem/subscriber-relationship",
          "code": "self"
        } ]
      },
      "payor": [ {
        "reference": "Organization/5be8a010-9146-4983-bf70-6336a639632a"
      } ]
    },
    "request": {
      "method": "PUT",
      "url": "Coverage/37d45b4e-ec58-46ec-8135-038d8e9d6b45"
    }
  }, {
    "fullUrl": "https://madie.cms.gov/Organization/5be8a010-9146-4983-bf70-6336a639632a",
    "resource": {
      "resourceType": "Organization",
      "id": "5be8a010-9146-4983-bf70-6336a639632a",
      "meta": {
        "profile": [ "http://hl7.org/fhir/us/qicore/StructureDefinition/qicore-organization" ]
      },
      "identifier": [ {
        "use": "temp",
        "system": "urn:oid:2.16.840.1.113883.4.4",
        "value": "21-3259825"
      } ],
      "active": true,
      "type": [ {
        "coding": [ {
          "system": "http://terminology.hl7.org/CodeSystem/organization-type",
          "code": "pay",
          "display": "Payer"
        } ]
      } ],
      "name": "Blue Cross Blue Shield of Texas",
      "telecom": [ {
        "system": "phone",
        "value": "(+1) 972-766-6900"
      } ],
      "address": [ {
        "use": "billing",
        "type": "postal",
        "line": [ "P.O. Box 660044" ],
        "city": "Dallas",
        "state": "TX",
        "postalCode": "75266-0044",
        "country": "USA"
      } ]
    },
    "request": {
      "method": "PUT",
      "url": "Organization/5be8a010-9146-4983-bf70-6336a639632a"
    }
  }, {
    "fullUrl": "https://madie.cms.gov/Practitioner/6dba1fa2-50f5-4f26-ab87-dac52f149b2c",
    "resource": {
      "resourceType": "Practitioner",
      "id": "6dba1fa2-50f5-4f26-ab87-dac52f149b2c",
      "meta": {
        "profile": [ "http://hl7.org/fhir/us/qicore/StructureDefinition/qicore-practitioner" ]
      },
      "identifier": [ {
        "system": "http://hl7.org/fhir/sid/us-npi",
        "value": "1234567890"
      } ],
      "name": [ {
        "family": "Evil",
        "prefix": [ "Dr" ]
      } ]
    },
    "request": {
      "method": "PUT",
      "url": "Practitioner/6dba1fa2-50f5-4f26-ab87-dac52f149b2c"
    }
  }, {
    "fullUrl": "https://madie.cms.gov/MeasureReport/51e71087-88d9-4c67-b6ba-50bf21774e96",
    "resource": {
      "resourceType": "MeasureReport",
      "id": "51e71087-88d9-4c67-b6ba-50bf21774e96",
      "meta": {
        "profile": [ "http://hl7.org/fhir/us/cqfmeasures/StructureDefinition/test-case-cqfm" ]
      },
      "contained": [ {
        "resourceType": "Parameters",
        "id": "57490372-c5cd-431d-9bd4-45c66e97e4aa-parameters",
        "parameter": [ {
          "name": "subject",
          "valueString": "5bbc4c9f-8624-412e-bc07-74898e5f41ec"
        } ]
      } ],
      "extension": [ {
        "url": "http://hl7.org/fhir/StructureDefinition/cqf-inputParameters",
        "valueReference": {
          "reference": "#57490372-c5cd-431d-9bd4-45c66e97e4aa-parameters"
        }
      }, {
        "url": "http://hl7.org/fhir/us/cqfmeasures/StructureDefinition/cqfm-testCaseDescription",
        "valueMarkdown": "Testing relevant period start time for Assess PreTerm\n"
      } ],
      "modifierExtension": [ {
        "url": "http://hl7.org/fhir/us/cqfmeasures/StructureDefinition/cqfm-isTestCase",
        "valueBoolean": true
      } ],
      "status": "complete",
      "type": "individual",
      "measure": "https://madie.cms.gov/Measure/CMS0334FHIRPCCesareanBirth",
      "period": {
        "start": "2026-01-01",
        "end": "2026-12-31"
      },
      "group": [ {
        "id": "Group_1",
        "population": [ {
          "id": "InitialPopulation_1",
          "code": {
            "coding": [ {
              "system": "http://terminology.hl7.org/CodeSystem/measure-population",
              "code": "initial-population",
              "display": "Initial Population"
            } ]
          },
          "count": 1
        }, {
          "id": "Denominator_1",
          "code": {
            "coding": [ {
              "system": "http://terminology.hl7.org/CodeSystem/measure-population",
              "code": "denominator",
              "display": "Denominator"
            } ]
          },
          "count": 1
        }, {
          "id": "DenominatorExclusion_1",
          "code": {
            "coding": [ {
              "system": "http://terminology.hl7.org/CodeSystem/measure-population",
              "code": "denominator-exclusion",
              "display": "Denominator Exclusion"
            } ]
          },
          "count": 0
        }, {
          "id": "Numerator_1",
          "code": {
            "coding": [ {
              "system": "http://terminology.hl7.org/CodeSystem/measure-population",
              "code": "numerator",
              "display": "Numerator"
            } ]
          },
          "count": 1
        } ],
        "measureScore": {
          "value": 0.0
        }
      } ],
      "evaluatedResource": [ {
        "reference": "Patient/5bbc4c9f-8624-412e-bc07-74898e5f41ec"
      }, {
        "reference": "Observation/8a08c9fe-54ea-4e76-9afc-c01afeca1aed"
      }, {
        "reference": "Observation/7290765f-cb4d-4634-9abd-cb2b7ced91ff"
      }, {
        "reference": "Observation/9257b41f-d218-4301-9050-68ff5a1ee966"
      }, {
        "reference": "Observation/3f327e4c-d2d0-4750-bd2b-b9aa1298e8b9"
      }, {
        "reference": "Encounter/01c576ef-a40e-42d9-9f98-1c25e6493cea"
      }, {
        "reference": "Procedure/9971a401-2c8e-41f4-91a7-46440df4c7ea"
      }, {
        "reference": "Condition/f1a48edf-ef8c-49c2-b413-999792a35358"
      }, {
        "reference": "Coverage/37d45b4e-ec58-46ec-8135-038d8e9d6b45"
      }, {
        "reference": "Organization/5be8a010-9146-4983-bf70-6336a639632a"
      }, {
        "reference": "Practitioner/6dba1fa2-50f5-4f26-ab87-dac52f149b2c"
      } ]
    },
    "request": {
      "method": "PUT",
      "url": "MeasureReport/51e71087-88d9-4c67-b6ba-50bf21774e96"
    }
  } ]
}