{
  "resourceType": "Bundle",
  "id": "62cdd64162b2323a168e975e",
  "type": "transaction",
  "entry": [ {
    "fullUrl": "https://madie.cms.gov/Patient/4fa862e7-beac-4a7d-b053-f54afb689dc9",
    "resource": {
      "resourceType": "Patient",
      "id": "4fa862e7-beac-4a7d-b053-f54afb689dc9",
      "meta": {
        "profile": [ "http://hl7.org/fhir/us/qicore/StructureDefinition/qicore-patient" ]
      },
      "extension": [ {
        "url": "http://hl7.org/fhir/us/core/StructureDefinition/us-core-race",
        "extension": [ {
          "url": "ombCategory",
          "valueCoding": {
            "system": "urn:oid:2.16.840.1.113883.6.238",
            "code": "1002-5",
            "display": "American Indian or Alaska Native",
            "userSelected": true
          }
        }, {
          "url": "text",
          "valueString": "American Indian or Alaska Native"
        } ]
      }, {
        "url": "http://hl7.org/fhir/us/core/StructureDefinition/us-core-ethnicity",
        "extension": [ {
          "url": "ombCategory",
          "valueCoding": {
            "system": "urn:oid:2.16.840.1.113883.6.238",
            "code": "2135-2",
            "display": "Hispanic or Latino",
            "userSelected": true
          }
        }, {
          "url": "text",
          "valueString": "Hispanic or Latino"
        } ]
      } ],
      "identifier": [ {
        "type": {
          "coding": [ {
            "system": "http://terminology.hl7.org/CodeSystem/v2-0203",
            "code": "MR"
          } ]
        },
        "system": "https://bonnie-fhir.healthit.gov/",
        "value": "62cdd64162b2323a168e975e"
      } ],
      "name": [ {
        "family": "NUMERFail",
        "given": [ "SystolicNoDiastolic" ]
      } ],
      "gender": "male",
      "birthDate": "1976-12-31"
    },
    "request": {
      "method": "PUT",
      "url": "Patient/4fa862e7-beac-4a7d-b053-f54afb689dc9"
    }
  }, {
    "fullUrl": "https://madie.cms.gov/Encounter/664e5f1b-587b-4e28-95ac-e0291ceb5a15",
    "resource": {
      "resourceType": "Encounter",
      "id": "664e5f1b-587b-4e28-95ac-e0291ceb5a15",
      "meta": {
        "profile": [ "http://hl7.org/fhir/us/qicore/StructureDefinition/qicore-encounter" ]
      },
      "status": "finished",
      "class": {
        "system": "http://terminology.hl7.org/CodeSystem/v3-ActCode",
        "code": "AMB",
        "display": "ambulatory"
      },
      "type": [ {
        "coding": [ {
          "system": "http://snomed.info/sct",
          "version": "2022-03",
          "code": "103705002",
          "display": "Patient status observation (procedure)",
          "userSelected": true
        } ]
      } ],
      "subject": {
        "reference": "Patient/4fa862e7-beac-4a7d-b053-f54afb689dc9"
      },
      "period": {
        "start": "2026-12-31T08:00:00.000+00:00",
        "end": "2026-12-31T08:45:00.000+00:00"
      }
    },
    "request": {
      "method": "PUT",
      "url": "Encounter/664e5f1b-587b-4e28-95ac-e0291ceb5a15"
    }
  }, {
    "fullUrl": "https://madie.cms.gov/Observation/7b0eda97-7977-40ec-9e6a-5ac59d185816",
    "resource": {
      "resourceType": "Observation",
      "id": "7b0eda97-7977-40ec-9e6a-5ac59d185816",
      "meta": {
        "profile": [ "http://hl7.org/fhir/us/qicore/StructureDefinition/qicore-simple-observation" ]
      },
      "status": "final",
      "category": [ {
        "coding": [ {
          "system": "http://terminology.hl7.org/CodeSystem/observation-category",
          "code": "procedure",
          "display": "Procedure"
        } ]
      } ],
      "code": {
        "coding": [ {
          "system": "http://loinc.org",
          "code": "8480-6",
          "display": "Systolic blood pressure",
          "userSelected": true
        } ]
      },
      "subject": {
        "reference": "Patient/4fa862e7-beac-4a7d-b053-f54afb689dc9"
      },
      "effectiveDateTime": "2026-12-31T08:05:00.000+00:00",
      "valueQuantity": {
        "value": 160.0,
        "unit": "mm[Hg]"
      }
    },
    "request": {
      "method": "PUT",
      "url": "Observation/7b0eda97-7977-40ec-9e6a-5ac59d185816"
    }
  }, {
    "fullUrl": "https://madie.cms.gov/ServiceRequest/16579514-57df-4d5b-af30-8a3f35e772bd",
    "resource": {
      "resourceType": "ServiceRequest",
      "id": "16579514-57df-4d5b-af30-8a3f35e772bd",
      "meta": {
        "profile": [ "http://hl7.org/fhir/us/qicore/StructureDefinition/qicore-servicerequest" ]
      },
      "status": "active",
      "intent": "order",
      "code": {
        "coding": [ {
          "system": "http://snomed.info/sct",
          "version": "2022-03",
          "code": "183617005",
          "display": "Follow-up 1 day (finding)",
          "userSelected": true
        } ]
      },
      "subject": {
        "reference": "Patient/4fa862e7-beac-4a7d-b053-f54afb689dc9"
      },
      "authoredOn": "2026-12-31T08:30:00.000+00:00"
    },
    "request": {
      "method": "PUT",
      "url": "ServiceRequest/16579514-57df-4d5b-af30-8a3f35e772bd"
    }
  }, {
    "fullUrl": "https://madie.cms.gov/ServiceRequest/7fc47567-38bf-4776-a142-0e4558799e9a",
    "resource": {
      "resourceType": "ServiceRequest",
      "id": "7fc47567-38bf-4776-a142-0e4558799e9a",
      "meta": {
        "profile": [ "http://hl7.org/fhir/us/qicore/StructureDefinition/qicore-servicerequest" ]
      },
      "status": "active",
      "intent": "order",
      "code": {
        "coding": [ {
          "system": "http://snomed.info/sct",
          "version": "2022-03",
          "code": "103699006",
          "display": "Patient referral to dietitian (procedure)",
          "userSelected": true
        } ]
      },
      "subject": {
        "reference": "Patient/4fa862e7-beac-4a7d-b053-f54afb689dc9"
      },
      "authoredOn": "2026-12-31T08:30:00.000+00:00"
    },
    "request": {
      "method": "PUT",
      "url": "ServiceRequest/7fc47567-38bf-4776-a142-0e4558799e9a"
    }
  }, {
    "fullUrl": "https://madie.cms.gov/Coverage/ea34a7d5-0484-4585-9fcf-120b8a1be547",
    "resource": {
      "resourceType": "Coverage",
      "id": "ea34a7d5-0484-4585-9fcf-120b8a1be547",
      "meta": {
        "profile": [ "http://hl7.org/fhir/us/qicore/StructureDefinition/qicore-coverage" ]
      },
      "status": "active",
      "beneficiary": {
        "reference": "Patient/4fa862e7-beac-4a7d-b053-f54afb689dc9"
      },
      "payor": [ {
        "reference": "Organization/47641848-2324-41a2-9a82-f513b80e35e3"
      } ]
    },
    "request": {
      "method": "PUT",
      "url": "Coverage/ea34a7d5-0484-4585-9fcf-120b8a1be547"
    }
  }, {
    "fullUrl": "https://madie.cms.gov/Organization/47641848-2324-41a2-9a82-f513b80e35e3",
    "resource": {
      "resourceType": "Organization",
      "id": "47641848-2324-41a2-9a82-f513b80e35e3",
      "meta": {
        "profile": [ "http://hl7.org/fhir/us/qicore/StructureDefinition/qicore-organization" ]
      },
      "identifier": [ {
        "use": "temp",
        "system": "urn:oid:2.16.840.1.113883.4.4",
        "value": "21-3259825"
      } ],
      "active": true,
      "type": [ {
        "coding": [ {
          "system": "http://terminology.hl7.org/CodeSystem/organization-type",
          "code": "pay",
          "display": "Payer"
        } ]
      } ],
      "name": "Blue Cross Blue Shield of Texas",
      "telecom": [ {
        "system": "phone",
        "value": "(+1) 972-766-6900"
      } ],
      "address": [ {
        "use": "billing",
        "type": "postal",
        "line": [ "P.O. Box 660044" ],
        "city": "Dallas",
        "state": "TX",
        "postalCode": "75266-0044",
        "country": "USA"
      } ]
    },
    "request": {
      "method": "PUT",
      "url": "Organization/47641848-2324-41a2-9a82-f513b80e35e3"
    }
  }, {
    "fullUrl": "https://madie.cms.gov/Practitioner/8c374945-31e6-45be-be20-0997fab9d4e5",
    "resource": {
      "resourceType": "Practitioner",
      "id": "8c374945-31e6-45be-be20-0997fab9d4e5",
      "meta": {
        "profile": [ "http://hl7.org/fhir/us/qicore/StructureDefinition/qicore-practitioner" ]
      },
      "identifier": [ {
        "system": "http://hl7.org/fhir/sid/us-npi",
        "value": "123456"
      } ],
      "name": [ {
        "family": "Evil",
        "prefix": [ "Dr" ]
      } ]
    },
    "request": {
      "method": "PUT",
      "url": "Practitioner/8c374945-31e6-45be-be20-0997fab9d4e5"
    }
  }, {
    "fullUrl": "https://madie.cms.gov/MeasureReport/797a621b-c5c1-49a4-bb70-e46b617495be",
    "resource": {
      "resourceType": "MeasureReport",
      "id": "797a621b-c5c1-49a4-bb70-e46b617495be",
      "meta": {
        "profile": [ "http://hl7.org/fhir/us/cqfmeasures/StructureDefinition/test-case-cqfm" ]
      },
      "contained": [ {
        "resourceType": "Parameters",
        "id": "2b64dc0c-7036-4748-b0fd-440dad1ae248-parameters",
        "parameter": [ {
          "name": "subject",
          "valueString": "4fa862e7-beac-4a7d-b053-f54afb689dc9"
        } ]
      } ],
      "extension": [ {
        "url": "http://hl7.org/fhir/StructureDefinition/cqf-inputParameters",
        "valueReference": {
          "reference": "#2b64dc0c-7036-4748-b0fd-440dad1ae248-parameters"
        }
      }, {
        "url": "http://hl7.org/fhir/us/cqfmeasures/StructureDefinition/cqfm-testCaseDescription",
        "valueMarkdown": "Encounter last day of MP with systolic reading 160, no diastolic, follow up scheduled and dietary  recommendations made- expect to fail as both sys/dia are meant to be required. "
      } ],
      "modifierExtension": [ {
        "url": "http://hl7.org/fhir/us/cqfmeasures/StructureDefinition/cqfm-isTestCase",
        "valueBoolean": true
      } ],
      "status": "complete",
      "type": "individual",
      "measure": "https://madie.cms.gov/Measure/CMS22FHIRPCSBPScreeningFollowUp",
      "period": {
        "start": "2026-01-01",
        "end": "2026-12-31"
      },
      "group": [ {
        "id": "Group_1",
        "population": [ {
          "id": "InitialPopulation_1",
          "code": {
            "coding": [ {
              "system": "http://terminology.hl7.org/CodeSystem/measure-population",
              "code": "initial-population",
              "display": "Initial Population"
            } ]
          },
          "count": 1
        }, {
          "id": "Denominator_1",
          "code": {
            "coding": [ {
              "system": "http://terminology.hl7.org/CodeSystem/measure-population",
              "code": "denominator",
              "display": "Denominator"
            } ]
          },
          "count": 1
        }, {
          "id": "DenominatorExclusion_1",
          "code": {
            "coding": [ {
              "system": "http://terminology.hl7.org/CodeSystem/measure-population",
              "code": "denominator-exclusion",
              "display": "Denominator Exclusion"
            } ]
          },
          "count": 0
        }, {
          "id": "Numerator_1",
          "code": {
            "coding": [ {
              "system": "http://terminology.hl7.org/CodeSystem/measure-population",
              "code": "numerator",
              "display": "Numerator"
            } ]
          },
          "count": 0
        }, {
          "id": "DenominatorException_1",
          "code": {
            "coding": [ {
              "system": "http://terminology.hl7.org/CodeSystem/measure-population",
              "code": "denominator-exception",
              "display": "Denominator Exception"
            } ]
          },
          "count": 0
        } ],
        "measureScore": {
          "value": 0.0
        }
      } ],
      "evaluatedResource": [ {
        "reference": "Patient/4fa862e7-beac-4a7d-b053-f54afb689dc9"
      }, {
        "reference": "Encounter/664e5f1b-587b-4e28-95ac-e0291ceb5a15"
      }, {
        "reference": "Observation/7b0eda97-7977-40ec-9e6a-5ac59d185816"
      }, {
        "reference": "ServiceRequest/16579514-57df-4d5b-af30-8a3f35e772bd"
      }, {
        "reference": "ServiceRequest/7fc47567-38bf-4776-a142-0e4558799e9a"
      }, {
        "reference": "Coverage/ea34a7d5-0484-4585-9fcf-120b8a1be547"
      }, {
        "reference": "Organization/47641848-2324-41a2-9a82-f513b80e35e3"
      }, {
        "reference": "Practitioner/8c374945-31e6-45be-be20-0997fab9d4e5"
      } ]
    },
    "request": {
      "method": "PUT",
      "url": "MeasureReport/797a621b-c5c1-49a4-bb70-e46b617495be"
    }
  } ]
}