{
    "entry": [
        {
            "request": {
                "method": "PUT",
                "url": "Patient/4fa862e7-beac-4a7d-b053-f54afb689dc9"
            },
            "resource": {
                "identifier": [{
                    "system": "https://bonnie-fhir.healthit.gov/",
                    "type": {"coding": [{
                        "system": "http://terminology.hl7.org/CodeSystem/v2-0203",
                        "code": "MR"
                    }]},
                    "value": "62cdd64162b2323a168e975e"
                }],
                "extension": [
                    {
                        "extension": [
                            {
                                "valueCoding": {
                                    "system": "urn:oid:2.16.840.1.113883.6.238",
                                    "code": "1002-5",
                                    "userSelected": true,
                                    "display": "American Indian or Alaska Native"
                                },
                                "url": "ombCategory"
                            },
                            {
                                "valueString": "American Indian or Alaska Native",
                                "url": "text"
                            }
                        ],
                        "url": "http://hl7.org/fhir/us/core/StructureDefinition/us-core-race"
                    },
                    {
                        "extension": [
                            {
                                "valueCoding": {
                                    "system": "urn:oid:2.16.840.1.113883.6.238",
                                    "code": "2135-2",
                                    "userSelected": true,
                                    "display": "Hispanic or Latino"
                                },
                                "url": "ombCategory"
                            },
                            {
                                "valueString": "Hispanic or Latino",
                                "url": "text"
                            }
                        ],
                        "url": "http://hl7.org/fhir/us/core/StructureDefinition/us-core-ethnicity"
                    }
                ],
                "gender": "male",
                "meta": {"profile": ["http://hl7.org/fhir/us/qicore/StructureDefinition/qicore-patient"]},
                "name": [{
                    "given": ["SystolicNoDiastolic"],
                    "family": "NUMERFail"
                }],
                "id": "4fa862e7-beac-4a7d-b053-f54afb689dc9",
                "birthDate": "1976-12-31",
                "resourceType": "Patient"
            },
            "fullUrl": "https://madie.cms.gov/Patient/4fa862e7-beac-4a7d-b053-f54afb689dc9"
        },
        {
            "request": {
                "method": "PUT",
                "url": "Encounter/664e5f1b-587b-4e28-95ac-e0291ceb5a15"
            },
            "resource": {
                "period": {
                    "start": "2026-12-31T08:00:00.000+00:00",
                    "end": "2026-12-31T08:45:00.000+00:00"
                },
                "meta": {"profile": ["http://hl7.org/fhir/us/qicore/StructureDefinition/qicore-encounter"]},
                "subject": {"reference": "Patient/4fa862e7-beac-4a7d-b053-f54afb689dc9"},
                "id": "664e5f1b-587b-4e28-95ac-e0291ceb5a15",
                "type": [{"coding": [{
                    "system": "http://snomed.info/sct",
                    "code": "103705002",
                    "userSelected": true,
                    "display": "Patient status observation (procedure)",
                    "version": "2022-03"
                }]}],
                "class": {
                    "system": "http://terminology.hl7.org/CodeSystem/v3-ActCode",
                    "code": "AMB",
                    "display": "ambulatory"
                },
                "resourceType": "Encounter",
                "status": "finished"
            },
            "fullUrl": "https://madie.cms.gov/Encounter/664e5f1b-587b-4e28-95ac-e0291ceb5a15"
        },
        {
            "request": {
                "method": "PUT",
                "url": "Observation/7b0eda97-7977-40ec-9e6a-5ac59d185816"
            },
            "resource": {
                "code": {"coding": [{
                    "system": "http://loinc.org",
                    "code": "8480-6",
                    "userSelected": true,
                    "display": "Systolic blood pressure"
                }]},
                "effectiveDateTime": "2026-12-31T08:05:00.000+00:00",
                "meta": {"profile": ["http://hl7.org/fhir/us/qicore/StructureDefinition/qicore-simple-observation"]},
                "subject": {"reference": "Patient/4fa862e7-beac-4a7d-b053-f54afb689dc9"},
                "id": "7b0eda97-7977-40ec-9e6a-5ac59d185816",
                "category": [{"coding": [{
                    "system": "http://terminology.hl7.org/CodeSystem/observation-category",
                    "code": "procedure",
                    "display": "Procedure"
                }]}],
                "resourceType": "Observation",
                "status": "final",
                "valueQuantity": {
                    "unit": "mm[Hg]",
                    "value": 160
                }
            },
            "fullUrl": "https://madie.cms.gov/Observation/7b0eda97-7977-40ec-9e6a-5ac59d185816"
        },
        {
            "request": {
                "method": "PUT",
                "url": "ServiceRequest/16579514-57df-4d5b-af30-8a3f35e772bd"
            },
            "resource": {
                "code": {"coding": [{
                    "system": "http://snomed.info/sct",
                    "code": "183617005",
                    "userSelected": true,
                    "display": "Follow-up 1 day (finding)",
                    "version": "2022-03"
                }]},
                "authoredOn": "2026-12-31T08:30:00.000+00:00",
                "meta": {"profile": ["http://hl7.org/fhir/us/qicore/StructureDefinition/qicore-servicerequest"]},
                "subject": {"reference": "Patient/4fa862e7-beac-4a7d-b053-f54afb689dc9"},
                "id": "16579514-57df-4d5b-af30-8a3f35e772bd",
                "intent": "order",
                "resourceType": "ServiceRequest",
                "status": "active"
            },
            "fullUrl": "https://madie.cms.gov/ServiceRequest/16579514-57df-4d5b-af30-8a3f35e772bd"
        },
        {
            "request": {
                "method": "PUT",
                "url": "ServiceRequest/7fc47567-38bf-4776-a142-0e4558799e9a"
            },
            "resource": {
                "code": {"coding": [{
                    "system": "http://snomed.info/sct",
                    "code": "103699006",
                    "userSelected": true,
                    "display": "Patient referral to dietitian (procedure)",
                    "version": "2022-03"
                }]},
                "authoredOn": "2026-12-31T08:30:00.000+00:00",
                "meta": {"profile": ["http://hl7.org/fhir/us/qicore/StructureDefinition/qicore-servicerequest"]},
                "subject": {"reference": "Patient/4fa862e7-beac-4a7d-b053-f54afb689dc9"},
                "id": "7fc47567-38bf-4776-a142-0e4558799e9a",
                "intent": "order",
                "resourceType": "ServiceRequest",
                "status": "active"
            },
            "fullUrl": "https://madie.cms.gov/ServiceRequest/7fc47567-38bf-4776-a142-0e4558799e9a"
        },
        {
            "request": {
                "method": "PUT",
                "url": "Coverage/ea34a7d5-0484-4585-9fcf-120b8a1be547"
            },
            "resource": {
                "payor": [{"reference": "Organization/47641848-2324-41a2-9a82-f513b80e35e3"}],
                "beneficiary": {"reference": "Patient/4fa862e7-beac-4a7d-b053-f54afb689dc9"},
                "meta": {"profile": ["http://hl7.org/fhir/us/qicore/StructureDefinition/qicore-coverage"]},
                "id": "ea34a7d5-0484-4585-9fcf-120b8a1be547",
                "resourceType": "Coverage",
                "status": "active"
            },
            "fullUrl": "https://madie.cms.gov/Coverage/ea34a7d5-0484-4585-9fcf-120b8a1be547"
        },
        {
            "request": {
                "method": "PUT",
                "url": "Organization/47641848-2324-41a2-9a82-f513b80e35e3"
            },
            "resource": {
                "identifier": [{
                    "system": "urn:oid:2.16.840.1.113883.4.4",
                    "use": "temp",
                    "value": "21-3259825"
                }],
                "address": [{
                    "country": "USA",
                    "city": "Dallas",
                    "use": "billing",
                    "line": ["P.O. Box 660044"],
                    "postalCode": "75266-0044",
                    "state": "TX",
                    "type": "postal"
                }],
                "meta": {"profile": ["http://hl7.org/fhir/us/qicore/StructureDefinition/qicore-organization"]},
                "name": "Blue Cross Blue Shield of Texas",
                "active": true,
                "telecom": [{
                    "system": "phone",
                    "value": "(+1) 972-766-6900"
                }],
                "id": "47641848-2324-41a2-9a82-f513b80e35e3",
                "type": [{"coding": [{
                    "system": "http://terminology.hl7.org/CodeSystem/organization-type",
                    "code": "pay",
                    "display": "Payer"
                }]}],
                "resourceType": "Organization"
            },
            "fullUrl": "https://madie.cms.gov/Organization/47641848-2324-41a2-9a82-f513b80e35e3"
        },
        {
            "request": {
                "method": "PUT",
                "url": "Practitioner/8c374945-31e6-45be-be20-0997fab9d4e5"
            },
            "resource": {
                "identifier": [{
                    "system": "http://hl7.org/fhir/sid/us-npi",
                    "value": "123456"
                }],
                "meta": {"profile": ["http://hl7.org/fhir/us/qicore/StructureDefinition/qicore-practitioner"]},
                "name": [{
                    "prefix": ["Dr"],
                    "family": "Evil"
                }],
                "id": "8c374945-31e6-45be-be20-0997fab9d4e5",
                "resourceType": "Practitioner"
            },
            "fullUrl": "https://madie.cms.gov/Practitioner/8c374945-31e6-45be-be20-0997fab9d4e5"
        },
        {
            "request": {
                "method": "PUT",
                "url": "MeasureReport/797a621b-c5c1-49a4-bb70-e46b617495be"
            },
            "resource": {
                "contained": [{
                    "parameter": [{
                        "valueString": "4fa862e7-beac-4a7d-b053-f54afb689dc9",
                        "name": "subject"
                    }],
                    "id": "2b64dc0c-7036-4748-b0fd-440dad1ae248-parameters",
                    "resourceType": "Parameters"
                }],
                "extension": [
                    {
                        "valueReference": {"reference": "#2b64dc0c-7036-4748-b0fd-440dad1ae248-parameters"},
                        "url": "http://hl7.org/fhir/StructureDefinition/cqf-inputParameters"
                    },
                    {
                        "valueMarkdown": "Encounter last day of MP with systolic reading 160, no diastolic, follow up scheduled and dietary  recommendations made- expect to fail as both sys/dia are meant to be required. ",
                        "url": "http://hl7.org/fhir/us/cqfmeasures/StructureDefinition/cqfm-testCaseDescription"
                    }
                ],
                "period": {
                    "start": "2026-01-01",
                    "end": "2026-12-31"
                },
                "measure": "https://madie.cms.gov/Measure/CMS22FHIRPCSBPScreeningFollowUp",
                "meta": {"profile": ["http://hl7.org/fhir/us/cqfmeasures/StructureDefinition/test-case-cqfm"]},
                "modifierExtension": [{
                    "valueBoolean": true,
                    "url": "http://hl7.org/fhir/us/cqfmeasures/StructureDefinition/cqfm-isTestCase"
                }],
                "id": "797a621b-c5c1-49a4-bb70-e46b617495be",
                "evaluatedResource": [
                    {"reference": "Patient/4fa862e7-beac-4a7d-b053-f54afb689dc9"},
                    {"reference": "Encounter/664e5f1b-587b-4e28-95ac-e0291ceb5a15"},
                    {"reference": "Observation/7b0eda97-7977-40ec-9e6a-5ac59d185816"},
                    {"reference": "ServiceRequest/16579514-57df-4d5b-af30-8a3f35e772bd"},
                    {"reference": "ServiceRequest/7fc47567-38bf-4776-a142-0e4558799e9a"},
                    {"reference": "Coverage/ea34a7d5-0484-4585-9fcf-120b8a1be547"},
                    {"reference": "Organization/47641848-2324-41a2-9a82-f513b80e35e3"},
                    {"reference": "Practitioner/8c374945-31e6-45be-be20-0997fab9d4e5"}
                ],
                "type": "individual",
                "resourceType": "MeasureReport",
                "status": "complete",
                "group": [{
                    "id": "Group_1",
                    "measureScore": {"value": 0},
                    "population": [
                        {
                            "code": {"coding": [{
                                "system": "http://terminology.hl7.org/CodeSystem/measure-population",
                                "code": "initial-population",
                                "display": "Initial Population"
                            }]},
                            "count": 1,
                            "id": "InitialPopulation_1"
                        },
                        {
                            "code": {"coding": [{
                                "system": "http://terminology.hl7.org/CodeSystem/measure-population",
                                "code": "denominator",
                                "display": "Denominator"
                            }]},
                            "count": 1,
                            "id": "Denominator_1"
                        },
                        {
                            "code": {"coding": [{
                                "system": "http://terminology.hl7.org/CodeSystem/measure-population",
                                "code": "denominator-exclusion",
                                "display": "Denominator Exclusion"
                            }]},
                            "count": 0,
                            "id": "DenominatorExclusion_1"
                        },
                        {
                            "code": {"coding": [{
                                "system": "http://terminology.hl7.org/CodeSystem/measure-population",
                                "code": "numerator",
                                "display": "Numerator"
                            }]},
                            "count": 0,
                            "id": "Numerator_1"
                        },
                        {
                            "code": {"coding": [{
                                "system": "http://terminology.hl7.org/CodeSystem/measure-population",
                                "code": "denominator-exception",
                                "display": "Denominator Exception"
                            }]},
                            "count": 0,
                            "id": "DenominatorException_1"
                        }
                    ]
                }]
            },
            "fullUrl": "https://madie.cms.gov/MeasureReport/797a621b-c5c1-49a4-bb70-e46b617495be"
        }
    ],
    "id": "62cdd64162b2323a168e975e",
    "type": "transaction",
    "resourceType": "Bundle"
}