{"resourceType":"Bundle","id":"tests-a5ca4525-88bc-4b67-b880-ca1cf54daa88-bundle","type":"transaction","entry":[{"fullUrl":"Condition/e05f332f-58bc-4b56-806d-b8b152712d50","resource":{"resourceType":"Condition","id":"e05f332f-58bc-4b56-806d-b8b152712d50","meta":{"profile":["http://hl7.org/fhir/us/qicore/StructureDefinition/qicore-condition-problems-health-concerns"]},"clinicalStatus":{"coding":[{"system":"http://terminology.hl7.org/CodeSystem/condition-clinical","code":"active"}]},"category":[{"coding":[{"system":"http://terminology.hl7.org/CodeSystem/condition-category","code":"problem-list-item","display":"Problem List Item"}]}],"code":{"coding":[{"system":"http://snomed.info/sct","code":"471331000124109","display":"Anaphylaxis caused by vaccine product containing Measles morbillivirus and Mumps orthorubulavirus and Rubella virus antigens (disorder)"}]},"subject":{"reference":"Patient/a5ca4525-88bc-4b67-b880-ca1cf54daa88"},"onsetDateTime":"2025-01-02T00:00:00.000Z"},"request":{"method":"PUT","url":"Condition/e05f332f-58bc-4b56-806d-b8b152712d50"}},{"fullUrl":"Condition/dbc5db6c-0522-4156-a4b8-da22299aa687","resource":{"resourceType":"Condition","id":"dbc5db6c-0522-4156-a4b8-da22299aa687","meta":{"profile":["http://hl7.org/fhir/us/qicore/StructureDefinition/qicore-condition-problems-health-concerns"]},"clinicalStatus":{"coding":[{"system":"http://terminology.hl7.org/CodeSystem/condition-clinical","code":"active"}]},"category":[{"coding":[{"system":"http://terminology.hl7.org/CodeSystem/condition-category","code":"problem-list-item","display":"Problem List Item"}]}],"code":{"coding":[{"system":"http://snomed.info/sct","code":"471321000124106","display":"Anaphylaxis caused by vaccine product containing human poliovirus antigen (disorder)"}]},"subject":{"reference":"Patient/a5ca4525-88bc-4b67-b880-ca1cf54daa88"},"onsetDateTime":"2025-01-02T00:00:00.000Z"},"request":{"method":"PUT","url":"Condition/dbc5db6c-0522-4156-a4b8-da22299aa687"}},{"fullUrl":"Condition/c044252b-b3bf-4c81-8e81-ea34f8112195","resource":{"resourceType":"Condition","id":"c044252b-b3bf-4c81-8e81-ea34f8112195","meta":{"profile":["http://hl7.org/fhir/us/qicore/StructureDefinition/qicore-condition-problems-health-concerns"]},"clinicalStatus":{"coding":[{"system":"http://terminology.hl7.org/CodeSystem/condition-clinical","code":"active"}]},"category":[{"coding":[{"system":"http://terminology.hl7.org/CodeSystem/condition-category","code":"problem-list-item","display":"Problem List Item"}]}],"code":{"coding":[{"system":"http://snomed.info/sct","code":"192711008","display":"Post diphtheria vaccination encephalitis (disorder)"}]},"subject":{"reference":"Patient/a5ca4525-88bc-4b67-b880-ca1cf54daa88"},"onsetDateTime":"2025-01-02T00:00:00.000Z"},"request":{"method":"PUT","url":"Condition/c044252b-b3bf-4c81-8e81-ea34f8112195"}},{"fullUrl":"MeasureReport/b82b2611-e47f-46c4-bc9e-c2c9b7448749","resource":{"resourceType":"MeasureReport","id":"b82b2611-e47f-46c4-bc9e-c2c9b7448749","meta":{"profile":["http://hl7.org/fhir/us/cqfmeasures/StructureDefinition/test-case-cqfm"]},"contained":[{"resourceType":"Parameters","id":"4ff8a218-a3d4-496f-a460-f45f1099854f-parameters","parameter":[{"name":"subject","valueString":"a5ca4525-88bc-4b67-b880-ca1cf54daa88"}]}],"extension":[{"url":"http://hl7.org/fhir/StructureDefinition/cqf-inputParameters","valueReference":{"reference":"#4ff8a218-a3d4-496f-a460-f45f1099854f-parameters"}},{"url":"http://hl7.org/fhir/us/cqfmeasures/StructureDefinition/cqfm-testCaseDescription","valueMarkdown":"All anaphylaxis or conditions in lieu"}],"modifierExtension":[{"url":"http://hl7.org/fhir/us/cqfmeasures/StructureDefinition/cqfm-isTestCase","valueBoolean":true}],"status":"complete","type":"individual","measure":"https://madie.cms.gov/Measure/CMS117FHIRChildhoodImmunizationStatus","period":{"start":"2026-01-01","end":"2026-12-31"},"group":[{"id":"Group_1","population":[{"id":"InitialPopulation_1","code":{"coding":[{"system":"http://terminology.hl7.org/CodeSystem/measure-population","code":"initial-population","display":"Initial Population"}]},"count":1},{"id":"Denominator_1","code":{"coding":[{"system":"http://terminology.hl7.org/CodeSystem/measure-population","code":"denominator","display":"Denominator"}]},"count":1},{"id":"DenominatorExclusion_1","code":{"coding":[{"system":"http://terminology.hl7.org/CodeSystem/measure-population","code":"denominator-exclusion","display":"Denominator Exclusion"}]},"count":0},{"id":"Numerator_1","code":{"coding":[{"system":"http://terminology.hl7.org/CodeSystem/measure-population","code":"numerator","display":"Numerator"}]},"count":1}],"measureScore":{"value":1.0}}],"evaluatedResource":[{"reference":"Patient/a5ca4525-88bc-4b67-b880-ca1cf54daa88"},{"reference":"Encounter/bd55b35a-6aa5-4013-bb97-caea93c68932"},{"reference":"Condition/c044252b-b3bf-4c81-8e81-ea34f8112195"},{"reference":"Condition/dbc5db6c-0522-4156-a4b8-da22299aa687"},{"reference":"Condition/e05f332f-58bc-4b56-806d-b8b152712d50"},{"reference":"Condition/18edb50d-b1ed-419e-a0de-de5cf5f868a6"},{"reference":"Condition/96202b4d-6272-4711-ab55-6dbdef60db53"},{"reference":"Condition/756b1586-6120-488f-94f3-9c9f6e751da4"},{"reference":"Condition/9526ce85-7913-4434-ba49-809e32e1a45d"},{"reference":"Condition/5e02836f-f7d0-4dc8-82be-38669fff14cb"},{"reference":"Condition/72218e72-8743-4561-8f8a-0f22d12cf995"},{"reference":"Condition/c044252b-b3bf-4c81-8e81-ea34f81121950"},{"reference":"MeasureReport/160e3192-6b74-451e-a21c-1e619fa9533f"}]},"request":{"method":"PUT","url":"MeasureReport/b82b2611-e47f-46c4-bc9e-c2c9b7448749"}},{"fullUrl":"Condition/72218e72-8743-4561-8f8a-0f22d12cf995","resource":{"resourceType":"Condition","id":"72218e72-8743-4561-8f8a-0f22d12cf995","meta":{"profile":["http://hl7.org/fhir/us/qicore/StructureDefinition/qicore-condition-problems-health-concerns"]},"clinicalStatus":{"coding":[{"system":"http://terminology.hl7.org/CodeSystem/condition-clinical","code":"active"}]},"category":[{"coding":[{"system":"http://terminology.hl7.org/CodeSystem/condition-category","code":"problem-list-item","display":"Problem List Item"}]}],"code":{"coding":[{"system":"http://snomed.info/sct","code":"428331000124103","display":"Anaphylaxis caused by rotavirus vaccine (disorder)"}]},"subject":{"reference":"Patient/a5ca4525-88bc-4b67-b880-ca1cf54daa88"},"onsetDateTime":"2025-01-02T00:00:00.000Z"},"request":{"method":"PUT","url":"Condition/72218e72-8743-4561-8f8a-0f22d12cf995"}},{"fullUrl":"Condition/756b1586-6120-488f-94f3-9c9f6e751da4","resource":{"resourceType":"Condition","id":"756b1586-6120-488f-94f3-9c9f6e751da4","meta":{"profile":["http://hl7.org/fhir/us/qicore/StructureDefinition/qicore-condition-problems-health-concerns"]},"clinicalStatus":{"coding":[{"system":"http://terminology.hl7.org/CodeSystem/condition-clinical","code":"active"}]},"category":[{"coding":[{"system":"http://terminology.hl7.org/CodeSystem/condition-category","code":"problem-list-item","display":"Problem List Item"}]}],"code":{"coding":[{"system":"http://snomed.info/sct","code":"426570007","display":"Herpes zoster interstitial keratitis (disorder)"}]},"subject":{"reference":"Patient/a5ca4525-88bc-4b67-b880-ca1cf54daa88"},"onsetDateTime":"2025-01-02T00:00:00.000Z"},"request":{"method":"PUT","url":"Condition/756b1586-6120-488f-94f3-9c9f6e751da4"}},{"fullUrl":"Condition/5e02836f-f7d0-4dc8-82be-38669fff14cb","resource":{"resourceType":"Condition","id":"5e02836f-f7d0-4dc8-82be-38669fff14cb","meta":{"profile":["http://hl7.org/fhir/us/qicore/StructureDefinition/qicore-condition-problems-health-concerns"]},"clinicalStatus":{"coding":[{"system":"http://terminology.hl7.org/CodeSystem/condition-clinical","code":"active"}]},"category":[{"coding":[{"system":"http://terminology.hl7.org/CodeSystem/condition-category","code":"problem-list-item","display":"Problem List Item"}]}],"code":{"coding":[{"system":"http://snomed.info/sct","code":"40468003","display":"Viral hepatitis, type A (disorder)"}]},"subject":{"reference":"Patient/a5ca4525-88bc-4b67-b880-ca1cf54daa88"},"onsetDateTime":"2025-01-02T00:00:00.000Z"},"request":{"method":"PUT","url":"Condition/5e02836f-f7d0-4dc8-82be-38669fff14cb"}},{"fullUrl":"MeasureReport/160e3192-6b74-451e-a21c-1e619fa9533f","resource":{"resourceType":"MeasureReport","id":"160e3192-6b74-451e-a21c-1e619fa9533f","meta":{"profile":["http://hl7.org/fhir/us/cqfmeasures/StructureDefinition/test-case-cqfm"]},"contained":[{"resourceType":"Parameters","id":"90578bf8-fdd6-4b14-932b-ae11bbe3826e-parameters","parameter":[{"name":"subject","valueString":"a5ca4525-88bc-4b67-b880-ca1cf54daa88"}]}],"extension":[{"url":"http://hl7.org/fhir/StructureDefinition/cqf-inputParameters","valueReference":{"reference":"#90578bf8-fdd6-4b14-932b-ae11bbe3826e-parameters"}},{"url":"http://hl7.org/fhir/us/cqfmeasures/StructureDefinition/cqfm-testCaseDescription","valueMarkdown":"All anaphylaxis or conditions in lieu"}],"modifierExtension":[{"url":"http://hl7.org/fhir/us/cqfmeasures/StructureDefinition/cqfm-isTestCase","valueBoolean":true}],"status":"complete","type":"individual","measure":"https://madie.cms.gov/Measure/ChildhoodImmunizationStatusFHIR","period":{"start":"2026-01-01","end":"2026-12-31"},"group":[{"id":"Group_1","population":[{"id":"InitialPopulation_1","code":{"coding":[{"system":"http://terminology.hl7.org/CodeSystem/measure-population","code":"initial-population","display":"Initial Population"}]},"count":1},{"id":"Denominator_1","code":{"coding":[{"system":"http://terminology.hl7.org/CodeSystem/measure-population","code":"denominator","display":"Denominator"}]},"count":1},{"id":"DenominatorExclusion_1","code":{"coding":[{"system":"http://terminology.hl7.org/CodeSystem/measure-population","code":"denominator-exclusion","display":"Denominator Exclusion"}]},"count":0},{"id":"Numerator_1","code":{"coding":[{"system":"http://terminology.hl7.org/CodeSystem/measure-population","code":"numerator","display":"Numerator"}]},"count":1}],"measureScore":{"value":1.0}}],"evaluatedResource":[{"reference":"Patient/a5ca4525-88bc-4b67-b880-ca1cf54daa88"},{"reference":"Encounter/bd55b35a-6aa5-4013-bb97-caea93c68932"},{"reference":"Condition/c044252b-b3bf-4c81-8e81-ea34f8112195"},{"reference":"Condition/dbc5db6c-0522-4156-a4b8-da22299aa687"},{"reference":"Condition/e05f332f-58bc-4b56-806d-b8b152712d50"},{"reference":"Condition/18edb50d-b1ed-419e-a0de-de5cf5f868a6"},{"reference":"Condition/96202b4d-6272-4711-ab55-6dbdef60db53"},{"reference":"Condition/756b1586-6120-488f-94f3-9c9f6e751da4"},{"reference":"Condition/9526ce85-7913-4434-ba49-809e32e1a45d"},{"reference":"Condition/5e02836f-f7d0-4dc8-82be-38669fff14cb"},{"reference":"Condition/72218e72-8743-4561-8f8a-0f22d12cf995"},{"reference":"Condition/c044252b-b3bf-4c81-8e81-ea34f81121950"}]},"request":{"method":"PUT","url":"MeasureReport/160e3192-6b74-451e-a21c-1e619fa9533f"}},{"fullUrl":"Condition/c044252b-b3bf-4c81-8e81-ea34f81121950","resource":{"resourceType":"Condition","id":"c044252b-b3bf-4c81-8e81-ea34f81121950","meta":{"profile":["http://hl7.org/fhir/us/qicore/StructureDefinition/qicore-condition-problems-health-concerns"]},"clinicalStatus":{"coding":[{"system":"http://terminology.hl7.org/CodeSystem/condition-clinical","code":"active"}]},"category":[{"coding":[{"system":"http://terminology.hl7.org/CodeSystem/condition-category","code":"problem-list-item","display":"Problem List Item"}]}],"code":{"coding":[{"system":"http://snomed.info/sct","code":"471361000124100","display":"Anaphylaxis caused by vaccine product containing Influenza virus antigen (disorder)"}]},"subject":{"reference":"Patient/a5ca4525-88bc-4b67-b880-ca1cf54daa88"},"onsetDateTime":"2025-01-02T00:00:00.000Z"},"request":{"method":"PUT","url":"Condition/c044252b-b3bf-4c81-8e81-ea34f81121950"}},{"fullUrl":"Condition/9526ce85-7913-4434-ba49-809e32e1a45d","resource":{"resourceType":"Condition","id":"9526ce85-7913-4434-ba49-809e32e1a45d","meta":{"profile":["http://hl7.org/fhir/us/qicore/StructureDefinition/qicore-condition-problems-health-concerns"]},"clinicalStatus":{"coding":[{"system":"http://terminology.hl7.org/CodeSystem/condition-clinical","code":"active"}]},"category":[{"coding":[{"system":"http://terminology.hl7.org/CodeSystem/condition-category","code":"problem-list-item","display":"Problem List Item"}]}],"code":{"coding":[{"system":"http://snomed.info/sct","code":"471141000124102","display":"Anaphylaxis caused by vaccine product containing Streptococcus pneumoniae antigen (disorder)"}]},"subject":{"reference":"Patient/a5ca4525-88bc-4b67-b880-ca1cf54daa88"},"onsetDateTime":"2025-01-12T00:00:00.000Z"},"request":{"method":"PUT","url":"Condition/9526ce85-7913-4434-ba49-809e32e1a45d"}},{"fullUrl":"Bundle/NUMERPass-AllAnaphylaxisOrConditions","resource":{"resourceType":"Bundle","id":"NUMERPass-AllAnaphylaxisOrConditions","type":"transaction","entry":[{"fullUrl":"https://madie.cms.gov/Patient/a5ca4525-88bc-4b67-b880-ca1cf54daa88","resource":{"resourceType":"Patient","id":"a5ca4525-88bc-4b67-b880-ca1cf54daa88","meta":{"profile":["http://hl7.org/fhir/us/qicore/StructureDefinition/qicore-patient"]},"extension":[{"url":"http://hl7.org/fhir/us/core/StructureDefinition/us-core-race","extension":[{"url":"ombCategory","valueCoding":{"system":"urn:oid:2.16.840.1.113883.6.238","code":"2028-9","display":"Asian","userSelected":true}},{"url":"text","valueString":"Asian"}]},{"url":"http://hl7.org/fhir/us/core/StructureDefinition/us-core-ethnicity","extension":[{"url":"ombCategory","valueCoding":{"system":"urn:oid:2.16.840.1.113883.6.238","code":"2135-2","display":"Hispanic or Latino","userSelected":true}},{"url":"text","valueString":"Hispanic or Latino"}]}],"identifier":[{"type":{"coding":[{"system":"http://terminology.hl7.org/CodeSystem/v2-0203","code":"MR"}]},"system":"http://hospital.smarthealthit.org","value":"999999995"}],"name":[{"family":"Bertha","given":["Betty"]}],"gender":"female","birthDate":"2024-01-01"},"request":{"method":"PUT","url":"Patient/a5ca4525-88bc-4b67-b880-ca1cf54daa88"}},{"fullUrl":"https://madie.cms.gov/Encounter/bd55b35a-6aa5-4013-bb97-caea93c68932","resource":{"resourceType":"Encounter","id":"bd55b35a-6aa5-4013-bb97-caea93c68932","meta":{"profile":["http://hl7.org/fhir/us/qicore/StructureDefinition/qicore-encounter"]},"status":"finished","class":{"system":"http://terminology.hl7.org/CodeSystem/v3-ActCode","code":"AMB","display":"ambulatory"},"type":[{"coding":[{"system":"http://snomed.info/sct","code":"185317003","display":"Telephone encounter (procedure)"}]}],"subject":{"reference":"Patient/a5ca4525-88bc-4b67-b880-ca1cf54daa88"},"period":{"start":"2026-01-01T01:00:00.000Z","end":"2026-01-01T01:15:00.000Z"}},"request":{"method":"PUT","url":"Encounter/bd55b35a-6aa5-4013-bb97-caea93c68932"}},{"fullUrl":"https://madie.cms.gov/Condition/c044252b-b3bf-4c81-8e81-ea34f8112195","resource":{"resourceType":"Condition","id":"c044252b-b3bf-4c81-8e81-ea34f8112195","meta":{"profile":["http://hl7.org/fhir/us/qicore/StructureDefinition/qicore-condition-problems-health-concerns"]},"clinicalStatus":{"coding":[{"system":"http://terminology.hl7.org/CodeSystem/condition-clinical","code":"active"}]},"category":[{"coding":[{"system":"http://terminology.hl7.org/CodeSystem/condition-category","code":"problem-list-item","display":"Problem List Item"}]}],"code":{"coding":[{"system":"http://snomed.info/sct","code":"192711008","display":"Post diphtheria vaccination encephalitis (disorder)"}]},"subject":{"reference":"Patient/a5ca4525-88bc-4b67-b880-ca1cf54daa88"},"onsetDateTime":"2025-01-02T00:00:00.000Z"},"request":{"method":"PUT","url":"Condition/c044252b-b3bf-4c81-8e81-ea34f8112195"}},{"fullUrl":"https://madie.cms.gov/Condition/dbc5db6c-0522-4156-a4b8-da22299aa687","resource":{"resourceType":"Condition","id":"dbc5db6c-0522-4156-a4b8-da22299aa687","meta":{"profile":["http://hl7.org/fhir/us/qicore/StructureDefinition/qicore-condition-problems-health-concerns"]},"clinicalStatus":{"coding":[{"system":"http://terminology.hl7.org/CodeSystem/condition-clinical","code":"active"}]},"category":[{"coding":[{"system":"http://terminology.hl7.org/CodeSystem/condition-category","code":"problem-list-item","display":"Problem List Item"}]}],"code":{"coding":[{"system":"http://snomed.info/sct","code":"471321000124106","display":"Anaphylaxis caused by vaccine product containing human poliovirus antigen (disorder)"}]},"subject":{"reference":"Patient/a5ca4525-88bc-4b67-b880-ca1cf54daa88"},"onsetDateTime":"2025-01-02T00:00:00.000Z"},"request":{"method":"PUT","url":"Condition/dbc5db6c-0522-4156-a4b8-da22299aa687"}},{"fullUrl":"https://madie.cms.gov/Condition/e05f332f-58bc-4b56-806d-b8b152712d50","resource":{"resourceType":"Condition","id":"e05f332f-58bc-4b56-806d-b8b152712d50","meta":{"profile":["http://hl7.org/fhir/us/qicore/StructureDefinition/qicore-condition-problems-health-concerns"]},"clinicalStatus":{"coding":[{"system":"http://terminology.hl7.org/CodeSystem/condition-clinical","code":"active"}]},"category":[{"coding":[{"system":"http://terminology.hl7.org/CodeSystem/condition-category","code":"problem-list-item","display":"Problem List Item"}]}],"code":{"coding":[{"system":"http://snomed.info/sct","code":"471331000124109","display":"Anaphylaxis caused by vaccine product containing Measles morbillivirus and Mumps orthorubulavirus and Rubella virus antigens (disorder)"}]},"subject":{"reference":"Patient/a5ca4525-88bc-4b67-b880-ca1cf54daa88"},"onsetDateTime":"2025-01-02T00:00:00.000Z"},"request":{"method":"PUT","url":"Condition/e05f332f-58bc-4b56-806d-b8b152712d50"}},{"fullUrl":"https://madie.cms.gov/Condition/18edb50d-b1ed-419e-a0de-de5cf5f868a6","resource":{"resourceType":"Condition","id":"18edb50d-b1ed-419e-a0de-de5cf5f868a6","meta":{"profile":["http://hl7.org/fhir/us/qicore/StructureDefinition/qicore-condition-problems-health-concerns"]},"clinicalStatus":{"coding":[{"system":"http://terminology.hl7.org/CodeSystem/condition-clinical","code":"active"}]},"category":[{"coding":[{"system":"http://terminology.hl7.org/CodeSystem/condition-category","code":"problem-list-item","display":"Problem List Item"}]}],"code":{"coding":[{"system":"http://snomed.info/sct","code":"433621000124101","display":"Anaphylaxis due to Haemophilus influenzae type b vaccine (disorder)"}]},"subject":{"reference":"Patient/a5ca4525-88bc-4b67-b880-ca1cf54daa88"},"onsetDateTime":"2025-01-02T00:00:00.000Z"},"request":{"method":"PUT","url":"Condition/18edb50d-b1ed-419e-a0de-de5cf5f868a6"}},{"fullUrl":"https://madie.cms.gov/Condition/96202b4d-6272-4711-ab55-6dbdef60db53","resource":{"resourceType":"Condition","id":"96202b4d-6272-4711-ab55-6dbdef60db53","meta":{"profile":["http://hl7.org/fhir/us/qicore/StructureDefinition/qicore-condition-problems-health-concerns"]},"clinicalStatus":{"coding":[{"system":"http://terminology.hl7.org/CodeSystem/condition-clinical","code":"active"}]},"category":[{"coding":[{"system":"http://terminology.hl7.org/CodeSystem/condition-category","code":"problem-list-item","display":"Problem List Item"}]}],"code":{"coding":[{"system":"http://snomed.info/sct","code":"235864009","display":"Acute hepatitis B with hepatitis D (disorder)"}]},"subject":{"reference":"Patient/a5ca4525-88bc-4b67-b880-ca1cf54daa88"},"onsetDateTime":"2025-01-02T00:00:00.000Z"},"request":{"method":"PUT","url":"Condition/96202b4d-6272-4711-ab55-6dbdef60db53"}},{"fullUrl":"https://madie.cms.gov/Condition/756b1586-6120-488f-94f3-9c9f6e751da4","resource":{"resourceType":"Condition","id":"756b1586-6120-488f-94f3-9c9f6e751da4","meta":{"profile":["http://hl7.org/fhir/us/qicore/StructureDefinition/qicore-condition-problems-health-concerns"]},"clinicalStatus":{"coding":[{"system":"http://terminology.hl7.org/CodeSystem/condition-clinical","code":"active"}]},"category":[{"coding":[{"system":"http://terminology.hl7.org/CodeSystem/condition-category","code":"problem-list-item","display":"Problem List Item"}]}],"code":{"coding":[{"system":"http://snomed.info/sct","code":"426570007","display":"Herpes zoster interstitial keratitis (disorder)"}]},"subject":{"reference":"Patient/a5ca4525-88bc-4b67-b880-ca1cf54daa88"},"onsetDateTime":"2025-01-02T00:00:00.000Z"},"request":{"method":"PUT","url":"Condition/756b1586-6120-488f-94f3-9c9f6e751da4"}},{"fullUrl":"https://madie.cms.gov/Condition/9526ce85-7913-4434-ba49-809e32e1a45d","resource":{"resourceType":"Condition","id":"9526ce85-7913-4434-ba49-809e32e1a45d","meta":{"profile":["http://hl7.org/fhir/us/qicore/StructureDefinition/qicore-condition-problems-health-concerns"]},"clinicalStatus":{"coding":[{"system":"http://terminology.hl7.org/CodeSystem/condition-clinical","code":"active"}]},"category":[{"coding":[{"system":"http://terminology.hl7.org/CodeSystem/condition-category","code":"problem-list-item","display":"Problem List Item"}]}],"code":{"coding":[{"system":"http://snomed.info/sct","code":"471141000124102","display":"Anaphylaxis caused by vaccine product containing Streptococcus pneumoniae antigen (disorder)"}]},"subject":{"reference":"Patient/a5ca4525-88bc-4b67-b880-ca1cf54daa88"},"onsetDateTime":"2025-01-12T00:00:00.000Z"},"request":{"method":"PUT","url":"Condition/9526ce85-7913-4434-ba49-809e32e1a45d"}},{"fullUrl":"https://madie.cms.gov/Condition/5e02836f-f7d0-4dc8-82be-38669fff14cb","resource":{"resourceType":"Condition","id":"5e02836f-f7d0-4dc8-82be-38669fff14cb","meta":{"profile":["http://hl7.org/fhir/us/qicore/StructureDefinition/qicore-condition-problems-health-concerns"]},"clinicalStatus":{"coding":[{"system":"http://terminology.hl7.org/CodeSystem/condition-clinical","code":"active"}]},"category":[{"coding":[{"system":"http://terminology.hl7.org/CodeSystem/condition-category","code":"problem-list-item","display":"Problem List Item"}]}],"code":{"coding":[{"system":"http://snomed.info/sct","code":"40468003","display":"Viral hepatitis, type A (disorder)"}]},"subject":{"reference":"Patient/a5ca4525-88bc-4b67-b880-ca1cf54daa88"},"onsetDateTime":"2025-01-02T00:00:00.000Z"},"request":{"method":"PUT","url":"Condition/5e02836f-f7d0-4dc8-82be-38669fff14cb"}},{"fullUrl":"https://madie.cms.gov/Condition/72218e72-8743-4561-8f8a-0f22d12cf995","resource":{"resourceType":"Condition","id":"72218e72-8743-4561-8f8a-0f22d12cf995","meta":{"profile":["http://hl7.org/fhir/us/qicore/StructureDefinition/qicore-condition-problems-health-concerns"]},"clinicalStatus":{"coding":[{"system":"http://terminology.hl7.org/CodeSystem/condition-clinical","code":"active"}]},"category":[{"coding":[{"system":"http://terminology.hl7.org/CodeSystem/condition-category","code":"problem-list-item","display":"Problem List Item"}]}],"code":{"coding":[{"system":"http://snomed.info/sct","code":"428331000124103","display":"Anaphylaxis caused by rotavirus vaccine (disorder)"}]},"subject":{"reference":"Patient/a5ca4525-88bc-4b67-b880-ca1cf54daa88"},"onsetDateTime":"2025-01-02T00:00:00.000Z"},"request":{"method":"PUT","url":"Condition/72218e72-8743-4561-8f8a-0f22d12cf995"}},{"fullUrl":"https://madie.cms.gov/Condition/c044252b-b3bf-4c81-8e81-ea34f81121950","resource":{"resourceType":"Condition","id":"c044252b-b3bf-4c81-8e81-ea34f81121950","meta":{"profile":["http://hl7.org/fhir/us/qicore/StructureDefinition/qicore-condition-problems-health-concerns"]},"clinicalStatus":{"coding":[{"system":"http://terminology.hl7.org/CodeSystem/condition-clinical","code":"active"}]},"category":[{"coding":[{"system":"http://terminology.hl7.org/CodeSystem/condition-category","code":"problem-list-item","display":"Problem List Item"}]}],"code":{"coding":[{"system":"http://snomed.info/sct","code":"471361000124100","display":"Anaphylaxis caused by vaccine product containing Influenza virus antigen (disorder)"}]},"subject":{"reference":"Patient/a5ca4525-88bc-4b67-b880-ca1cf54daa88"},"onsetDateTime":"2025-01-02T00:00:00.000Z"},"request":{"method":"PUT","url":"Condition/c044252b-b3bf-4c81-8e81-ea34f81121950"}},{"fullUrl":"https://madie.cms.gov/MeasureReport/160e3192-6b74-451e-a21c-1e619fa9533f","resource":{"resourceType":"MeasureReport","id":"160e3192-6b74-451e-a21c-1e619fa9533f","meta":{"profile":["http://hl7.org/fhir/us/cqfmeasures/StructureDefinition/test-case-cqfm"]},"contained":[{"resourceType":"Parameters","id":"90578bf8-fdd6-4b14-932b-ae11bbe3826e-parameters","parameter":[{"name":"subject","valueString":"a5ca4525-88bc-4b67-b880-ca1cf54daa88"}]}],"extension":[{"url":"http://hl7.org/fhir/StructureDefinition/cqf-inputParameters","valueReference":{"reference":"#90578bf8-fdd6-4b14-932b-ae11bbe3826e-parameters"}},{"url":"http://hl7.org/fhir/us/cqfmeasures/StructureDefinition/cqfm-testCaseDescription","valueMarkdown":"All anaphylaxis or conditions in lieu"}],"modifierExtension":[{"url":"http://hl7.org/fhir/us/cqfmeasures/StructureDefinition/cqfm-isTestCase","valueBoolean":true}],"status":"complete","type":"individual","measure":"https://madie.cms.gov/Measure/ChildhoodImmunizationStatusFHIR","period":{"start":"2026-01-01","end":"2026-12-31"},"group":[{"id":"Group_1","population":[{"id":"InitialPopulation_1","code":{"coding":[{"system":"http://terminology.hl7.org/CodeSystem/measure-population","code":"initial-population","display":"Initial Population"}]},"count":1},{"id":"Denominator_1","code":{"coding":[{"system":"http://terminology.hl7.org/CodeSystem/measure-population","code":"denominator","display":"Denominator"}]},"count":1},{"id":"DenominatorExclusion_1","code":{"coding":[{"system":"http://terminology.hl7.org/CodeSystem/measure-population","code":"denominator-exclusion","display":"Denominator Exclusion"}]},"count":0},{"id":"Numerator_1","code":{"coding":[{"system":"http://terminology.hl7.org/CodeSystem/measure-population","code":"numerator","display":"Numerator"}]},"count":1}],"measureScore":{"value":1.0}}],"evaluatedResource":[{"reference":"Patient/a5ca4525-88bc-4b67-b880-ca1cf54daa88"},{"reference":"Encounter/bd55b35a-6aa5-4013-bb97-caea93c68932"},{"reference":"Condition/c044252b-b3bf-4c81-8e81-ea34f8112195"},{"reference":"Condition/dbc5db6c-0522-4156-a4b8-da22299aa687"},{"reference":"Condition/e05f332f-58bc-4b56-806d-b8b152712d50"},{"reference":"Condition/18edb50d-b1ed-419e-a0de-de5cf5f868a6"},{"reference":"Condition/96202b4d-6272-4711-ab55-6dbdef60db53"},{"reference":"Condition/756b1586-6120-488f-94f3-9c9f6e751da4"},{"reference":"Condition/9526ce85-7913-4434-ba49-809e32e1a45d"},{"reference":"Condition/5e02836f-f7d0-4dc8-82be-38669fff14cb"},{"reference":"Condition/72218e72-8743-4561-8f8a-0f22d12cf995"},{"reference":"Condition/c044252b-b3bf-4c81-8e81-ea34f81121950"}]},"request":{"method":"PUT","url":"MeasureReport/160e3192-6b74-451e-a21c-1e619fa9533f"}},{"fullUrl":"https://madie.cms.gov/MeasureReport/b82b2611-e47f-46c4-bc9e-c2c9b7448749","resource":{"resourceType":"MeasureReport","id":"b82b2611-e47f-46c4-bc9e-c2c9b7448749","meta":{"profile":["http://hl7.org/fhir/us/cqfmeasures/StructureDefinition/test-case-cqfm"]},"contained":[{"resourceType":"Parameters","id":"4ff8a218-a3d4-496f-a460-f45f1099854f-parameters","parameter":[{"name":"subject","valueString":"a5ca4525-88bc-4b67-b880-ca1cf54daa88"}]}],"extension":[{"url":"http://hl7.org/fhir/StructureDefinition/cqf-inputParameters","valueReference":{"reference":"#4ff8a218-a3d4-496f-a460-f45f1099854f-parameters"}},{"url":"http://hl7.org/fhir/us/cqfmeasures/StructureDefinition/cqfm-testCaseDescription","valueMarkdown":"All anaphylaxis or conditions in lieu"}],"modifierExtension":[{"url":"http://hl7.org/fhir/us/cqfmeasures/StructureDefinition/cqfm-isTestCase","valueBoolean":true}],"status":"complete","type":"individual","measure":"https://madie.cms.gov/Measure/CMS117FHIRChildhoodImmunizationStatus","period":{"start":"2026-01-01","end":"2026-12-31"},"group":[{"id":"Group_1","population":[{"id":"InitialPopulation_1","code":{"coding":[{"system":"http://terminology.hl7.org/CodeSystem/measure-population","code":"initial-population","display":"Initial Population"}]},"count":1},{"id":"Denominator_1","code":{"coding":[{"system":"http://terminology.hl7.org/CodeSystem/measure-population","code":"denominator","display":"Denominator"}]},"count":1},{"id":"DenominatorExclusion_1","code":{"coding":[{"system":"http://terminology.hl7.org/CodeSystem/measure-population","code":"denominator-exclusion","display":"Denominator Exclusion"}]},"count":0},{"id":"Numerator_1","code":{"coding":[{"system":"http://terminology.hl7.org/CodeSystem/measure-population","code":"numerator","display":"Numerator"}]},"count":1}],"measureScore":{"value":1.0}}],"evaluatedResource":[{"reference":"Patient/a5ca4525-88bc-4b67-b880-ca1cf54daa88"},{"reference":"Encounter/bd55b35a-6aa5-4013-bb97-caea93c68932"},{"reference":"Condition/c044252b-b3bf-4c81-8e81-ea34f8112195"},{"reference":"Condition/dbc5db6c-0522-4156-a4b8-da22299aa687"},{"reference":"Condition/e05f332f-58bc-4b56-806d-b8b152712d50"},{"reference":"Condition/18edb50d-b1ed-419e-a0de-de5cf5f868a6"},{"reference":"Condition/96202b4d-6272-4711-ab55-6dbdef60db53"},{"reference":"Condition/756b1586-6120-488f-94f3-9c9f6e751da4"},{"reference":"Condition/9526ce85-7913-4434-ba49-809e32e1a45d"},{"reference":"Condition/5e02836f-f7d0-4dc8-82be-38669fff14cb"},{"reference":"Condition/72218e72-8743-4561-8f8a-0f22d12cf995"},{"reference":"Condition/c044252b-b3bf-4c81-8e81-ea34f81121950"},{"reference":"MeasureReport/160e3192-6b74-451e-a21c-1e619fa9533f"}]},"request":{"method":"PUT","url":"MeasureReport/b82b2611-e47f-46c4-bc9e-c2c9b7448749"}}]},"request":{"method":"PUT","url":"Bundle/NUMERPass-AllAnaphylaxisOrConditions"}},{"fullUrl":"Patient/a5ca4525-88bc-4b67-b880-ca1cf54daa88","resource":{"resourceType":"Patient","id":"a5ca4525-88bc-4b67-b880-ca1cf54daa88","meta":{"profile":["http://hl7.org/fhir/us/qicore/StructureDefinition/qicore-patient"]},"extension":[{"url":"http://hl7.org/fhir/us/core/StructureDefinition/us-core-race","extension":[{"url":"ombCategory","valueCoding":{"system":"urn:oid:2.16.840.1.113883.6.238","code":"2028-9","display":"Asian","userSelected":true}},{"url":"text","valueString":"Asian"}]},{"url":"http://hl7.org/fhir/us/core/StructureDefinition/us-core-ethnicity","extension":[{"url":"ombCategory","valueCoding":{"system":"urn:oid:2.16.840.1.113883.6.238","code":"2135-2","display":"Hispanic or Latino","userSelected":true}},{"url":"text","valueString":"Hispanic or Latino"}]}],"identifier":[{"type":{"coding":[{"system":"http://terminology.hl7.org/CodeSystem/v2-0203","code":"MR"}]},"system":"http://hospital.smarthealthit.org","value":"999999995"}],"name":[{"family":"Bertha","given":["Betty"]}],"gender":"female","birthDate":"2024-01-01"},"request":{"method":"PUT","url":"Patient/a5ca4525-88bc-4b67-b880-ca1cf54daa88"}},{"fullUrl":"Condition/96202b4d-6272-4711-ab55-6dbdef60db53","resource":{"resourceType":"Condition","id":"96202b4d-6272-4711-ab55-6dbdef60db53","meta":{"profile":["http://hl7.org/fhir/us/qicore/StructureDefinition/qicore-condition-problems-health-concerns"]},"clinicalStatus":{"coding":[{"system":"http://terminology.hl7.org/CodeSystem/condition-clinical","code":"active"}]},"category":[{"coding":[{"system":"http://terminology.hl7.org/CodeSystem/condition-category","code":"problem-list-item","display":"Problem List Item"}]}],"code":{"coding":[{"system":"http://snomed.info/sct","code":"235864009","display":"Acute hepatitis B with hepatitis D (disorder)"}]},"subject":{"reference":"Patient/a5ca4525-88bc-4b67-b880-ca1cf54daa88"},"onsetDateTime":"2025-01-02T00:00:00.000Z"},"request":{"method":"PUT","url":"Condition/96202b4d-6272-4711-ab55-6dbdef60db53"}},{"fullUrl":"Condition/18edb50d-b1ed-419e-a0de-de5cf5f868a6","resource":{"resourceType":"Condition","id":"18edb50d-b1ed-419e-a0de-de5cf5f868a6","meta":{"profile":["http://hl7.org/fhir/us/qicore/StructureDefinition/qicore-condition-problems-health-concerns"]},"clinicalStatus":{"coding":[{"system":"http://terminology.hl7.org/CodeSystem/condition-clinical","code":"active"}]},"category":[{"coding":[{"system":"http://terminology.hl7.org/CodeSystem/condition-category","code":"problem-list-item","display":"Problem List Item"}]}],"code":{"coding":[{"system":"http://snomed.info/sct","code":"433621000124101","display":"Anaphylaxis due to Haemophilus influenzae type b vaccine (disorder)"}]},"subject":{"reference":"Patient/a5ca4525-88bc-4b67-b880-ca1cf54daa88"},"onsetDateTime":"2025-01-02T00:00:00.000Z"},"request":{"method":"PUT","url":"Condition/18edb50d-b1ed-419e-a0de-de5cf5f868a6"}},{"fullUrl":"Encounter/bd55b35a-6aa5-4013-bb97-caea93c68932","resource":{"resourceType":"Encounter","id":"bd55b35a-6aa5-4013-bb97-caea93c68932","meta":{"profile":["http://hl7.org/fhir/us/qicore/StructureDefinition/qicore-encounter"]},"status":"finished","class":{"system":"http://terminology.hl7.org/CodeSystem/v3-ActCode","code":"AMB","display":"ambulatory"},"type":[{"coding":[{"system":"http://snomed.info/sct","code":"185317003","display":"Telephone encounter (procedure)"}]}],"subject":{"reference":"Patient/a5ca4525-88bc-4b67-b880-ca1cf54daa88"},"period":{"start":"2026-01-01T01:00:00.000Z","end":"2026-01-01T01:15:00.000Z"}},"request":{"method":"PUT","url":"Encounter/bd55b35a-6aa5-4013-bb97-caea93c68932"}}]}