{"resourceType":"Bundle","id":"tests-aeb0266c-a8ec-4262-a4bc-6bc343a85230-bundle","type":"transaction","entry":[{"fullUrl":"ServiceRequest/38354067-8b7d-42b8-b6e6-08bb239bf5c5","resource":{"resourceType":"ServiceRequest","id":"38354067-8b7d-42b8-b6e6-08bb239bf5c5","meta":{"profile":["http://hl7.org/fhir/us/qicore/StructureDefinition/qicore-servicerequest"]},"status":"completed","intent":"order","category":[{"coding":[{"system":"http://snomed.info/sct","code":"387713003","display":"Surgical procedure"}]}],"priority":"routine","code":{"coding":[{"system":"http://snomed.info/sct","code":"385763009","display":"Hospice care (regime/therapy)"}]},"subject":{"reference":"Patient/aeb0266c-a8ec-4262-a4bc-6bc343a85230"},"authoredOn":"2026-01-02T00:00:00.000Z","performerType":{"coding":[{"system":"http://snomed.info/sct","code":"405279007","display":"Attending physician (occupation)"}]}},"request":{"method":"PUT","url":"ServiceRequest/38354067-8b7d-42b8-b6e6-08bb239bf5c5"}},{"fullUrl":"MeasureReport/e744ffc7-d75c-4b8a-9936-009184e28214","resource":{"resourceType":"MeasureReport","id":"e744ffc7-d75c-4b8a-9936-009184e28214","meta":{"profile":["http://hl7.org/fhir/us/cqfmeasures/StructureDefinition/test-case-cqfm"]},"contained":[{"resourceType":"Parameters","id":"5514c4c0-4a24-410d-8a3e-2e0ff2cd2aad-parameters","parameter":[{"name":"subject","valueString":"aeb0266c-a8ec-4262-a4bc-6bc343a85230"}]}],"extension":[{"url":"http://hl7.org/fhir/StructureDefinition/cqf-inputParameters","valueReference":{"reference":"#5514c4c0-4a24-410d-8a3e-2e0ff2cd2aad-parameters"}},{"url":"http://hl7.org/fhir/us/cqfmeasures/StructureDefinition/cqfm-testCaseDescription","valueMarkdown":"Patient has hospice service request during MP"}],"modifierExtension":[{"url":"http://hl7.org/fhir/us/cqfmeasures/StructureDefinition/cqfm-isTestCase","valueBoolean":true}],"status":"complete","type":"individual","measure":"https://madie.cms.gov/Measure/CMS117FHIRChildhoodImmunizationStatus","period":{"start":"2026-01-01","end":"2026-12-31"},"group":[{"id":"Group_1","population":[{"id":"InitialPopulation_1","code":{"coding":[{"system":"http://terminology.hl7.org/CodeSystem/measure-population","code":"initial-population","display":"Initial Population"}]},"count":1},{"id":"Denominator_1","code":{"coding":[{"system":"http://terminology.hl7.org/CodeSystem/measure-population","code":"denominator","display":"Denominator"}]},"count":1},{"id":"DenominatorExclusion_1","code":{"coding":[{"system":"http://terminology.hl7.org/CodeSystem/measure-population","code":"denominator-exclusion","display":"Denominator Exclusion"}]},"count":1},{"id":"Numerator_1","code":{"coding":[{"system":"http://terminology.hl7.org/CodeSystem/measure-population","code":"numerator","display":"Numerator"}]},"count":0}],"measureScore":{"value":1.0}}],"evaluatedResource":[{"reference":"Patient/aeb0266c-a8ec-4262-a4bc-6bc343a85230"},{"reference":"Encounter/52e45878-cbad-4698-86b5-1d621b5fa96f"},{"reference":"ServiceRequest/38354067-8b7d-42b8-b6e6-08bb239bf5c5"},{"reference":"MeasureReport/e29c2982-eca2-49d7-9e48-c6c18f65a922"}]},"request":{"method":"PUT","url":"MeasureReport/e744ffc7-d75c-4b8a-9936-009184e28214"}},{"fullUrl":"Encounter/52e45878-cbad-4698-86b5-1d621b5fa96f","resource":{"resourceType":"Encounter","id":"52e45878-cbad-4698-86b5-1d621b5fa96f","meta":{"profile":["http://hl7.org/fhir/us/qicore/StructureDefinition/qicore-encounter"]},"status":"finished","class":{"system":"http://terminology.hl7.org/CodeSystem/v3-ActCode","code":"AMB","display":"ambulatory"},"type":[{"coding":[{"system":"http://snomed.info/sct","code":"185317003","display":"Telephone encounter (procedure)"}]}],"subject":{"reference":"Patient/aeb0266c-a8ec-4262-a4bc-6bc343a85230"},"period":{"start":"2026-01-01T01:00:00.000Z","end":"2026-01-01T01:15:00.000Z"}},"request":{"method":"PUT","url":"Encounter/52e45878-cbad-4698-86b5-1d621b5fa96f"}},{"fullUrl":"Bundle/DENEXPass-HospiceServiceRequestDuringMP","resource":{"resourceType":"Bundle","id":"DENEXPass-HospiceServiceRequestDuringMP","type":"transaction","entry":[{"fullUrl":"https://madie.cms.gov/Patient/aeb0266c-a8ec-4262-a4bc-6bc343a85230","resource":{"resourceType":"Patient","id":"aeb0266c-a8ec-4262-a4bc-6bc343a85230","meta":{"profile":["http://hl7.org/fhir/us/qicore/StructureDefinition/qicore-patient"]},"extension":[{"url":"http://hl7.org/fhir/us/core/StructureDefinition/us-core-race","extension":[{"url":"ombCategory","valueCoding":{"system":"urn:oid:2.16.840.1.113883.6.238","code":"2028-9","display":"Asian","userSelected":true}},{"url":"text","valueString":"Asian"}]},{"url":"http://hl7.org/fhir/us/core/StructureDefinition/us-core-ethnicity","extension":[{"url":"ombCategory","valueCoding":{"system":"urn:oid:2.16.840.1.113883.6.238","code":"2135-2","display":"Hispanic or Latino","userSelected":true}},{"url":"text","valueString":"Hispanic or Latino"}]}],"identifier":[{"type":{"coding":[{"system":"http://terminology.hl7.org/CodeSystem/v2-0203","code":"MR"}]},"system":"http://hospital.smarthealthit.org","value":"999999995"}],"name":[{"family":"Bertha","given":["Betty"]}],"gender":"female","birthDate":"2024-01-01"},"request":{"method":"PUT","url":"Patient/aeb0266c-a8ec-4262-a4bc-6bc343a85230"}},{"fullUrl":"https://madie.cms.gov/Encounter/52e45878-cbad-4698-86b5-1d621b5fa96f","resource":{"resourceType":"Encounter","id":"52e45878-cbad-4698-86b5-1d621b5fa96f","meta":{"profile":["http://hl7.org/fhir/us/qicore/StructureDefinition/qicore-encounter"]},"status":"finished","class":{"system":"http://terminology.hl7.org/CodeSystem/v3-ActCode","code":"AMB","display":"ambulatory"},"type":[{"coding":[{"system":"http://snomed.info/sct","code":"185317003","display":"Telephone encounter (procedure)"}]}],"subject":{"reference":"Patient/aeb0266c-a8ec-4262-a4bc-6bc343a85230"},"period":{"start":"2026-01-01T01:00:00.000Z","end":"2026-01-01T01:15:00.000Z"}},"request":{"method":"PUT","url":"Encounter/52e45878-cbad-4698-86b5-1d621b5fa96f"}},{"fullUrl":"https://madie.cms.gov/ServiceRequest/38354067-8b7d-42b8-b6e6-08bb239bf5c5","resource":{"resourceType":"ServiceRequest","id":"38354067-8b7d-42b8-b6e6-08bb239bf5c5","meta":{"profile":["http://hl7.org/fhir/us/qicore/StructureDefinition/qicore-servicerequest"]},"status":"completed","intent":"order","category":[{"coding":[{"system":"http://snomed.info/sct","code":"387713003","display":"Surgical procedure"}]}],"priority":"routine","code":{"coding":[{"system":"http://snomed.info/sct","code":"385763009","display":"Hospice care (regime/therapy)"}]},"subject":{"reference":"Patient/aeb0266c-a8ec-4262-a4bc-6bc343a85230"},"authoredOn":"2026-01-02T00:00:00.000Z","performerType":{"coding":[{"system":"http://snomed.info/sct","code":"405279007","display":"Attending physician (occupation)"}]}},"request":{"method":"PUT","url":"ServiceRequest/38354067-8b7d-42b8-b6e6-08bb239bf5c5"}},{"fullUrl":"https://madie.cms.gov/MeasureReport/e29c2982-eca2-49d7-9e48-c6c18f65a922","resource":{"resourceType":"MeasureReport","id":"e29c2982-eca2-49d7-9e48-c6c18f65a922","meta":{"profile":["http://hl7.org/fhir/us/cqfmeasures/StructureDefinition/test-case-cqfm"]},"contained":[{"resourceType":"Parameters","id":"f8437e94-c77f-451a-a927-10d518199b30-parameters","parameter":[{"name":"subject","valueString":"aeb0266c-a8ec-4262-a4bc-6bc343a85230"}]}],"extension":[{"url":"http://hl7.org/fhir/StructureDefinition/cqf-inputParameters","valueReference":{"reference":"#f8437e94-c77f-451a-a927-10d518199b30-parameters"}},{"url":"http://hl7.org/fhir/us/cqfmeasures/StructureDefinition/cqfm-testCaseDescription","valueMarkdown":"Patient has hospice service request during MP"}],"modifierExtension":[{"url":"http://hl7.org/fhir/us/cqfmeasures/StructureDefinition/cqfm-isTestCase","valueBoolean":true}],"status":"complete","type":"individual","measure":"https://madie.cms.gov/Measure/ChildhoodImmunizationStatusFHIR","period":{"start":"2026-01-01","end":"2026-12-31"},"group":[{"id":"Group_1","population":[{"id":"InitialPopulation_1","code":{"coding":[{"system":"http://terminology.hl7.org/CodeSystem/measure-population","code":"initial-population","display":"Initial Population"}]},"count":1},{"id":"Denominator_1","code":{"coding":[{"system":"http://terminology.hl7.org/CodeSystem/measure-population","code":"denominator","display":"Denominator"}]},"count":1},{"id":"DenominatorExclusion_1","code":{"coding":[{"system":"http://terminology.hl7.org/CodeSystem/measure-population","code":"denominator-exclusion","display":"Denominator Exclusion"}]},"count":1},{"id":"Numerator_1","code":{"coding":[{"system":"http://terminology.hl7.org/CodeSystem/measure-population","code":"numerator","display":"Numerator"}]},"count":0}],"measureScore":{"value":1.0}}],"evaluatedResource":[{"reference":"Patient/aeb0266c-a8ec-4262-a4bc-6bc343a85230"},{"reference":"Encounter/52e45878-cbad-4698-86b5-1d621b5fa96f"},{"reference":"ServiceRequest/38354067-8b7d-42b8-b6e6-08bb239bf5c5"}]},"request":{"method":"PUT","url":"MeasureReport/e29c2982-eca2-49d7-9e48-c6c18f65a922"}},{"fullUrl":"https://madie.cms.gov/MeasureReport/e744ffc7-d75c-4b8a-9936-009184e28214","resource":{"resourceType":"MeasureReport","id":"e744ffc7-d75c-4b8a-9936-009184e28214","meta":{"profile":["http://hl7.org/fhir/us/cqfmeasures/StructureDefinition/test-case-cqfm"]},"contained":[{"resourceType":"Parameters","id":"5514c4c0-4a24-410d-8a3e-2e0ff2cd2aad-parameters","parameter":[{"name":"subject","valueString":"aeb0266c-a8ec-4262-a4bc-6bc343a85230"}]}],"extension":[{"url":"http://hl7.org/fhir/StructureDefinition/cqf-inputParameters","valueReference":{"reference":"#5514c4c0-4a24-410d-8a3e-2e0ff2cd2aad-parameters"}},{"url":"http://hl7.org/fhir/us/cqfmeasures/StructureDefinition/cqfm-testCaseDescription","valueMarkdown":"Patient has hospice service request during MP"}],"modifierExtension":[{"url":"http://hl7.org/fhir/us/cqfmeasures/StructureDefinition/cqfm-isTestCase","valueBoolean":true}],"status":"complete","type":"individual","measure":"https://madie.cms.gov/Measure/CMS117FHIRChildhoodImmunizationStatus","period":{"start":"2026-01-01","end":"2026-12-31"},"group":[{"id":"Group_1","population":[{"id":"InitialPopulation_1","code":{"coding":[{"system":"http://terminology.hl7.org/CodeSystem/measure-population","code":"initial-population","display":"Initial Population"}]},"count":1},{"id":"Denominator_1","code":{"coding":[{"system":"http://terminology.hl7.org/CodeSystem/measure-population","code":"denominator","display":"Denominator"}]},"count":1},{"id":"DenominatorExclusion_1","code":{"coding":[{"system":"http://terminology.hl7.org/CodeSystem/measure-population","code":"denominator-exclusion","display":"Denominator Exclusion"}]},"count":1},{"id":"Numerator_1","code":{"coding":[{"system":"http://terminology.hl7.org/CodeSystem/measure-population","code":"numerator","display":"Numerator"}]},"count":0}],"measureScore":{"value":1.0}}],"evaluatedResource":[{"reference":"Patient/aeb0266c-a8ec-4262-a4bc-6bc343a85230"},{"reference":"Encounter/52e45878-cbad-4698-86b5-1d621b5fa96f"},{"reference":"ServiceRequest/38354067-8b7d-42b8-b6e6-08bb239bf5c5"},{"reference":"MeasureReport/e29c2982-eca2-49d7-9e48-c6c18f65a922"}]},"request":{"method":"PUT","url":"MeasureReport/e744ffc7-d75c-4b8a-9936-009184e28214"}}]},"request":{"method":"PUT","url":"Bundle/DENEXPass-HospiceServiceRequestDuringMP"}},{"fullUrl":"MeasureReport/e29c2982-eca2-49d7-9e48-c6c18f65a922","resource":{"resourceType":"MeasureReport","id":"e29c2982-eca2-49d7-9e48-c6c18f65a922","meta":{"profile":["http://hl7.org/fhir/us/cqfmeasures/StructureDefinition/test-case-cqfm"]},"contained":[{"resourceType":"Parameters","id":"f8437e94-c77f-451a-a927-10d518199b30-parameters","parameter":[{"name":"subject","valueString":"aeb0266c-a8ec-4262-a4bc-6bc343a85230"}]}],"extension":[{"url":"http://hl7.org/fhir/StructureDefinition/cqf-inputParameters","valueReference":{"reference":"#f8437e94-c77f-451a-a927-10d518199b30-parameters"}},{"url":"http://hl7.org/fhir/us/cqfmeasures/StructureDefinition/cqfm-testCaseDescription","valueMarkdown":"Patient has hospice service request during MP"}],"modifierExtension":[{"url":"http://hl7.org/fhir/us/cqfmeasures/StructureDefinition/cqfm-isTestCase","valueBoolean":true}],"status":"complete","type":"individual","measure":"https://madie.cms.gov/Measure/ChildhoodImmunizationStatusFHIR","period":{"start":"2026-01-01","end":"2026-12-31"},"group":[{"id":"Group_1","population":[{"id":"InitialPopulation_1","code":{"coding":[{"system":"http://terminology.hl7.org/CodeSystem/measure-population","code":"initial-population","display":"Initial Population"}]},"count":1},{"id":"Denominator_1","code":{"coding":[{"system":"http://terminology.hl7.org/CodeSystem/measure-population","code":"denominator","display":"Denominator"}]},"count":1},{"id":"DenominatorExclusion_1","code":{"coding":[{"system":"http://terminology.hl7.org/CodeSystem/measure-population","code":"denominator-exclusion","display":"Denominator Exclusion"}]},"count":1},{"id":"Numerator_1","code":{"coding":[{"system":"http://terminology.hl7.org/CodeSystem/measure-population","code":"numerator","display":"Numerator"}]},"count":0}],"measureScore":{"value":1.0}}],"evaluatedResource":[{"reference":"Patient/aeb0266c-a8ec-4262-a4bc-6bc343a85230"},{"reference":"Encounter/52e45878-cbad-4698-86b5-1d621b5fa96f"},{"reference":"ServiceRequest/38354067-8b7d-42b8-b6e6-08bb239bf5c5"}]},"request":{"method":"PUT","url":"MeasureReport/e29c2982-eca2-49d7-9e48-c6c18f65a922"}},{"fullUrl":"Patient/aeb0266c-a8ec-4262-a4bc-6bc343a85230","resource":{"resourceType":"Patient","id":"aeb0266c-a8ec-4262-a4bc-6bc343a85230","meta":{"profile":["http://hl7.org/fhir/us/qicore/StructureDefinition/qicore-patient"]},"extension":[{"url":"http://hl7.org/fhir/us/core/StructureDefinition/us-core-race","extension":[{"url":"ombCategory","valueCoding":{"system":"urn:oid:2.16.840.1.113883.6.238","code":"2028-9","display":"Asian","userSelected":true}},{"url":"text","valueString":"Asian"}]},{"url":"http://hl7.org/fhir/us/core/StructureDefinition/us-core-ethnicity","extension":[{"url":"ombCategory","valueCoding":{"system":"urn:oid:2.16.840.1.113883.6.238","code":"2135-2","display":"Hispanic or Latino","userSelected":true}},{"url":"text","valueString":"Hispanic or Latino"}]}],"identifier":[{"type":{"coding":[{"system":"http://terminology.hl7.org/CodeSystem/v2-0203","code":"MR"}]},"system":"http://hospital.smarthealthit.org","value":"999999995"}],"name":[{"family":"Bertha","given":["Betty"]}],"gender":"female","birthDate":"2024-01-01"},"request":{"method":"PUT","url":"Patient/aeb0266c-a8ec-4262-a4bc-6bc343a85230"}}]}