{"resourceType":"Bundle","id":"tests-dd1e534c-aa60-4ff3-a955-109f034b408f-bundle","type":"transaction","entry":[{"fullUrl":"Encounter/60a49a9c-0325-4cc0-ab21-ab678677ea94","resource":{"resourceType":"Encounter","id":"60a49a9c-0325-4cc0-ab21-ab678677ea94","meta":{"profile":["http://hl7.org/fhir/us/qicore/StructureDefinition/qicore-encounter"]},"status":"finished","class":{"system":"http://terminology.hl7.org/CodeSystem/v3-ActCode","code":"AMB","display":"ambulatory"},"type":[{"coding":[{"system":"http://snomed.info/sct","code":"185317003","display":"Telephone encounter (procedure)"}]}],"subject":{"reference":"Patient/dd1e534c-aa60-4ff3-a955-109f034b408f"},"period":{"start":"2026-01-01T01:00:00.000Z","end":"2026-01-01T01:15:00.000Z"}},"request":{"method":"PUT","url":"Encounter/60a49a9c-0325-4cc0-ab21-ab678677ea94"}},{"fullUrl":"MeasureReport/8b6ab576-a6ff-4d6f-ba58-447e32e8d3aa","resource":{"resourceType":"MeasureReport","id":"8b6ab576-a6ff-4d6f-ba58-447e32e8d3aa","meta":{"profile":["http://hl7.org/fhir/us/cqfmeasures/StructureDefinition/test-case-cqfm"]},"contained":[{"resourceType":"Parameters","id":"b5977750-405f-4a58-bddc-15155429641e-parameters","parameter":[{"name":"subject","valueString":"dd1e534c-aa60-4ff3-a955-109f034b408f"}]}],"extension":[{"url":"http://hl7.org/fhir/StructureDefinition/cqf-inputParameters","valueReference":{"reference":"#b5977750-405f-4a58-bddc-15155429641e-parameters"}},{"url":"http://hl7.org/fhir/us/cqfmeasures/StructureDefinition/cqfm-testCaseDescription","valueMarkdown":"Patient has hospice diagnosis overlaps MP"}],"modifierExtension":[{"url":"http://hl7.org/fhir/us/cqfmeasures/StructureDefinition/cqfm-isTestCase","valueBoolean":true}],"status":"complete","type":"individual","measure":"https://madie.cms.gov/Measure/ChildhoodImmunizationStatusFHIR","period":{"start":"2026-01-01","end":"2026-12-31"},"group":[{"id":"Group_1","population":[{"id":"InitialPopulation_1","code":{"coding":[{"system":"http://terminology.hl7.org/CodeSystem/measure-population","code":"initial-population","display":"Initial Population"}]},"count":1},{"id":"Denominator_1","code":{"coding":[{"system":"http://terminology.hl7.org/CodeSystem/measure-population","code":"denominator","display":"Denominator"}]},"count":1},{"id":"DenominatorExclusion_1","code":{"coding":[{"system":"http://terminology.hl7.org/CodeSystem/measure-population","code":"denominator-exclusion","display":"Denominator Exclusion"}]},"count":1},{"id":"Numerator_1","code":{"coding":[{"system":"http://terminology.hl7.org/CodeSystem/measure-population","code":"numerator","display":"Numerator"}]},"count":0}],"measureScore":{"value":1.0}}],"evaluatedResource":[{"reference":"Patient/dd1e534c-aa60-4ff3-a955-109f034b408f"},{"reference":"Encounter/60a49a9c-0325-4cc0-ab21-ab678677ea94"},{"reference":"Condition/9cfd07d3-fae9-499f-9b18-b2c1a874d32e"}]},"request":{"method":"PUT","url":"MeasureReport/8b6ab576-a6ff-4d6f-ba58-447e32e8d3aa"}},{"fullUrl":"Bundle/DENEXPass-HospiceDiagnosisOverlapsMP","resource":{"resourceType":"Bundle","id":"DENEXPass-HospiceDiagnosisOverlapsMP","type":"transaction","entry":[{"fullUrl":"https://madie.cms.gov/Patient/dd1e534c-aa60-4ff3-a955-109f034b408f","resource":{"resourceType":"Patient","id":"dd1e534c-aa60-4ff3-a955-109f034b408f","meta":{"profile":["http://hl7.org/fhir/us/qicore/StructureDefinition/qicore-patient"]},"extension":[{"url":"http://hl7.org/fhir/us/core/StructureDefinition/us-core-race","extension":[{"url":"ombCategory","valueCoding":{"system":"urn:oid:2.16.840.1.113883.6.238","code":"2028-9","display":"Asian"}},{"url":"text","valueString":"Asian"}]},{"url":"http://hl7.org/fhir/us/core/StructureDefinition/us-core-ethnicity","extension":[{"url":"ombCategory","valueCoding":{"system":"urn:oid:2.16.840.1.113883.6.238","code":"2135-2","display":"Hispanic or Latino"}},{"url":"text","valueString":"Hispanic or Latino"}]}],"identifier":[{"system":"http://hospital.smarthealthit.org","value":"999999995"}],"name":[{"family":"Bertha","given":["Betty"]}],"gender":"female","birthDate":"2024-01-01"},"request":{"method":"PUT","url":"Patient/dd1e534c-aa60-4ff3-a955-109f034b408f"}},{"fullUrl":"https://madie.cms.gov/Encounter/60a49a9c-0325-4cc0-ab21-ab678677ea94","resource":{"resourceType":"Encounter","id":"60a49a9c-0325-4cc0-ab21-ab678677ea94","meta":{"profile":["http://hl7.org/fhir/us/qicore/StructureDefinition/qicore-encounter"]},"status":"finished","class":{"system":"http://terminology.hl7.org/CodeSystem/v3-ActCode","code":"AMB","display":"ambulatory"},"type":[{"coding":[{"system":"http://snomed.info/sct","code":"185317003","display":"Telephone encounter (procedure)"}]}],"subject":{"reference":"Patient/dd1e534c-aa60-4ff3-a955-109f034b408f"},"period":{"start":"2026-01-01T01:00:00.000Z","end":"2026-01-01T01:15:00.000Z"}},"request":{"method":"PUT","url":"Encounter/60a49a9c-0325-4cc0-ab21-ab678677ea94"}},{"fullUrl":"https://madie.cms.gov/Condition/9cfd07d3-fae9-499f-9b18-b2c1a874d32e","resource":{"resourceType":"Condition","id":"9cfd07d3-fae9-499f-9b18-b2c1a874d32e","meta":{"profile":["http://hl7.org/fhir/us/qicore/StructureDefinition/qicore-condition-problems-health-concerns"]},"clinicalStatus":{"coding":[{"system":"http://terminology.hl7.org/CodeSystem/condition-clinical","code":"active"}]},"category":[{"coding":[{"system":"http://terminology.hl7.org/CodeSystem/condition-category","code":"problem-list-item","display":"Problem List Item"}]}],"code":{"coding":[{"system":"http://snomed.info/sct","code":"170935008","display":"Full care by hospice (finding)"}]},"subject":{"reference":"Patient/dd1e534c-aa60-4ff3-a955-109f034b408f"},"onsetDateTime":"2026-12-31T23:59:59.000Z"},"request":{"method":"PUT","url":"Condition/9cfd07d3-fae9-499f-9b18-b2c1a874d32e"}},{"fullUrl":"https://madie.cms.gov/MeasureReport/8b6ab576-a6ff-4d6f-ba58-447e32e8d3aa","resource":{"resourceType":"MeasureReport","id":"8b6ab576-a6ff-4d6f-ba58-447e32e8d3aa","meta":{"profile":["http://hl7.org/fhir/us/cqfmeasures/StructureDefinition/test-case-cqfm"]},"contained":[{"resourceType":"Parameters","id":"b5977750-405f-4a58-bddc-15155429641e-parameters","parameter":[{"name":"subject","valueString":"dd1e534c-aa60-4ff3-a955-109f034b408f"}]}],"extension":[{"url":"http://hl7.org/fhir/StructureDefinition/cqf-inputParameters","valueReference":{"reference":"#b5977750-405f-4a58-bddc-15155429641e-parameters"}},{"url":"http://hl7.org/fhir/us/cqfmeasures/StructureDefinition/cqfm-testCaseDescription","valueMarkdown":"Patient has hospice diagnosis overlaps MP"}],"modifierExtension":[{"url":"http://hl7.org/fhir/us/cqfmeasures/StructureDefinition/cqfm-isTestCase","valueBoolean":true}],"status":"complete","type":"individual","measure":"https://madie.cms.gov/Measure/ChildhoodImmunizationStatusFHIR","period":{"start":"2026-01-01","end":"2026-12-31"},"group":[{"id":"Group_1","population":[{"id":"InitialPopulation_1","code":{"coding":[{"system":"http://terminology.hl7.org/CodeSystem/measure-population","code":"initial-population","display":"Initial Population"}]},"count":1},{"id":"Denominator_1","code":{"coding":[{"system":"http://terminology.hl7.org/CodeSystem/measure-population","code":"denominator","display":"Denominator"}]},"count":1},{"id":"DenominatorExclusion_1","code":{"coding":[{"system":"http://terminology.hl7.org/CodeSystem/measure-population","code":"denominator-exclusion","display":"Denominator Exclusion"}]},"count":1},{"id":"Numerator_1","code":{"coding":[{"system":"http://terminology.hl7.org/CodeSystem/measure-population","code":"numerator","display":"Numerator"}]},"count":0}],"measureScore":{"value":1.0}}],"evaluatedResource":[{"reference":"Patient/dd1e534c-aa60-4ff3-a955-109f034b408f"},{"reference":"Encounter/60a49a9c-0325-4cc0-ab21-ab678677ea94"},{"reference":"Condition/9cfd07d3-fae9-499f-9b18-b2c1a874d32e"}]},"request":{"method":"PUT","url":"MeasureReport/8b6ab576-a6ff-4d6f-ba58-447e32e8d3aa"}},{"fullUrl":"https://madie.cms.gov/MeasureReport/7ae09d58-c489-4706-8c4c-4bbd427f6351","resource":{"resourceType":"MeasureReport","id":"7ae09d58-c489-4706-8c4c-4bbd427f6351","meta":{"profile":["http://hl7.org/fhir/us/cqfmeasures/StructureDefinition/test-case-cqfm"]},"contained":[{"resourceType":"Parameters","id":"82dc0326-a187-44d5-b1f0-b9476734e86b-parameters","parameter":[{"name":"subject","valueString":"dd1e534c-aa60-4ff3-a955-109f034b408f"}]}],"extension":[{"url":"http://hl7.org/fhir/StructureDefinition/cqf-inputParameters","valueReference":{"reference":"#82dc0326-a187-44d5-b1f0-b9476734e86b-parameters"}},{"url":"http://hl7.org/fhir/us/cqfmeasures/StructureDefinition/cqfm-testCaseDescription","valueMarkdown":"Patient has hospice diagnosis overlaps MP"}],"modifierExtension":[{"url":"http://hl7.org/fhir/us/cqfmeasures/StructureDefinition/cqfm-isTestCase","valueBoolean":true}],"status":"complete","type":"individual","measure":"https://madie.cms.gov/Measure/CMS117FHIRChildhoodImmunizationStatus","period":{"start":"2026-01-01","end":"2026-12-31"},"group":[{"id":"Group_1","population":[{"id":"InitialPopulation_1","code":{"coding":[{"system":"http://terminology.hl7.org/CodeSystem/measure-population","code":"initial-population","display":"Initial Population"}]},"count":1},{"id":"Denominator_1","code":{"coding":[{"system":"http://terminology.hl7.org/CodeSystem/measure-population","code":"denominator","display":"Denominator"}]},"count":1},{"id":"DenominatorExclusion_1","code":{"coding":[{"system":"http://terminology.hl7.org/CodeSystem/measure-population","code":"denominator-exclusion","display":"Denominator Exclusion"}]},"count":1},{"id":"Numerator_1","code":{"coding":[{"system":"http://terminology.hl7.org/CodeSystem/measure-population","code":"numerator","display":"Numerator"}]},"count":0}],"measureScore":{"value":1.0}}],"evaluatedResource":[{"reference":"Patient/dd1e534c-aa60-4ff3-a955-109f034b408f"},{"reference":"Encounter/60a49a9c-0325-4cc0-ab21-ab678677ea94"},{"reference":"Condition/9cfd07d3-fae9-499f-9b18-b2c1a874d32e"},{"reference":"MeasureReport/8b6ab576-a6ff-4d6f-ba58-447e32e8d3aa"}]},"request":{"method":"PUT","url":"MeasureReport/7ae09d58-c489-4706-8c4c-4bbd427f6351"}}]},"request":{"method":"PUT","url":"Bundle/DENEXPass-HospiceDiagnosisOverlapsMP"}},{"fullUrl":"Condition/9cfd07d3-fae9-499f-9b18-b2c1a874d32e","resource":{"resourceType":"Condition","id":"9cfd07d3-fae9-499f-9b18-b2c1a874d32e","meta":{"profile":["http://hl7.org/fhir/us/qicore/StructureDefinition/qicore-condition-problems-health-concerns"]},"clinicalStatus":{"coding":[{"system":"http://terminology.hl7.org/CodeSystem/condition-clinical","code":"active"}]},"category":[{"coding":[{"system":"http://terminology.hl7.org/CodeSystem/condition-category","code":"problem-list-item","display":"Problem List Item"}]}],"code":{"coding":[{"system":"http://snomed.info/sct","code":"170935008","display":"Full care by hospice (finding)"}]},"subject":{"reference":"Patient/dd1e534c-aa60-4ff3-a955-109f034b408f"},"onsetDateTime":"2026-12-31T23:59:59.000Z"},"request":{"method":"PUT","url":"Condition/9cfd07d3-fae9-499f-9b18-b2c1a874d32e"}},{"fullUrl":"Patient/dd1e534c-aa60-4ff3-a955-109f034b408f","resource":{"resourceType":"Patient","id":"dd1e534c-aa60-4ff3-a955-109f034b408f","meta":{"profile":["http://hl7.org/fhir/us/qicore/StructureDefinition/qicore-patient"]},"extension":[{"url":"http://hl7.org/fhir/us/core/StructureDefinition/us-core-race","extension":[{"url":"ombCategory","valueCoding":{"system":"urn:oid:2.16.840.1.113883.6.238","code":"2028-9","display":"Asian"}},{"url":"text","valueString":"Asian"}]},{"url":"http://hl7.org/fhir/us/core/StructureDefinition/us-core-ethnicity","extension":[{"url":"ombCategory","valueCoding":{"system":"urn:oid:2.16.840.1.113883.6.238","code":"2135-2","display":"Hispanic or Latino"}},{"url":"text","valueString":"Hispanic or Latino"}]}],"identifier":[{"system":"http://hospital.smarthealthit.org","value":"999999995"}],"name":[{"family":"Bertha","given":["Betty"]}],"gender":"female","birthDate":"2024-01-01"},"request":{"method":"PUT","url":"Patient/dd1e534c-aa60-4ff3-a955-109f034b408f"}},{"fullUrl":"MeasureReport/7ae09d58-c489-4706-8c4c-4bbd427f6351","resource":{"resourceType":"MeasureReport","id":"7ae09d58-c489-4706-8c4c-4bbd427f6351","meta":{"profile":["http://hl7.org/fhir/us/cqfmeasures/StructureDefinition/test-case-cqfm"]},"contained":[{"resourceType":"Parameters","id":"82dc0326-a187-44d5-b1f0-b9476734e86b-parameters","parameter":[{"name":"subject","valueString":"dd1e534c-aa60-4ff3-a955-109f034b408f"}]}],"extension":[{"url":"http://hl7.org/fhir/StructureDefinition/cqf-inputParameters","valueReference":{"reference":"#82dc0326-a187-44d5-b1f0-b9476734e86b-parameters"}},{"url":"http://hl7.org/fhir/us/cqfmeasures/StructureDefinition/cqfm-testCaseDescription","valueMarkdown":"Patient has hospice diagnosis overlaps MP"}],"modifierExtension":[{"url":"http://hl7.org/fhir/us/cqfmeasures/StructureDefinition/cqfm-isTestCase","valueBoolean":true}],"status":"complete","type":"individual","measure":"https://madie.cms.gov/Measure/CMS117FHIRChildhoodImmunizationStatus","period":{"start":"2026-01-01","end":"2026-12-31"},"group":[{"id":"Group_1","population":[{"id":"InitialPopulation_1","code":{"coding":[{"system":"http://terminology.hl7.org/CodeSystem/measure-population","code":"initial-population","display":"Initial Population"}]},"count":1},{"id":"Denominator_1","code":{"coding":[{"system":"http://terminology.hl7.org/CodeSystem/measure-population","code":"denominator","display":"Denominator"}]},"count":1},{"id":"DenominatorExclusion_1","code":{"coding":[{"system":"http://terminology.hl7.org/CodeSystem/measure-population","code":"denominator-exclusion","display":"Denominator Exclusion"}]},"count":1},{"id":"Numerator_1","code":{"coding":[{"system":"http://terminology.hl7.org/CodeSystem/measure-population","code":"numerator","display":"Numerator"}]},"count":0}],"measureScore":{"value":1.0}}],"evaluatedResource":[{"reference":"Patient/dd1e534c-aa60-4ff3-a955-109f034b408f"},{"reference":"Encounter/60a49a9c-0325-4cc0-ab21-ab678677ea94"},{"reference":"Condition/9cfd07d3-fae9-499f-9b18-b2c1a874d32e"},{"reference":"MeasureReport/8b6ab576-a6ff-4d6f-ba58-447e32e8d3aa"}]},"request":{"method":"PUT","url":"MeasureReport/7ae09d58-c489-4706-8c4c-4bbd427f6351"}}]}