{
  "resourceType": "Bundle",
  "id": "61095b0998086b53805591a5",
  "type": "transaction",
  "entry": [ {
    "fullUrl": "https://madie.cms.gov/Patient/7895aa7a-497f-45aa-bd57-4189cb14f222",
    "resource": {
      "resourceType": "Patient",
      "id": "7895aa7a-497f-45aa-bd57-4189cb14f222",
      "meta": {
        "profile": [ "http://hl7.org/fhir/us/qicore/StructureDefinition/qicore-patient" ]
      },
      "text": {
        "status": "generated",
        "div": "<div xmlns=\"http://www.w3.org/1999/xhtml\"><div class=\"hapiHeaderText\">Age@18 <b>DENOMPASS </b></div><table class=\"hapiPropertyTable\"><tbody><tr><td>Identifier</td><td>67f3e33acf17bcb386e754d726ed064ccd48ba21ff0ffb2eb678740a684398be</td></tr><tr><td>Date of birth</td><td><span>01 January 1994</span></td></tr></tbody></table></div>"
      },
      "extension": [ {
        "url": "http://hl7.org/fhir/us/core/StructureDefinition/us-core-race",
        "extension": [ {
          "url": "ombCategory",
          "valueCoding": {
            "system": "urn:oid:2.16.840.1.113883.6.238",
            "code": "1002-5",
            "display": "American Indian or Alaska Native",
            "userSelected": true
          }
        }, {
          "url": "text",
          "valueString": "American Indian or Alaska Native"
        } ]
      }, {
        "url": "http://hl7.org/fhir/us/core/StructureDefinition/us-core-ethnicity",
        "extension": [ {
          "url": "ombCategory",
          "valueCoding": {
            "system": "urn:oid:2.16.840.1.113883.6.238",
            "code": "2135-2",
            "display": "Hispanic or Latino",
            "userSelected": true
          }
        }, {
          "url": "text",
          "valueString": "Hispanic or Latino"
        } ]
      } ],
      "identifier": [ {
        "type": {
          "coding": [ {
            "system": "http://terminology.hl7.org/CodeSystem/v2-0203",
            "code": "MR"
          } ]
        },
        "system": "https://bonnie-fhir.healthit.gov/",
        "value": "61095b0998086b53805591a5"
      } ],
      "active": true,
      "name": [ {
        "use": "usual",
        "family": "DENEXPASS",
        "given": [ "RetinalDetachmentWithCatSurg" ]
      } ],
      "gender": "female",
      "birthDate": "1996-01-01"
    },
    "request": {
      "method": "PUT",
      "url": "Patient/7895aa7a-497f-45aa-bd57-4189cb14f222"
    }
  }, {
    "fullUrl": "https://madie.cms.gov/Observation/7477dcaf-28f8-4a3b-8cb1-afee00fc668b",
    "resource": {
      "resourceType": "Observation",
      "id": "7477dcaf-28f8-4a3b-8cb1-afee00fc668b",
      "meta": {
        "profile": [ "http://hl7.org/fhir/us/qicore/StructureDefinition/qicore-observation-clinical-result" ]
      },
      "status": "final",
      "category": [ {
        "coding": [ {
          "system": "http://terminology.hl7.org/CodeSystem/observation-category",
          "code": "exam",
          "display": "exam"
        } ]
      } ],
      "code": {
        "coding": [ {
          "system": "http://snomed.info/sct",
          "code": "419775003"
        } ]
      },
      "subject": {
        "reference": "Patient/7895aa7a-497f-45aa-bd57-4189cb14f222"
      },
      "effectivePeriod": {
        "start": "2026-03-13T09:00:00+00:00",
        "end": "2026-03-13T09:30:00+00:00"
      }
    },
    "request": {
      "method": "PUT",
      "url": "Observation/7477dcaf-28f8-4a3b-8cb1-afee00fc668b"
    }
  }, {
    "fullUrl": "https://madie.cms.gov/Procedure/f6bbbbab-3f04-4ae1-9191-52ff5fa68800",
    "resource": {
      "resourceType": "Procedure",
      "id": "f6bbbbab-3f04-4ae1-9191-52ff5fa68800",
      "meta": {
        "profile": [ "http://hl7.org/fhir/us/qicore/StructureDefinition/qicore-procedure" ]
      },
      "extension": [ {
        "url": "http://hl7.org/fhir/us/qicore/StructureDefinition/qicore-recorded",
        "valueDateTime": "2026-03-05T09:35:00-04:00"
      } ],
      "status": "completed",
      "code": {
        "coding": [ {
          "system": "http://snomed.info/sct",
          "code": "84149000"
        } ]
      },
      "subject": {
        "reference": "Patient/7895aa7a-497f-45aa-bd57-4189cb14f222"
      },
      "performedPeriod": {
        "start": "2026-03-05T09:20:00-04:00",
        "end": "2026-04-05T10:30:00-04:00"
      }
    },
    "request": {
      "method": "PUT",
      "url": "Procedure/f6bbbbab-3f04-4ae1-9191-52ff5fa68800"
    }
  }, {
    "fullUrl": "https://madie.cms.gov/Condition/5d26a387-db17-46df-80d7-30e71827bdbd",
    "resource": {
      "resourceType": "Condition",
      "id": "5d26a387-db17-46df-80d7-30e71827bdbd",
      "meta": {
        "profile": [ "http://hl7.org/fhir/us/qicore/StructureDefinition/qicore-condition-encounter-diagnosis" ]
      },
      "clinicalStatus": {
        "coding": [ {
          "system": "http://terminology.hl7.org/CodeSystem/condition-clinical",
          "code": "active",
          "display": "active",
          "userSelected": true
        } ]
      },
      "category": [ {
        "coding": [ {
          "system": "http://terminology.hl7.org/CodeSystem/condition-clinical",
          "code": "active",
          "display": "active",
          "userSelected": true
        } ]
      } ],
      "code": {
        "coding": [ {
          "system": "http://hl7.org/fhir/sid/icd-10-cm",
          "code": "H33.8",
          "userSelected": true
        }, {
          "system": "http://snomed.info/sct",
          "code": "193319001",
          "userSelected": true
        } ]
      },
      "subject": {
        "reference": "Patient/7895aa7a-497f-45aa-bd57-4189cb14f222"
      },
      "onsetDateTime": "2024-11-01T08:00:00.000+00:00"
    },
    "request": {
      "method": "PUT",
      "url": "Condition/5d26a387-db17-46df-80d7-30e71827bdbd"
    }
  }, {
    "fullUrl": "https://madie.cms.gov/Coverage/3a712a22-0482-4359-acff-25c690fcd093",
    "resource": {
      "resourceType": "Coverage",
      "id": "3a712a22-0482-4359-acff-25c690fcd093",
      "meta": {
        "profile": [ "http://hl7.org/fhir/us/qicore/StructureDefinition/qicore-coverage" ]
      },
      "status": "active",
      "beneficiary": {
        "reference": "Patient/7895aa7a-497f-45aa-bd57-4189cb14f222"
      },
      "payor": [ {
        "reference": "Organization/102d1d6f-4649-4e28-8f07-cc2f3a63ef3d"
      } ]
    },
    "request": {
      "method": "PUT",
      "url": "Coverage/3a712a22-0482-4359-acff-25c690fcd093"
    }
  }, {
    "fullUrl": "https://madie.cms.gov/Organization/102d1d6f-4649-4e28-8f07-cc2f3a63ef3d",
    "resource": {
      "resourceType": "Organization",
      "id": "102d1d6f-4649-4e28-8f07-cc2f3a63ef3d",
      "meta": {
        "profile": [ "http://hl7.org/fhir/us/qicore/StructureDefinition/qicore-organization" ]
      },
      "identifier": [ {
        "use": "temp",
        "system": "urn:oid:2.16.840.1.113883.4.4",
        "value": "21-3259825"
      } ],
      "active": true,
      "type": [ {
        "coding": [ {
          "system": "http://terminology.hl7.org/CodeSystem/organization-type",
          "code": "pay",
          "display": "Payer"
        } ]
      } ],
      "name": "Blue Cross Blue Shield of Texas",
      "telecom": [ {
        "system": "phone",
        "value": "(+1) 972-766-6900"
      } ],
      "address": [ {
        "use": "billing",
        "type": "postal",
        "line": [ "P.O. Box 660044" ],
        "city": "Dallas",
        "state": "TX",
        "postalCode": "75266-0044",
        "country": "USA"
      } ]
    },
    "request": {
      "method": "PUT",
      "url": "Organization/102d1d6f-4649-4e28-8f07-cc2f3a63ef3d"
    }
  }, {
    "fullUrl": "https://madie.cms.gov/Practitioner/3892ee5a-4be5-4e0f-a7ab-52671a7e54ea",
    "resource": {
      "resourceType": "Practitioner",
      "id": "3892ee5a-4be5-4e0f-a7ab-52671a7e54ea",
      "meta": {
        "profile": [ "http://hl7.org/fhir/us/qicore/StructureDefinition/qicore-practitioner" ]
      },
      "identifier": [ {
        "system": "http://hl7.org/fhir/sid/us-npi",
        "value": "123456"
      } ],
      "name": [ {
        "family": "Evil",
        "prefix": [ "Dr" ]
      } ]
    },
    "request": {
      "method": "PUT",
      "url": "Practitioner/3892ee5a-4be5-4e0f-a7ab-52671a7e54ea"
    }
  }, {
    "fullUrl": "https://madie.cms.gov/MeasureReport/9c626735-e56a-4bc0-8172-793df569eab6",
    "resource": {
      "resourceType": "MeasureReport",
      "id": "9c626735-e56a-4bc0-8172-793df569eab6",
      "meta": {
        "profile": [ "http://hl7.org/fhir/us/cqfmeasures/StructureDefinition/test-case-cqfm" ]
      },
      "contained": [ {
        "resourceType": "Parameters",
        "id": "af170b62-e856-4629-8a9f-e4938460f1bc-parameters",
        "parameter": [ {
          "name": "subject",
          "valueString": "7895aa7a-497f-45aa-bd57-4189cb14f222"
        } ]
      } ],
      "extension": [ {
        "url": "http://hl7.org/fhir/StructureDefinition/cqf-inputParameters",
        "valueReference": {
          "reference": "#af170b62-e856-4629-8a9f-e4938460f1bc-parameters"
        }
      }, {
        "url": "http://hl7.org/fhir/us/cqfmeasures/StructureDefinition/cqfm-testCaseDescription",
        "valueMarkdown": "Patient with Retinal Detachment with cataract surgery. "
      } ],
      "modifierExtension": [ {
        "url": "http://hl7.org/fhir/us/cqfmeasures/StructureDefinition/cqfm-isTestCase",
        "valueBoolean": true
      } ],
      "status": "complete",
      "type": "individual",
      "measure": "https://madie.cms.gov/Measure/CMS133FHIRCataracts2040BCVAwithin90Days",
      "period": {
        "start": "2026-01-01",
        "end": "2026-12-31"
      },
      "group": [ {
        "id": "Group_1",
        "population": [ {
          "id": "InitialPopulation_1",
          "code": {
            "coding": [ {
              "system": "http://terminology.hl7.org/CodeSystem/measure-population",
              "code": "initial-population",
              "display": "Initial Population"
            } ]
          },
          "count": 1
        }, {
          "id": "Denominator_1",
          "code": {
            "coding": [ {
              "system": "http://terminology.hl7.org/CodeSystem/measure-population",
              "code": "denominator",
              "display": "Denominator"
            } ]
          },
          "count": 1
        }, {
          "id": "DenominatorExclusion_1",
          "code": {
            "coding": [ {
              "system": "http://terminology.hl7.org/CodeSystem/measure-population",
              "code": "denominator-exclusion",
              "display": "Denominator Exclusion"
            } ]
          },
          "count": 1
        }, {
          "id": "Numerator_1",
          "code": {
            "coding": [ {
              "system": "http://terminology.hl7.org/CodeSystem/measure-population",
              "code": "numerator",
              "display": "Numerator"
            } ]
          },
          "count": 0
        } ],
        "measureScore": {
          "value": 0.0
        }
      } ],
      "evaluatedResource": [ {
        "reference": "Patient/7895aa7a-497f-45aa-bd57-4189cb14f222"
      }, {
        "reference": "Observation/7477dcaf-28f8-4a3b-8cb1-afee00fc668b"
      }, {
        "reference": "Procedure/f6bbbbab-3f04-4ae1-9191-52ff5fa68800"
      }, {
        "reference": "Condition/5d26a387-db17-46df-80d7-30e71827bdbd"
      }, {
        "reference": "Coverage/3a712a22-0482-4359-acff-25c690fcd093"
      }, {
        "reference": "Organization/102d1d6f-4649-4e28-8f07-cc2f3a63ef3d"
      }, {
        "reference": "Practitioner/3892ee5a-4be5-4e0f-a7ab-52671a7e54ea"
      } ]
    },
    "request": {
      "method": "PUT",
      "url": "MeasureReport/9c626735-e56a-4bc0-8172-793df569eab6"
    }
  } ]
}