{
  "resourceType": "Bundle",
  "id": "633b3f9e0968f80122503cbd",
  "type": "transaction",
  "entry": [ {
    "fullUrl": "https://madie.cms.gov/Patient/0d5cd646-0816-4d3e-84df-d03e4a656e85",
    "resource": {
      "resourceType": "Patient",
      "id": "0d5cd646-0816-4d3e-84df-d03e4a656e85",
      "meta": {
        "profile": [ "http://hl7.org/fhir/us/qicore/StructureDefinition/qicore-patient" ]
      },
      "text": {
        "status": "generated",
        "div": "<div xmlns=\"http://www.w3.org/1999/xhtml\"><div class=\"hapiHeaderText\">Age8OnDayAftEncStart<b>IPFAIL</b></div><table class=\"hapiPropertyTable\"><tbody><tr><td>Date of birth</td><td><span>02 February 2004</span></td></tr></tbody></table></div>"
      },
      "extension": [ {
        "url": "http://hl7.org/fhir/us/core/StructureDefinition/us-core-race",
        "extension": [ {
          "url": "ombCategory",
          "valueCoding": {
            "system": "urn:oid:2.16.840.1.113883.6.238",
            "code": "1002-5",
            "display": "American Indian or Alaska Native",
            "userSelected": true
          }
        }, {
          "url": "text",
          "valueString": "American Indian or Alaska Native"
        } ]
      }, {
        "url": "http://hl7.org/fhir/us/core/StructureDefinition/us-core-ethnicity",
        "extension": [ {
          "url": "ombCategory",
          "valueCoding": {
            "system": "urn:oid:2.16.840.1.113883.6.238",
            "code": "2135-2",
            "display": "Hispanic or Latino",
            "userSelected": true
          }
        }, {
          "url": "text",
          "valueString": "Hispanic or Latino"
        } ]
      } ],
      "identifier": [ {
        "type": {
          "coding": [ {
            "system": "http://terminology.hl7.org/CodeSystem/v2-0203",
            "code": "MR"
          } ]
        },
        "system": "https://bonnie-fhir.healthit.gov/",
        "value": "633b3f9e0968f80122503cbd"
      } ],
      "active": true,
      "name": [ {
        "use": "usual",
        "family": "IPFail",
        "given": [ "Age8OnDayAftEncStart" ]
      } ],
      "gender": "female",
      "birthDate": "2018-02-02"
    },
    "request": {
      "method": "PUT",
      "url": "Patient/0d5cd646-0816-4d3e-84df-d03e4a656e85"
    }
  }, {
    "fullUrl": "https://madie.cms.gov/Encounter/48bb0bdb-9d7b-4f75-a706-1bf6160cfe60",
    "resource": {
      "resourceType": "Encounter",
      "id": "48bb0bdb-9d7b-4f75-a706-1bf6160cfe60",
      "meta": {
        "profile": [ "http://hl7.org/fhir/us/qicore/StructureDefinition/qicore-encounter" ]
      },
      "status": "finished",
      "class": {
        "system": "http://terminology.hl7.org/CodeSystem/v3-ActCode",
        "code": "IMP",
        "display": "inpatient encounter"
      },
      "type": [ {
        "coding": [ {
          "system": "http://snomed.info/sct",
          "code": "183452005"
        } ]
      } ],
      "subject": {
        "reference": "Patient/0d5cd646-0816-4d3e-84df-d03e4a656e85"
      },
      "period": {
        "start": "2026-02-01T08:00:00Z",
        "end": "2026-02-05T08:15:00.000+00:00"
      }
    },
    "request": {
      "method": "PUT",
      "url": "Encounter/48bb0bdb-9d7b-4f75-a706-1bf6160cfe60"
    }
  }, {
    "fullUrl": "https://madie.cms.gov/Procedure/6b6adfb0-a915-468d-9cdf-218157a76727",
    "resource": {
      "resourceType": "Procedure",
      "id": "6b6adfb0-a915-468d-9cdf-218157a76727",
      "meta": {
        "profile": [ "http://hl7.org/fhir/us/qicore/StructureDefinition/qicore-procedure" ]
      },
      "extension": [ {
        "url": "http://hl7.org/fhir/us/qicore/StructureDefinition/qicore-recorded",
        "valueDateTime": "2014-04-05T13:35:00Z"
      } ],
      "status": "completed",
      "code": {
        "coding": [ {
          "system": "http://snomed.info/sct",
          "code": "10745001"
        } ]
      },
      "subject": {
        "reference": "Patient/0d5cd646-0816-4d3e-84df-d03e4a656e85"
      },
      "performedPeriod": {
        "start": "2026-02-01T08:00:00Z",
        "end": "2026-02-05T08:15:00.000+00:00"
      }
    },
    "request": {
      "method": "PUT",
      "url": "Procedure/6b6adfb0-a915-468d-9cdf-218157a76727"
    }
  }, {
    "fullUrl": "https://madie.cms.gov/Coverage/1798203c-6eff-4f02-9340-59d2506f5b8a",
    "resource": {
      "resourceType": "Coverage",
      "id": "1798203c-6eff-4f02-9340-59d2506f5b8a",
      "meta": {
        "profile": [ "http://hl7.org/fhir/us/qicore/StructureDefinition/qicore-coverage" ]
      },
      "status": "active",
      "beneficiary": {
        "reference": "Patient/0d5cd646-0816-4d3e-84df-d03e4a656e85"
      },
      "payor": [ {
        "reference": "Organization/3989da40-bb49-478d-964c-cd626e417cd3"
      } ]
    },
    "request": {
      "method": "PUT",
      "url": "Coverage/1798203c-6eff-4f02-9340-59d2506f5b8a"
    }
  }, {
    "fullUrl": "https://madie.cms.gov/Organization/3989da40-bb49-478d-964c-cd626e417cd3",
    "resource": {
      "resourceType": "Organization",
      "id": "3989da40-bb49-478d-964c-cd626e417cd3",
      "meta": {
        "profile": [ "http://hl7.org/fhir/us/qicore/StructureDefinition/qicore-organization" ]
      },
      "identifier": [ {
        "use": "temp",
        "system": "urn:oid:2.16.840.1.113883.4.4",
        "value": "21-3259825"
      } ],
      "active": true,
      "type": [ {
        "coding": [ {
          "system": "http://terminology.hl7.org/CodeSystem/organization-type",
          "code": "pay",
          "display": "Payer"
        } ]
      } ],
      "name": "Blue Cross Blue Shield of Texas",
      "telecom": [ {
        "system": "phone",
        "value": "(+1) 972-766-6900"
      } ],
      "address": [ {
        "use": "billing",
        "type": "postal",
        "line": [ "P.O. Box 660044" ],
        "city": "Dallas",
        "state": "TX",
        "postalCode": "75266-0044",
        "country": "USA"
      } ]
    },
    "request": {
      "method": "PUT",
      "url": "Organization/3989da40-bb49-478d-964c-cd626e417cd3"
    }
  }, {
    "fullUrl": "https://madie.cms.gov/Practitioner/7c7bb4c0-1eff-4934-86cf-93c066eb7b2e",
    "resource": {
      "resourceType": "Practitioner",
      "id": "7c7bb4c0-1eff-4934-86cf-93c066eb7b2e",
      "identifier": [ {
        "system": "http://hl7.org/fhir/sid/us-npi",
        "value": "123456"
      } ],
      "name": [ {
        "family": "Evil",
        "prefix": [ "Dr" ]
      } ]
    },
    "request": {
      "method": "PUT",
      "url": "Practitioner/7c7bb4c0-1eff-4934-86cf-93c066eb7b2e"
    }
  }, {
    "fullUrl": "https://madie.cms.gov/MeasureReport/f55376c2-b4a2-4515-8d28-75fbdde296f0",
    "resource": {
      "resourceType": "MeasureReport",
      "id": "f55376c2-b4a2-4515-8d28-75fbdde296f0",
      "meta": {
        "profile": [ "http://hl7.org/fhir/us/cqfmeasures/StructureDefinition/test-case-cqfm" ]
      },
      "contained": [ {
        "resourceType": "Parameters",
        "id": "638fdc22-3770-49e1-96ef-00d8427edee6-parameters",
        "parameter": [ {
          "name": "subject",
          "valueString": "0d5cd646-0816-4d3e-84df-d03e4a656e85"
        } ]
      } ],
      "extension": [ {
        "url": "http://hl7.org/fhir/StructureDefinition/cqf-inputParameters",
        "valueReference": {
          "reference": "#638fdc22-3770-49e1-96ef-00d8427edee6-parameters"
        }
      }, {
        "url": "http://hl7.org/fhir/us/cqfmeasures/StructureDefinition/cqfm-testCaseDescription",
        "valueMarkdown": "Patient is 8 years of age on day after encounter start.\n"
      } ],
      "modifierExtension": [ {
        "url": "http://hl7.org/fhir/us/cqfmeasures/StructureDefinition/cqfm-isTestCase",
        "valueBoolean": true
      } ],
      "status": "complete",
      "type": "individual",
      "measure": "https://madie.cms.gov/Measure/CMS1028FHIRPCSevereOBComps",
      "period": {
        "start": "2026-01-01",
        "end": "2026-12-31"
      },
      "group": [ {
        "id": "Group_1",
        "population": [ {
          "id": "InitialPopulation_1",
          "code": {
            "coding": [ {
              "system": "http://terminology.hl7.org/CodeSystem/measure-population",
              "code": "initial-population",
              "display": "Initial Population"
            } ]
          },
          "count": 0
        }, {
          "id": "Denominator_1",
          "code": {
            "coding": [ {
              "system": "http://terminology.hl7.org/CodeSystem/measure-population",
              "code": "denominator",
              "display": "Denominator"
            } ]
          },
          "count": 0
        }, {
          "id": "Numerator_1",
          "code": {
            "coding": [ {
              "system": "http://terminology.hl7.org/CodeSystem/measure-population",
              "code": "numerator",
              "display": "Numerator"
            } ]
          },
          "count": 0
        }, {
          "id": "NumeratorExclusion_1",
          "code": {
            "coding": [ {
              "system": "http://terminology.hl7.org/CodeSystem/measure-population",
              "code": "numerator-exclusion",
              "display": "Numerator Exclusion"
            } ]
          },
          "count": 0
        } ],
        "measureScore": {
          "value": 0.0
        }
      }, {
        "id": "Group_2",
        "population": [ {
          "id": "InitialPopulation_2",
          "code": {
            "coding": [ {
              "system": "http://terminology.hl7.org/CodeSystem/measure-population",
              "code": "initial-population",
              "display": "Initial Population"
            } ]
          },
          "count": 0
        }, {
          "id": "Denominator_2",
          "code": {
            "coding": [ {
              "system": "http://terminology.hl7.org/CodeSystem/measure-population",
              "code": "denominator",
              "display": "Denominator"
            } ]
          },
          "count": 0
        }, {
          "id": "Numerator_2",
          "code": {
            "coding": [ {
              "system": "http://terminology.hl7.org/CodeSystem/measure-population",
              "code": "numerator",
              "display": "Numerator"
            } ]
          },
          "count": 0
        }, {
          "id": "NumeratorExclusion_2",
          "code": {
            "coding": [ {
              "system": "http://terminology.hl7.org/CodeSystem/measure-population",
              "code": "numerator-exclusion",
              "display": "Numerator Exclusion"
            } ]
          },
          "count": 0
        } ],
        "measureScore": {
          "value": 0.0
        }
      } ],
      "evaluatedResource": [ {
        "reference": "Patient/0d5cd646-0816-4d3e-84df-d03e4a656e85"
      }, {
        "reference": "Encounter/48bb0bdb-9d7b-4f75-a706-1bf6160cfe60"
      }, {
        "reference": "Procedure/6b6adfb0-a915-468d-9cdf-218157a76727"
      }, {
        "reference": "Coverage/1798203c-6eff-4f02-9340-59d2506f5b8a"
      }, {
        "reference": "Organization/3989da40-bb49-478d-964c-cd626e417cd3"
      }, {
        "reference": "Practitioner/7c7bb4c0-1eff-4934-86cf-93c066eb7b2e"
      } ]
    },
    "request": {
      "method": "PUT",
      "url": "MeasureReport/f55376c2-b4a2-4515-8d28-75fbdde296f0"
    }
  } ]
}