{"resourceType":"Bundle","id":"tests-d2a44b64-1c9e-4e36-855b-8451803afcf2-bundle","type":"transaction","entry":[{"resource":{"resourceType":"MedicationRequest","id":"7f1fff58-9af7-454c-8b8f-be6b566ad0bb","meta":{"profile":["http://hl7.org/fhir/us/qicore/StructureDefinition/qicore-medicationrequest"]},"status":"active","intent":"order","category":[{"coding":[{"system":"http://terminology.hl7.org/CodeSystem/medicationrequest-category","code":"discharge","display":"Discharge","userSelected":true}]}],"doNotPerform":false,"medicationCodeableConcept":{"coding":[{"system":"http://www.nlm.nih.gov/research/umls/rxnorm","code":"1014632","display":"acetaminophen 300 MG / oxycodone hydrochloride 7.5 MG Oral Tablet","userSelected":true}]},"subject":{"reference":"Patient/d2a44b64-1c9e-4e36-855b-8451803afcf2"},"authoredOn":"2026-01-05T00:29:00.000+00:00","requester":{"reference":"Practitioner/50bfe0ba-145b-45fc-951f-8dcecd17d5b5"}},"request":{"method":"PUT","url":"MedicationRequest/7f1fff58-9af7-454c-8b8f-be6b566ad0bb"}},{"resource":{"resourceType":"Bundle","id":"63231ae12a56ae63756a53ee","type":"transaction","entry":[{"fullUrl":"https://madie.cms.gov/Patient/d2a44b64-1c9e-4e36-855b-8451803afcf2","resource":{"resourceType":"Patient","id":"d2a44b64-1c9e-4e36-855b-8451803afcf2","meta":{"profile":["http://hl7.org/fhir/us/qicore/StructureDefinition/qicore-patient"]},"extension":[{"url":"http://hl7.org/fhir/us/core/StructureDefinition/us-core-sex","valueCode":"184115007"},{"url":"http://hl7.org/fhir/us/core/StructureDefinition/us-core-race","extension":[{"url":"ombCategory","valueCoding":{"system":"urn:oid:2.16.840.1.113883.6.238","code":"1002-5","display":"American Indian or Alaska Native","userSelected":true}},{"url":"text","valueString":"American Indian or Alaska Native"}]},{"url":"http://hl7.org/fhir/us/core/StructureDefinition/us-core-ethnicity","extension":[{"url":"ombCategory","valueCoding":{"system":"urn:oid:2.16.840.1.113883.6.238","code":"2135-2","display":"Hispanic or Latino","userSelected":true}},{"url":"text","valueString":"Hispanic or Latino"}]}],"identifier":[{"type":{"coding":[{"system":"http://terminology.hl7.org/CodeSystem/v2-0203","code":"MR"}]},"system":"https://bonnie-fhir.healthit.gov/","value":"63231ae12a56ae63756a53ee"}],"name":[{"family":"IPPFail","given":["EncounterInProgress"]}],"gender":"unknown","birthDate":"2006-12-31"},"request":{"method":"PUT","url":"Patient/d2a44b64-1c9e-4e36-855b-8451803afcf2"}},{"fullUrl":"https://madie.cms.gov/Encounter/df6c9260-a880-4f75-a0e3-c3cd1077f7b0","resource":{"resourceType":"Encounter","id":"df6c9260-a880-4f75-a0e3-c3cd1077f7b0","meta":{"profile":["http://hl7.org/fhir/us/qicore/StructureDefinition/qicore-encounter"]},"status":"in-progress","class":{"system":"http://terminology.hl7.org/CodeSystem/v3-ActCode","code":"AMB","display":"ambulatory"},"type":[{"coding":[{"system":"http://snomed.info/sct","version":"2022-03","code":"183452005","display":"Emergency hospital admission (procedure)","userSelected":true}]}],"subject":{"reference":"Patient/d2a44b64-1c9e-4e36-855b-8451803afcf2"},"period":{"start":"2026-01-01T00:01:00.000+00:00","end":"2026-01-05T00:30:00.000+00:00"}},"request":{"method":"PUT","url":"Encounter/df6c9260-a880-4f75-a0e3-c3cd1077f7b0"}},{"fullUrl":"https://madie.cms.gov/MedicationRequest/7f1fff58-9af7-454c-8b8f-be6b566ad0bb","resource":{"resourceType":"MedicationRequest","id":"7f1fff58-9af7-454c-8b8f-be6b566ad0bb","meta":{"profile":["http://hl7.org/fhir/us/qicore/StructureDefinition/qicore-medicationrequest"]},"status":"active","intent":"order","category":[{"coding":[{"system":"http://terminology.hl7.org/CodeSystem/medicationrequest-category","code":"discharge","display":"Discharge","userSelected":true}]}],"doNotPerform":false,"medicationCodeableConcept":{"coding":[{"system":"http://www.nlm.nih.gov/research/umls/rxnorm","code":"1014632","display":"acetaminophen 300 MG / oxycodone hydrochloride 7.5 MG Oral Tablet","userSelected":true}]},"subject":{"reference":"Patient/d2a44b64-1c9e-4e36-855b-8451803afcf2"},"authoredOn":"2026-01-05T00:29:00.000+00:00","requester":{"reference":"Practitioner/50bfe0ba-145b-45fc-951f-8dcecd17d5b5"}},"request":{"method":"PUT","url":"MedicationRequest/7f1fff58-9af7-454c-8b8f-be6b566ad0bb"}},{"fullUrl":"https://madie.cms.gov/Practitioner/50bfe0ba-145b-45fc-951f-8dcecd17d5b5","resource":{"resourceType":"Practitioner","id":"50bfe0ba-145b-45fc-951f-8dcecd17d5b5","meta":{"profile":["http://hl7.org/fhir/us/qicore/StructureDefinition/qicore-practitioner"]},"identifier":[{"system":"http://hl7.org/fhir/sid/us-npi","value":"9999999896"}],"active":true,"name":[{"family":"Ramires","given":["Alma"],"prefix":["Dr"]}],"address":[{"use":"home","line":["534 Erewhon St"],"city":"Netherville","state":"IN","postalCode":"46131"}],"qualification":[{"identifier":[{"system":"http://goodhealth.org/prIdentifier","value":"12345"}],"code":{"coding":[{"system":"http://terminology.hl7.org/CodeSystem/v2-0360|2.7","code":"BS","display":"Bachelor of Science"}],"text":"Bachelor of Science"},"period":{"start":"1995"},"issuer":{"display":"Example University"}}]},"request":{"method":"PUT","url":"Practitioner/50bfe0ba-145b-45fc-951f-8dcecd17d5b5"}},{"fullUrl":"https://madie.cms.gov/Coverage/9437c2af-9772-42ac-bad9-0239b691323c","resource":{"resourceType":"Coverage","id":"9437c2af-9772-42ac-bad9-0239b691323c","meta":{"profile":["http://hl7.org/fhir/us/qicore/StructureDefinition/qicore-coverage"]},"status":"active","subscriberId":"523435","beneficiary":{"reference":"Patient/d2a44b64-1c9e-4e36-855b-8451803afcf2"},"relationship":{"coding":[{"system":"http://terminology.hl7.org/CodeSystem/subscriber-relationship","code":"self"}]},"payor":[{"reference":"Organization/27b0f31b-00e8-4584-a9bb-cf46d189201a"}]},"request":{"method":"PUT","url":"Coverage/9437c2af-9772-42ac-bad9-0239b691323c"}},{"fullUrl":"https://madie.cms.gov/Organization/27b0f31b-00e8-4584-a9bb-cf46d189201a","resource":{"resourceType":"Organization","id":"27b0f31b-00e8-4584-a9bb-cf46d189201a","meta":{"profile":["http://hl7.org/fhir/us/qicore/StructureDefinition/qicore-organization"]},"identifier":[{"use":"temp","system":"urn:oid:2.16.840.1.113883.4.4","value":"21-3259825"}],"active":true,"type":[{"coding":[{"system":"http://terminology.hl7.org/CodeSystem/organization-type","code":"pay","display":"Payer"}]}],"name":"Blue Cross Blue Shield of Texas","telecom":[{"system":"phone","value":"(+1) 972-766-6900"}],"address":[{"use":"billing","type":"postal","line":["P.O. Box 660044"],"city":"Dallas","state":"TX","postalCode":"75266-0044","country":"USA"}]},"request":{"method":"PUT","url":"Organization/27b0f31b-00e8-4584-a9bb-cf46d189201a"}},{"fullUrl":"https://madie.cms.gov/MeasureReport/7ccc5835-191c-40a3-8e3b-7e8a27886b6b","resource":{"resourceType":"MeasureReport","id":"7ccc5835-191c-40a3-8e3b-7e8a27886b6b","meta":{"profile":["http://hl7.org/fhir/us/cqfmeasures/StructureDefinition/test-case-cqfm"]},"contained":[{"resourceType":"Parameters","id":"a176fb3e-c5cb-4b8e-a921-9bd485c605e3-parameters","parameter":[{"name":"subject","valueString":"d2a44b64-1c9e-4e36-855b-8451803afcf2"}]}],"extension":[{"url":"http://hl7.org/fhir/StructureDefinition/cqf-inputParameters","valueReference":{"reference":"#a176fb3e-c5cb-4b8e-a921-9bd485c605e3-parameters"}},{"url":"http://hl7.org/fhir/us/cqfmeasures/StructureDefinition/cqfm-testCaseDescription","valueMarkdown":"Encounter during the MP but status is \"in-progress\", opioid prescribed day of encounter"}],"modifierExtension":[{"url":"http://hl7.org/fhir/us/cqfmeasures/StructureDefinition/cqfm-isTestCase","valueBoolean":true}],"status":"complete","type":"individual","measure":"https://madie.cms.gov/Measure/CMS506FHIRSafeUseofOpioids","period":{"start":"2026-01-01","end":"2026-12-31"},"group":[{"id":"Group_1","population":[{"id":"InitialPopulation_1","code":{"coding":[{"system":"http://terminology.hl7.org/CodeSystem/measure-population","code":"initial-population","display":"Initial Population"}]},"count":0},{"id":"Denominator_1","code":{"coding":[{"system":"http://terminology.hl7.org/CodeSystem/measure-population","code":"denominator","display":"Denominator"}]},"count":0},{"id":"DenominatorExclusion_1","code":{"coding":[{"system":"http://terminology.hl7.org/CodeSystem/measure-population","code":"denominator-exclusion","display":"Denominator Exclusion"}]},"count":0},{"id":"Numerator_1","code":{"coding":[{"system":"http://terminology.hl7.org/CodeSystem/measure-population","code":"numerator","display":"Numerator"}]},"count":0}],"measureScore":{"value":0.0}}],"evaluatedResource":[{"reference":"Patient/d2a44b64-1c9e-4e36-855b-8451803afcf2"},{"reference":"Encounter/df6c9260-a880-4f75-a0e3-c3cd1077f7b0"},{"reference":"MedicationRequest/7f1fff58-9af7-454c-8b8f-be6b566ad0bb"},{"reference":"Practitioner/50bfe0ba-145b-45fc-951f-8dcecd17d5b5"},{"reference":"Coverage/9437c2af-9772-42ac-bad9-0239b691323c"},{"reference":"Organization/27b0f31b-00e8-4584-a9bb-cf46d189201a"}]},"request":{"method":"PUT","url":"MeasureReport/7ccc5835-191c-40a3-8e3b-7e8a27886b6b"}}]},"request":{"method":"PUT","url":"Bundle/63231ae12a56ae63756a53ee"}},{"resource":{"resourceType":"Encounter","id":"df6c9260-a880-4f75-a0e3-c3cd1077f7b0","meta":{"profile":["http://hl7.org/fhir/us/qicore/StructureDefinition/qicore-encounter"]},"status":"in-progress","class":{"system":"http://terminology.hl7.org/CodeSystem/v3-ActCode","code":"AMB","display":"ambulatory"},"type":[{"coding":[{"system":"http://snomed.info/sct","version":"2022-03","code":"183452005","display":"Emergency hospital admission (procedure)","userSelected":true}]}],"subject":{"reference":"Patient/d2a44b64-1c9e-4e36-855b-8451803afcf2"},"period":{"start":"2026-01-01T00:01:00.000+00:00","end":"2026-01-05T00:30:00.000+00:00"}},"request":{"method":"PUT","url":"Encounter/df6c9260-a880-4f75-a0e3-c3cd1077f7b0"}},{"resource":{"resourceType":"Practitioner","id":"50bfe0ba-145b-45fc-951f-8dcecd17d5b5","meta":{"profile":["http://hl7.org/fhir/us/qicore/StructureDefinition/qicore-practitioner"]},"identifier":[{"system":"http://hl7.org/fhir/sid/us-npi","value":"9999999896"}],"active":true,"name":[{"family":"Ramires","given":["Alma"],"prefix":["Dr"]}],"address":[{"use":"home","line":["534 Erewhon St"],"city":"Netherville","state":"IN","postalCode":"46131"}],"qualification":[{"identifier":[{"system":"http://goodhealth.org/prIdentifier","value":"12345"}],"code":{"coding":[{"system":"http://terminology.hl7.org/CodeSystem/v2-0360|2.7","code":"BS","display":"Bachelor of Science"}],"text":"Bachelor of Science"},"period":{"start":"1995"},"issuer":{"display":"Example University"}}]},"request":{"method":"PUT","url":"Practitioner/50bfe0ba-145b-45fc-951f-8dcecd17d5b5"}},{"resource":{"resourceType":"Organization","id":"27b0f31b-00e8-4584-a9bb-cf46d189201a","meta":{"profile":["http://hl7.org/fhir/us/qicore/StructureDefinition/qicore-organization"]},"identifier":[{"use":"temp","system":"urn:oid:2.16.840.1.113883.4.4","value":"21-3259825"}],"active":true,"type":[{"coding":[{"system":"http://terminology.hl7.org/CodeSystem/organization-type","code":"pay","display":"Payer"}]}],"name":"Blue Cross Blue Shield of Texas","telecom":[{"system":"phone","value":"(+1) 972-766-6900"}],"address":[{"use":"billing","type":"postal","line":["P.O. Box 660044"],"city":"Dallas","state":"TX","postalCode":"75266-0044","country":"USA"}]},"request":{"method":"PUT","url":"Organization/27b0f31b-00e8-4584-a9bb-cf46d189201a"}},{"resource":{"resourceType":"MeasureReport","id":"7ccc5835-191c-40a3-8e3b-7e8a27886b6b","meta":{"profile":["http://hl7.org/fhir/us/cqfmeasures/StructureDefinition/test-case-cqfm"]},"contained":[{"resourceType":"Parameters","id":"a176fb3e-c5cb-4b8e-a921-9bd485c605e3-parameters","parameter":[{"name":"subject","valueString":"d2a44b64-1c9e-4e36-855b-8451803afcf2"}]}],"extension":[{"url":"http://hl7.org/fhir/StructureDefinition/cqf-inputParameters","valueReference":{"reference":"#a176fb3e-c5cb-4b8e-a921-9bd485c605e3-parameters"}},{"url":"http://hl7.org/fhir/us/cqfmeasures/StructureDefinition/cqfm-testCaseDescription","valueMarkdown":"Encounter during the MP but status is \"in-progress\", opioid prescribed day of encounter"}],"modifierExtension":[{"url":"http://hl7.org/fhir/us/cqfmeasures/StructureDefinition/cqfm-isTestCase","valueBoolean":true}],"status":"complete","type":"individual","measure":"https://madie.cms.gov/Measure/CMS506FHIRSafeUseofOpioids","period":{"start":"2026-01-01","end":"2026-12-31"},"group":[{"id":"Group_1","population":[{"id":"InitialPopulation_1","code":{"coding":[{"system":"http://terminology.hl7.org/CodeSystem/measure-population","code":"initial-population","display":"Initial Population"}]},"count":0},{"id":"Denominator_1","code":{"coding":[{"system":"http://terminology.hl7.org/CodeSystem/measure-population","code":"denominator","display":"Denominator"}]},"count":0},{"id":"DenominatorExclusion_1","code":{"coding":[{"system":"http://terminology.hl7.org/CodeSystem/measure-population","code":"denominator-exclusion","display":"Denominator Exclusion"}]},"count":0},{"id":"Numerator_1","code":{"coding":[{"system":"http://terminology.hl7.org/CodeSystem/measure-population","code":"numerator","display":"Numerator"}]},"count":0}],"measureScore":{"value":0.0}}],"evaluatedResource":[{"reference":"Patient/d2a44b64-1c9e-4e36-855b-8451803afcf2"},{"reference":"Encounter/df6c9260-a880-4f75-a0e3-c3cd1077f7b0"},{"reference":"MedicationRequest/7f1fff58-9af7-454c-8b8f-be6b566ad0bb"},{"reference":"Practitioner/50bfe0ba-145b-45fc-951f-8dcecd17d5b5"},{"reference":"Coverage/9437c2af-9772-42ac-bad9-0239b691323c"},{"reference":"Organization/27b0f31b-00e8-4584-a9bb-cf46d189201a"}]},"request":{"method":"PUT","url":"MeasureReport/7ccc5835-191c-40a3-8e3b-7e8a27886b6b"}},{"resource":{"resourceType":"Coverage","id":"9437c2af-9772-42ac-bad9-0239b691323c","meta":{"profile":["http://hl7.org/fhir/us/qicore/StructureDefinition/qicore-coverage"]},"status":"active","subscriberId":"523435","beneficiary":{"reference":"Patient/d2a44b64-1c9e-4e36-855b-8451803afcf2"},"relationship":{"coding":[{"system":"http://terminology.hl7.org/CodeSystem/subscriber-relationship","code":"self"}]},"payor":[{"reference":"Organization/27b0f31b-00e8-4584-a9bb-cf46d189201a"}]},"request":{"method":"PUT","url":"Coverage/9437c2af-9772-42ac-bad9-0239b691323c"}},{"resource":{"resourceType":"Patient","id":"d2a44b64-1c9e-4e36-855b-8451803afcf2","meta":{"profile":["http://hl7.org/fhir/us/qicore/StructureDefinition/qicore-patient"]},"extension":[{"url":"http://hl7.org/fhir/us/core/StructureDefinition/us-core-sex","valueCode":"184115007"},{"url":"http://hl7.org/fhir/us/core/StructureDefinition/us-core-race","extension":[{"url":"ombCategory","valueCoding":{"system":"urn:oid:2.16.840.1.113883.6.238","code":"1002-5","display":"American Indian or Alaska Native","userSelected":true}},{"url":"text","valueString":"American Indian or Alaska Native"}]},{"url":"http://hl7.org/fhir/us/core/StructureDefinition/us-core-ethnicity","extension":[{"url":"ombCategory","valueCoding":{"system":"urn:oid:2.16.840.1.113883.6.238","code":"2135-2","display":"Hispanic or Latino","userSelected":true}},{"url":"text","valueString":"Hispanic or Latino"}]}],"identifier":[{"type":{"coding":[{"system":"http://terminology.hl7.org/CodeSystem/v2-0203","code":"MR"}]},"system":"https://bonnie-fhir.healthit.gov/","value":"63231ae12a56ae63756a53ee"}],"name":[{"family":"IPPFail","given":["EncounterInProgress"]}],"gender":"unknown","birthDate":"2006-12-31"},"request":{"method":"PUT","url":"Patient/d2a44b64-1c9e-4e36-855b-8451803afcf2"}}]}