{"resourceType":"Bundle","id":"tests-8e2e72d9-194d-4031-83a3-51dbd703de36-bundle","type":"transaction","entry":[{"resource":{"resourceType":"Encounter","id":"64f25869-32c1-4d47-90b0-89bba5a3e549","meta":{"profile":["http://hl7.org/fhir/us/qicore/StructureDefinition/qicore-encounter"]},"status":"finished","class":{"system":"http://terminology.hl7.org/CodeSystem/v3-ActCode","code":"AMB","display":"ambulatory"},"type":[{"coding":[{"system":"http://snomed.info/sct","version":"2022-03","code":"183452005","display":"Emergency hospital admission (procedure)","userSelected":true}]}],"subject":{"reference":"Patient/8e2e72d9-194d-4031-83a3-51dbd703de36"},"period":{"start":"2026-12-29T12:00:00.000+00:00","end":"2026-12-31T12:15:00.000+00:00"},"hospitalization":{"dischargeDisposition":{"coding":[{"system":"http://snomed.info/sct","code":"445060000","display":"Left against medical advice (finding)","userSelected":true}]}}},"request":{"method":"PUT","url":"Encounter/64f25869-32c1-4d47-90b0-89bba5a3e549"}},{"resource":{"resourceType":"Organization","id":"34db8ad4-022a-4eed-9e1f-47e200051134","meta":{"profile":["http://hl7.org/fhir/us/qicore/StructureDefinition/qicore-organization"]},"identifier":[{"use":"temp","system":"urn:oid:2.16.840.1.113883.4.4","value":"21-3259825"}],"active":true,"type":[{"coding":[{"system":"http://terminology.hl7.org/CodeSystem/organization-type","code":"pay","display":"Payer"}]}],"name":"Blue Cross Blue Shield of Texas","telecom":[{"system":"phone","value":"(+1) 972-766-6900"}],"address":[{"use":"billing","type":"postal","line":["P.O. Box 660044"],"city":"Dallas","state":"TX","postalCode":"75266-0044","country":"USA"}]},"request":{"method":"PUT","url":"Organization/34db8ad4-022a-4eed-9e1f-47e200051134"}},{"resource":{"resourceType":"Bundle","id":"63233443414ba67d4e1d1c31","type":"transaction","entry":[{"fullUrl":"https://madie.cms.gov/Patient/8e2e72d9-194d-4031-83a3-51dbd703de36","resource":{"resourceType":"Patient","id":"8e2e72d9-194d-4031-83a3-51dbd703de36","meta":{"profile":["http://hl7.org/fhir/us/qicore/StructureDefinition/qicore-patient"]},"extension":[{"url":"http://hl7.org/fhir/us/core/StructureDefinition/us-core-race","extension":[{"url":"ombCategory","valueCoding":{"system":"urn:oid:2.16.840.1.113883.6.238","code":"2054-5","display":"Black or African American","userSelected":true}},{"url":"text","valueString":"Black or African American"}]},{"url":"http://hl7.org/fhir/us/core/StructureDefinition/us-core-ethnicity","extension":[{"url":"ombCategory","valueCoding":{"system":"urn:oid:2.16.840.1.113883.6.238","code":"2186-5","display":"Not Hispanic or Latino","userSelected":true}},{"url":"text","valueString":"Not Hispanic or Latino"}]}],"identifier":[{"type":{"coding":[{"system":"http://terminology.hl7.org/CodeSystem/v2-0203","code":"MR"}]},"system":"https://bonnie-fhir.healthit.gov/","value":"63233443414ba67d4e1d1c31"}],"name":[{"family":"DENEXPass","given":["DischargeAgainstMedicalAdvice"]}],"gender":"male","birthDate":"2006-12-28"},"request":{"method":"PUT","url":"Patient/8e2e72d9-194d-4031-83a3-51dbd703de36"}},{"fullUrl":"https://madie.cms.gov/Encounter/64f25869-32c1-4d47-90b0-89bba5a3e549","resource":{"resourceType":"Encounter","id":"64f25869-32c1-4d47-90b0-89bba5a3e549","meta":{"profile":["http://hl7.org/fhir/us/qicore/StructureDefinition/qicore-encounter"]},"status":"finished","class":{"system":"http://terminology.hl7.org/CodeSystem/v3-ActCode","code":"AMB","display":"ambulatory"},"type":[{"coding":[{"system":"http://snomed.info/sct","version":"2022-03","code":"183452005","display":"Emergency hospital admission (procedure)","userSelected":true}]}],"subject":{"reference":"Patient/8e2e72d9-194d-4031-83a3-51dbd703de36"},"period":{"start":"2026-12-29T12:00:00.000+00:00","end":"2026-12-31T12:15:00.000+00:00"},"hospitalization":{"dischargeDisposition":{"coding":[{"system":"http://snomed.info/sct","code":"445060000","display":"Left against medical advice (finding)","userSelected":true}]}}},"request":{"method":"PUT","url":"Encounter/64f25869-32c1-4d47-90b0-89bba5a3e549"}},{"fullUrl":"https://madie.cms.gov/MedicationRequest/6c3c887a-72c6-4ff4-9aed-c12ab53ded2b","resource":{"resourceType":"MedicationRequest","id":"6c3c887a-72c6-4ff4-9aed-c12ab53ded2b","meta":{"profile":["http://hl7.org/fhir/us/qicore/StructureDefinition/qicore-medicationrequest"]},"status":"active","intent":"order","category":[{"coding":[{"system":"http://terminology.hl7.org/CodeSystem/medicationrequest-category","code":"discharge","display":"Discharge","userSelected":true}]}],"doNotPerform":false,"medicationCodeableConcept":{"coding":[{"system":"http://www.nlm.nih.gov/research/umls/rxnorm","code":"1049604","display":"oxycodone hydrochloride 1 MG/ML Oral Solution","userSelected":true}]},"subject":{"reference":"Patient/8e2e72d9-194d-4031-83a3-51dbd703de36"},"authoredOn":"2026-12-31T12:10:00.000+00:00","requester":{"reference":"Practitioner/19440e8f-d78f-4846-a71d-c15264adebdd"}},"request":{"method":"PUT","url":"MedicationRequest/6c3c887a-72c6-4ff4-9aed-c12ab53ded2b"}},{"fullUrl":"https://madie.cms.gov/Practitioner/19440e8f-d78f-4846-a71d-c15264adebdd","resource":{"resourceType":"Practitioner","id":"19440e8f-d78f-4846-a71d-c15264adebdd","meta":{"profile":["http://hl7.org/fhir/us/qicore/StructureDefinition/qicore-practitioner"]},"identifier":[{"system":"http://hl7.org/fhir/sid/us-npi","value":"9999999896"}],"active":true,"name":[{"family":"Ramires","given":["Alma"],"prefix":["Dr"]}],"address":[{"use":"home","line":["534 Erewhon St"],"city":"Netherville","state":"IN","postalCode":"46131"}],"qualification":[{"identifier":[{"system":"http://goodhealth.org/prIdentifier","value":"12345"}],"code":{"coding":[{"system":"http://terminology.hl7.org/CodeSystem/v2-0360|2.7","code":"BS","display":"Bachelor of Science"}],"text":"Bachelor of Science"},"period":{"start":"1995"},"issuer":{"display":"Example University"}}]},"request":{"method":"PUT","url":"Practitioner/19440e8f-d78f-4846-a71d-c15264adebdd"}},{"fullUrl":"https://madie.cms.gov/Coverage/2e711dad-f307-46d0-9da4-f980a3e5879e","resource":{"resourceType":"Coverage","id":"2e711dad-f307-46d0-9da4-f980a3e5879e","meta":{"profile":["http://hl7.org/fhir/us/qicore/StructureDefinition/qicore-coverage"]},"status":"active","subscriberId":"523435","beneficiary":{"reference":"Patient/8e2e72d9-194d-4031-83a3-51dbd703de36"},"relationship":{"coding":[{"system":"http://terminology.hl7.org/CodeSystem/subscriber-relationship","code":"self"}]},"payor":[{"reference":"Organization/34db8ad4-022a-4eed-9e1f-47e200051134"}]},"request":{"method":"PUT","url":"Coverage/2e711dad-f307-46d0-9da4-f980a3e5879e"}},{"fullUrl":"https://madie.cms.gov/Organization/34db8ad4-022a-4eed-9e1f-47e200051134","resource":{"resourceType":"Organization","id":"34db8ad4-022a-4eed-9e1f-47e200051134","meta":{"profile":["http://hl7.org/fhir/us/qicore/StructureDefinition/qicore-organization"]},"identifier":[{"use":"temp","system":"urn:oid:2.16.840.1.113883.4.4","value":"21-3259825"}],"active":true,"type":[{"coding":[{"system":"http://terminology.hl7.org/CodeSystem/organization-type","code":"pay","display":"Payer"}]}],"name":"Blue Cross Blue Shield of Texas","telecom":[{"system":"phone","value":"(+1) 972-766-6900"}],"address":[{"use":"billing","type":"postal","line":["P.O. Box 660044"],"city":"Dallas","state":"TX","postalCode":"75266-0044","country":"USA"}]},"request":{"method":"PUT","url":"Organization/34db8ad4-022a-4eed-9e1f-47e200051134"}},{"fullUrl":"https://madie.cms.gov/MeasureReport/6c9bd912-e129-480b-b994-28fd8b8661df","resource":{"resourceType":"MeasureReport","id":"6c9bd912-e129-480b-b994-28fd8b8661df","meta":{"profile":["http://hl7.org/fhir/us/cqfmeasures/StructureDefinition/test-case-cqfm"]},"contained":[{"resourceType":"Parameters","id":"6224831d-2b62-4f03-9b25-8035683c1cce-parameters","parameter":[{"name":"subject","valueString":"8e2e72d9-194d-4031-83a3-51dbd703de36"}]}],"extension":[{"url":"http://hl7.org/fhir/StructureDefinition/cqf-inputParameters","valueReference":{"reference":"#6224831d-2b62-4f03-9b25-8035683c1cce-parameters"}},{"url":"http://hl7.org/fhir/us/cqfmeasures/StructureDefinition/cqfm-testCaseDescription","valueMarkdown":"Enc start  2 days before end of MP that ended last day of MP, has opioid at discharge although LAMA. "}],"modifierExtension":[{"url":"http://hl7.org/fhir/us/cqfmeasures/StructureDefinition/cqfm-isTestCase","valueBoolean":true}],"status":"complete","type":"individual","measure":"https://madie.cms.gov/Measure/CMS506FHIRSafeUseofOpioids","period":{"start":"2026-01-01","end":"2026-12-31"},"group":[{"id":"Group_1","population":[{"id":"InitialPopulation_1","code":{"coding":[{"system":"http://terminology.hl7.org/CodeSystem/measure-population","code":"initial-population","display":"Initial Population"}]},"count":1},{"id":"Denominator_1","code":{"coding":[{"system":"http://terminology.hl7.org/CodeSystem/measure-population","code":"denominator","display":"Denominator"}]},"count":1},{"id":"DenominatorExclusion_1","code":{"coding":[{"system":"http://terminology.hl7.org/CodeSystem/measure-population","code":"denominator-exclusion","display":"Denominator Exclusion"}]},"count":1},{"id":"Numerator_1","code":{"coding":[{"system":"http://terminology.hl7.org/CodeSystem/measure-population","code":"numerator","display":"Numerator"}]},"count":0}],"measureScore":{"value":0.0}}],"evaluatedResource":[{"reference":"Patient/8e2e72d9-194d-4031-83a3-51dbd703de36"},{"reference":"Encounter/64f25869-32c1-4d47-90b0-89bba5a3e549"},{"reference":"MedicationRequest/6c3c887a-72c6-4ff4-9aed-c12ab53ded2b"},{"reference":"Practitioner/19440e8f-d78f-4846-a71d-c15264adebdd"},{"reference":"Coverage/2e711dad-f307-46d0-9da4-f980a3e5879e"},{"reference":"Organization/34db8ad4-022a-4eed-9e1f-47e200051134"}]},"request":{"method":"PUT","url":"MeasureReport/6c9bd912-e129-480b-b994-28fd8b8661df"}}]},"request":{"method":"PUT","url":"Bundle/63233443414ba67d4e1d1c31"}},{"resource":{"resourceType":"Practitioner","id":"19440e8f-d78f-4846-a71d-c15264adebdd","meta":{"profile":["http://hl7.org/fhir/us/qicore/StructureDefinition/qicore-practitioner"]},"identifier":[{"system":"http://hl7.org/fhir/sid/us-npi","value":"9999999896"}],"active":true,"name":[{"family":"Ramires","given":["Alma"],"prefix":["Dr"]}],"address":[{"use":"home","line":["534 Erewhon St"],"city":"Netherville","state":"IN","postalCode":"46131"}],"qualification":[{"identifier":[{"system":"http://goodhealth.org/prIdentifier","value":"12345"}],"code":{"coding":[{"system":"http://terminology.hl7.org/CodeSystem/v2-0360|2.7","code":"BS","display":"Bachelor of Science"}],"text":"Bachelor of Science"},"period":{"start":"1995"},"issuer":{"display":"Example University"}}]},"request":{"method":"PUT","url":"Practitioner/19440e8f-d78f-4846-a71d-c15264adebdd"}},{"resource":{"resourceType":"Coverage","id":"2e711dad-f307-46d0-9da4-f980a3e5879e","meta":{"profile":["http://hl7.org/fhir/us/qicore/StructureDefinition/qicore-coverage"]},"status":"active","subscriberId":"523435","beneficiary":{"reference":"Patient/8e2e72d9-194d-4031-83a3-51dbd703de36"},"relationship":{"coding":[{"system":"http://terminology.hl7.org/CodeSystem/subscriber-relationship","code":"self"}]},"payor":[{"reference":"Organization/34db8ad4-022a-4eed-9e1f-47e200051134"}]},"request":{"method":"PUT","url":"Coverage/2e711dad-f307-46d0-9da4-f980a3e5879e"}},{"resource":{"resourceType":"MeasureReport","id":"6c9bd912-e129-480b-b994-28fd8b8661df","meta":{"profile":["http://hl7.org/fhir/us/cqfmeasures/StructureDefinition/test-case-cqfm"]},"contained":[{"resourceType":"Parameters","id":"6224831d-2b62-4f03-9b25-8035683c1cce-parameters","parameter":[{"name":"subject","valueString":"8e2e72d9-194d-4031-83a3-51dbd703de36"}]}],"extension":[{"url":"http://hl7.org/fhir/StructureDefinition/cqf-inputParameters","valueReference":{"reference":"#6224831d-2b62-4f03-9b25-8035683c1cce-parameters"}},{"url":"http://hl7.org/fhir/us/cqfmeasures/StructureDefinition/cqfm-testCaseDescription","valueMarkdown":"Enc start  2 days before end of MP that ended last day of MP, has opioid at discharge although LAMA. "}],"modifierExtension":[{"url":"http://hl7.org/fhir/us/cqfmeasures/StructureDefinition/cqfm-isTestCase","valueBoolean":true}],"status":"complete","type":"individual","measure":"https://madie.cms.gov/Measure/CMS506FHIRSafeUseofOpioids","period":{"start":"2026-01-01","end":"2026-12-31"},"group":[{"id":"Group_1","population":[{"id":"InitialPopulation_1","code":{"coding":[{"system":"http://terminology.hl7.org/CodeSystem/measure-population","code":"initial-population","display":"Initial Population"}]},"count":1},{"id":"Denominator_1","code":{"coding":[{"system":"http://terminology.hl7.org/CodeSystem/measure-population","code":"denominator","display":"Denominator"}]},"count":1},{"id":"DenominatorExclusion_1","code":{"coding":[{"system":"http://terminology.hl7.org/CodeSystem/measure-population","code":"denominator-exclusion","display":"Denominator Exclusion"}]},"count":1},{"id":"Numerator_1","code":{"coding":[{"system":"http://terminology.hl7.org/CodeSystem/measure-population","code":"numerator","display":"Numerator"}]},"count":0}],"measureScore":{"value":0.0}}],"evaluatedResource":[{"reference":"Patient/8e2e72d9-194d-4031-83a3-51dbd703de36"},{"reference":"Encounter/64f25869-32c1-4d47-90b0-89bba5a3e549"},{"reference":"MedicationRequest/6c3c887a-72c6-4ff4-9aed-c12ab53ded2b"},{"reference":"Practitioner/19440e8f-d78f-4846-a71d-c15264adebdd"},{"reference":"Coverage/2e711dad-f307-46d0-9da4-f980a3e5879e"},{"reference":"Organization/34db8ad4-022a-4eed-9e1f-47e200051134"}]},"request":{"method":"PUT","url":"MeasureReport/6c9bd912-e129-480b-b994-28fd8b8661df"}},{"resource":{"resourceType":"MedicationRequest","id":"6c3c887a-72c6-4ff4-9aed-c12ab53ded2b","meta":{"profile":["http://hl7.org/fhir/us/qicore/StructureDefinition/qicore-medicationrequest"]},"status":"active","intent":"order","category":[{"coding":[{"system":"http://terminology.hl7.org/CodeSystem/medicationrequest-category","code":"discharge","display":"Discharge","userSelected":true}]}],"doNotPerform":false,"medicationCodeableConcept":{"coding":[{"system":"http://www.nlm.nih.gov/research/umls/rxnorm","code":"1049604","display":"oxycodone hydrochloride 1 MG/ML Oral Solution","userSelected":true}]},"subject":{"reference":"Patient/8e2e72d9-194d-4031-83a3-51dbd703de36"},"authoredOn":"2026-12-31T12:10:00.000+00:00","requester":{"reference":"Practitioner/19440e8f-d78f-4846-a71d-c15264adebdd"}},"request":{"method":"PUT","url":"MedicationRequest/6c3c887a-72c6-4ff4-9aed-c12ab53ded2b"}},{"resource":{"resourceType":"Patient","id":"8e2e72d9-194d-4031-83a3-51dbd703de36","meta":{"profile":["http://hl7.org/fhir/us/qicore/StructureDefinition/qicore-patient"]},"extension":[{"url":"http://hl7.org/fhir/us/core/StructureDefinition/us-core-race","extension":[{"url":"ombCategory","valueCoding":{"system":"urn:oid:2.16.840.1.113883.6.238","code":"2054-5","display":"Black or African American","userSelected":true}},{"url":"text","valueString":"Black or African American"}]},{"url":"http://hl7.org/fhir/us/core/StructureDefinition/us-core-ethnicity","extension":[{"url":"ombCategory","valueCoding":{"system":"urn:oid:2.16.840.1.113883.6.238","code":"2186-5","display":"Not Hispanic or Latino","userSelected":true}},{"url":"text","valueString":"Not Hispanic or Latino"}]}],"identifier":[{"type":{"coding":[{"system":"http://terminology.hl7.org/CodeSystem/v2-0203","code":"MR"}]},"system":"https://bonnie-fhir.healthit.gov/","value":"63233443414ba67d4e1d1c31"}],"name":[{"family":"DENEXPass","given":["DischargeAgainstMedicalAdvice"]}],"gender":"male","birthDate":"2006-12-28"},"request":{"method":"PUT","url":"Patient/8e2e72d9-194d-4031-83a3-51dbd703de36"}}]}