{"resourceType":"Bundle","id":"tests-dde136d4-fa51-4b59-9bef-21dc51caf3d5-bundle","type":"transaction","entry":[{"resource":{"resourceType":"MedicationRequest","id":"7277257b-48fd-44bd-967a-6b36c777a90d","meta":{"profile":["http://hl7.org/fhir/us/qicore/StructureDefinition/qicore-medicationrequest"]},"status":"active","intent":"order","doNotPerform":false,"medicationCodeableConcept":{"coding":[{"system":"http://www.nlm.nih.gov/research/umls/rxnorm","code":"1014599","display":"acetaminophen 300 MG / oxycodone hydrochloride 10 MG Oral Tablet","userSelected":true}]},"subject":{"reference":"Patient/dde136d4-fa51-4b59-9bef-21dc51caf3d5"},"authoredOn":"2026-01-03T00:15:00.000+00:00","requester":{"reference":"Practitioner/9d8e6c59-e55c-445e-8eaf-4b7a6609dcef"}},"request":{"method":"PUT","url":"MedicationRequest/7277257b-48fd-44bd-967a-6b36c777a90d"}},{"resource":{"resourceType":"Coverage","id":"fb09a9f1-060f-4dc5-b47c-e6b3e90e59fe","meta":{"profile":["http://hl7.org/fhir/us/qicore/StructureDefinition/qicore-coverage"]},"status":"active","subscriberId":"523435","beneficiary":{"reference":"Patient/dde136d4-fa51-4b59-9bef-21dc51caf3d5"},"relationship":{"coding":[{"system":"http://terminology.hl7.org/CodeSystem/subscriber-relationship","code":"self"}]},"payor":[{"reference":"Organization/f13ae20c-ff4b-4816-bc18-8c36132db17b"}]},"request":{"method":"PUT","url":"Coverage/fb09a9f1-060f-4dc5-b47c-e6b3e90e59fe"}},{"resource":{"resourceType":"Patient","id":"dde136d4-fa51-4b59-9bef-21dc51caf3d5","meta":{"profile":["http://hl7.org/fhir/us/qicore/StructureDefinition/qicore-patient"]},"extension":[{"url":"http://hl7.org/fhir/us/core/StructureDefinition/us-core-race","extension":[{"url":"ombCategory","valueCoding":{"system":"urn:oid:2.16.840.1.113883.6.238","code":"1002-5","display":"American Indian or Alaska Native","userSelected":true}},{"url":"text","valueString":"American Indian or Alaska Native"}]},{"url":"http://hl7.org/fhir/us/core/StructureDefinition/us-core-ethnicity","extension":[{"url":"ombCategory","valueCoding":{"system":"urn:oid:2.16.840.1.113883.6.238","code":"2135-2","display":"Hispanic or Latino","userSelected":true}},{"url":"text","valueString":"Hispanic or Latino"}]}],"identifier":[{"type":{"coding":[{"system":"http://terminology.hl7.org/CodeSystem/v2-0203","code":"MR"}]},"system":"https://bonnie-fhir.healthit.gov/","value":"63236cd48d26c655c5601f06"}],"name":[{"family":"NUMERFail","given":["2Opioids1MissingCategory"]}],"gender":"male","birthDate":"2006-12-31"},"request":{"method":"PUT","url":"Patient/dde136d4-fa51-4b59-9bef-21dc51caf3d5"}},{"resource":{"resourceType":"Practitioner","id":"9d8e6c59-e55c-445e-8eaf-4b7a6609dcef","meta":{"profile":["http://hl7.org/fhir/us/qicore/StructureDefinition/qicore-practitioner"]},"identifier":[{"system":"http://hl7.org/fhir/sid/us-npi","value":"9999999896"}],"active":true,"name":[{"family":"Ramires","given":["Alma"],"prefix":["Dr"]}],"address":[{"use":"home","line":["534 Erewhon St"],"city":"Netherville","state":"IN","postalCode":"46131"}],"qualification":[{"identifier":[{"system":"http://goodhealth.org/prIdentifier","value":"12345"}],"code":{"coding":[{"system":"http://terminology.hl7.org/CodeSystem/v2-0360|2.7","code":"BS","display":"Bachelor of Science"}],"text":"Bachelor of Science"},"period":{"start":"1995"},"issuer":{"display":"Example University"}}]},"request":{"method":"PUT","url":"Practitioner/9d8e6c59-e55c-445e-8eaf-4b7a6609dcef"}},{"resource":{"resourceType":"Organization","id":"f13ae20c-ff4b-4816-bc18-8c36132db17b","meta":{"profile":["http://hl7.org/fhir/us/qicore/StructureDefinition/qicore-organization"]},"identifier":[{"use":"temp","system":"urn:oid:2.16.840.1.113883.4.4","value":"21-3259825"}],"active":true,"type":[{"coding":[{"system":"http://terminology.hl7.org/CodeSystem/organization-type","code":"pay","display":"Payer"}]}],"name":"Blue Cross Blue Shield of Texas","telecom":[{"system":"phone","value":"(+1) 972-766-6900"}],"address":[{"use":"billing","type":"postal","line":["P.O. Box 660044"],"city":"Dallas","state":"TX","postalCode":"75266-0044","country":"USA"}]},"request":{"method":"PUT","url":"Organization/f13ae20c-ff4b-4816-bc18-8c36132db17b"}},{"resource":{"resourceType":"Bundle","id":"63236cd48d26c655c5601f06","type":"transaction","entry":[{"fullUrl":"https://madie.cms.gov/Patient/dde136d4-fa51-4b59-9bef-21dc51caf3d5","resource":{"resourceType":"Patient","id":"dde136d4-fa51-4b59-9bef-21dc51caf3d5","meta":{"profile":["http://hl7.org/fhir/us/qicore/StructureDefinition/qicore-patient"]},"extension":[{"url":"http://hl7.org/fhir/us/core/StructureDefinition/us-core-race","extension":[{"url":"ombCategory","valueCoding":{"system":"urn:oid:2.16.840.1.113883.6.238","code":"1002-5","display":"American Indian or Alaska Native","userSelected":true}},{"url":"text","valueString":"American Indian or Alaska Native"}]},{"url":"http://hl7.org/fhir/us/core/StructureDefinition/us-core-ethnicity","extension":[{"url":"ombCategory","valueCoding":{"system":"urn:oid:2.16.840.1.113883.6.238","code":"2135-2","display":"Hispanic or Latino","userSelected":true}},{"url":"text","valueString":"Hispanic or Latino"}]}],"identifier":[{"type":{"coding":[{"system":"http://terminology.hl7.org/CodeSystem/v2-0203","code":"MR"}]},"system":"https://bonnie-fhir.healthit.gov/","value":"63236cd48d26c655c5601f06"}],"name":[{"family":"NUMERFail","given":["2Opioids1MissingCategory"]}],"gender":"male","birthDate":"2006-12-31"},"request":{"method":"PUT","url":"Patient/dde136d4-fa51-4b59-9bef-21dc51caf3d5"}},{"fullUrl":"https://madie.cms.gov/Encounter/6dc1d5da-3835-4304-b122-42bfe9714714","resource":{"resourceType":"Encounter","id":"6dc1d5da-3835-4304-b122-42bfe9714714","meta":{"profile":["http://hl7.org/fhir/us/qicore/StructureDefinition/qicore-encounter"]},"status":"finished","class":{"system":"http://terminology.hl7.org/CodeSystem/v3-ActCode","code":"AMB","display":"ambulatory"},"type":[{"coding":[{"system":"http://snomed.info/sct","version":"2022-03","code":"183452005","display":"Emergency hospital admission (procedure)","userSelected":true}]}],"subject":{"reference":"Patient/dde136d4-fa51-4b59-9bef-21dc51caf3d5"},"period":{"start":"2026-01-01T00:00:00.000+00:00","end":"2026-01-03T00:30:00.000+00:00"}},"request":{"method":"PUT","url":"Encounter/6dc1d5da-3835-4304-b122-42bfe9714714"}},{"fullUrl":"https://madie.cms.gov/MedicationRequest/74ab7bd8-d2a1-403c-bf4a-b56b16bb5e76","resource":{"resourceType":"MedicationRequest","id":"74ab7bd8-d2a1-403c-bf4a-b56b16bb5e76","meta":{"profile":["http://hl7.org/fhir/us/qicore/StructureDefinition/qicore-medicationrequest"]},"status":"active","intent":"order","category":[{"coding":[{"system":"http://terminology.hl7.org/CodeSystem/medicationrequest-category","code":"discharge","display":"Discharge","userSelected":true}]}],"doNotPerform":false,"medicationCodeableConcept":{"coding":[{"system":"http://www.nlm.nih.gov/research/umls/rxnorm","code":"1014632","display":"acetaminophen 300 MG / oxycodone hydrochloride 7.5 MG Oral Tablet","userSelected":true}]},"subject":{"reference":"Patient/dde136d4-fa51-4b59-9bef-21dc51caf3d5"},"authoredOn":"2026-01-03T00:01:00.000+00:00","requester":{"reference":"Practitioner/9d8e6c59-e55c-445e-8eaf-4b7a6609dcef"}},"request":{"method":"PUT","url":"MedicationRequest/74ab7bd8-d2a1-403c-bf4a-b56b16bb5e76"}},{"fullUrl":"https://madie.cms.gov/Practitioner/9d8e6c59-e55c-445e-8eaf-4b7a6609dcef","resource":{"resourceType":"Practitioner","id":"9d8e6c59-e55c-445e-8eaf-4b7a6609dcef","meta":{"profile":["http://hl7.org/fhir/us/qicore/StructureDefinition/qicore-practitioner"]},"identifier":[{"system":"http://hl7.org/fhir/sid/us-npi","value":"9999999896"}],"active":true,"name":[{"family":"Ramires","given":["Alma"],"prefix":["Dr"]}],"address":[{"use":"home","line":["534 Erewhon St"],"city":"Netherville","state":"IN","postalCode":"46131"}],"qualification":[{"identifier":[{"system":"http://goodhealth.org/prIdentifier","value":"12345"}],"code":{"coding":[{"system":"http://terminology.hl7.org/CodeSystem/v2-0360|2.7","code":"BS","display":"Bachelor of Science"}],"text":"Bachelor of Science"},"period":{"start":"1995"},"issuer":{"display":"Example University"}}]},"request":{"method":"PUT","url":"Practitioner/9d8e6c59-e55c-445e-8eaf-4b7a6609dcef"}},{"fullUrl":"https://madie.cms.gov/MedicationRequest/7277257b-48fd-44bd-967a-6b36c777a90d","resource":{"resourceType":"MedicationRequest","id":"7277257b-48fd-44bd-967a-6b36c777a90d","meta":{"profile":["http://hl7.org/fhir/us/qicore/StructureDefinition/qicore-medicationrequest"]},"status":"active","intent":"order","doNotPerform":false,"medicationCodeableConcept":{"coding":[{"system":"http://www.nlm.nih.gov/research/umls/rxnorm","code":"1014599","display":"acetaminophen 300 MG / oxycodone hydrochloride 10 MG Oral Tablet","userSelected":true}]},"subject":{"reference":"Patient/dde136d4-fa51-4b59-9bef-21dc51caf3d5"},"authoredOn":"2026-01-03T00:15:00.000+00:00","requester":{"reference":"Practitioner/9d8e6c59-e55c-445e-8eaf-4b7a6609dcef"}},"request":{"method":"PUT","url":"MedicationRequest/7277257b-48fd-44bd-967a-6b36c777a90d"}},{"fullUrl":"https://madie.cms.gov/Coverage/fb09a9f1-060f-4dc5-b47c-e6b3e90e59fe","resource":{"resourceType":"Coverage","id":"fb09a9f1-060f-4dc5-b47c-e6b3e90e59fe","meta":{"profile":["http://hl7.org/fhir/us/qicore/StructureDefinition/qicore-coverage"]},"status":"active","subscriberId":"523435","beneficiary":{"reference":"Patient/dde136d4-fa51-4b59-9bef-21dc51caf3d5"},"relationship":{"coding":[{"system":"http://terminology.hl7.org/CodeSystem/subscriber-relationship","code":"self"}]},"payor":[{"reference":"Organization/f13ae20c-ff4b-4816-bc18-8c36132db17b"}]},"request":{"method":"PUT","url":"Coverage/fb09a9f1-060f-4dc5-b47c-e6b3e90e59fe"}},{"fullUrl":"https://madie.cms.gov/Organization/f13ae20c-ff4b-4816-bc18-8c36132db17b","resource":{"resourceType":"Organization","id":"f13ae20c-ff4b-4816-bc18-8c36132db17b","meta":{"profile":["http://hl7.org/fhir/us/qicore/StructureDefinition/qicore-organization"]},"identifier":[{"use":"temp","system":"urn:oid:2.16.840.1.113883.4.4","value":"21-3259825"}],"active":true,"type":[{"coding":[{"system":"http://terminology.hl7.org/CodeSystem/organization-type","code":"pay","display":"Payer"}]}],"name":"Blue Cross Blue Shield of Texas","telecom":[{"system":"phone","value":"(+1) 972-766-6900"}],"address":[{"use":"billing","type":"postal","line":["P.O. Box 660044"],"city":"Dallas","state":"TX","postalCode":"75266-0044","country":"USA"}]},"request":{"method":"PUT","url":"Organization/f13ae20c-ff4b-4816-bc18-8c36132db17b"}},{"fullUrl":"https://madie.cms.gov/MeasureReport/bbd983eb-5526-4ec9-8e4f-948d7f2e4244","resource":{"resourceType":"MeasureReport","id":"bbd983eb-5526-4ec9-8e4f-948d7f2e4244","meta":{"profile":["http://hl7.org/fhir/us/cqfmeasures/StructureDefinition/test-case-cqfm"]},"contained":[{"resourceType":"Parameters","id":"c3feeae9-a93b-431c-8a6e-2f13f6788c28-parameters","parameter":[{"name":"subject","valueString":"dde136d4-fa51-4b59-9bef-21dc51caf3d5"}]}],"extension":[{"url":"http://hl7.org/fhir/StructureDefinition/cqf-inputParameters","valueReference":{"reference":"#c3feeae9-a93b-431c-8a6e-2f13f6788c28-parameters"}},{"url":"http://hl7.org/fhir/us/cqfmeasures/StructureDefinition/cqfm-testCaseDescription","valueMarkdown":"Encounter 1/1 - 1/3, age 18 one day before MP, 2 distinct opioids, 1 with missing category"}],"modifierExtension":[{"url":"http://hl7.org/fhir/us/cqfmeasures/StructureDefinition/cqfm-isTestCase","valueBoolean":true}],"status":"complete","type":"individual","measure":"https://madie.cms.gov/Measure/CMS506FHIRSafeUseofOpioids","period":{"start":"2026-01-01","end":"2026-12-31"},"group":[{"id":"Group_1","population":[{"id":"InitialPopulation_1","code":{"coding":[{"system":"http://terminology.hl7.org/CodeSystem/measure-population","code":"initial-population","display":"Initial Population"}]},"count":1},{"id":"Denominator_1","code":{"coding":[{"system":"http://terminology.hl7.org/CodeSystem/measure-population","code":"denominator","display":"Denominator"}]},"count":1},{"id":"DenominatorExclusion_1","code":{"coding":[{"system":"http://terminology.hl7.org/CodeSystem/measure-population","code":"denominator-exclusion","display":"Denominator Exclusion"}]},"count":0},{"id":"Numerator_1","code":{"coding":[{"system":"http://terminology.hl7.org/CodeSystem/measure-population","code":"numerator","display":"Numerator"}]},"count":0}],"measureScore":{"value":0.0}}],"evaluatedResource":[{"reference":"Patient/dde136d4-fa51-4b59-9bef-21dc51caf3d5"},{"reference":"Encounter/6dc1d5da-3835-4304-b122-42bfe9714714"},{"reference":"MedicationRequest/74ab7bd8-d2a1-403c-bf4a-b56b16bb5e76"},{"reference":"Practitioner/9d8e6c59-e55c-445e-8eaf-4b7a6609dcef"},{"reference":"MedicationRequest/7277257b-48fd-44bd-967a-6b36c777a90d"},{"reference":"Coverage/fb09a9f1-060f-4dc5-b47c-e6b3e90e59fe"},{"reference":"Organization/f13ae20c-ff4b-4816-bc18-8c36132db17b"}]},"request":{"method":"PUT","url":"MeasureReport/bbd983eb-5526-4ec9-8e4f-948d7f2e4244"}}]},"request":{"method":"PUT","url":"Bundle/63236cd48d26c655c5601f06"}},{"resource":{"resourceType":"MedicationRequest","id":"74ab7bd8-d2a1-403c-bf4a-b56b16bb5e76","meta":{"profile":["http://hl7.org/fhir/us/qicore/StructureDefinition/qicore-medicationrequest"]},"status":"active","intent":"order","category":[{"coding":[{"system":"http://terminology.hl7.org/CodeSystem/medicationrequest-category","code":"discharge","display":"Discharge","userSelected":true}]}],"doNotPerform":false,"medicationCodeableConcept":{"coding":[{"system":"http://www.nlm.nih.gov/research/umls/rxnorm","code":"1014632","display":"acetaminophen 300 MG / oxycodone hydrochloride 7.5 MG Oral Tablet","userSelected":true}]},"subject":{"reference":"Patient/dde136d4-fa51-4b59-9bef-21dc51caf3d5"},"authoredOn":"2026-01-03T00:01:00.000+00:00","requester":{"reference":"Practitioner/9d8e6c59-e55c-445e-8eaf-4b7a6609dcef"}},"request":{"method":"PUT","url":"MedicationRequest/74ab7bd8-d2a1-403c-bf4a-b56b16bb5e76"}},{"resource":{"resourceType":"Encounter","id":"6dc1d5da-3835-4304-b122-42bfe9714714","meta":{"profile":["http://hl7.org/fhir/us/qicore/StructureDefinition/qicore-encounter"]},"status":"finished","class":{"system":"http://terminology.hl7.org/CodeSystem/v3-ActCode","code":"AMB","display":"ambulatory"},"type":[{"coding":[{"system":"http://snomed.info/sct","version":"2022-03","code":"183452005","display":"Emergency hospital admission (procedure)","userSelected":true}]}],"subject":{"reference":"Patient/dde136d4-fa51-4b59-9bef-21dc51caf3d5"},"period":{"start":"2026-01-01T00:00:00.000+00:00","end":"2026-01-03T00:30:00.000+00:00"}},"request":{"method":"PUT","url":"Encounter/6dc1d5da-3835-4304-b122-42bfe9714714"}},{"resource":{"resourceType":"MeasureReport","id":"bbd983eb-5526-4ec9-8e4f-948d7f2e4244","meta":{"profile":["http://hl7.org/fhir/us/cqfmeasures/StructureDefinition/test-case-cqfm"]},"contained":[{"resourceType":"Parameters","id":"c3feeae9-a93b-431c-8a6e-2f13f6788c28-parameters","parameter":[{"name":"subject","valueString":"dde136d4-fa51-4b59-9bef-21dc51caf3d5"}]}],"extension":[{"url":"http://hl7.org/fhir/StructureDefinition/cqf-inputParameters","valueReference":{"reference":"#c3feeae9-a93b-431c-8a6e-2f13f6788c28-parameters"}},{"url":"http://hl7.org/fhir/us/cqfmeasures/StructureDefinition/cqfm-testCaseDescription","valueMarkdown":"Encounter 1/1 - 1/3, age 18 one day before MP, 2 distinct opioids, 1 with missing category"}],"modifierExtension":[{"url":"http://hl7.org/fhir/us/cqfmeasures/StructureDefinition/cqfm-isTestCase","valueBoolean":true}],"status":"complete","type":"individual","measure":"https://madie.cms.gov/Measure/CMS506FHIRSafeUseofOpioids","period":{"start":"2026-01-01","end":"2026-12-31"},"group":[{"id":"Group_1","population":[{"id":"InitialPopulation_1","code":{"coding":[{"system":"http://terminology.hl7.org/CodeSystem/measure-population","code":"initial-population","display":"Initial Population"}]},"count":1},{"id":"Denominator_1","code":{"coding":[{"system":"http://terminology.hl7.org/CodeSystem/measure-population","code":"denominator","display":"Denominator"}]},"count":1},{"id":"DenominatorExclusion_1","code":{"coding":[{"system":"http://terminology.hl7.org/CodeSystem/measure-population","code":"denominator-exclusion","display":"Denominator Exclusion"}]},"count":0},{"id":"Numerator_1","code":{"coding":[{"system":"http://terminology.hl7.org/CodeSystem/measure-population","code":"numerator","display":"Numerator"}]},"count":0}],"measureScore":{"value":0.0}}],"evaluatedResource":[{"reference":"Patient/dde136d4-fa51-4b59-9bef-21dc51caf3d5"},{"reference":"Encounter/6dc1d5da-3835-4304-b122-42bfe9714714"},{"reference":"MedicationRequest/74ab7bd8-d2a1-403c-bf4a-b56b16bb5e76"},{"reference":"Practitioner/9d8e6c59-e55c-445e-8eaf-4b7a6609dcef"},{"reference":"MedicationRequest/7277257b-48fd-44bd-967a-6b36c777a90d"},{"reference":"Coverage/fb09a9f1-060f-4dc5-b47c-e6b3e90e59fe"},{"reference":"Organization/f13ae20c-ff4b-4816-bc18-8c36132db17b"}]},"request":{"method":"PUT","url":"MeasureReport/bbd983eb-5526-4ec9-8e4f-948d7f2e4244"}}]}