{"resourceType":"Bundle","id":"tests-6bf6194c-6151-4cbe-8860-52d5566863f3-bundle","type":"transaction","entry":[{"resource":{"resourceType":"Encounter","id":"19c26425-a979-47a8-86ef-3c3ef9b11cf5","meta":{"profile":["http://hl7.org/fhir/us/qicore/StructureDefinition/qicore-encounter"]},"status":"finished","class":{"system":"http://terminology.hl7.org/CodeSystem/v3-ActCode","code":"AMB","display":"ambulatory"},"type":[{"coding":[{"system":"http://snomed.info/sct","version":"2022-03","code":"183452005","display":"Emergency hospital admission (procedure)","userSelected":true}]}],"subject":{"reference":"Patient/6bf6194c-6151-4cbe-8860-52d5566863f3"},"period":{"start":"2026-12-28T08:00:00.000+00:00","end":"2026-12-31T23:59:00.000+00:00"}},"request":{"method":"PUT","url":"Encounter/19c26425-a979-47a8-86ef-3c3ef9b11cf5"}},{"resource":{"resourceType":"MeasureReport","id":"f48eca58-d826-4018-8bd0-6761e326f8c7","meta":{"profile":["http://hl7.org/fhir/us/cqfmeasures/StructureDefinition/test-case-cqfm"]},"contained":[{"resourceType":"Parameters","id":"f1e51604-1ad5-4d1b-84e7-3f630c5cf8c4-parameters","parameter":[{"name":"subject","valueString":"6bf6194c-6151-4cbe-8860-52d5566863f3"}]}],"extension":[{"url":"http://hl7.org/fhir/StructureDefinition/cqf-inputParameters","valueReference":{"reference":"#f1e51604-1ad5-4d1b-84e7-3f630c5cf8c4-parameters"}},{"url":"http://hl7.org/fhir/us/cqfmeasures/StructureDefinition/cqfm-testCaseDescription","valueMarkdown":"ED enc 12/28 0400-0800; inpt enc., 12/28 0800- 12/31  2359; benzo order at discharge, palliative care order 12/28 and palliative care performed 12/29"}],"modifierExtension":[{"url":"http://hl7.org/fhir/us/cqfmeasures/StructureDefinition/cqfm-isTestCase","valueBoolean":true}],"status":"complete","type":"individual","measure":"https://madie.cms.gov/Measure/CMS506FHIRSafeUseofOpioids","period":{"start":"2026-01-01","end":"2026-12-31"},"group":[{"id":"Group_1","population":[{"id":"InitialPopulation_1","code":{"coding":[{"system":"http://terminology.hl7.org/CodeSystem/measure-population","code":"initial-population","display":"Initial Population"}]},"count":1},{"id":"Denominator_1","code":{"coding":[{"system":"http://terminology.hl7.org/CodeSystem/measure-population","code":"denominator","display":"Denominator"}]},"count":1},{"id":"DenominatorExclusion_1","code":{"coding":[{"system":"http://terminology.hl7.org/CodeSystem/measure-population","code":"denominator-exclusion","display":"Denominator Exclusion"}]},"count":1},{"id":"Numerator_1","code":{"coding":[{"system":"http://terminology.hl7.org/CodeSystem/measure-population","code":"numerator","display":"Numerator"}]},"count":0}],"measureScore":{"value":0.0}}],"evaluatedResource":[{"reference":"Patient/6bf6194c-6151-4cbe-8860-52d5566863f3"},{"reference":"Encounter/19c26425-a979-47a8-86ef-3c3ef9b11cf5"},{"reference":"MedicationRequest/62e78bf4-55c2-4798-87f8-324afda447a3"},{"reference":"Procedure/6e94ec58-02cd-4cca-a8ba-7e62fa231562"},{"reference":"ServiceRequest/2b0a8834-3911-46a2-93ce-b2de3b1c576e"},{"reference":"Encounter/cda1b892-81d6-40d1-8543-9f3a3214b5d1"},{"reference":"Coverage/4ceba7bc-6bce-4dfb-b5db-034858fac95a"},{"reference":"Organization/9c2cfade-00b5-4164-804f-f9efb31504dc"},{"reference":"Practitioner/69bd68bd-f3d2-4220-af00-7a0d89f1a3ea"}]},"request":{"method":"PUT","url":"MeasureReport/f48eca58-d826-4018-8bd0-6761e326f8c7"}},{"resource":{"resourceType":"Coverage","id":"4ceba7bc-6bce-4dfb-b5db-034858fac95a","meta":{"profile":["http://hl7.org/fhir/us/qicore/StructureDefinition/qicore-coverage"]},"status":"active","subscriberId":"523435","beneficiary":{"reference":"Patient/6bf6194c-6151-4cbe-8860-52d5566863f3"},"relationship":{"coding":[{"system":"http://terminology.hl7.org/CodeSystem/subscriber-relationship","code":"self"}]},"payor":[{"reference":"Organization/9c2cfade-00b5-4164-804f-f9efb31504dc"}]},"request":{"method":"PUT","url":"Coverage/4ceba7bc-6bce-4dfb-b5db-034858fac95a"}},{"resource":{"resourceType":"Procedure","id":"6e94ec58-02cd-4cca-a8ba-7e62fa231562","meta":{"profile":["http://hl7.org/fhir/us/qicore/StructureDefinition/qicore-procedure"]},"extension":[{"url":"http://hl7.org/fhir/us/qicore/StructureDefinition/qicore-recorded","valueDateTime":"2026-12-29T09:00:00.000+00:00"}],"status":"completed","code":{"coding":[{"system":"http://snomed.info/sct","version":"2022-03","code":"103735009","display":"Palliative care (regime/therapy)","userSelected":true}]},"subject":{"reference":"Patient/6bf6194c-6151-4cbe-8860-52d5566863f3"},"performedDateTime":"2026-12-28T06:00:00.000+00:00"},"request":{"method":"PUT","url":"Procedure/6e94ec58-02cd-4cca-a8ba-7e62fa231562"}},{"resource":{"resourceType":"Encounter","id":"cda1b892-81d6-40d1-8543-9f3a3214b5d1","meta":{"profile":["http://hl7.org/fhir/us/qicore/StructureDefinition/qicore-encounter"]},"status":"finished","class":{"system":"http://terminology.hl7.org/CodeSystem/v3-ActCode","code":"AMB","display":"ambulatory"},"type":[{"coding":[{"system":"http://snomed.info/sct","version":"2022-03","code":"4525004","display":"Emergency department patient visit (procedure)","userSelected":true}]}],"subject":{"reference":"Patient/6bf6194c-6151-4cbe-8860-52d5566863f3"},"period":{"start":"2026-12-28T04:00:00.000+00:00","end":"2026-12-28T08:00:00.000+00:00"}},"request":{"method":"PUT","url":"Encounter/cda1b892-81d6-40d1-8543-9f3a3214b5d1"}},{"resource":{"resourceType":"Patient","id":"6bf6194c-6151-4cbe-8860-52d5566863f3","meta":{"profile":["http://hl7.org/fhir/us/qicore/StructureDefinition/qicore-patient"]},"extension":[{"url":"http://hl7.org/fhir/us/core/StructureDefinition/us-core-race","extension":[{"url":"ombCategory","valueCoding":{"system":"urn:oid:2.16.840.1.113883.6.238","code":"1002-5","display":"American Indian or Alaska Native","userSelected":true}},{"url":"text","valueString":"American Indian or Alaska Native"}]},{"url":"http://hl7.org/fhir/us/core/StructureDefinition/us-core-ethnicity","extension":[{"url":"ombCategory","valueCoding":{"system":"urn:oid:2.16.840.1.113883.6.238","code":"2135-2","display":"Hispanic or Latino","userSelected":true}},{"url":"text","valueString":"Hispanic or Latino"}]}],"identifier":[{"type":{"coding":[{"system":"http://terminology.hl7.org/CodeSystem/v2-0203","code":"MR"}]},"system":"https://bonnie-fhir.healthit.gov/","value":"64da783e2ac64e40260ff323"}],"name":[{"family":"DENEXPass","given":["EDInptPalliativeCare"]}],"gender":"male","birthDate":"2005-02-01"},"request":{"method":"PUT","url":"Patient/6bf6194c-6151-4cbe-8860-52d5566863f3"}},{"resource":{"resourceType":"ServiceRequest","id":"2b0a8834-3911-46a2-93ce-b2de3b1c576e","meta":{"profile":["http://hl7.org/fhir/us/qicore/StructureDefinition/qicore-servicerequest"]},"status":"active","intent":"order","code":{"coding":[{"system":"http://snomed.info/sct","version":"2022-03","code":"103735009","display":"Palliative care (regime/therapy)","userSelected":true}]},"subject":{"reference":"Patient/6bf6194c-6151-4cbe-8860-52d5566863f3"},"authoredOn":"2026-12-28T05:00:00.000+00:00"},"request":{"method":"PUT","url":"ServiceRequest/2b0a8834-3911-46a2-93ce-b2de3b1c576e"}},{"resource":{"resourceType":"MedicationRequest","id":"62e78bf4-55c2-4798-87f8-324afda447a3","meta":{"profile":["http://hl7.org/fhir/us/qicore/StructureDefinition/qicore-medicationrequest"]},"status":"completed","intent":"order","category":[{"coding":[{"system":"http://terminology.hl7.org/CodeSystem/medicationrequest-category","code":"discharge","display":"Discharge","userSelected":true}]}],"medicationCodeableConcept":{"coding":[{"system":"http://www.nlm.nih.gov/research/umls/rxnorm","code":"1298088","display":"flurazepam hydrochloride 15 MG Oral Capsule","userSelected":true}]},"subject":{"reference":"Patient/6bf6194c-6151-4cbe-8860-52d5566863f3"},"authoredOn":"2026-12-31T12:58:00.000+00:00","requester":{"reference":"Practitioner/69bd68bd-f3d2-4220-af00-7a0d89f1a3ea"}},"request":{"method":"PUT","url":"MedicationRequest/62e78bf4-55c2-4798-87f8-324afda447a3"}},{"resource":{"resourceType":"Organization","id":"9c2cfade-00b5-4164-804f-f9efb31504dc","meta":{"profile":["http://hl7.org/fhir/us/qicore/StructureDefinition/qicore-organization"]},"identifier":[{"use":"temp","system":"urn:oid:2.16.840.1.113883.4.4","value":"21-3259825"}],"active":true,"type":[{"coding":[{"system":"http://terminology.hl7.org/CodeSystem/organization-type","code":"pay","display":"Payer"}]}],"name":"Blue Cross Blue Shield of Texas","telecom":[{"system":"phone","value":"(+1) 972-766-6900"}],"address":[{"use":"billing","type":"postal","line":["P.O. Box 660044"],"city":"Dallas","state":"TX","postalCode":"75266-0044","country":"USA"}]},"request":{"method":"PUT","url":"Organization/9c2cfade-00b5-4164-804f-f9efb31504dc"}},{"resource":{"resourceType":"Bundle","id":"64da783e2ac64e40260ff323","type":"transaction","entry":[{"fullUrl":"https://madie.cms.gov/Patient/6bf6194c-6151-4cbe-8860-52d5566863f3","resource":{"resourceType":"Patient","id":"6bf6194c-6151-4cbe-8860-52d5566863f3","meta":{"profile":["http://hl7.org/fhir/us/qicore/StructureDefinition/qicore-patient"]},"extension":[{"url":"http://hl7.org/fhir/us/core/StructureDefinition/us-core-race","extension":[{"url":"ombCategory","valueCoding":{"system":"urn:oid:2.16.840.1.113883.6.238","code":"1002-5","display":"American Indian or Alaska Native","userSelected":true}},{"url":"text","valueString":"American Indian or Alaska Native"}]},{"url":"http://hl7.org/fhir/us/core/StructureDefinition/us-core-ethnicity","extension":[{"url":"ombCategory","valueCoding":{"system":"urn:oid:2.16.840.1.113883.6.238","code":"2135-2","display":"Hispanic or Latino","userSelected":true}},{"url":"text","valueString":"Hispanic or Latino"}]}],"identifier":[{"type":{"coding":[{"system":"http://terminology.hl7.org/CodeSystem/v2-0203","code":"MR"}]},"system":"https://bonnie-fhir.healthit.gov/","value":"64da783e2ac64e40260ff323"}],"name":[{"family":"DENEXPass","given":["EDInptPalliativeCare"]}],"gender":"male","birthDate":"2005-02-01"},"request":{"method":"PUT","url":"Patient/6bf6194c-6151-4cbe-8860-52d5566863f3"}},{"fullUrl":"https://madie.cms.gov/Encounter/19c26425-a979-47a8-86ef-3c3ef9b11cf5","resource":{"resourceType":"Encounter","id":"19c26425-a979-47a8-86ef-3c3ef9b11cf5","meta":{"profile":["http://hl7.org/fhir/us/qicore/StructureDefinition/qicore-encounter"]},"status":"finished","class":{"system":"http://terminology.hl7.org/CodeSystem/v3-ActCode","code":"AMB","display":"ambulatory"},"type":[{"coding":[{"system":"http://snomed.info/sct","version":"2022-03","code":"183452005","display":"Emergency hospital admission (procedure)","userSelected":true}]}],"subject":{"reference":"Patient/6bf6194c-6151-4cbe-8860-52d5566863f3"},"period":{"start":"2026-12-28T08:00:00.000+00:00","end":"2026-12-31T23:59:00.000+00:00"}},"request":{"method":"PUT","url":"Encounter/19c26425-a979-47a8-86ef-3c3ef9b11cf5"}},{"fullUrl":"https://madie.cms.gov/MedicationRequest/62e78bf4-55c2-4798-87f8-324afda447a3","resource":{"resourceType":"MedicationRequest","id":"62e78bf4-55c2-4798-87f8-324afda447a3","meta":{"profile":["http://hl7.org/fhir/us/qicore/StructureDefinition/qicore-medicationrequest"]},"status":"completed","intent":"order","category":[{"coding":[{"system":"http://terminology.hl7.org/CodeSystem/medicationrequest-category","code":"discharge","display":"Discharge","userSelected":true}]}],"medicationCodeableConcept":{"coding":[{"system":"http://www.nlm.nih.gov/research/umls/rxnorm","code":"1298088","display":"flurazepam hydrochloride 15 MG Oral Capsule","userSelected":true}]},"subject":{"reference":"Patient/6bf6194c-6151-4cbe-8860-52d5566863f3"},"authoredOn":"2026-12-31T12:58:00.000+00:00","requester":{"reference":"Practitioner/69bd68bd-f3d2-4220-af00-7a0d89f1a3ea"}},"request":{"method":"PUT","url":"MedicationRequest/62e78bf4-55c2-4798-87f8-324afda447a3"}},{"fullUrl":"https://madie.cms.gov/Procedure/6e94ec58-02cd-4cca-a8ba-7e62fa231562","resource":{"resourceType":"Procedure","id":"6e94ec58-02cd-4cca-a8ba-7e62fa231562","meta":{"profile":["http://hl7.org/fhir/us/qicore/StructureDefinition/qicore-procedure"]},"extension":[{"url":"http://hl7.org/fhir/us/qicore/StructureDefinition/qicore-recorded","valueDateTime":"2026-12-29T09:00:00.000+00:00"}],"status":"completed","code":{"coding":[{"system":"http://snomed.info/sct","version":"2022-03","code":"103735009","display":"Palliative care (regime/therapy)","userSelected":true}]},"subject":{"reference":"Patient/6bf6194c-6151-4cbe-8860-52d5566863f3"},"performedDateTime":"2026-12-28T06:00:00.000+00:00"},"request":{"method":"PUT","url":"Procedure/6e94ec58-02cd-4cca-a8ba-7e62fa231562"}},{"fullUrl":"https://madie.cms.gov/ServiceRequest/2b0a8834-3911-46a2-93ce-b2de3b1c576e","resource":{"resourceType":"ServiceRequest","id":"2b0a8834-3911-46a2-93ce-b2de3b1c576e","meta":{"profile":["http://hl7.org/fhir/us/qicore/StructureDefinition/qicore-servicerequest"]},"status":"active","intent":"order","code":{"coding":[{"system":"http://snomed.info/sct","version":"2022-03","code":"103735009","display":"Palliative care (regime/therapy)","userSelected":true}]},"subject":{"reference":"Patient/6bf6194c-6151-4cbe-8860-52d5566863f3"},"authoredOn":"2026-12-28T05:00:00.000+00:00"},"request":{"method":"PUT","url":"ServiceRequest/2b0a8834-3911-46a2-93ce-b2de3b1c576e"}},{"fullUrl":"https://madie.cms.gov/Encounter/cda1b892-81d6-40d1-8543-9f3a3214b5d1","resource":{"resourceType":"Encounter","id":"cda1b892-81d6-40d1-8543-9f3a3214b5d1","meta":{"profile":["http://hl7.org/fhir/us/qicore/StructureDefinition/qicore-encounter"]},"status":"finished","class":{"system":"http://terminology.hl7.org/CodeSystem/v3-ActCode","code":"AMB","display":"ambulatory"},"type":[{"coding":[{"system":"http://snomed.info/sct","version":"2022-03","code":"4525004","display":"Emergency department patient visit (procedure)","userSelected":true}]}],"subject":{"reference":"Patient/6bf6194c-6151-4cbe-8860-52d5566863f3"},"period":{"start":"2026-12-28T04:00:00.000+00:00","end":"2026-12-28T08:00:00.000+00:00"}},"request":{"method":"PUT","url":"Encounter/cda1b892-81d6-40d1-8543-9f3a3214b5d1"}},{"fullUrl":"https://madie.cms.gov/Coverage/4ceba7bc-6bce-4dfb-b5db-034858fac95a","resource":{"resourceType":"Coverage","id":"4ceba7bc-6bce-4dfb-b5db-034858fac95a","meta":{"profile":["http://hl7.org/fhir/us/qicore/StructureDefinition/qicore-coverage"]},"status":"active","subscriberId":"523435","beneficiary":{"reference":"Patient/6bf6194c-6151-4cbe-8860-52d5566863f3"},"relationship":{"coding":[{"system":"http://terminology.hl7.org/CodeSystem/subscriber-relationship","code":"self"}]},"payor":[{"reference":"Organization/9c2cfade-00b5-4164-804f-f9efb31504dc"}]},"request":{"method":"PUT","url":"Coverage/4ceba7bc-6bce-4dfb-b5db-034858fac95a"}},{"fullUrl":"https://madie.cms.gov/Organization/9c2cfade-00b5-4164-804f-f9efb31504dc","resource":{"resourceType":"Organization","id":"9c2cfade-00b5-4164-804f-f9efb31504dc","meta":{"profile":["http://hl7.org/fhir/us/qicore/StructureDefinition/qicore-organization"]},"identifier":[{"use":"temp","system":"urn:oid:2.16.840.1.113883.4.4","value":"21-3259825"}],"active":true,"type":[{"coding":[{"system":"http://terminology.hl7.org/CodeSystem/organization-type","code":"pay","display":"Payer"}]}],"name":"Blue Cross Blue Shield of Texas","telecom":[{"system":"phone","value":"(+1) 972-766-6900"}],"address":[{"use":"billing","type":"postal","line":["P.O. Box 660044"],"city":"Dallas","state":"TX","postalCode":"75266-0044","country":"USA"}]},"request":{"method":"PUT","url":"Organization/9c2cfade-00b5-4164-804f-f9efb31504dc"}},{"fullUrl":"https://madie.cms.gov/Practitioner/69bd68bd-f3d2-4220-af00-7a0d89f1a3ea","resource":{"resourceType":"Practitioner","id":"69bd68bd-f3d2-4220-af00-7a0d89f1a3ea","meta":{"profile":["http://hl7.org/fhir/us/qicore/StructureDefinition/qicore-practitioner"]},"identifier":[{"system":"http://hl7.org/fhir/sid/us-npi","value":"9999999896"}],"name":[{"family":"Evil","prefix":["Dr"]}]},"request":{"method":"PUT","url":"Practitioner/69bd68bd-f3d2-4220-af00-7a0d89f1a3ea"}},{"fullUrl":"https://madie.cms.gov/MeasureReport/f48eca58-d826-4018-8bd0-6761e326f8c7","resource":{"resourceType":"MeasureReport","id":"f48eca58-d826-4018-8bd0-6761e326f8c7","meta":{"profile":["http://hl7.org/fhir/us/cqfmeasures/StructureDefinition/test-case-cqfm"]},"contained":[{"resourceType":"Parameters","id":"f1e51604-1ad5-4d1b-84e7-3f630c5cf8c4-parameters","parameter":[{"name":"subject","valueString":"6bf6194c-6151-4cbe-8860-52d5566863f3"}]}],"extension":[{"url":"http://hl7.org/fhir/StructureDefinition/cqf-inputParameters","valueReference":{"reference":"#f1e51604-1ad5-4d1b-84e7-3f630c5cf8c4-parameters"}},{"url":"http://hl7.org/fhir/us/cqfmeasures/StructureDefinition/cqfm-testCaseDescription","valueMarkdown":"ED enc 12/28 0400-0800; inpt enc., 12/28 0800- 12/31  2359; benzo order at discharge, palliative care order 12/28 and palliative care performed 12/29"}],"modifierExtension":[{"url":"http://hl7.org/fhir/us/cqfmeasures/StructureDefinition/cqfm-isTestCase","valueBoolean":true}],"status":"complete","type":"individual","measure":"https://madie.cms.gov/Measure/CMS506FHIRSafeUseofOpioids","period":{"start":"2026-01-01","end":"2026-12-31"},"group":[{"id":"Group_1","population":[{"id":"InitialPopulation_1","code":{"coding":[{"system":"http://terminology.hl7.org/CodeSystem/measure-population","code":"initial-population","display":"Initial Population"}]},"count":1},{"id":"Denominator_1","code":{"coding":[{"system":"http://terminology.hl7.org/CodeSystem/measure-population","code":"denominator","display":"Denominator"}]},"count":1},{"id":"DenominatorExclusion_1","code":{"coding":[{"system":"http://terminology.hl7.org/CodeSystem/measure-population","code":"denominator-exclusion","display":"Denominator Exclusion"}]},"count":1},{"id":"Numerator_1","code":{"coding":[{"system":"http://terminology.hl7.org/CodeSystem/measure-population","code":"numerator","display":"Numerator"}]},"count":0}],"measureScore":{"value":0.0}}],"evaluatedResource":[{"reference":"Patient/6bf6194c-6151-4cbe-8860-52d5566863f3"},{"reference":"Encounter/19c26425-a979-47a8-86ef-3c3ef9b11cf5"},{"reference":"MedicationRequest/62e78bf4-55c2-4798-87f8-324afda447a3"},{"reference":"Procedure/6e94ec58-02cd-4cca-a8ba-7e62fa231562"},{"reference":"ServiceRequest/2b0a8834-3911-46a2-93ce-b2de3b1c576e"},{"reference":"Encounter/cda1b892-81d6-40d1-8543-9f3a3214b5d1"},{"reference":"Coverage/4ceba7bc-6bce-4dfb-b5db-034858fac95a"},{"reference":"Organization/9c2cfade-00b5-4164-804f-f9efb31504dc"},{"reference":"Practitioner/69bd68bd-f3d2-4220-af00-7a0d89f1a3ea"}]},"request":{"method":"PUT","url":"MeasureReport/f48eca58-d826-4018-8bd0-6761e326f8c7"}}]},"request":{"method":"PUT","url":"Bundle/64da783e2ac64e40260ff323"}},{"resource":{"resourceType":"Practitioner","id":"69bd68bd-f3d2-4220-af00-7a0d89f1a3ea","meta":{"profile":["http://hl7.org/fhir/us/qicore/StructureDefinition/qicore-practitioner"]},"identifier":[{"system":"http://hl7.org/fhir/sid/us-npi","value":"9999999896"}],"name":[{"family":"Evil","prefix":["Dr"]}]},"request":{"method":"PUT","url":"Practitioner/69bd68bd-f3d2-4220-af00-7a0d89f1a3ea"}}]}