{"resourceType":"Bundle","id":"tests-d1355827-93ec-465f-b776-b9129495acb7-bundle","type":"transaction","entry":[{"resource":{"resourceType":"Coverage","id":"455a18d7-fdc3-4c9c-9eb3-0ff1be1c24e3","meta":{"profile":["http://hl7.org/fhir/us/qicore/StructureDefinition/qicore-coverage"]},"status":"active","subscriberId":"523435","beneficiary":{"reference":"Patient/d1355827-93ec-465f-b776-b9129495acb7"},"relationship":{"coding":[{"system":"http://terminology.hl7.org/CodeSystem/subscriber-relationship","code":"self"}]},"payor":[{"reference":"Organization/da146555-b7fa-4865-b8fe-d5304e83f3c7"}]},"request":{"method":"PUT","url":"Coverage/455a18d7-fdc3-4c9c-9eb3-0ff1be1c24e3"}},{"resource":{"resourceType":"MeasureReport","id":"6f3bdcdf-d646-4ea0-b7fb-8304c1769380","meta":{"profile":["http://hl7.org/fhir/us/cqfmeasures/StructureDefinition/test-case-cqfm"]},"contained":[{"resourceType":"Parameters","id":"c95bccb2-e942-48f2-83f2-58de57f3a4aa-parameters","parameter":[{"name":"subject","valueString":"d1355827-93ec-465f-b776-b9129495acb7"}]}],"extension":[{"url":"http://hl7.org/fhir/StructureDefinition/cqf-inputParameters","valueReference":{"reference":"#c95bccb2-e942-48f2-83f2-58de57f3a4aa-parameters"}},{"url":"http://hl7.org/fhir/us/cqfmeasures/StructureDefinition/cqfm-testCaseDescription","valueMarkdown":"Encounter and benzo (completed) first day of next year"}],"modifierExtension":[{"url":"http://hl7.org/fhir/us/cqfmeasures/StructureDefinition/cqfm-isTestCase","valueBoolean":true}],"status":"complete","type":"individual","measure":"https://madie.cms.gov/Measure/CMS506FHIRSafeUseofOpioids","period":{"start":"2026-01-01","end":"2026-12-31"},"group":[{"id":"Group_1","population":[{"id":"InitialPopulation_1","code":{"coding":[{"system":"http://terminology.hl7.org/CodeSystem/measure-population","code":"initial-population","display":"Initial Population"}]},"count":0},{"id":"Denominator_1","code":{"coding":[{"system":"http://terminology.hl7.org/CodeSystem/measure-population","code":"denominator","display":"Denominator"}]},"count":0},{"id":"DenominatorExclusion_1","code":{"coding":[{"system":"http://terminology.hl7.org/CodeSystem/measure-population","code":"denominator-exclusion","display":"Denominator Exclusion"}]},"count":0},{"id":"Numerator_1","code":{"coding":[{"system":"http://terminology.hl7.org/CodeSystem/measure-population","code":"numerator","display":"Numerator"}]},"count":0}],"measureScore":{"value":0.0}}],"evaluatedResource":[{"reference":"Patient/d1355827-93ec-465f-b776-b9129495acb7"},{"reference":"Encounter/cd55001c-fcf4-410b-b758-08808bdaebfe"},{"reference":"MedicationRequest/d31d93d0-e327-4430-9f70-6eb097991191"},{"reference":"Practitioner/27c0f880-8986-4849-a8be-b3db98a4de4d"},{"reference":"Coverage/455a18d7-fdc3-4c9c-9eb3-0ff1be1c24e3"},{"reference":"Organization/da146555-b7fa-4865-b8fe-d5304e83f3c7"}]},"request":{"method":"PUT","url":"MeasureReport/6f3bdcdf-d646-4ea0-b7fb-8304c1769380"}},{"resource":{"resourceType":"MedicationRequest","id":"d31d93d0-e327-4430-9f70-6eb097991191","meta":{"profile":["http://hl7.org/fhir/us/qicore/StructureDefinition/qicore-medicationrequest"]},"status":"completed","intent":"order","category":[{"coding":[{"system":"http://terminology.hl7.org/CodeSystem/medicationrequest-category","code":"discharge","display":"Discharge","userSelected":true}]}],"doNotPerform":false,"medicationCodeableConcept":{"coding":[{"system":"http://www.nlm.nih.gov/research/umls/rxnorm","code":"1551393","display":"2 ML midazolam 5 MG/ML Prefilled Syringe","userSelected":true}]},"subject":{"reference":"Patient/d1355827-93ec-465f-b776-b9129495acb7"},"authoredOn":"2027-01-05T12:29:00.000+00:00","requester":{"reference":"Practitioner/27c0f880-8986-4849-a8be-b3db98a4de4d"}},"request":{"method":"PUT","url":"MedicationRequest/d31d93d0-e327-4430-9f70-6eb097991191"}},{"resource":{"resourceType":"Organization","id":"da146555-b7fa-4865-b8fe-d5304e83f3c7","meta":{"profile":["http://hl7.org/fhir/us/qicore/StructureDefinition/qicore-organization"]},"identifier":[{"use":"temp","system":"urn:oid:2.16.840.1.113883.4.4","value":"21-3259825"}],"active":true,"type":[{"coding":[{"system":"http://terminology.hl7.org/CodeSystem/organization-type","code":"pay","display":"Payer"}]}],"name":"Blue Cross Blue Shield of Texas","telecom":[{"system":"phone","value":"(+1) 972-766-6900"}],"address":[{"use":"billing","type":"postal","line":["P.O. Box 660044"],"city":"Dallas","state":"TX","postalCode":"75266-0044","country":"USA"}]},"request":{"method":"PUT","url":"Organization/da146555-b7fa-4865-b8fe-d5304e83f3c7"}},{"resource":{"resourceType":"Patient","id":"d1355827-93ec-465f-b776-b9129495acb7","meta":{"profile":["http://hl7.org/fhir/us/qicore/StructureDefinition/qicore-patient"]},"extension":[{"url":"http://hl7.org/fhir/us/core/StructureDefinition/us-core-race","extension":[{"url":"ombCategory","valueCoding":{"system":"urn:oid:2.16.840.1.113883.6.238","code":"2106-3","display":"White","userSelected":true}},{"url":"text","valueString":"Other Race"}]},{"url":"http://hl7.org/fhir/us/core/StructureDefinition/us-core-ethnicity","extension":[{"url":"ombCategory","valueCoding":{"system":"urn:oid:2.16.840.1.113883.6.238","code":"2135-2","display":"Hispanic or Latino","userSelected":true}},{"url":"text","valueString":"Hispanic or Latino"}]}],"identifier":[{"type":{"coding":[{"system":"http://terminology.hl7.org/CodeSystem/v2-0203","code":"MR"}]},"system":"https://bonnie-fhir.healthit.gov/","value":"632336b2414ba67d4e1d1c36"}],"name":[{"family":"IPPFail","given":["EncounterAndBenzoAfterMP"]}],"gender":"male","birthDate":"2006-12-31"},"request":{"method":"PUT","url":"Patient/d1355827-93ec-465f-b776-b9129495acb7"}},{"resource":{"resourceType":"Bundle","id":"632336b2414ba67d4e1d1c36","type":"transaction","entry":[{"fullUrl":"https://madie.cms.gov/Patient/d1355827-93ec-465f-b776-b9129495acb7","resource":{"resourceType":"Patient","id":"d1355827-93ec-465f-b776-b9129495acb7","meta":{"profile":["http://hl7.org/fhir/us/qicore/StructureDefinition/qicore-patient"]},"extension":[{"url":"http://hl7.org/fhir/us/core/StructureDefinition/us-core-race","extension":[{"url":"ombCategory","valueCoding":{"system":"urn:oid:2.16.840.1.113883.6.238","code":"2106-3","display":"White","userSelected":true}},{"url":"text","valueString":"Other Race"}]},{"url":"http://hl7.org/fhir/us/core/StructureDefinition/us-core-ethnicity","extension":[{"url":"ombCategory","valueCoding":{"system":"urn:oid:2.16.840.1.113883.6.238","code":"2135-2","display":"Hispanic or Latino","userSelected":true}},{"url":"text","valueString":"Hispanic or Latino"}]}],"identifier":[{"type":{"coding":[{"system":"http://terminology.hl7.org/CodeSystem/v2-0203","code":"MR"}]},"system":"https://bonnie-fhir.healthit.gov/","value":"632336b2414ba67d4e1d1c36"}],"name":[{"family":"IPPFail","given":["EncounterAndBenzoAfterMP"]}],"gender":"male","birthDate":"2006-12-31"},"request":{"method":"PUT","url":"Patient/d1355827-93ec-465f-b776-b9129495acb7"}},{"fullUrl":"https://madie.cms.gov/Encounter/cd55001c-fcf4-410b-b758-08808bdaebfe","resource":{"resourceType":"Encounter","id":"cd55001c-fcf4-410b-b758-08808bdaebfe","meta":{"profile":["http://hl7.org/fhir/us/qicore/StructureDefinition/qicore-encounter"]},"status":"finished","class":{"system":"http://terminology.hl7.org/CodeSystem/v3-ActCode","code":"AMB","display":"ambulatory"},"type":[{"coding":[{"system":"http://snomed.info/sct","version":"2022-03","code":"183452005","display":"Emergency hospital admission (procedure)","userSelected":true}]}],"subject":{"reference":"Patient/d1355827-93ec-465f-b776-b9129495acb7"},"period":{"start":"2027-01-01T12:00:00.000+00:00","end":"2027-01-05T12:30:00.000+00:00"}},"request":{"method":"PUT","url":"Encounter/cd55001c-fcf4-410b-b758-08808bdaebfe"}},{"fullUrl":"https://madie.cms.gov/MedicationRequest/d31d93d0-e327-4430-9f70-6eb097991191","resource":{"resourceType":"MedicationRequest","id":"d31d93d0-e327-4430-9f70-6eb097991191","meta":{"profile":["http://hl7.org/fhir/us/qicore/StructureDefinition/qicore-medicationrequest"]},"status":"completed","intent":"order","category":[{"coding":[{"system":"http://terminology.hl7.org/CodeSystem/medicationrequest-category","code":"discharge","display":"Discharge","userSelected":true}]}],"doNotPerform":false,"medicationCodeableConcept":{"coding":[{"system":"http://www.nlm.nih.gov/research/umls/rxnorm","code":"1551393","display":"2 ML midazolam 5 MG/ML Prefilled Syringe","userSelected":true}]},"subject":{"reference":"Patient/d1355827-93ec-465f-b776-b9129495acb7"},"authoredOn":"2027-01-05T12:29:00.000+00:00","requester":{"reference":"Practitioner/27c0f880-8986-4849-a8be-b3db98a4de4d"}},"request":{"method":"PUT","url":"MedicationRequest/d31d93d0-e327-4430-9f70-6eb097991191"}},{"fullUrl":"https://madie.cms.gov/Practitioner/27c0f880-8986-4849-a8be-b3db98a4de4d","resource":{"resourceType":"Practitioner","id":"27c0f880-8986-4849-a8be-b3db98a4de4d","meta":{"profile":["http://hl7.org/fhir/us/qicore/StructureDefinition/qicore-practitioner"]},"identifier":[{"system":"http://hl7.org/fhir/sid/us-npi","value":"9999999896"}],"active":true,"name":[{"family":"Ramires","given":["Alma"],"prefix":["Dr"]}],"address":[{"use":"home","line":["534 Erewhon St"],"city":"Netherville","state":"IN","postalCode":"46131"}],"qualification":[{"identifier":[{"system":"http://goodhealth.org/prIdentifier","value":"12345"}],"code":{"coding":[{"system":"http://terminology.hl7.org/CodeSystem/v2-0360|2.7","code":"BS","display":"Bachelor of Science"}],"text":"Bachelor of Science"},"period":{"start":"1995"},"issuer":{"display":"Example University"}}]},"request":{"method":"PUT","url":"Practitioner/27c0f880-8986-4849-a8be-b3db98a4de4d"}},{"fullUrl":"https://madie.cms.gov/Coverage/455a18d7-fdc3-4c9c-9eb3-0ff1be1c24e3","resource":{"resourceType":"Coverage","id":"455a18d7-fdc3-4c9c-9eb3-0ff1be1c24e3","meta":{"profile":["http://hl7.org/fhir/us/qicore/StructureDefinition/qicore-coverage"]},"status":"active","subscriberId":"523435","beneficiary":{"reference":"Patient/d1355827-93ec-465f-b776-b9129495acb7"},"relationship":{"coding":[{"system":"http://terminology.hl7.org/CodeSystem/subscriber-relationship","code":"self"}]},"payor":[{"reference":"Organization/da146555-b7fa-4865-b8fe-d5304e83f3c7"}]},"request":{"method":"PUT","url":"Coverage/455a18d7-fdc3-4c9c-9eb3-0ff1be1c24e3"}},{"fullUrl":"https://madie.cms.gov/Organization/da146555-b7fa-4865-b8fe-d5304e83f3c7","resource":{"resourceType":"Organization","id":"da146555-b7fa-4865-b8fe-d5304e83f3c7","meta":{"profile":["http://hl7.org/fhir/us/qicore/StructureDefinition/qicore-organization"]},"identifier":[{"use":"temp","system":"urn:oid:2.16.840.1.113883.4.4","value":"21-3259825"}],"active":true,"type":[{"coding":[{"system":"http://terminology.hl7.org/CodeSystem/organization-type","code":"pay","display":"Payer"}]}],"name":"Blue Cross Blue Shield of Texas","telecom":[{"system":"phone","value":"(+1) 972-766-6900"}],"address":[{"use":"billing","type":"postal","line":["P.O. Box 660044"],"city":"Dallas","state":"TX","postalCode":"75266-0044","country":"USA"}]},"request":{"method":"PUT","url":"Organization/da146555-b7fa-4865-b8fe-d5304e83f3c7"}},{"fullUrl":"https://madie.cms.gov/MeasureReport/6f3bdcdf-d646-4ea0-b7fb-8304c1769380","resource":{"resourceType":"MeasureReport","id":"6f3bdcdf-d646-4ea0-b7fb-8304c1769380","meta":{"profile":["http://hl7.org/fhir/us/cqfmeasures/StructureDefinition/test-case-cqfm"]},"contained":[{"resourceType":"Parameters","id":"c95bccb2-e942-48f2-83f2-58de57f3a4aa-parameters","parameter":[{"name":"subject","valueString":"d1355827-93ec-465f-b776-b9129495acb7"}]}],"extension":[{"url":"http://hl7.org/fhir/StructureDefinition/cqf-inputParameters","valueReference":{"reference":"#c95bccb2-e942-48f2-83f2-58de57f3a4aa-parameters"}},{"url":"http://hl7.org/fhir/us/cqfmeasures/StructureDefinition/cqfm-testCaseDescription","valueMarkdown":"Encounter and benzo (completed) first day of next year"}],"modifierExtension":[{"url":"http://hl7.org/fhir/us/cqfmeasures/StructureDefinition/cqfm-isTestCase","valueBoolean":true}],"status":"complete","type":"individual","measure":"https://madie.cms.gov/Measure/CMS506FHIRSafeUseofOpioids","period":{"start":"2026-01-01","end":"2026-12-31"},"group":[{"id":"Group_1","population":[{"id":"InitialPopulation_1","code":{"coding":[{"system":"http://terminology.hl7.org/CodeSystem/measure-population","code":"initial-population","display":"Initial Population"}]},"count":0},{"id":"Denominator_1","code":{"coding":[{"system":"http://terminology.hl7.org/CodeSystem/measure-population","code":"denominator","display":"Denominator"}]},"count":0},{"id":"DenominatorExclusion_1","code":{"coding":[{"system":"http://terminology.hl7.org/CodeSystem/measure-population","code":"denominator-exclusion","display":"Denominator Exclusion"}]},"count":0},{"id":"Numerator_1","code":{"coding":[{"system":"http://terminology.hl7.org/CodeSystem/measure-population","code":"numerator","display":"Numerator"}]},"count":0}],"measureScore":{"value":0.0}}],"evaluatedResource":[{"reference":"Patient/d1355827-93ec-465f-b776-b9129495acb7"},{"reference":"Encounter/cd55001c-fcf4-410b-b758-08808bdaebfe"},{"reference":"MedicationRequest/d31d93d0-e327-4430-9f70-6eb097991191"},{"reference":"Practitioner/27c0f880-8986-4849-a8be-b3db98a4de4d"},{"reference":"Coverage/455a18d7-fdc3-4c9c-9eb3-0ff1be1c24e3"},{"reference":"Organization/da146555-b7fa-4865-b8fe-d5304e83f3c7"}]},"request":{"method":"PUT","url":"MeasureReport/6f3bdcdf-d646-4ea0-b7fb-8304c1769380"}}]},"request":{"method":"PUT","url":"Bundle/632336b2414ba67d4e1d1c36"}},{"resource":{"resourceType":"Practitioner","id":"27c0f880-8986-4849-a8be-b3db98a4de4d","meta":{"profile":["http://hl7.org/fhir/us/qicore/StructureDefinition/qicore-practitioner"]},"identifier":[{"system":"http://hl7.org/fhir/sid/us-npi","value":"9999999896"}],"active":true,"name":[{"family":"Ramires","given":["Alma"],"prefix":["Dr"]}],"address":[{"use":"home","line":["534 Erewhon St"],"city":"Netherville","state":"IN","postalCode":"46131"}],"qualification":[{"identifier":[{"system":"http://goodhealth.org/prIdentifier","value":"12345"}],"code":{"coding":[{"system":"http://terminology.hl7.org/CodeSystem/v2-0360|2.7","code":"BS","display":"Bachelor of Science"}],"text":"Bachelor of Science"},"period":{"start":"1995"},"issuer":{"display":"Example University"}}]},"request":{"method":"PUT","url":"Practitioner/27c0f880-8986-4849-a8be-b3db98a4de4d"}},{"resource":{"resourceType":"Encounter","id":"cd55001c-fcf4-410b-b758-08808bdaebfe","meta":{"profile":["http://hl7.org/fhir/us/qicore/StructureDefinition/qicore-encounter"]},"status":"finished","class":{"system":"http://terminology.hl7.org/CodeSystem/v3-ActCode","code":"AMB","display":"ambulatory"},"type":[{"coding":[{"system":"http://snomed.info/sct","version":"2022-03","code":"183452005","display":"Emergency hospital admission (procedure)","userSelected":true}]}],"subject":{"reference":"Patient/d1355827-93ec-465f-b776-b9129495acb7"},"period":{"start":"2027-01-01T12:00:00.000+00:00","end":"2027-01-05T12:30:00.000+00:00"}},"request":{"method":"PUT","url":"Encounter/cd55001c-fcf4-410b-b758-08808bdaebfe"}}]}