{"resourceType":"Bundle","id":"tests-59c3a231-ef45-424a-89f7-8e9e8b037633-bundle","type":"transaction","entry":[{"resource":{"resourceType":"Coverage","id":"25becb1c-26a4-429f-9e28-d5872600a362","meta":{"profile":["http://hl7.org/fhir/us/qicore/StructureDefinition/qicore-coverage"]},"status":"active","subscriberId":"523435","beneficiary":{"reference":"Patient/59c3a231-ef45-424a-89f7-8e9e8b037633"},"relationship":{"coding":[{"system":"http://terminology.hl7.org/CodeSystem/subscriber-relationship","code":"self"}]},"payor":[{"reference":"Organization/7ef12d0b-5ff8-41fe-839e-5039c38eebe0"}]},"request":{"method":"PUT","url":"Coverage/25becb1c-26a4-429f-9e28-d5872600a362"}},{"resource":{"resourceType":"Bundle","id":"63233350414ba67d4e1d1c2f","type":"transaction","entry":[{"fullUrl":"https://madie.cms.gov/Patient/59c3a231-ef45-424a-89f7-8e9e8b037633","resource":{"resourceType":"Patient","id":"59c3a231-ef45-424a-89f7-8e9e8b037633","meta":{"profile":["http://hl7.org/fhir/us/qicore/StructureDefinition/qicore-patient"]},"extension":[{"url":"http://hl7.org/fhir/us/core/StructureDefinition/us-core-race","extension":[{"url":"ombCategory","valueCoding":{"system":"urn:oid:2.16.840.1.113883.6.238","code":"2028-9","display":"Asian","userSelected":true}},{"url":"text","valueString":"Asian"}]},{"url":"http://hl7.org/fhir/us/core/StructureDefinition/us-core-ethnicity","extension":[{"url":"ombCategory","valueCoding":{"system":"urn:oid:2.16.840.1.113883.6.238","code":"2186-5","display":"Not Hispanic or Latino","userSelected":true}},{"url":"text","valueString":"Not Hispanic or Latino"}]}],"identifier":[{"type":{"coding":[{"system":"http://terminology.hl7.org/CodeSystem/v2-0203","code":"MR"}]},"system":"https://bonnie-fhir.healthit.gov/","value":"63233350414ba67d4e1d1c2f"}],"name":[{"family":"DENEXPass","given":["CancerEncounterDx"]}],"gender":"female","birthDate":"1944-02-01"},"request":{"method":"PUT","url":"Patient/59c3a231-ef45-424a-89f7-8e9e8b037633"}},{"fullUrl":"https://madie.cms.gov/Encounter/5b4dc4ec-a7da-4b04-aa4b-51aaee72e97b","resource":{"resourceType":"Encounter","id":"5b4dc4ec-a7da-4b04-aa4b-51aaee72e97b","meta":{"profile":["http://hl7.org/fhir/us/qicore/StructureDefinition/qicore-encounter"]},"status":"finished","class":{"system":"http://terminology.hl7.org/CodeSystem/v3-ActCode","code":"IMP","display":"inpatient encounter"},"type":[{"coding":[{"system":"http://snomed.info/sct","version":"2022-03","code":"183452005","display":"Emergency hospital admission (procedure)","userSelected":true}]}],"subject":{"reference":"Patient/59c3a231-ef45-424a-89f7-8e9e8b037633"},"period":{"start":"2026-01-01T23:59:00.000+00:00","end":"2026-01-03T23:59:00.000+00:00"},"reasonCode":[{"coding":[{"system":"http://snomed.info/sct","code":"735935009","display":"Chronic pain due to malignant neoplastic disease (finding)"}]}],"diagnosis":[{"condition":{"reference":"Condition/b8245ee2-9a20-4374-b69d-6f1ba401a9fe"}}]},"request":{"method":"PUT","url":"Encounter/5b4dc4ec-a7da-4b04-aa4b-51aaee72e97b"}},{"fullUrl":"https://madie.cms.gov/MedicationRequest/32c6083c-28dd-4c7a-a97d-3e7dec55a76b","resource":{"resourceType":"MedicationRequest","id":"32c6083c-28dd-4c7a-a97d-3e7dec55a76b","meta":{"profile":["http://hl7.org/fhir/us/qicore/StructureDefinition/qicore-medicationrequest"]},"status":"active","intent":"order","category":[{"coding":[{"system":"http://terminology.hl7.org/CodeSystem/medicationrequest-category","code":"discharge","display":"Discharge","userSelected":true}]}],"doNotPerform":false,"medicationCodeableConcept":{"coding":[{"system":"http://www.nlm.nih.gov/research/umls/rxnorm","code":"2103192","display":"sufentanil 0.03 MG Sublingual Tablet","userSelected":true}]},"subject":{"reference":"Patient/59c3a231-ef45-424a-89f7-8e9e8b037633"},"authoredOn":"2026-01-03T23:59:00.000+00:00","requester":{"reference":"Practitioner/3dba52d8-4ce4-4371-bd06-fbd36255af37"}},"request":{"method":"PUT","url":"MedicationRequest/32c6083c-28dd-4c7a-a97d-3e7dec55a76b"}},{"fullUrl":"https://madie.cms.gov/Practitioner/3dba52d8-4ce4-4371-bd06-fbd36255af37","resource":{"resourceType":"Practitioner","id":"3dba52d8-4ce4-4371-bd06-fbd36255af37","meta":{"profile":["http://hl7.org/fhir/us/qicore/StructureDefinition/qicore-practitioner"]},"identifier":[{"system":"http://hl7.org/fhir/sid/us-npi","value":"9999999896"}],"active":true,"name":[{"family":"Ramires","given":["Alma"],"prefix":["Dr"]}],"address":[{"use":"home","line":["534 Erewhon St"],"city":"Netherville","state":"IN","postalCode":"46131"}],"qualification":[{"identifier":[{"system":"http://goodhealth.org/prIdentifier","value":"12345"}],"code":{"coding":[{"system":"http://terminology.hl7.org/CodeSystem/v2-0360|2.7","code":"BS","display":"Bachelor of Science"}],"text":"Bachelor of Science"},"period":{"start":"1995"},"issuer":{"display":"Example University"}}]},"request":{"method":"PUT","url":"Practitioner/3dba52d8-4ce4-4371-bd06-fbd36255af37"}},{"fullUrl":"https://madie.cms.gov/Condition/b8245ee2-9a20-4374-b69d-6f1ba401a9fe","resource":{"resourceType":"Condition","id":"b8245ee2-9a20-4374-b69d-6f1ba401a9fe","meta":{"profile":["http://hl7.org/fhir/us/qicore/StructureDefinition/qicore-condition"]},"clinicalStatus":{"coding":[{"system":"http://terminology.hl7.org/CodeSystem/condition-clinical","code":"active","display":"active","userSelected":true}]},"category":[{"coding":[{"system":"http://terminology.hl7.org/CodeSystem/condition-category","code":"encounter-diagnosis","display":"Encounter Diagnosis"},{"system":"http://snomed.info/sct","code":"439401001","display":"Diagnosis"}]}],"code":{"coding":[{"system":"http://snomed.info/sct","version":"2022-03","code":"735935009","display":"Chronic pain due to malignant neoplastic disease (finding)","userSelected":true}]},"subject":{"reference":"Patient/59c3a231-ef45-424a-89f7-8e9e8b037633"},"onsetPeriod":{"start":"2025-12-31T08:00:00.000+00:00"}},"request":{"method":"PUT","url":"Condition/b8245ee2-9a20-4374-b69d-6f1ba401a9fe"}},{"fullUrl":"https://madie.cms.gov/Coverage/25becb1c-26a4-429f-9e28-d5872600a362","resource":{"resourceType":"Coverage","id":"25becb1c-26a4-429f-9e28-d5872600a362","meta":{"profile":["http://hl7.org/fhir/us/qicore/StructureDefinition/qicore-coverage"]},"status":"active","subscriberId":"523435","beneficiary":{"reference":"Patient/59c3a231-ef45-424a-89f7-8e9e8b037633"},"relationship":{"coding":[{"system":"http://terminology.hl7.org/CodeSystem/subscriber-relationship","code":"self"}]},"payor":[{"reference":"Organization/7ef12d0b-5ff8-41fe-839e-5039c38eebe0"}]},"request":{"method":"PUT","url":"Coverage/25becb1c-26a4-429f-9e28-d5872600a362"}},{"fullUrl":"https://madie.cms.gov/Organization/7ef12d0b-5ff8-41fe-839e-5039c38eebe0","resource":{"resourceType":"Organization","id":"7ef12d0b-5ff8-41fe-839e-5039c38eebe0","meta":{"profile":["http://hl7.org/fhir/us/qicore/StructureDefinition/qicore-organization"]},"identifier":[{"use":"temp","system":"urn:oid:2.16.840.1.113883.4.4","value":"21-3259825"}],"active":true,"type":[{"coding":[{"system":"http://terminology.hl7.org/CodeSystem/organization-type","code":"pay","display":"Payer"}]}],"name":"Blue Cross Blue Shield of Texas","telecom":[{"system":"phone","value":"(+1) 972-766-6900"}],"address":[{"use":"billing","type":"postal","line":["P.O. Box 660044"],"city":"Dallas","state":"TX","postalCode":"75266-0044","country":"USA"}]},"request":{"method":"PUT","url":"Organization/7ef12d0b-5ff8-41fe-839e-5039c38eebe0"}},{"fullUrl":"https://madie.cms.gov/MeasureReport/18f4b40e-cdcf-4a10-82c1-a53caea59d53","resource":{"resourceType":"MeasureReport","id":"18f4b40e-cdcf-4a10-82c1-a53caea59d53","meta":{"profile":["http://hl7.org/fhir/us/cqfmeasures/StructureDefinition/test-case-cqfm"]},"contained":[{"resourceType":"Parameters","id":"33bf2106-2efc-4617-a397-70906b40f3b5-parameters","parameter":[{"name":"subject","valueString":"59c3a231-ef45-424a-89f7-8e9e8b037633"}]}],"extension":[{"url":"http://hl7.org/fhir/StructureDefinition/cqf-inputParameters","valueReference":{"reference":"#33bf2106-2efc-4617-a397-70906b40f3b5-parameters"}},{"url":"http://hl7.org/fhir/us/cqfmeasures/StructureDefinition/cqfm-testCaseDescription","valueMarkdown":"Enc.  1/1  at 2359 - 1/3 at 2359; encounter dx cancer pain, diagnosed last day of prior year, opioid at 2359 on discharge date; "}],"modifierExtension":[{"url":"http://hl7.org/fhir/us/cqfmeasures/StructureDefinition/cqfm-isTestCase","valueBoolean":true}],"status":"complete","type":"individual","measure":"https://madie.cms.gov/Measure/CMS506FHIRSafeUseofOpioids","period":{"start":"2026-01-01","end":"2026-12-31"},"group":[{"id":"Group_1","population":[{"id":"InitialPopulation_1","code":{"coding":[{"system":"http://terminology.hl7.org/CodeSystem/measure-population","code":"initial-population","display":"Initial Population"}]},"count":1},{"id":"Denominator_1","code":{"coding":[{"system":"http://terminology.hl7.org/CodeSystem/measure-population","code":"denominator","display":"Denominator"}]},"count":1},{"id":"DenominatorExclusion_1","code":{"coding":[{"system":"http://terminology.hl7.org/CodeSystem/measure-population","code":"denominator-exclusion","display":"Denominator Exclusion"}]},"count":1},{"id":"Numerator_1","code":{"coding":[{"system":"http://terminology.hl7.org/CodeSystem/measure-population","code":"numerator","display":"Numerator"}]},"count":0}],"measureScore":{"value":0.0}}],"evaluatedResource":[{"reference":"Patient/59c3a231-ef45-424a-89f7-8e9e8b037633"},{"reference":"Encounter/5b4dc4ec-a7da-4b04-aa4b-51aaee72e97b"},{"reference":"MedicationRequest/32c6083c-28dd-4c7a-a97d-3e7dec55a76b"},{"reference":"Practitioner/3dba52d8-4ce4-4371-bd06-fbd36255af37"},{"reference":"Condition/b8245ee2-9a20-4374-b69d-6f1ba401a9fe"},{"reference":"Coverage/25becb1c-26a4-429f-9e28-d5872600a362"},{"reference":"Organization/7ef12d0b-5ff8-41fe-839e-5039c38eebe0"}]},"request":{"method":"PUT","url":"MeasureReport/18f4b40e-cdcf-4a10-82c1-a53caea59d53"}}]},"request":{"method":"PUT","url":"Bundle/63233350414ba67d4e1d1c2f"}},{"resource":{"resourceType":"Organization","id":"7ef12d0b-5ff8-41fe-839e-5039c38eebe0","meta":{"profile":["http://hl7.org/fhir/us/qicore/StructureDefinition/qicore-organization"]},"identifier":[{"use":"temp","system":"urn:oid:2.16.840.1.113883.4.4","value":"21-3259825"}],"active":true,"type":[{"coding":[{"system":"http://terminology.hl7.org/CodeSystem/organization-type","code":"pay","display":"Payer"}]}],"name":"Blue Cross Blue Shield of Texas","telecom":[{"system":"phone","value":"(+1) 972-766-6900"}],"address":[{"use":"billing","type":"postal","line":["P.O. Box 660044"],"city":"Dallas","state":"TX","postalCode":"75266-0044","country":"USA"}]},"request":{"method":"PUT","url":"Organization/7ef12d0b-5ff8-41fe-839e-5039c38eebe0"}},{"resource":{"resourceType":"MeasureReport","id":"18f4b40e-cdcf-4a10-82c1-a53caea59d53","meta":{"profile":["http://hl7.org/fhir/us/cqfmeasures/StructureDefinition/test-case-cqfm"]},"contained":[{"resourceType":"Parameters","id":"33bf2106-2efc-4617-a397-70906b40f3b5-parameters","parameter":[{"name":"subject","valueString":"59c3a231-ef45-424a-89f7-8e9e8b037633"}]}],"extension":[{"url":"http://hl7.org/fhir/StructureDefinition/cqf-inputParameters","valueReference":{"reference":"#33bf2106-2efc-4617-a397-70906b40f3b5-parameters"}},{"url":"http://hl7.org/fhir/us/cqfmeasures/StructureDefinition/cqfm-testCaseDescription","valueMarkdown":"Enc.  1/1  at 2359 - 1/3 at 2359; encounter dx cancer pain, diagnosed last day of prior year, opioid at 2359 on discharge date; "}],"modifierExtension":[{"url":"http://hl7.org/fhir/us/cqfmeasures/StructureDefinition/cqfm-isTestCase","valueBoolean":true}],"status":"complete","type":"individual","measure":"https://madie.cms.gov/Measure/CMS506FHIRSafeUseofOpioids","period":{"start":"2026-01-01","end":"2026-12-31"},"group":[{"id":"Group_1","population":[{"id":"InitialPopulation_1","code":{"coding":[{"system":"http://terminology.hl7.org/CodeSystem/measure-population","code":"initial-population","display":"Initial Population"}]},"count":1},{"id":"Denominator_1","code":{"coding":[{"system":"http://terminology.hl7.org/CodeSystem/measure-population","code":"denominator","display":"Denominator"}]},"count":1},{"id":"DenominatorExclusion_1","code":{"coding":[{"system":"http://terminology.hl7.org/CodeSystem/measure-population","code":"denominator-exclusion","display":"Denominator Exclusion"}]},"count":1},{"id":"Numerator_1","code":{"coding":[{"system":"http://terminology.hl7.org/CodeSystem/measure-population","code":"numerator","display":"Numerator"}]},"count":0}],"measureScore":{"value":0.0}}],"evaluatedResource":[{"reference":"Patient/59c3a231-ef45-424a-89f7-8e9e8b037633"},{"reference":"Encounter/5b4dc4ec-a7da-4b04-aa4b-51aaee72e97b"},{"reference":"MedicationRequest/32c6083c-28dd-4c7a-a97d-3e7dec55a76b"},{"reference":"Practitioner/3dba52d8-4ce4-4371-bd06-fbd36255af37"},{"reference":"Condition/b8245ee2-9a20-4374-b69d-6f1ba401a9fe"},{"reference":"Coverage/25becb1c-26a4-429f-9e28-d5872600a362"},{"reference":"Organization/7ef12d0b-5ff8-41fe-839e-5039c38eebe0"}]},"request":{"method":"PUT","url":"MeasureReport/18f4b40e-cdcf-4a10-82c1-a53caea59d53"}},{"resource":{"resourceType":"Practitioner","id":"3dba52d8-4ce4-4371-bd06-fbd36255af37","meta":{"profile":["http://hl7.org/fhir/us/qicore/StructureDefinition/qicore-practitioner"]},"identifier":[{"system":"http://hl7.org/fhir/sid/us-npi","value":"9999999896"}],"active":true,"name":[{"family":"Ramires","given":["Alma"],"prefix":["Dr"]}],"address":[{"use":"home","line":["534 Erewhon St"],"city":"Netherville","state":"IN","postalCode":"46131"}],"qualification":[{"identifier":[{"system":"http://goodhealth.org/prIdentifier","value":"12345"}],"code":{"coding":[{"system":"http://terminology.hl7.org/CodeSystem/v2-0360|2.7","code":"BS","display":"Bachelor of Science"}],"text":"Bachelor of Science"},"period":{"start":"1995"},"issuer":{"display":"Example University"}}]},"request":{"method":"PUT","url":"Practitioner/3dba52d8-4ce4-4371-bd06-fbd36255af37"}},{"resource":{"resourceType":"Condition","id":"b8245ee2-9a20-4374-b69d-6f1ba401a9fe","meta":{"profile":["http://hl7.org/fhir/us/qicore/StructureDefinition/qicore-condition"]},"clinicalStatus":{"coding":[{"system":"http://terminology.hl7.org/CodeSystem/condition-clinical","code":"active","display":"active","userSelected":true}]},"category":[{"coding":[{"system":"http://terminology.hl7.org/CodeSystem/condition-category","code":"encounter-diagnosis","display":"Encounter Diagnosis"},{"system":"http://snomed.info/sct","code":"439401001","display":"Diagnosis"}]}],"code":{"coding":[{"system":"http://snomed.info/sct","version":"2022-03","code":"735935009","display":"Chronic pain due to malignant neoplastic disease (finding)","userSelected":true}]},"subject":{"reference":"Patient/59c3a231-ef45-424a-89f7-8e9e8b037633"},"onsetPeriod":{"start":"2025-12-31T08:00:00.000+00:00"}},"request":{"method":"PUT","url":"Condition/b8245ee2-9a20-4374-b69d-6f1ba401a9fe"}},{"resource":{"resourceType":"Patient","id":"59c3a231-ef45-424a-89f7-8e9e8b037633","meta":{"profile":["http://hl7.org/fhir/us/qicore/StructureDefinition/qicore-patient"]},"extension":[{"url":"http://hl7.org/fhir/us/core/StructureDefinition/us-core-race","extension":[{"url":"ombCategory","valueCoding":{"system":"urn:oid:2.16.840.1.113883.6.238","code":"2028-9","display":"Asian","userSelected":true}},{"url":"text","valueString":"Asian"}]},{"url":"http://hl7.org/fhir/us/core/StructureDefinition/us-core-ethnicity","extension":[{"url":"ombCategory","valueCoding":{"system":"urn:oid:2.16.840.1.113883.6.238","code":"2186-5","display":"Not Hispanic or Latino","userSelected":true}},{"url":"text","valueString":"Not Hispanic or Latino"}]}],"identifier":[{"type":{"coding":[{"system":"http://terminology.hl7.org/CodeSystem/v2-0203","code":"MR"}]},"system":"https://bonnie-fhir.healthit.gov/","value":"63233350414ba67d4e1d1c2f"}],"name":[{"family":"DENEXPass","given":["CancerEncounterDx"]}],"gender":"female","birthDate":"1944-02-01"},"request":{"method":"PUT","url":"Patient/59c3a231-ef45-424a-89f7-8e9e8b037633"}},{"resource":{"resourceType":"Encounter","id":"5b4dc4ec-a7da-4b04-aa4b-51aaee72e97b","meta":{"profile":["http://hl7.org/fhir/us/qicore/StructureDefinition/qicore-encounter"]},"status":"finished","class":{"system":"http://terminology.hl7.org/CodeSystem/v3-ActCode","code":"IMP","display":"inpatient encounter"},"type":[{"coding":[{"system":"http://snomed.info/sct","version":"2022-03","code":"183452005","display":"Emergency hospital admission (procedure)","userSelected":true}]}],"subject":{"reference":"Patient/59c3a231-ef45-424a-89f7-8e9e8b037633"},"period":{"start":"2026-01-01T23:59:00.000+00:00","end":"2026-01-03T23:59:00.000+00:00"},"reasonCode":[{"coding":[{"system":"http://snomed.info/sct","code":"735935009","display":"Chronic pain due to malignant neoplastic disease (finding)"}]}],"diagnosis":[{"condition":{"reference":"Condition/b8245ee2-9a20-4374-b69d-6f1ba401a9fe"}}]},"request":{"method":"PUT","url":"Encounter/5b4dc4ec-a7da-4b04-aa4b-51aaee72e97b"}},{"resource":{"resourceType":"MedicationRequest","id":"32c6083c-28dd-4c7a-a97d-3e7dec55a76b","meta":{"profile":["http://hl7.org/fhir/us/qicore/StructureDefinition/qicore-medicationrequest"]},"status":"active","intent":"order","category":[{"coding":[{"system":"http://terminology.hl7.org/CodeSystem/medicationrequest-category","code":"discharge","display":"Discharge","userSelected":true}]}],"doNotPerform":false,"medicationCodeableConcept":{"coding":[{"system":"http://www.nlm.nih.gov/research/umls/rxnorm","code":"2103192","display":"sufentanil 0.03 MG Sublingual Tablet","userSelected":true}]},"subject":{"reference":"Patient/59c3a231-ef45-424a-89f7-8e9e8b037633"},"authoredOn":"2026-01-03T23:59:00.000+00:00","requester":{"reference":"Practitioner/3dba52d8-4ce4-4371-bd06-fbd36255af37"}},"request":{"method":"PUT","url":"MedicationRequest/32c6083c-28dd-4c7a-a97d-3e7dec55a76b"}}]}