{"resourceType":"Bundle","id":"tests-aecf5ae9-e02d-43cd-a1ca-3fd653cd4508-bundle","type":"transaction","entry":[{"resource":{"resourceType":"Encounter","id":"7bf90039-1d85-482a-b76f-e534f7fc0ceb","meta":{"profile":["http://hl7.org/fhir/us/qicore/StructureDefinition/qicore-encounter"]},"status":"finished","class":{"system":"http://terminology.hl7.org/CodeSystem/v3-ActCode","code":"IMP","display":"inpatient encounter"},"type":[{"coding":[{"system":"http://snomed.info/sct","code":"183452005","display":"Emergency hospital admission (procedure)","userSelected":true}]}],"subject":{"reference":"Patient/aecf5ae9-e02d-43cd-a1ca-3fd653cd4508"},"period":{"start":"2026-01-01T00:01:00.000Z","end":"2026-01-05T00:30:00.000Z"}},"request":{"method":"PUT","url":"Encounter/7bf90039-1d85-482a-b76f-e534f7fc0ceb"}},{"resource":{"resourceType":"Coverage","id":"ef12a003-dee8-43c0-992b-c59b8d998dc1","meta":{"profile":["http://hl7.org/fhir/us/qicore/StructureDefinition/qicore-coverage"]},"status":"active","subscriberId":"523435","beneficiary":{"reference":"Patient/aecf5ae9-e02d-43cd-a1ca-3fd653cd4508"},"relationship":{"coding":[{"system":"http://terminology.hl7.org/CodeSystem/subscriber-relationship","code":"self"}]},"payor":[{"reference":"Organization/a6449d4e-e777-4a01-a901-1e54294c1f2d"}]},"request":{"method":"PUT","url":"Coverage/ef12a003-dee8-43c0-992b-c59b8d998dc1"}},{"resource":{"resourceType":"Practitioner","id":"642af191-42f0-4d83-b424-f529c109268e","meta":{"profile":["http://hl7.org/fhir/us/qicore/StructureDefinition/qicore-practitioner"]},"identifier":[{"system":"http://hl7.org/fhir/sid/us-npi","value":"9999999896"}],"active":true,"name":[{"family":"Ramires","given":["Alma"],"prefix":["Dr"]}],"address":[{"use":"home","line":["534 Erewhon St"],"city":"Netherville","state":"IN","postalCode":"46131"}],"qualification":[{"identifier":[{"system":"http://goodhealth.org/prIdentifier","value":"12345"}],"code":{"coding":[{"system":"http://terminology.hl7.org/CodeSystem/v2-0360|2.7","code":"BS","display":"Bachelor of Science"}],"text":"Bachelor of Science"},"period":{"start":"1995"},"issuer":{"display":"Example University"}}]},"request":{"method":"PUT","url":"Practitioner/642af191-42f0-4d83-b424-f529c109268e"}},{"resource":{"resourceType":"MedicationRequest","id":"463c2219-4cc8-4bf6-8d1e-5122ac0b80e2","meta":{"profile":["http://hl7.org/fhir/us/qicore/StructureDefinition/qicore-medicationrequest"]},"status":"active","intent":"reflex-order","category":[{"coding":[{"system":"http://terminology.hl7.org/CodeSystem/medicationrequest-category","code":"discharge","display":"Discharge","userSelected":true}]}],"doNotPerform":false,"medicationCodeableConcept":{"coding":[{"system":"http://www.nlm.nih.gov/research/umls/rxnorm","code":"1014599","display":"acetaminophen 300 MG / oxycodone hydrochloride 10 MG Oral Tablet","userSelected":true}]},"subject":{"reference":"Patient/aecf5ae9-e02d-43cd-a1ca-3fd653cd4508"},"authoredOn":"2026-01-05T00:29:00.000Z","requester":{"reference":"Practitioner/642af191-42f0-4d83-b424-f529c109268e"}},"request":{"method":"PUT","url":"MedicationRequest/463c2219-4cc8-4bf6-8d1e-5122ac0b80e2"}},{"resource":{"resourceType":"Bundle","id":"63231ae12a56ae63756a53ee","type":"transaction","entry":[{"fullUrl":"https://madie.cms.gov/Patient/aecf5ae9-e02d-43cd-a1ca-3fd653cd4508","resource":{"resourceType":"Patient","id":"aecf5ae9-e02d-43cd-a1ca-3fd653cd4508","meta":{"profile":["http://hl7.org/fhir/us/qicore/StructureDefinition/qicore-patient"]},"extension":[{"url":"http://hl7.org/fhir/us/core/StructureDefinition/us-core-ethnicity","extension":[{"url":"ombCategory","valueCoding":{"system":"urn:oid:2.16.840.1.113883.6.238","code":"2135-2","display":"Hispanic or Latino","userSelected":true}},{"url":"text","valueString":"Hispanic or Latino"}]}],"identifier":[{"type":{"coding":[{"system":"http://terminology.hl7.org/CodeSystem/v2-0203","code":"MR"}]},"system":"https://bonnie-fhir.healthit.gov/","value":"63231ae12a56ae63756a53ee"}],"name":[{"family":"DENOMPass","given":["MultEncountersBothWithOpioid"]}],"gender":"male","birthDate":"2006-12-31"},"request":{"method":"PUT","url":"Patient/aecf5ae9-e02d-43cd-a1ca-3fd653cd4508"}},{"fullUrl":"https://madie.cms.gov/Encounter/7bf90039-1d85-482a-b76f-e534f7fc0ceb","resource":{"resourceType":"Encounter","id":"7bf90039-1d85-482a-b76f-e534f7fc0ceb","meta":{"profile":["http://hl7.org/fhir/us/qicore/StructureDefinition/qicore-encounter"]},"status":"finished","class":{"system":"http://terminology.hl7.org/CodeSystem/v3-ActCode","code":"IMP","display":"inpatient encounter"},"type":[{"coding":[{"system":"http://snomed.info/sct","code":"183452005","display":"Emergency hospital admission (procedure)","userSelected":true}]}],"subject":{"reference":"Patient/aecf5ae9-e02d-43cd-a1ca-3fd653cd4508"},"period":{"start":"2026-01-01T00:01:00.000Z","end":"2026-01-05T00:30:00.000Z"}},"request":{"method":"PUT","url":"Encounter/7bf90039-1d85-482a-b76f-e534f7fc0ceb"}},{"fullUrl":"https://madie.cms.gov/Encounter/fa913253-cf7c-457a-9766-6684bb66c9cf","resource":{"resourceType":"Encounter","id":"fa913253-cf7c-457a-9766-6684bb66c9cf","meta":{"profile":["http://hl7.org/fhir/us/qicore/StructureDefinition/qicore-encounter"]},"status":"finished","class":{"system":"http://terminology.hl7.org/CodeSystem/v3-ActCode","code":"IMP","display":"inpatient encounter"},"type":[{"coding":[{"system":"http://snomed.info/sct","code":"32485007","display":"Hospital admission (procedure)","userSelected":true}]}],"subject":{"reference":"Patient/aecf5ae9-e02d-43cd-a1ca-3fd653cd4508"},"period":{"start":"2026-03-01T00:01:00.000Z","end":"2026-03-05T00:30:00.000Z"}},"request":{"method":"PUT","url":"Encounter/fa913253-cf7c-457a-9766-6684bb66c9cf"}},{"fullUrl":"https://madie.cms.gov/MedicationRequest/2f421067-5f97-4c26-9feb-c53dc9874326","resource":{"resourceType":"MedicationRequest","id":"2f421067-5f97-4c26-9feb-c53dc9874326","meta":{"profile":["http://hl7.org/fhir/us/qicore/StructureDefinition/qicore-medicationrequest"]},"status":"completed","intent":"order","category":[{"coding":[{"system":"http://terminology.hl7.org/CodeSystem/medicationrequest-category","code":"community","display":"Community","userSelected":true}]}],"doNotPerform":false,"medicationCodeableConcept":{"coding":[{"system":"http://www.nlm.nih.gov/research/umls/rxnorm","code":"1014632","display":"acetaminophen 300 MG / oxycodone hydrochloride 7.5 MG Oral Tablet","userSelected":true}]},"subject":{"reference":"Patient/aecf5ae9-e02d-43cd-a1ca-3fd653cd4508"},"authoredOn":"2026-03-05T00:29:00.000Z","requester":{"reference":"Practitioner/642af191-42f0-4d83-b424-f529c109268e"}},"request":{"method":"PUT","url":"MedicationRequest/2f421067-5f97-4c26-9feb-c53dc9874326"}},{"fullUrl":"https://madie.cms.gov/MedicationRequest/463c2219-4cc8-4bf6-8d1e-5122ac0b80e2","resource":{"resourceType":"MedicationRequest","id":"463c2219-4cc8-4bf6-8d1e-5122ac0b80e2","meta":{"profile":["http://hl7.org/fhir/us/qicore/StructureDefinition/qicore-medicationrequest"]},"status":"active","intent":"reflex-order","category":[{"coding":[{"system":"http://terminology.hl7.org/CodeSystem/medicationrequest-category","code":"discharge","display":"Discharge","userSelected":true}]}],"doNotPerform":false,"medicationCodeableConcept":{"coding":[{"system":"http://www.nlm.nih.gov/research/umls/rxnorm","code":"1014599","display":"acetaminophen 300 MG / oxycodone hydrochloride 10 MG Oral Tablet","userSelected":true}]},"subject":{"reference":"Patient/aecf5ae9-e02d-43cd-a1ca-3fd653cd4508"},"authoredOn":"2026-01-05T00:29:00.000Z","requester":{"reference":"Practitioner/642af191-42f0-4d83-b424-f529c109268e"}},"request":{"method":"PUT","url":"MedicationRequest/463c2219-4cc8-4bf6-8d1e-5122ac0b80e2"}},{"fullUrl":"https://madie.cms.gov/Practitioner/642af191-42f0-4d83-b424-f529c109268e","resource":{"resourceType":"Practitioner","id":"642af191-42f0-4d83-b424-f529c109268e","meta":{"profile":["http://hl7.org/fhir/us/qicore/StructureDefinition/qicore-practitioner"]},"identifier":[{"system":"http://hl7.org/fhir/sid/us-npi","value":"9999999896"}],"active":true,"name":[{"family":"Ramires","given":["Alma"],"prefix":["Dr"]}],"address":[{"use":"home","line":["534 Erewhon St"],"city":"Netherville","state":"IN","postalCode":"46131"}],"qualification":[{"identifier":[{"system":"http://goodhealth.org/prIdentifier","value":"12345"}],"code":{"coding":[{"system":"http://terminology.hl7.org/CodeSystem/v2-0360|2.7","code":"BS","display":"Bachelor of Science"}],"text":"Bachelor of Science"},"period":{"start":"1995"},"issuer":{"display":"Example University"}}]},"request":{"method":"PUT","url":"Practitioner/642af191-42f0-4d83-b424-f529c109268e"}},{"fullUrl":"https://madie.cms.gov/Coverage/ef12a003-dee8-43c0-992b-c59b8d998dc1","resource":{"resourceType":"Coverage","id":"ef12a003-dee8-43c0-992b-c59b8d998dc1","meta":{"profile":["http://hl7.org/fhir/us/qicore/StructureDefinition/qicore-coverage"]},"status":"active","subscriberId":"523435","beneficiary":{"reference":"Patient/aecf5ae9-e02d-43cd-a1ca-3fd653cd4508"},"relationship":{"coding":[{"system":"http://terminology.hl7.org/CodeSystem/subscriber-relationship","code":"self"}]},"payor":[{"reference":"Organization/a6449d4e-e777-4a01-a901-1e54294c1f2d"}]},"request":{"method":"PUT","url":"Coverage/ef12a003-dee8-43c0-992b-c59b8d998dc1"}},{"fullUrl":"https://madie.cms.gov/Organization/a6449d4e-e777-4a01-a901-1e54294c1f2d","resource":{"resourceType":"Organization","id":"a6449d4e-e777-4a01-a901-1e54294c1f2d","meta":{"profile":["http://hl7.org/fhir/us/qicore/StructureDefinition/qicore-organization"]},"identifier":[{"use":"temp","system":"urn:oid:2.16.840.1.113883.4.4","value":"21-3259825"}],"active":true,"type":[{"coding":[{"system":"http://terminology.hl7.org/CodeSystem/organization-type","code":"pay","display":"Payer"}]}],"name":"Blue Cross Blue Shield of Texas","telecom":[{"system":"phone","value":"(+1) 972-766-6900"}],"address":[{"use":"billing","type":"postal","line":["P.O. Box 660044"],"city":"Dallas","state":"TX","postalCode":"75266-0044","country":"USA"}]},"request":{"method":"PUT","url":"Organization/a6449d4e-e777-4a01-a901-1e54294c1f2d"}},{"fullUrl":"https://madie.cms.gov/MeasureReport/d2750868-9b85-487a-bdce-1fedcb2787d4","resource":{"resourceType":"MeasureReport","id":"d2750868-9b85-487a-bdce-1fedcb2787d4","meta":{"profile":["http://hl7.org/fhir/us/cqfmeasures/StructureDefinition/test-case-cqfm"]},"contained":[{"resourceType":"Parameters","id":"9c9159e6-8cb9-4806-9372-cf4dfed1e274-parameters","parameter":[{"name":"subject","valueString":"aecf5ae9-e02d-43cd-a1ca-3fd653cd4508"}]}],"extension":[{"url":"http://hl7.org/fhir/StructureDefinition/cqf-inputParameters","valueReference":{"reference":"#9c9159e6-8cb9-4806-9372-cf4dfed1e274-parameters"}},{"url":"http://hl7.org/fhir/us/cqfmeasures/StructureDefinition/cqfm-testCaseDescription","valueMarkdown":"Encounter 01/01  at 00:01 - 1/5  at 00:30, opioid prescribed  1/5 at00:29 just before discharge\n\nEncounter 03/01  at 00:01 - 3/5  at 00:30, opioid prescribed  3/5 at00:29 just before discharge"}],"modifierExtension":[{"url":"http://hl7.org/fhir/us/cqfmeasures/StructureDefinition/cqfm-isTestCase","valueBoolean":true}],"status":"complete","type":"individual","measure":"https://madie.cms.gov/Measure/CMS506FHIRSafeUseofOpioids","period":{"start":"2026-01-01","end":"2026-12-31"},"group":[{"id":"Group_1","population":[{"id":"InitialPopulation_1","code":{"coding":[{"system":"http://terminology.hl7.org/CodeSystem/measure-population","code":"initial-population","display":"Initial Population"}]},"count":2},{"id":"Denominator_1","code":{"coding":[{"system":"http://terminology.hl7.org/CodeSystem/measure-population","code":"denominator","display":"Denominator"}]},"count":2},{"id":"DenominatorExclusion_1","code":{"coding":[{"system":"http://terminology.hl7.org/CodeSystem/measure-population","code":"denominator-exclusion","display":"Denominator Exclusion"}]},"count":0},{"id":"Numerator_1","code":{"coding":[{"system":"http://terminology.hl7.org/CodeSystem/measure-population","code":"numerator","display":"Numerator"}]},"count":0}],"measureScore":{"value":0.0}}],"evaluatedResource":[{"reference":"Patient/aecf5ae9-e02d-43cd-a1ca-3fd653cd4508"},{"reference":"Encounter/7bf90039-1d85-482a-b76f-e534f7fc0ceb"},{"reference":"Encounter/fa913253-cf7c-457a-9766-6684bb66c9cf"},{"reference":"MedicationRequest/2f421067-5f97-4c26-9feb-c53dc9874326"},{"reference":"MedicationRequest/463c2219-4cc8-4bf6-8d1e-5122ac0b80e2"},{"reference":"Practitioner/642af191-42f0-4d83-b424-f529c109268e"},{"reference":"Coverage/ef12a003-dee8-43c0-992b-c59b8d998dc1"},{"reference":"Organization/a6449d4e-e777-4a01-a901-1e54294c1f2d"}]},"request":{"method":"PUT","url":"MeasureReport/d2750868-9b85-487a-bdce-1fedcb2787d4"}}]},"request":{"method":"PUT","url":"Bundle/63231ae12a56ae63756a53ee"}},{"resource":{"resourceType":"Patient","id":"aecf5ae9-e02d-43cd-a1ca-3fd653cd4508","meta":{"profile":["http://hl7.org/fhir/us/qicore/StructureDefinition/qicore-patient"]},"extension":[{"url":"http://hl7.org/fhir/us/core/StructureDefinition/us-core-ethnicity","extension":[{"url":"ombCategory","valueCoding":{"system":"urn:oid:2.16.840.1.113883.6.238","code":"2135-2","display":"Hispanic or Latino","userSelected":true}},{"url":"text","valueString":"Hispanic or Latino"}]}],"identifier":[{"type":{"coding":[{"system":"http://terminology.hl7.org/CodeSystem/v2-0203","code":"MR"}]},"system":"https://bonnie-fhir.healthit.gov/","value":"63231ae12a56ae63756a53ee"}],"name":[{"family":"DENOMPass","given":["MultEncountersBothWithOpioid"]}],"gender":"male","birthDate":"2006-12-31"},"request":{"method":"PUT","url":"Patient/aecf5ae9-e02d-43cd-a1ca-3fd653cd4508"}},{"resource":{"resourceType":"Organization","id":"a6449d4e-e777-4a01-a901-1e54294c1f2d","meta":{"profile":["http://hl7.org/fhir/us/qicore/StructureDefinition/qicore-organization"]},"identifier":[{"use":"temp","system":"urn:oid:2.16.840.1.113883.4.4","value":"21-3259825"}],"active":true,"type":[{"coding":[{"system":"http://terminology.hl7.org/CodeSystem/organization-type","code":"pay","display":"Payer"}]}],"name":"Blue Cross Blue Shield of Texas","telecom":[{"system":"phone","value":"(+1) 972-766-6900"}],"address":[{"use":"billing","type":"postal","line":["P.O. Box 660044"],"city":"Dallas","state":"TX","postalCode":"75266-0044","country":"USA"}]},"request":{"method":"PUT","url":"Organization/a6449d4e-e777-4a01-a901-1e54294c1f2d"}},{"resource":{"resourceType":"Encounter","id":"fa913253-cf7c-457a-9766-6684bb66c9cf","meta":{"profile":["http://hl7.org/fhir/us/qicore/StructureDefinition/qicore-encounter"]},"status":"finished","class":{"system":"http://terminology.hl7.org/CodeSystem/v3-ActCode","code":"IMP","display":"inpatient encounter"},"type":[{"coding":[{"system":"http://snomed.info/sct","code":"32485007","display":"Hospital admission (procedure)","userSelected":true}]}],"subject":{"reference":"Patient/aecf5ae9-e02d-43cd-a1ca-3fd653cd4508"},"period":{"start":"2026-03-01T00:01:00.000Z","end":"2026-03-05T00:30:00.000Z"}},"request":{"method":"PUT","url":"Encounter/fa913253-cf7c-457a-9766-6684bb66c9cf"}},{"resource":{"resourceType":"MedicationRequest","id":"2f421067-5f97-4c26-9feb-c53dc9874326","meta":{"profile":["http://hl7.org/fhir/us/qicore/StructureDefinition/qicore-medicationrequest"]},"status":"completed","intent":"order","category":[{"coding":[{"system":"http://terminology.hl7.org/CodeSystem/medicationrequest-category","code":"community","display":"Community","userSelected":true}]}],"doNotPerform":false,"medicationCodeableConcept":{"coding":[{"system":"http://www.nlm.nih.gov/research/umls/rxnorm","code":"1014632","display":"acetaminophen 300 MG / oxycodone hydrochloride 7.5 MG Oral Tablet","userSelected":true}]},"subject":{"reference":"Patient/aecf5ae9-e02d-43cd-a1ca-3fd653cd4508"},"authoredOn":"2026-03-05T00:29:00.000Z","requester":{"reference":"Practitioner/642af191-42f0-4d83-b424-f529c109268e"}},"request":{"method":"PUT","url":"MedicationRequest/2f421067-5f97-4c26-9feb-c53dc9874326"}},{"resource":{"resourceType":"MeasureReport","id":"d2750868-9b85-487a-bdce-1fedcb2787d4","meta":{"profile":["http://hl7.org/fhir/us/cqfmeasures/StructureDefinition/test-case-cqfm"]},"contained":[{"resourceType":"Parameters","id":"9c9159e6-8cb9-4806-9372-cf4dfed1e274-parameters","parameter":[{"name":"subject","valueString":"aecf5ae9-e02d-43cd-a1ca-3fd653cd4508"}]}],"extension":[{"url":"http://hl7.org/fhir/StructureDefinition/cqf-inputParameters","valueReference":{"reference":"#9c9159e6-8cb9-4806-9372-cf4dfed1e274-parameters"}},{"url":"http://hl7.org/fhir/us/cqfmeasures/StructureDefinition/cqfm-testCaseDescription","valueMarkdown":"Encounter 01/01  at 00:01 - 1/5  at 00:30, opioid prescribed  1/5 at00:29 just before discharge\n\nEncounter 03/01  at 00:01 - 3/5  at 00:30, opioid prescribed  3/5 at00:29 just before discharge"}],"modifierExtension":[{"url":"http://hl7.org/fhir/us/cqfmeasures/StructureDefinition/cqfm-isTestCase","valueBoolean":true}],"status":"complete","type":"individual","measure":"https://madie.cms.gov/Measure/CMS506FHIRSafeUseofOpioids","period":{"start":"2026-01-01","end":"2026-12-31"},"group":[{"id":"Group_1","population":[{"id":"InitialPopulation_1","code":{"coding":[{"system":"http://terminology.hl7.org/CodeSystem/measure-population","code":"initial-population","display":"Initial Population"}]},"count":2},{"id":"Denominator_1","code":{"coding":[{"system":"http://terminology.hl7.org/CodeSystem/measure-population","code":"denominator","display":"Denominator"}]},"count":2},{"id":"DenominatorExclusion_1","code":{"coding":[{"system":"http://terminology.hl7.org/CodeSystem/measure-population","code":"denominator-exclusion","display":"Denominator Exclusion"}]},"count":0},{"id":"Numerator_1","code":{"coding":[{"system":"http://terminology.hl7.org/CodeSystem/measure-population","code":"numerator","display":"Numerator"}]},"count":0}],"measureScore":{"value":0.0}}],"evaluatedResource":[{"reference":"Patient/aecf5ae9-e02d-43cd-a1ca-3fd653cd4508"},{"reference":"Encounter/7bf90039-1d85-482a-b76f-e534f7fc0ceb"},{"reference":"Encounter/fa913253-cf7c-457a-9766-6684bb66c9cf"},{"reference":"MedicationRequest/2f421067-5f97-4c26-9feb-c53dc9874326"},{"reference":"MedicationRequest/463c2219-4cc8-4bf6-8d1e-5122ac0b80e2"},{"reference":"Practitioner/642af191-42f0-4d83-b424-f529c109268e"},{"reference":"Coverage/ef12a003-dee8-43c0-992b-c59b8d998dc1"},{"reference":"Organization/a6449d4e-e777-4a01-a901-1e54294c1f2d"}]},"request":{"method":"PUT","url":"MeasureReport/d2750868-9b85-487a-bdce-1fedcb2787d4"}}]}