{"resourceType":"Bundle","id":"tests-cbf21555-f64b-427a-b274-111b94523cf7-bundle","type":"transaction","entry":[{"resource":{"resourceType":"Encounter","id":"16dcf802-9fa7-4ef8-91ad-d8184e8b8616","meta":{"profile":["http://hl7.org/fhir/us/qicore/StructureDefinition/qicore-encounter"]},"status":"finished","class":{"system":"http://terminology.hl7.org/CodeSystem/v3-ActCode","code":"AMB","display":"ambulatory"},"type":[{"coding":[{"system":"http://snomed.info/sct","version":"2022-03","code":"183452005","display":"Emergency hospital admission (procedure)","userSelected":true}]}],"subject":{"reference":"Patient/cbf21555-f64b-427a-b274-111b94523cf7"},"period":{"start":"2026-01-01T00:01:00.000+00:00","end":"2026-01-05T00:30:00.000+00:00"}},"request":{"method":"PUT","url":"Encounter/16dcf802-9fa7-4ef8-91ad-d8184e8b8616"}},{"resource":{"resourceType":"MedicationRequest","id":"60c8bbd4-9034-49a8-8247-dfc2a3e68912","meta":{"profile":["http://hl7.org/fhir/us/qicore/StructureDefinition/qicore-medicationrequest"]},"status":"active","intent":"order","category":[{"coding":[{"system":"http://terminology.hl7.org/CodeSystem/medicationrequest-category","code":"discharge","display":"Discharge","userSelected":true}]}],"doNotPerform":false,"medicationCodeableConcept":{"coding":[{"system":"http://www.nlm.nih.gov/research/umls/rxnorm","code":"1014632","display":"acetaminophen 300 MG / oxycodone hydrochloride 7.5 MG Oral Tablet","userSelected":true}]},"subject":{"reference":"Patient/cbf21555-f64b-427a-b274-111b94523cf7"},"authoredOn":"2026-01-05T00:29:00.000+00:00","requester":{"reference":"Practitioner/bf6d2b6b-e74d-499a-bdac-4a9e4e4a9002"}},"request":{"method":"PUT","url":"MedicationRequest/60c8bbd4-9034-49a8-8247-dfc2a3e68912"}},{"resource":{"resourceType":"MeasureReport","id":"ebc3de56-cd36-4e17-af43-616fdc9cf5e6","meta":{"profile":["http://hl7.org/fhir/us/cqfmeasures/StructureDefinition/test-case-cqfm"]},"contained":[{"resourceType":"Parameters","id":"5f3191f2-8361-4938-9cab-0c4fa51e086b-parameters","parameter":[{"name":"subject","valueString":"cbf21555-f64b-427a-b274-111b94523cf7"}]}],"extension":[{"url":"http://hl7.org/fhir/StructureDefinition/cqf-inputParameters","valueReference":{"reference":"#5f3191f2-8361-4938-9cab-0c4fa51e086b-parameters"}},{"url":"http://hl7.org/fhir/us/cqfmeasures/StructureDefinition/cqfm-testCaseDescription","valueMarkdown":"Encounter 01/01  at 00:01 - 1/5  @ 00:30, age 18, opioid prescribed  1/5 at00:29 just before discharge"}],"modifierExtension":[{"url":"http://hl7.org/fhir/us/cqfmeasures/StructureDefinition/cqfm-isTestCase","valueBoolean":true}],"status":"complete","type":"individual","measure":"https://madie.cms.gov/Measure/CMS506FHIRSafeUseofOpioids","period":{"start":"2026-01-01","end":"2026-12-31"},"group":[{"id":"Group_1","population":[{"id":"InitialPopulation_1","code":{"coding":[{"system":"http://terminology.hl7.org/CodeSystem/measure-population","code":"initial-population","display":"Initial Population"}]},"count":1},{"id":"Denominator_1","code":{"coding":[{"system":"http://terminology.hl7.org/CodeSystem/measure-population","code":"denominator","display":"Denominator"}]},"count":1},{"id":"DenominatorExclusion_1","code":{"coding":[{"system":"http://terminology.hl7.org/CodeSystem/measure-population","code":"denominator-exclusion","display":"Denominator Exclusion"}]},"count":0},{"id":"Numerator_1","code":{"coding":[{"system":"http://terminology.hl7.org/CodeSystem/measure-population","code":"numerator","display":"Numerator"}]},"count":0}],"measureScore":{"value":0.0}}],"evaluatedResource":[{"reference":"Patient/cbf21555-f64b-427a-b274-111b94523cf7"},{"reference":"Encounter/16dcf802-9fa7-4ef8-91ad-d8184e8b8616"},{"reference":"MedicationRequest/60c8bbd4-9034-49a8-8247-dfc2a3e68912"},{"reference":"Practitioner/bf6d2b6b-e74d-499a-bdac-4a9e4e4a9002"},{"reference":"Coverage/1378ef70-671c-4126-a94c-2280fcbe39fd"},{"reference":"Organization/1087a1db-43d5-4032-ac48-086f9f713402"}]},"request":{"method":"PUT","url":"MeasureReport/ebc3de56-cd36-4e17-af43-616fdc9cf5e6"}},{"resource":{"resourceType":"Organization","id":"1087a1db-43d5-4032-ac48-086f9f713402","meta":{"profile":["http://hl7.org/fhir/us/qicore/StructureDefinition/qicore-organization"]},"identifier":[{"use":"temp","system":"urn:oid:2.16.840.1.113883.4.4","value":"21-3259825"}],"active":true,"type":[{"coding":[{"system":"http://terminology.hl7.org/CodeSystem/organization-type","code":"pay","display":"Payer"}]}],"name":"Blue Cross Blue Shield of Texas","telecom":[{"system":"phone","value":"(+1) 972-766-6900"}],"address":[{"use":"billing","type":"postal","line":["P.O. Box 660044"],"city":"Dallas","state":"TX","postalCode":"75266-0044","country":"USA"}]},"request":{"method":"PUT","url":"Organization/1087a1db-43d5-4032-ac48-086f9f713402"}},{"resource":{"resourceType":"Practitioner","id":"bf6d2b6b-e74d-499a-bdac-4a9e4e4a9002","meta":{"profile":["http://hl7.org/fhir/us/qicore/StructureDefinition/qicore-practitioner"]},"identifier":[{"system":"http://hl7.org/fhir/sid/us-npi","value":"9999999896"}],"active":true,"name":[{"family":"Ramires","given":["Alma"],"prefix":["Dr"]}],"address":[{"use":"home","line":["534 Erewhon St"],"city":"Netherville","state":"IN","postalCode":"46131"}],"qualification":[{"identifier":[{"system":"http://goodhealth.org/prIdentifier","value":"12345"}],"code":{"coding":[{"system":"http://terminology.hl7.org/CodeSystem/v2-0360|2.7","code":"BS","display":"Bachelor of Science"}],"text":"Bachelor of Science"},"period":{"start":"1995"},"issuer":{"display":"Example University"}}]},"request":{"method":"PUT","url":"Practitioner/bf6d2b6b-e74d-499a-bdac-4a9e4e4a9002"}},{"resource":{"resourceType":"Patient","id":"cbf21555-f64b-427a-b274-111b94523cf7","meta":{"profile":["http://hl7.org/fhir/us/qicore/StructureDefinition/qicore-patient"]},"extension":[{"url":"http://hl7.org/fhir/us/core/StructureDefinition/us-core-ethnicity","extension":[{"url":"ombCategory","valueCoding":{"system":"urn:oid:2.16.840.1.113883.6.238","code":"2135-2","display":"Hispanic or Latino","userSelected":true}},{"url":"text","valueString":"Hispanic or Latino"}]}],"identifier":[{"type":{"coding":[{"system":"http://terminology.hl7.org/CodeSystem/v2-0203","code":"MR"}]},"system":"https://bonnie-fhir.healthit.gov/","value":"63231ae12a56ae63756a53ee"}],"name":[{"family":"DENOMPass","given":["EncounterWithOpioid"]}],"gender":"male","birthDate":"2006-12-31"},"request":{"method":"PUT","url":"Patient/cbf21555-f64b-427a-b274-111b94523cf7"}},{"resource":{"resourceType":"Bundle","id":"63231ae12a56ae63756a53ee","type":"transaction","entry":[{"fullUrl":"https://madie.cms.gov/Patient/cbf21555-f64b-427a-b274-111b94523cf7","resource":{"resourceType":"Patient","id":"cbf21555-f64b-427a-b274-111b94523cf7","meta":{"profile":["http://hl7.org/fhir/us/qicore/StructureDefinition/qicore-patient"]},"extension":[{"url":"http://hl7.org/fhir/us/core/StructureDefinition/us-core-ethnicity","extension":[{"url":"ombCategory","valueCoding":{"system":"urn:oid:2.16.840.1.113883.6.238","code":"2135-2","display":"Hispanic or Latino","userSelected":true}},{"url":"text","valueString":"Hispanic or Latino"}]}],"identifier":[{"type":{"coding":[{"system":"http://terminology.hl7.org/CodeSystem/v2-0203","code":"MR"}]},"system":"https://bonnie-fhir.healthit.gov/","value":"63231ae12a56ae63756a53ee"}],"name":[{"family":"DENOMPass","given":["EncounterWithOpioid"]}],"gender":"male","birthDate":"2006-12-31"},"request":{"method":"PUT","url":"Patient/cbf21555-f64b-427a-b274-111b94523cf7"}},{"fullUrl":"https://madie.cms.gov/Encounter/16dcf802-9fa7-4ef8-91ad-d8184e8b8616","resource":{"resourceType":"Encounter","id":"16dcf802-9fa7-4ef8-91ad-d8184e8b8616","meta":{"profile":["http://hl7.org/fhir/us/qicore/StructureDefinition/qicore-encounter"]},"status":"finished","class":{"system":"http://terminology.hl7.org/CodeSystem/v3-ActCode","code":"AMB","display":"ambulatory"},"type":[{"coding":[{"system":"http://snomed.info/sct","version":"2022-03","code":"183452005","display":"Emergency hospital admission (procedure)","userSelected":true}]}],"subject":{"reference":"Patient/cbf21555-f64b-427a-b274-111b94523cf7"},"period":{"start":"2026-01-01T00:01:00.000+00:00","end":"2026-01-05T00:30:00.000+00:00"}},"request":{"method":"PUT","url":"Encounter/16dcf802-9fa7-4ef8-91ad-d8184e8b8616"}},{"fullUrl":"https://madie.cms.gov/MedicationRequest/60c8bbd4-9034-49a8-8247-dfc2a3e68912","resource":{"resourceType":"MedicationRequest","id":"60c8bbd4-9034-49a8-8247-dfc2a3e68912","meta":{"profile":["http://hl7.org/fhir/us/qicore/StructureDefinition/qicore-medicationrequest"]},"status":"active","intent":"order","category":[{"coding":[{"system":"http://terminology.hl7.org/CodeSystem/medicationrequest-category","code":"discharge","display":"Discharge","userSelected":true}]}],"doNotPerform":false,"medicationCodeableConcept":{"coding":[{"system":"http://www.nlm.nih.gov/research/umls/rxnorm","code":"1014632","display":"acetaminophen 300 MG / oxycodone hydrochloride 7.5 MG Oral Tablet","userSelected":true}]},"subject":{"reference":"Patient/cbf21555-f64b-427a-b274-111b94523cf7"},"authoredOn":"2026-01-05T00:29:00.000+00:00","requester":{"reference":"Practitioner/bf6d2b6b-e74d-499a-bdac-4a9e4e4a9002"}},"request":{"method":"PUT","url":"MedicationRequest/60c8bbd4-9034-49a8-8247-dfc2a3e68912"}},{"fullUrl":"https://madie.cms.gov/Practitioner/bf6d2b6b-e74d-499a-bdac-4a9e4e4a9002","resource":{"resourceType":"Practitioner","id":"bf6d2b6b-e74d-499a-bdac-4a9e4e4a9002","meta":{"profile":["http://hl7.org/fhir/us/qicore/StructureDefinition/qicore-practitioner"]},"identifier":[{"system":"http://hl7.org/fhir/sid/us-npi","value":"9999999896"}],"active":true,"name":[{"family":"Ramires","given":["Alma"],"prefix":["Dr"]}],"address":[{"use":"home","line":["534 Erewhon St"],"city":"Netherville","state":"IN","postalCode":"46131"}],"qualification":[{"identifier":[{"system":"http://goodhealth.org/prIdentifier","value":"12345"}],"code":{"coding":[{"system":"http://terminology.hl7.org/CodeSystem/v2-0360|2.7","code":"BS","display":"Bachelor of Science"}],"text":"Bachelor of Science"},"period":{"start":"1995"},"issuer":{"display":"Example University"}}]},"request":{"method":"PUT","url":"Practitioner/bf6d2b6b-e74d-499a-bdac-4a9e4e4a9002"}},{"fullUrl":"https://madie.cms.gov/Coverage/1378ef70-671c-4126-a94c-2280fcbe39fd","resource":{"resourceType":"Coverage","id":"1378ef70-671c-4126-a94c-2280fcbe39fd","meta":{"profile":["http://hl7.org/fhir/us/qicore/StructureDefinition/qicore-coverage"]},"status":"active","subscriberId":"523435","beneficiary":{"reference":"Patient/cbf21555-f64b-427a-b274-111b94523cf7"},"relationship":{"coding":[{"system":"http://terminology.hl7.org/CodeSystem/subscriber-relationship","code":"self"}]},"payor":[{"reference":"Organization/1087a1db-43d5-4032-ac48-086f9f713402"}]},"request":{"method":"PUT","url":"Coverage/1378ef70-671c-4126-a94c-2280fcbe39fd"}},{"fullUrl":"https://madie.cms.gov/Organization/1087a1db-43d5-4032-ac48-086f9f713402","resource":{"resourceType":"Organization","id":"1087a1db-43d5-4032-ac48-086f9f713402","meta":{"profile":["http://hl7.org/fhir/us/qicore/StructureDefinition/qicore-organization"]},"identifier":[{"use":"temp","system":"urn:oid:2.16.840.1.113883.4.4","value":"21-3259825"}],"active":true,"type":[{"coding":[{"system":"http://terminology.hl7.org/CodeSystem/organization-type","code":"pay","display":"Payer"}]}],"name":"Blue Cross Blue Shield of Texas","telecom":[{"system":"phone","value":"(+1) 972-766-6900"}],"address":[{"use":"billing","type":"postal","line":["P.O. Box 660044"],"city":"Dallas","state":"TX","postalCode":"75266-0044","country":"USA"}]},"request":{"method":"PUT","url":"Organization/1087a1db-43d5-4032-ac48-086f9f713402"}},{"fullUrl":"https://madie.cms.gov/MeasureReport/ebc3de56-cd36-4e17-af43-616fdc9cf5e6","resource":{"resourceType":"MeasureReport","id":"ebc3de56-cd36-4e17-af43-616fdc9cf5e6","meta":{"profile":["http://hl7.org/fhir/us/cqfmeasures/StructureDefinition/test-case-cqfm"]},"contained":[{"resourceType":"Parameters","id":"5f3191f2-8361-4938-9cab-0c4fa51e086b-parameters","parameter":[{"name":"subject","valueString":"cbf21555-f64b-427a-b274-111b94523cf7"}]}],"extension":[{"url":"http://hl7.org/fhir/StructureDefinition/cqf-inputParameters","valueReference":{"reference":"#5f3191f2-8361-4938-9cab-0c4fa51e086b-parameters"}},{"url":"http://hl7.org/fhir/us/cqfmeasures/StructureDefinition/cqfm-testCaseDescription","valueMarkdown":"Encounter 01/01  at 00:01 - 1/5  @ 00:30, age 18, opioid prescribed  1/5 at00:29 just before discharge"}],"modifierExtension":[{"url":"http://hl7.org/fhir/us/cqfmeasures/StructureDefinition/cqfm-isTestCase","valueBoolean":true}],"status":"complete","type":"individual","measure":"https://madie.cms.gov/Measure/CMS506FHIRSafeUseofOpioids","period":{"start":"2026-01-01","end":"2026-12-31"},"group":[{"id":"Group_1","population":[{"id":"InitialPopulation_1","code":{"coding":[{"system":"http://terminology.hl7.org/CodeSystem/measure-population","code":"initial-population","display":"Initial Population"}]},"count":1},{"id":"Denominator_1","code":{"coding":[{"system":"http://terminology.hl7.org/CodeSystem/measure-population","code":"denominator","display":"Denominator"}]},"count":1},{"id":"DenominatorExclusion_1","code":{"coding":[{"system":"http://terminology.hl7.org/CodeSystem/measure-population","code":"denominator-exclusion","display":"Denominator Exclusion"}]},"count":0},{"id":"Numerator_1","code":{"coding":[{"system":"http://terminology.hl7.org/CodeSystem/measure-population","code":"numerator","display":"Numerator"}]},"count":0}],"measureScore":{"value":0.0}}],"evaluatedResource":[{"reference":"Patient/cbf21555-f64b-427a-b274-111b94523cf7"},{"reference":"Encounter/16dcf802-9fa7-4ef8-91ad-d8184e8b8616"},{"reference":"MedicationRequest/60c8bbd4-9034-49a8-8247-dfc2a3e68912"},{"reference":"Practitioner/bf6d2b6b-e74d-499a-bdac-4a9e4e4a9002"},{"reference":"Coverage/1378ef70-671c-4126-a94c-2280fcbe39fd"},{"reference":"Organization/1087a1db-43d5-4032-ac48-086f9f713402"}]},"request":{"method":"PUT","url":"MeasureReport/ebc3de56-cd36-4e17-af43-616fdc9cf5e6"}}]},"request":{"method":"PUT","url":"Bundle/63231ae12a56ae63756a53ee"}},{"resource":{"resourceType":"Coverage","id":"1378ef70-671c-4126-a94c-2280fcbe39fd","meta":{"profile":["http://hl7.org/fhir/us/qicore/StructureDefinition/qicore-coverage"]},"status":"active","subscriberId":"523435","beneficiary":{"reference":"Patient/cbf21555-f64b-427a-b274-111b94523cf7"},"relationship":{"coding":[{"system":"http://terminology.hl7.org/CodeSystem/subscriber-relationship","code":"self"}]},"payor":[{"reference":"Organization/1087a1db-43d5-4032-ac48-086f9f713402"}]},"request":{"method":"PUT","url":"Coverage/1378ef70-671c-4126-a94c-2280fcbe39fd"}}]}