{"resourceType":"Bundle","id":"tests-f049e76a-aef1-4e8f-a8bd-dfdb419de551-bundle","type":"transaction","entry":[{"resource":{"resourceType":"MedicationRequest","id":"a5f2dcce-b9e2-4712-a9ad-f0ef97600556","meta":{"profile":["http://hl7.org/fhir/us/qicore/StructureDefinition/qicore-medicationrequest"]},"status":"active","intent":"order","category":[{"coding":[{"system":"http://terminology.hl7.org/CodeSystem/medicationrequest-category","code":"discharge","display":"Discharge","userSelected":true}]}],"doNotPerform":false,"medicationCodeableConcept":{"coding":[{"system":"http://www.nlm.nih.gov/research/umls/rxnorm","code":"1049604","display":"oxycodone hydrochloride 1 MG/ML Oral Solution","userSelected":true}]},"subject":{"reference":"Patient/f049e76a-aef1-4e8f-a8bd-dfdb419de551"},"authoredOn":"2026-12-31T12:10:00.000+00:00","requester":{"reference":"Practitioner/a954003e-15c8-40ca-b51f-f3539651e493"}},"request":{"method":"PUT","url":"MedicationRequest/a5f2dcce-b9e2-4712-a9ad-f0ef97600556"}},{"resource":{"resourceType":"MeasureReport","id":"d73197d3-8c21-4fe6-88db-aaf410002046","meta":{"profile":["http://hl7.org/fhir/us/cqfmeasures/StructureDefinition/test-case-cqfm"]},"contained":[{"resourceType":"Parameters","id":"8bc83893-60f9-4b10-9247-22b4fb63766f-parameters","parameter":[{"name":"subject","valueString":"f049e76a-aef1-4e8f-a8bd-dfdb419de551"}]}],"extension":[{"url":"http://hl7.org/fhir/StructureDefinition/cqf-inputParameters","valueReference":{"reference":"#8bc83893-60f9-4b10-9247-22b4fb63766f-parameters"}},{"url":"http://hl7.org/fhir/us/cqfmeasures/StructureDefinition/cqfm-testCaseDescription","valueMarkdown":"Encounter, age 18 day before encounter, has opioid, discharged to acute care"}],"modifierExtension":[{"url":"http://hl7.org/fhir/us/cqfmeasures/StructureDefinition/cqfm-isTestCase","valueBoolean":true}],"status":"complete","type":"individual","measure":"https://madie.cms.gov/Measure/CMS506FHIRSafeUseofOpioids","period":{"start":"2026-01-01","end":"2026-12-31"},"group":[{"id":"Group_1","population":[{"id":"InitialPopulation_1","code":{"coding":[{"system":"http://terminology.hl7.org/CodeSystem/measure-population","code":"initial-population","display":"Initial Population"}]},"count":1},{"id":"Denominator_1","code":{"coding":[{"system":"http://terminology.hl7.org/CodeSystem/measure-population","code":"denominator","display":"Denominator"}]},"count":1},{"id":"DenominatorExclusion_1","code":{"coding":[{"system":"http://terminology.hl7.org/CodeSystem/measure-population","code":"denominator-exclusion","display":"Denominator Exclusion"}]},"count":1},{"id":"Numerator_1","code":{"coding":[{"system":"http://terminology.hl7.org/CodeSystem/measure-population","code":"numerator","display":"Numerator"}]},"count":0}],"measureScore":{"value":0.0}}],"evaluatedResource":[{"reference":"Patient/f049e76a-aef1-4e8f-a8bd-dfdb419de551"},{"reference":"Encounter/0ae1f051-bc9d-470d-9e66-103eedf67bf7"},{"reference":"MedicationRequest/a5f2dcce-b9e2-4712-a9ad-f0ef97600556"},{"reference":"Practitioner/a954003e-15c8-40ca-b51f-f3539651e493"},{"reference":"Coverage/c4e290b3-1a9a-47b7-b860-24111bb53fe1"},{"reference":"Organization/e09bfb03-a0b4-4bbe-83fa-097d7c1e1a98"}]},"request":{"method":"PUT","url":"MeasureReport/d73197d3-8c21-4fe6-88db-aaf410002046"}},{"resource":{"resourceType":"Patient","id":"f049e76a-aef1-4e8f-a8bd-dfdb419de551","meta":{"profile":["http://hl7.org/fhir/us/qicore/StructureDefinition/qicore-patient"]},"extension":[{"url":"http://hl7.org/fhir/us/core/StructureDefinition/us-core-race","extension":[{"url":"ombCategory","valueCoding":{"system":"urn:oid:2.16.840.1.113883.6.238","code":"2054-5","display":"Black or African American","userSelected":true}},{"url":"text","valueString":"Black or African American"}]},{"url":"http://hl7.org/fhir/us/core/StructureDefinition/us-core-ethnicity","extension":[{"url":"ombCategory","valueCoding":{"system":"urn:oid:2.16.840.1.113883.6.238","code":"2186-5","display":"Not Hispanic or Latino","userSelected":true}},{"url":"text","valueString":"Not Hispanic or Latino"}]}],"identifier":[{"type":{"coding":[{"system":"http://terminology.hl7.org/CodeSystem/v2-0203","code":"MR"}]},"system":"https://bonnie-fhir.healthit.gov/","value":"63233443414ba67d4e1d1c31"}],"name":[{"family":"DENEXPass","given":["DischargeToAcuteCare"]}],"gender":"male","birthDate":"2006-12-28"},"request":{"method":"PUT","url":"Patient/f049e76a-aef1-4e8f-a8bd-dfdb419de551"}},{"resource":{"resourceType":"Coverage","id":"c4e290b3-1a9a-47b7-b860-24111bb53fe1","meta":{"profile":["http://hl7.org/fhir/us/qicore/StructureDefinition/qicore-coverage"]},"status":"active","subscriberId":"523435","beneficiary":{"reference":"Patient/f049e76a-aef1-4e8f-a8bd-dfdb419de551"},"relationship":{"coding":[{"system":"http://terminology.hl7.org/CodeSystem/subscriber-relationship","code":"self"}]},"payor":[{"reference":"Organization/e09bfb03-a0b4-4bbe-83fa-097d7c1e1a98"}]},"request":{"method":"PUT","url":"Coverage/c4e290b3-1a9a-47b7-b860-24111bb53fe1"}},{"resource":{"resourceType":"Bundle","id":"63233443414ba67d4e1d1c31","type":"transaction","entry":[{"fullUrl":"https://madie.cms.gov/Patient/f049e76a-aef1-4e8f-a8bd-dfdb419de551","resource":{"resourceType":"Patient","id":"f049e76a-aef1-4e8f-a8bd-dfdb419de551","meta":{"profile":["http://hl7.org/fhir/us/qicore/StructureDefinition/qicore-patient"]},"extension":[{"url":"http://hl7.org/fhir/us/core/StructureDefinition/us-core-race","extension":[{"url":"ombCategory","valueCoding":{"system":"urn:oid:2.16.840.1.113883.6.238","code":"2054-5","display":"Black or African American","userSelected":true}},{"url":"text","valueString":"Black or African American"}]},{"url":"http://hl7.org/fhir/us/core/StructureDefinition/us-core-ethnicity","extension":[{"url":"ombCategory","valueCoding":{"system":"urn:oid:2.16.840.1.113883.6.238","code":"2186-5","display":"Not Hispanic or Latino","userSelected":true}},{"url":"text","valueString":"Not Hispanic or Latino"}]}],"identifier":[{"type":{"coding":[{"system":"http://terminology.hl7.org/CodeSystem/v2-0203","code":"MR"}]},"system":"https://bonnie-fhir.healthit.gov/","value":"63233443414ba67d4e1d1c31"}],"name":[{"family":"DENEXPass","given":["DischargeToAcuteCare"]}],"gender":"male","birthDate":"2006-12-28"},"request":{"method":"PUT","url":"Patient/f049e76a-aef1-4e8f-a8bd-dfdb419de551"}},{"fullUrl":"https://madie.cms.gov/Encounter/0ae1f051-bc9d-470d-9e66-103eedf67bf7","resource":{"resourceType":"Encounter","id":"0ae1f051-bc9d-470d-9e66-103eedf67bf7","meta":{"profile":["http://hl7.org/fhir/us/qicore/StructureDefinition/qicore-encounter"]},"status":"finished","class":{"system":"http://terminology.hl7.org/CodeSystem/v3-ActCode","code":"AMB","display":"ambulatory"},"type":[{"coding":[{"system":"http://snomed.info/sct","version":"2022-03","code":"183452005","display":"Emergency hospital admission (procedure)","userSelected":true}]}],"subject":{"reference":"Patient/f049e76a-aef1-4e8f-a8bd-dfdb419de551"},"period":{"start":"2026-12-29T12:00:00.000+00:00","end":"2026-12-31T12:15:00.000+00:00"},"hospitalization":{"dischargeDisposition":{"coding":[{"system":"http://snomed.info/sct","code":"306701001","display":"Discharge to community hospital (procedure)","userSelected":true}]}}},"request":{"method":"PUT","url":"Encounter/0ae1f051-bc9d-470d-9e66-103eedf67bf7"}},{"fullUrl":"https://madie.cms.gov/MedicationRequest/a5f2dcce-b9e2-4712-a9ad-f0ef97600556","resource":{"resourceType":"MedicationRequest","id":"a5f2dcce-b9e2-4712-a9ad-f0ef97600556","meta":{"profile":["http://hl7.org/fhir/us/qicore/StructureDefinition/qicore-medicationrequest"]},"status":"active","intent":"order","category":[{"coding":[{"system":"http://terminology.hl7.org/CodeSystem/medicationrequest-category","code":"discharge","display":"Discharge","userSelected":true}]}],"doNotPerform":false,"medicationCodeableConcept":{"coding":[{"system":"http://www.nlm.nih.gov/research/umls/rxnorm","code":"1049604","display":"oxycodone hydrochloride 1 MG/ML Oral Solution","userSelected":true}]},"subject":{"reference":"Patient/f049e76a-aef1-4e8f-a8bd-dfdb419de551"},"authoredOn":"2026-12-31T12:10:00.000+00:00","requester":{"reference":"Practitioner/a954003e-15c8-40ca-b51f-f3539651e493"}},"request":{"method":"PUT","url":"MedicationRequest/a5f2dcce-b9e2-4712-a9ad-f0ef97600556"}},{"fullUrl":"https://madie.cms.gov/Practitioner/a954003e-15c8-40ca-b51f-f3539651e493","resource":{"resourceType":"Practitioner","id":"a954003e-15c8-40ca-b51f-f3539651e493","meta":{"profile":["http://hl7.org/fhir/us/qicore/StructureDefinition/qicore-practitioner"]},"identifier":[{"system":"http://hl7.org/fhir/sid/us-npi","value":"9999999896"}],"active":true,"name":[{"family":"Ramires","given":["Alma"],"prefix":["Dr"]}],"address":[{"use":"home","line":["534 Erewhon St"],"city":"Netherville","state":"IN","postalCode":"46131"}],"qualification":[{"identifier":[{"system":"http://goodhealth.org/prIdentifier","value":"12345"}],"code":{"coding":[{"system":"http://terminology.hl7.org/CodeSystem/v2-0360|2.7","code":"BS","display":"Bachelor of Science"}],"text":"Bachelor of Science"},"period":{"start":"1995"},"issuer":{"display":"Example University"}}]},"request":{"method":"PUT","url":"Practitioner/a954003e-15c8-40ca-b51f-f3539651e493"}},{"fullUrl":"https://madie.cms.gov/Coverage/c4e290b3-1a9a-47b7-b860-24111bb53fe1","resource":{"resourceType":"Coverage","id":"c4e290b3-1a9a-47b7-b860-24111bb53fe1","meta":{"profile":["http://hl7.org/fhir/us/qicore/StructureDefinition/qicore-coverage"]},"status":"active","subscriberId":"523435","beneficiary":{"reference":"Patient/f049e76a-aef1-4e8f-a8bd-dfdb419de551"},"relationship":{"coding":[{"system":"http://terminology.hl7.org/CodeSystem/subscriber-relationship","code":"self"}]},"payor":[{"reference":"Organization/e09bfb03-a0b4-4bbe-83fa-097d7c1e1a98"}]},"request":{"method":"PUT","url":"Coverage/c4e290b3-1a9a-47b7-b860-24111bb53fe1"}},{"fullUrl":"https://madie.cms.gov/Organization/e09bfb03-a0b4-4bbe-83fa-097d7c1e1a98","resource":{"resourceType":"Organization","id":"e09bfb03-a0b4-4bbe-83fa-097d7c1e1a98","meta":{"profile":["http://hl7.org/fhir/us/qicore/StructureDefinition/qicore-organization"]},"identifier":[{"use":"temp","system":"urn:oid:2.16.840.1.113883.4.4","value":"21-3259825"}],"active":true,"type":[{"coding":[{"system":"http://terminology.hl7.org/CodeSystem/organization-type","code":"pay","display":"Payer"}]}],"name":"Blue Cross Blue Shield of Texas","telecom":[{"system":"phone","value":"(+1) 972-766-6900"}],"address":[{"use":"billing","type":"postal","line":["P.O. Box 660044"],"city":"Dallas","state":"TX","postalCode":"75266-0044","country":"USA"}]},"request":{"method":"PUT","url":"Organization/e09bfb03-a0b4-4bbe-83fa-097d7c1e1a98"}},{"fullUrl":"https://madie.cms.gov/MeasureReport/d73197d3-8c21-4fe6-88db-aaf410002046","resource":{"resourceType":"MeasureReport","id":"d73197d3-8c21-4fe6-88db-aaf410002046","meta":{"profile":["http://hl7.org/fhir/us/cqfmeasures/StructureDefinition/test-case-cqfm"]},"contained":[{"resourceType":"Parameters","id":"8bc83893-60f9-4b10-9247-22b4fb63766f-parameters","parameter":[{"name":"subject","valueString":"f049e76a-aef1-4e8f-a8bd-dfdb419de551"}]}],"extension":[{"url":"http://hl7.org/fhir/StructureDefinition/cqf-inputParameters","valueReference":{"reference":"#8bc83893-60f9-4b10-9247-22b4fb63766f-parameters"}},{"url":"http://hl7.org/fhir/us/cqfmeasures/StructureDefinition/cqfm-testCaseDescription","valueMarkdown":"Encounter, age 18 day before encounter, has opioid, discharged to acute care"}],"modifierExtension":[{"url":"http://hl7.org/fhir/us/cqfmeasures/StructureDefinition/cqfm-isTestCase","valueBoolean":true}],"status":"complete","type":"individual","measure":"https://madie.cms.gov/Measure/CMS506FHIRSafeUseofOpioids","period":{"start":"2026-01-01","end":"2026-12-31"},"group":[{"id":"Group_1","population":[{"id":"InitialPopulation_1","code":{"coding":[{"system":"http://terminology.hl7.org/CodeSystem/measure-population","code":"initial-population","display":"Initial Population"}]},"count":1},{"id":"Denominator_1","code":{"coding":[{"system":"http://terminology.hl7.org/CodeSystem/measure-population","code":"denominator","display":"Denominator"}]},"count":1},{"id":"DenominatorExclusion_1","code":{"coding":[{"system":"http://terminology.hl7.org/CodeSystem/measure-population","code":"denominator-exclusion","display":"Denominator Exclusion"}]},"count":1},{"id":"Numerator_1","code":{"coding":[{"system":"http://terminology.hl7.org/CodeSystem/measure-population","code":"numerator","display":"Numerator"}]},"count":0}],"measureScore":{"value":0.0}}],"evaluatedResource":[{"reference":"Patient/f049e76a-aef1-4e8f-a8bd-dfdb419de551"},{"reference":"Encounter/0ae1f051-bc9d-470d-9e66-103eedf67bf7"},{"reference":"MedicationRequest/a5f2dcce-b9e2-4712-a9ad-f0ef97600556"},{"reference":"Practitioner/a954003e-15c8-40ca-b51f-f3539651e493"},{"reference":"Coverage/c4e290b3-1a9a-47b7-b860-24111bb53fe1"},{"reference":"Organization/e09bfb03-a0b4-4bbe-83fa-097d7c1e1a98"}]},"request":{"method":"PUT","url":"MeasureReport/d73197d3-8c21-4fe6-88db-aaf410002046"}}]},"request":{"method":"PUT","url":"Bundle/63233443414ba67d4e1d1c31"}},{"resource":{"resourceType":"Practitioner","id":"a954003e-15c8-40ca-b51f-f3539651e493","meta":{"profile":["http://hl7.org/fhir/us/qicore/StructureDefinition/qicore-practitioner"]},"identifier":[{"system":"http://hl7.org/fhir/sid/us-npi","value":"9999999896"}],"active":true,"name":[{"family":"Ramires","given":["Alma"],"prefix":["Dr"]}],"address":[{"use":"home","line":["534 Erewhon St"],"city":"Netherville","state":"IN","postalCode":"46131"}],"qualification":[{"identifier":[{"system":"http://goodhealth.org/prIdentifier","value":"12345"}],"code":{"coding":[{"system":"http://terminology.hl7.org/CodeSystem/v2-0360|2.7","code":"BS","display":"Bachelor of Science"}],"text":"Bachelor of Science"},"period":{"start":"1995"},"issuer":{"display":"Example University"}}]},"request":{"method":"PUT","url":"Practitioner/a954003e-15c8-40ca-b51f-f3539651e493"}},{"resource":{"resourceType":"Organization","id":"e09bfb03-a0b4-4bbe-83fa-097d7c1e1a98","meta":{"profile":["http://hl7.org/fhir/us/qicore/StructureDefinition/qicore-organization"]},"identifier":[{"use":"temp","system":"urn:oid:2.16.840.1.113883.4.4","value":"21-3259825"}],"active":true,"type":[{"coding":[{"system":"http://terminology.hl7.org/CodeSystem/organization-type","code":"pay","display":"Payer"}]}],"name":"Blue Cross Blue Shield of Texas","telecom":[{"system":"phone","value":"(+1) 972-766-6900"}],"address":[{"use":"billing","type":"postal","line":["P.O. Box 660044"],"city":"Dallas","state":"TX","postalCode":"75266-0044","country":"USA"}]},"request":{"method":"PUT","url":"Organization/e09bfb03-a0b4-4bbe-83fa-097d7c1e1a98"}},{"resource":{"resourceType":"Encounter","id":"0ae1f051-bc9d-470d-9e66-103eedf67bf7","meta":{"profile":["http://hl7.org/fhir/us/qicore/StructureDefinition/qicore-encounter"]},"status":"finished","class":{"system":"http://terminology.hl7.org/CodeSystem/v3-ActCode","code":"AMB","display":"ambulatory"},"type":[{"coding":[{"system":"http://snomed.info/sct","version":"2022-03","code":"183452005","display":"Emergency hospital admission (procedure)","userSelected":true}]}],"subject":{"reference":"Patient/f049e76a-aef1-4e8f-a8bd-dfdb419de551"},"period":{"start":"2026-12-29T12:00:00.000+00:00","end":"2026-12-31T12:15:00.000+00:00"},"hospitalization":{"dischargeDisposition":{"coding":[{"system":"http://snomed.info/sct","code":"306701001","display":"Discharge to community hospital (procedure)","userSelected":true}]}}},"request":{"method":"PUT","url":"Encounter/0ae1f051-bc9d-470d-9e66-103eedf67bf7"}}]}