{
  "resourceType": "Bundle",
  "id": "DENEXPass-HospiceServicesEndOnDec31OfMP",
  "type": "transaction",
  "entry": [ {
    "fullUrl": "https://madie.cms.gov/Patient/b532c8f5-b38a-4337-8661-7b744e271a9c",
    "resource": {
      "resourceType": "Patient",
      "id": "b532c8f5-b38a-4337-8661-7b744e271a9c",
      "meta": {
        "profile": [ "http://hl7.org/fhir/us/qicore/StructureDefinition/qicore-patient" ]
      },
      "extension": [ {
        "url": "http://hl7.org/fhir/us/core/StructureDefinition/us-core-race",
        "extension": [ {
          "url": "ombCategory",
          "valueCoding": {
            "system": "urn:oid:2.16.840.1.113883.6.238",
            "code": "2028-9",
            "display": "Asian"
          }
        }, {
          "url": "text",
          "valueString": "Asian"
        } ]
      }, {
        "url": "http://hl7.org/fhir/us/core/StructureDefinition/us-core-ethnicity",
        "extension": [ {
          "url": "ombCategory",
          "valueCoding": {
            "system": "urn:oid:2.16.840.1.113883.6.238",
            "code": "2135-2",
            "display": "Hispanic or Latino"
          }
        }, {
          "url": "text",
          "valueString": "Hispanic or Latino"
        } ]
      } ],
      "identifier": [ {
        "system": "http://hospital.smarthealthit.org",
        "value": "999999995"
      } ],
      "name": [ {
        "family": "Bertha",
        "given": [ "Betty" ]
      } ],
      "gender": "female",
      "birthDate": "2006-01-01"
    },
    "request": {
      "method": "PUT",
      "url": "Patient/b532c8f5-b38a-4337-8661-7b744e271a9c"
    }
  }, {
    "fullUrl": "https://madie.cms.gov/Encounter/27f97a31-a3a5-4d13-898a-3f7bbf066ab7",
    "resource": {
      "resourceType": "Encounter",
      "id": "27f97a31-a3a5-4d13-898a-3f7bbf066ab7",
      "meta": {
        "profile": [ "http://hl7.org/fhir/us/qicore/StructureDefinition/qicore-encounter" ]
      },
      "status": "finished",
      "class": {
        "system": "http://terminology.hl7.org/CodeSystem/v3-ActCode",
        "code": "AMB",
        "display": "ambulatory"
      },
      "type": [ {
        "coding": [ {
          "system": "http://www.ada.org/cdt",
          "code": "D0120",
          "display": "periodic oral evaluation - established patient"
        } ]
      } ],
      "subject": {
        "reference": "Patient/b532c8f5-b38a-4337-8661-7b744e271a9c"
      },
      "period": {
        "start": "2026-01-01T00:00:00.000Z",
        "end": "2026-01-01T01:15:00.000Z"
      }
    },
    "request": {
      "method": "PUT",
      "url": "Encounter/27f97a31-a3a5-4d13-898a-3f7bbf066ab7"
    }
  }, {
    "fullUrl": "https://madie.cms.gov/Encounter/27f97a31-a3a5-4d13-898a-3f7bbf066ab7.1",
    "resource": {
      "resourceType": "Encounter",
      "id": "27f97a31-a3a5-4d13-898a-3f7bbf066ab7.1",
      "meta": {
        "profile": [ "http://hl7.org/fhir/us/qicore/StructureDefinition/qicore-encounter" ]
      },
      "status": "finished",
      "class": {
        "system": "http://terminology.hl7.org/CodeSystem/v3-ActCode",
        "code": "AMB",
        "display": "ambulatory"
      },
      "type": [ {
        "coding": [ {
          "system": "http://snomed.info/sct",
          "code": "183452005",
          "display": "Emergency hospital admission (procedure)"
        } ]
      } ],
      "subject": {
        "reference": "Patient/b532c8f5-b38a-4337-8661-7b744e271a9c"
      },
      "period": {
        "start": "2026-12-31T00:00:00.000Z",
        "end": "2026-12-31T01:00:00.000Z"
      },
      "hospitalization": {
        "dischargeDisposition": {
          "coding": [ {
            "system": "http://snomed.info/sct",
            "code": "428371000124100",
            "display": "Discharge to healthcare facility for hospice care (procedure)"
          } ]
        }
      }
    },
    "request": {
      "method": "PUT",
      "url": "Encounter/27f97a31-a3a5-4d13-898a-3f7bbf066ab7.1"
    }
  }, {
    "fullUrl": "https://madie.cms.gov/MeasureReport/60b96789-cb22-4b84-bf9a-1af29249516d",
    "resource": {
      "resourceType": "MeasureReport",
      "id": "60b96789-cb22-4b84-bf9a-1af29249516d",
      "meta": {
        "profile": [ "http://hl7.org/fhir/us/cqfmeasures/StructureDefinition/test-case-cqfm" ]
      },
      "contained": [ {
        "resourceType": "Parameters",
        "id": "b571e5ad-9449-459f-8e8f-7c18beaeb881-parameters",
        "parameter": [ {
          "name": "subject",
          "valueString": "b532c8f5-b38a-4337-8661-7b744e271a9c"
        } ]
      } ],
      "extension": [ {
        "url": "http://hl7.org/fhir/StructureDefinition/cqf-inputParameters",
        "valueReference": {
          "reference": "#b571e5ad-9449-459f-8e8f-7c18beaeb881-parameters"
        }
      }, {
        "url": "http://hl7.org/fhir/us/cqfmeasures/StructureDefinition/cqfm-testCaseDescription",
        "valueMarkdown": "Patient 20yo w/ an Oral Evaluation Encounter 1/1 of the MP & Hospice Encounter that ends on 12/31 of the MP.\""
      } ],
      "modifierExtension": [ {
        "url": "http://hl7.org/fhir/us/cqfmeasures/StructureDefinition/cqfm-isTestCase",
        "valueBoolean": true
      } ],
      "status": "complete",
      "type": "individual",
      "measure": "https://madie.cms.gov/Measure/CMS75FHIRChildrenWhoHaveDentalDecayOrCavities",
      "period": {
        "start": "2026-01-01",
        "end": "2026-12-31"
      },
      "group": [ {
        "id": "Group_1",
        "population": [ {
          "id": "InitialPopulation_1",
          "code": {
            "coding": [ {
              "system": "http://terminology.hl7.org/CodeSystem/measure-population",
              "code": "initial-population",
              "display": "Initial Population"
            } ]
          },
          "count": 1
        }, {
          "id": "Denominator_1",
          "code": {
            "coding": [ {
              "system": "http://terminology.hl7.org/CodeSystem/measure-population",
              "code": "denominator",
              "display": "Denominator"
            } ]
          },
          "count": 1
        }, {
          "id": "DenominatorExclusion_1",
          "code": {
            "coding": [ {
              "system": "http://terminology.hl7.org/CodeSystem/measure-population",
              "code": "denominator-exclusion",
              "display": "Denominator Exclusion"
            } ]
          },
          "count": 1
        }, {
          "id": "Numerator_1",
          "code": {
            "coding": [ {
              "system": "http://terminology.hl7.org/CodeSystem/measure-population",
              "code": "numerator",
              "display": "Numerator"
            } ]
          },
          "count": 0
        } ],
        "measureScore": {
          "value": 1.0
        }
      } ],
      "evaluatedResource": [ {
        "reference": "Patient/b532c8f5-b38a-4337-8661-7b744e271a9c"
      }, {
        "reference": "Encounter/27f97a31-a3a5-4d13-898a-3f7bbf066ab7"
      }, {
        "reference": "Encounter/27f97a31-a3a5-4d13-898a-3f7bbf066ab7.1"
      } ]
    },
    "request": {
      "method": "PUT",
      "url": "MeasureReport/60b96789-cb22-4b84-bf9a-1af29249516d"
    }
  } ]
}