{
  "resourceType": "Bundle",
  "id": "4613103103131",
  "type": "transaction",
  "entry": [ {
    "fullUrl": "https://madie.cms.gov/Patient/40ac7a7f-5aa0-48d5-9dbf-289ad5ecf863",
    "resource": {
      "resourceType": "Patient",
      "id": "40ac7a7f-5aa0-48d5-9dbf-289ad5ecf863",
      "meta": {
        "profile": [ "http://hl7.org/fhir/us/qicore/StructureDefinition/qicore-patient" ]
      },
      "extension": [ {
        "url": "http://hl7.org/fhir/us/core/StructureDefinition/us-core-race",
        "extension": [ {
          "url": "ombCategory",
          "valueCoding": {
            "system": "urn:oid:2.16.840.1.113883.6.238",
            "code": "2106-3",
            "display": "White"
          }
        }, {
          "url": "text",
          "valueString": "White"
        } ]
      }, {
        "url": "http://hl7.org/fhir/us/core/StructureDefinition/us-core-ethnicity",
        "extension": [ {
          "url": "ombCategory",
          "valueCoding": {
            "system": "urn:oid:2.16.840.1.113883.6.238",
            "code": "2135-2",
            "display": "Hispanic or Latino"
          }
        }, {
          "url": "text",
          "valueString": "Hispanic or Latino"
        } ]
      } ],
      "identifier": [ {
        "type": {
          "coding": [ {
            "system": "http://terminology.hl7.org/CodeSystem/v2-0203",
            "code": "MR"
          } ]
        },
        "system": "https://bonnie-fhir.healthit.gov/",
        "value": "613103ab313C414126351"
      } ],
      "name": [ {
        "family": "DENEXCEPPass",
        "given": [ "BCGNotGivenLastDay6Mo" ]
      } ],
      "gender": "female",
      "birthDate": "1948-12-27"
    },
    "request": {
      "method": "PUT",
      "url": "Patient/40ac7a7f-5aa0-48d5-9dbf-289ad5ecf863"
    }
  }, {
    "fullUrl": "https://madie.cms.gov/Condition/0529e9ad-cb98-40e6-861a-26f8e95260fd",
    "resource": {
      "resourceType": "Condition",
      "id": "0529e9ad-cb98-40e6-861a-26f8e95260fd",
      "meta": {
        "profile": [ "http://hl7.org/fhir/us/qicore/StructureDefinition/qicore-condition-problems-health-concerns" ]
      },
      "clinicalStatus": {
        "coding": [ {
          "system": "http://terminology.hl7.org/CodeSystem/condition-clinical",
          "code": "active",
          "display": "Active"
        } ]
      },
      "verificationStatus": {
        "coding": [ {
          "system": "http://terminology.hl7.org/CodeSystem/condition-ver-status",
          "code": "confirmed",
          "display": "Confirmed"
        } ]
      },
      "category": [ {
        "coding": [ {
          "system": "http://terminology.hl7.org/CodeSystem/condition-category",
          "code": "problem-list-item",
          "display": "Problem List Item"
        } ]
      } ],
      "code": {
        "coding": [ {
          "system": "http://hl7.org/fhir/sid/icd-10-cm",
          "version": "2024",
          "code": "C67.1",
          "display": "Malignant neoplasm of dome of bladder"
        } ]
      },
      "subject": {
        "reference": "Patient/40ac7a7f-5aa0-48d5-9dbf-289ad5ecf863"
      },
      "onsetDateTime": "2026-03-05T08:00:00.000+00:00"
    },
    "request": {
      "method": "PUT",
      "url": "Condition/0529e9ad-cb98-40e6-861a-26f8e95260fd"
    }
  }, {
    "fullUrl": "https://madie.cms.gov/Encounter/0d7021a6-c67c-45a3-857d-d1568d73da0f",
    "resource": {
      "resourceType": "Encounter",
      "id": "0d7021a6-c67c-45a3-857d-d1568d73da0f",
      "meta": {
        "profile": [ "http://hl7.org/fhir/us/qicore/StructureDefinition/qicore-encounter" ]
      },
      "status": "finished",
      "class": {
        "system": "http://terminology.hl7.org/CodeSystem/v3-ActCode",
        "code": "AMB",
        "display": "ambulatory"
      },
      "type": [ {
        "coding": [ {
          "system": "http://www.ama-assn.org/go/cpt",
          "version": "2024",
          "code": "99202"
        } ]
      } ],
      "subject": {
        "reference": "Patient/40ac7a7f-5aa0-48d5-9dbf-289ad5ecf863"
      },
      "period": {
        "start": "2026-03-05T08:00:00.000+00:00",
        "end": "2026-03-05T08:15:00.000+00:00"
      }
    },
    "request": {
      "method": "PUT",
      "url": "Encounter/0d7021a6-c67c-45a3-857d-d1568d73da0f"
    }
  }, {
    "fullUrl": "https://madie.cms.gov/MedicationAdministration/7f2d5f84-5e16-4e0f-a5b5-7065e4c089b2",
    "resource": {
      "resourceType": "MedicationAdministration",
      "id": "7f2d5f84-5e16-4e0f-a5b5-7065e4c089b2",
      "meta": {
        "profile": [ "http://hl7.org/fhir/us/qicore/StructureDefinition/qicore-mednotadministered" ]
      },
      "extension": [ {
        "url": "http://hl7.org/fhir/us/qicore/StructureDefinition/qicore-recorded",
        "valueDateTime": "2026-09-05T08:00:00.000+00:00"
      } ],
      "status": "not-done",
      "statusReason": [ {
        "coding": [ {
          "system": "http://snomed.info/sct",
          "version": "http://snomed.info/sct/731000124108/version/20240301",
          "code": "242990004",
          "display": "Drug not available for administration (event)"
        } ]
      } ],
      "medicationCodeableConcept": {
        "coding": [ {
          "system": "http://www.nlm.nih.gov/research/umls/rxnorm",
          "version": "04012024",
          "code": "1653484",
          "display": "BCG, live, Tice strain 50 MG/ML Topical Suspension"
        } ]
      },
      "subject": {
        "reference": "Patient/40ac7a7f-5aa0-48d5-9dbf-289ad5ecf863"
      },
      "effectivePeriod": {
        "start": "2026-09-05T08:00:00.000+00:00",
        "end": "2026-09-05T08:00:00.000+00:00"
      }
    },
    "request": {
      "method": "PUT",
      "url": "MedicationAdministration/7f2d5f84-5e16-4e0f-a5b5-7065e4c089b2"
    }
  }, {
    "fullUrl": "https://madie.cms.gov/Procedure/0c2d8a03-43fa-4b0f-9e1a-f015b82182cc",
    "resource": {
      "resourceType": "Procedure",
      "id": "0c2d8a03-43fa-4b0f-9e1a-f015b82182cc",
      "meta": {
        "profile": [ "http://hl7.org/fhir/us/qicore/StructureDefinition/qicore-procedure" ]
      },
      "extension": [ {
        "url": "http://hl7.org/fhir/us/qicore/StructureDefinition/qicore-recorded",
        "valueDateTime": "2026-04-06T08:00:00.000+00:00"
      } ],
      "status": "completed",
      "code": {
        "coding": [ {
          "system": "http://snomed.info/sct",
          "version": "http://snomed.info/sct/731000124108/version/20240301",
          "code": "254292007",
          "display": "Tumor staging"
        } ]
      },
      "subject": {
        "reference": "Patient/40ac7a7f-5aa0-48d5-9dbf-289ad5ecf863"
      },
      "performedPeriod": {
        "start": "2026-03-05T08:00:00.000+00:00",
        "end": "2026-03-06T08:15:00.000+00:00"
      }
    },
    "request": {
      "method": "PUT",
      "url": "Procedure/0c2d8a03-43fa-4b0f-9e1a-f015b82182cc"
    }
  }, {
    "fullUrl": "https://madie.cms.gov/Observation/c34a8c43-5327-4bd4-b6bf-3364bc85daf1",
    "resource": {
      "resourceType": "Observation",
      "id": "c34a8c43-5327-4bd4-b6bf-3364bc85daf1",
      "meta": {
        "profile": [ "http://hl7.org/fhir/us/qicore/StructureDefinition/qicore-observation-lab" ]
      },
      "partOf": [ {
        "reference": "Procedure/0c2d8a03-43fa-4b0f-9e1a-f015b82182cc"
      } ],
      "status": "final",
      "category": [ {
        "coding": [ {
          "system": "http://terminology.hl7.org/CodeSystem/observation-category",
          "code": "procedure",
          "display": "Procedure"
        } ]
      } ],
      "code": {
        "coding": [ {
          "system": "http://loinc.org",
          "version": "2.76",
          "code": "21902-2",
          "display": "Stage group.pathology Cancer"
        } ]
      },
      "subject": {
        "reference": "Patient/40ac7a7f-5aa0-48d5-9dbf-289ad5ecf863"
      },
      "effectivePeriod": {
        "start": "2026-03-05T08:00:00.000+00:00",
        "end": "2026-03-06T08:15:00.000+00:00"
      },
      "issued": "2026-03-05T08:00:00.000+00:00",
      "valueCodeableConcept": {
        "coding": [ {
          "system": "http://snomed.info/sct",
          "version": "http://snomed.info/sct/731000124108/version/20240301",
          "code": "1228883000",
          "display": "American Joint Committee on Cancer cTa (qualifier value)"
        } ]
      }
    },
    "request": {
      "method": "PUT",
      "url": "Observation/c34a8c43-5327-4bd4-b6bf-3364bc85daf1"
    }
  }, {
    "fullUrl": "https://madie.cms.gov/MeasureReport/8735e2b0-234a-4dbe-a781-7d73c42b8131",
    "resource": {
      "resourceType": "MeasureReport",
      "id": "8735e2b0-234a-4dbe-a781-7d73c42b8131",
      "meta": {
        "profile": [ "http://hl7.org/fhir/us/cqfmeasures/StructureDefinition/test-case-cqfm" ]
      },
      "contained": [ {
        "resourceType": "Parameters",
        "id": "64e5c356-0f41-4b4f-a37c-ff3ab735d80e-parameters",
        "parameter": [ {
          "name": "subject",
          "valueString": "40ac7a7f-5aa0-48d5-9dbf-289ad5ecf863"
        } ]
      } ],
      "extension": [ {
        "url": "http://hl7.org/fhir/StructureDefinition/cqf-inputParameters",
        "valueReference": {
          "reference": "#64e5c356-0f41-4b4f-a37c-ff3ab735d80e-parameters"
        }
      }, {
        "url": "http://hl7.org/fhir/us/cqfmeasures/StructureDefinition/cqfm-testCaseDescription",
        "valueMarkdown": "Patient meets IPP.  BCG not available during MP. Should pass. Note: Issue with Denominator Exception due to negation issue."
      } ],
      "modifierExtension": [ {
        "url": "http://hl7.org/fhir/us/cqfmeasures/StructureDefinition/cqfm-isTestCase",
        "valueBoolean": true
      } ],
      "status": "complete",
      "type": "individual",
      "measure": "https://madie.cms.gov/Measure/CMS646FHIRIntravesicalBacillusCalmetteGuerinForBladderCancer",
      "period": {
        "start": "2026-01-01",
        "end": "2026-12-31"
      },
      "group": [ {
        "id": "Group_1",
        "population": [ {
          "id": "InitialPopulation_1",
          "code": {
            "coding": [ {
              "system": "http://terminology.hl7.org/CodeSystem/measure-population",
              "code": "initial-population",
              "display": "Initial Population"
            } ]
          },
          "count": 1
        }, {
          "id": "Denominator_1",
          "code": {
            "coding": [ {
              "system": "http://terminology.hl7.org/CodeSystem/measure-population",
              "code": "denominator",
              "display": "Denominator"
            } ]
          },
          "count": 1
        }, {
          "id": "DenominatorExclusion_1",
          "code": {
            "coding": [ {
              "system": "http://terminology.hl7.org/CodeSystem/measure-population",
              "code": "denominator-exclusion",
              "display": "Denominator Exclusion"
            } ]
          },
          "count": 0
        }, {
          "id": "Numerator_1",
          "code": {
            "coding": [ {
              "system": "http://terminology.hl7.org/CodeSystem/measure-population",
              "code": "numerator",
              "display": "Numerator"
            } ]
          },
          "count": 0
        }, {
          "id": "DenominatorException_1",
          "code": {
            "coding": [ {
              "system": "http://terminology.hl7.org/CodeSystem/measure-population",
              "code": "denominator-exception",
              "display": "Denominator Exception"
            } ]
          },
          "count": 0
        } ],
        "measureScore": {
          "value": 1.0
        }
      } ],
      "evaluatedResource": [ {
        "reference": "Patient/40ac7a7f-5aa0-48d5-9dbf-289ad5ecf863"
      }, {
        "reference": "Condition/0529e9ad-cb98-40e6-861a-26f8e95260fd"
      }, {
        "reference": "Encounter/0d7021a6-c67c-45a3-857d-d1568d73da0f"
      }, {
        "reference": "MedicationAdministration/7f2d5f84-5e16-4e0f-a5b5-7065e4c089b2"
      }, {
        "reference": "Procedure/0c2d8a03-43fa-4b0f-9e1a-f015b82182cc"
      }, {
        "reference": "Observation/c34a8c43-5327-4bd4-b6bf-3364bc85daf1"
      } ]
    },
    "request": {
      "method": "PUT",
      "url": "MeasureReport/8735e2b0-234a-4dbe-a781-7d73c42b8131"
    }
  } ]
}