{"resourceType":"Bundle","id":"tests-da823bdf-248b-4b9b-8fec-363d673036c8-bundle","type":"transaction","entry":[{"resource":{"resourceType":"Observation","id":"83deab48-695d-4d1e-ba0d-c092089bebf7","meta":{"profile":["http://hl7.org/fhir/us/qicore/StructureDefinition/qicore-observation-lab"]},"partOf":[{"reference":"Procedure/54d7da74-9294-49a6-98cd-74479ef968b2"}],"status":"final","category":[{"coding":[{"system":"http://terminology.hl7.org/CodeSystem/observation-category","code":"procedure","display":"Procedure"}]}],"code":{"coding":[{"system":"http://loinc.org","version":"2.76","code":"21902-2","display":"Stage group.pathology Cancer"}]},"subject":{"reference":"Patient/da823bdf-248b-4b9b-8fec-363d673036c8"},"effectivePeriod":{"start":"2026-06-30T08:00:00.000+00:00","end":"2026-06-30T08:15:00.000+00:00"},"issued":"2026-06-30T08:15:00.000+00:00","valueCodeableConcept":{"coding":[{"system":"http://snomed.info/sct","version":"http://snomed.info/sct/731000124108/version/20240301","code":"1228883000","display":"American Joint Committee on Cancer cTa (qualifier value)"}]}},"request":{"method":"PUT","url":"Observation/83deab48-695d-4d1e-ba0d-c092089bebf7"}},{"resource":{"resourceType":"Practitioner","id":"8ceac3b2-31d7-408a-8bf6-f0df9bc5e4d5","meta":{"profile":["http://hl7.org/fhir/us/qicore/StructureDefinition/qicore-practitioner"]},"identifier":[{"use":"temp","system":"urn:oid:2.16.840.1.113883.4.336","value":"Practitioner-23"}],"active":true,"name":[{"family":"Careful","given":["Adam"],"prefix":["Dr"]}],"address":[{"use":"home","line":["534 Erewhon St"],"city":"PleasantVille","state":"UT","postalCode":"84414"}],"qualification":[{"identifier":[{"system":"http://example.org/UniversityIdentifier","value":"12345"}],"code":{"coding":[{"system":"http://terminology.hl7.org/CodeSystem/v2-0360|2.7","code":"BS","display":"Bachelor of Science"}],"text":"Bachelor of Science"},"period":{"start":"1996"},"issuer":{"display":"Example University"}}]},"request":{"method":"PUT","url":"Practitioner/8ceac3b2-31d7-408a-8bf6-f0df9bc5e4d5"}},{"resource":{"resourceType":"Encounter","id":"2e3fbde5-1e80-479c-a27c-fdd80fe1c665","meta":{"profile":["http://hl7.org/fhir/us/qicore/StructureDefinition/qicore-encounter"]},"status":"finished","class":{"system":"http://terminology.hl7.org/CodeSystem/v3-ActCode","code":"AMB","display":"ambulatory"},"type":[{"coding":[{"system":"http://snomed.info/sct","version":"http://snomed.info/sct/731000124108/version/20240301","code":"185463005","display":"Visit out of hours (procedure)"}]}],"subject":{"reference":"Patient/da823bdf-248b-4b9b-8fec-363d673036c8"},"period":{"start":"2026-12-30T08:00:00.000+00:00","end":"2026-12-30T09:15:00.000+00:00"}},"request":{"method":"PUT","url":"Encounter/2e3fbde5-1e80-479c-a27c-fdd80fe1c665"}},{"resource":{"resourceType":"Procedure","id":"54d7da74-9294-49a6-98cd-74479ef968b2","meta":{"profile":["http://hl7.org/fhir/us/qicore/StructureDefinition/qicore-procedure"]},"extension":[{"url":"http://hl7.org/fhir/us/qicore/StructureDefinition/qicore-recorded","valueDateTime":"2026-05-29T08:00:00.000+00:00"}],"status":"completed","code":{"coding":[{"system":"http://www.ama-assn.org/go/cpt","version":"2024","code":"51585","display":"Cystectomy Done","userSelected":true}]},"subject":{"reference":"Patient/da823bdf-248b-4b9b-8fec-363d673036c8"},"performedPeriod":{"start":"2026-05-29T08:00:00.000+00:00","end":"2026-05-29T08:15:00.000+00:00"}},"request":{"method":"PUT","url":"Procedure/54d7da74-9294-49a6-98cd-74479ef968b2"}},{"resource":{"resourceType":"Patient","id":"da823bdf-248b-4b9b-8fec-363d673036c8","meta":{"profile":["http://hl7.org/fhir/us/qicore/StructureDefinition/qicore-patient"]},"extension":[{"url":"http://hl7.org/fhir/us/core/StructureDefinition/us-core-race","extension":[{"url":"ombCategory","valueCoding":{"system":"urn:oid:2.16.840.1.113883.6.238","code":"1002-5","display":"American Indian or Alaska Native"}},{"url":"text","valueString":"American Indian or Alaska Native"}]},{"url":"http://hl7.org/fhir/us/core/StructureDefinition/us-core-ethnicity","extension":[{"url":"ombCategory","valueCoding":{"system":"urn:oid:2.16.840.1.113883.6.238","code":"2135-2","display":"Hispanic or Latino"}},{"url":"text","valueString":"Hispanic or Latino"}]}],"identifier":[{"type":{"coding":[{"system":"http://terminology.hl7.org/CodeSystem/v2-0203","code":"MR"}]},"system":"https://bonnie-fhir.healthit.gov/","value":"62bc69333e113102f8cedca6"}],"name":[{"family":"DENEXPass","given":["CystectomyBeforeStaging"]}],"gender":"female","birthDate":"1947-02-01"},"request":{"method":"PUT","url":"Patient/da823bdf-248b-4b9b-8fec-363d673036c8"}},{"resource":{"resourceType":"Condition","id":"45361a02-2028-41bf-b6a2-8a9f8d6e9c2b","meta":{"profile":["http://hl7.org/fhir/us/qicore/StructureDefinition/qicore-condition-problems-health-concerns"]},"clinicalStatus":{"coding":[{"system":"http://terminology.hl7.org/CodeSystem/condition-clinical","code":"active","display":"Active"}]},"verificationStatus":{"coding":[{"system":"http://terminology.hl7.org/CodeSystem/condition-ver-status","code":"confirmed","display":"Confirmed"}]},"category":[{"coding":[{"system":"http://terminology.hl7.org/CodeSystem/condition-category","code":"problem-list-item","display":"Problem List Item"}]}],"code":{"coding":[{"system":"http://hl7.org/fhir/sid/icd-10-cm","version":"2024","code":"C67.3","display":"Malignant neoplasm of anterior wall of bladder"}]},"subject":{"reference":"Patient/da823bdf-248b-4b9b-8fec-363d673036c8"},"onsetDateTime":"2026-06-30T08:00:00.000+00:00"},"request":{"method":"PUT","url":"Condition/45361a02-2028-41bf-b6a2-8a9f8d6e9c2b"}},{"resource":{"resourceType":"Bundle","id":"62bc69333e113102f8cedca6","type":"transaction","entry":[{"fullUrl":"https://madie.cms.gov/Patient/da823bdf-248b-4b9b-8fec-363d673036c8","resource":{"resourceType":"Patient","id":"da823bdf-248b-4b9b-8fec-363d673036c8","meta":{"profile":["http://hl7.org/fhir/us/qicore/StructureDefinition/qicore-patient"]},"extension":[{"url":"http://hl7.org/fhir/us/core/StructureDefinition/us-core-race","extension":[{"url":"ombCategory","valueCoding":{"system":"urn:oid:2.16.840.1.113883.6.238","code":"1002-5","display":"American Indian or Alaska Native"}},{"url":"text","valueString":"American Indian or Alaska Native"}]},{"url":"http://hl7.org/fhir/us/core/StructureDefinition/us-core-ethnicity","extension":[{"url":"ombCategory","valueCoding":{"system":"urn:oid:2.16.840.1.113883.6.238","code":"2135-2","display":"Hispanic or Latino"}},{"url":"text","valueString":"Hispanic or Latino"}]}],"identifier":[{"type":{"coding":[{"system":"http://terminology.hl7.org/CodeSystem/v2-0203","code":"MR"}]},"system":"https://bonnie-fhir.healthit.gov/","value":"62bc69333e113102f8cedca6"}],"name":[{"family":"DENEXPass","given":["CystectomyBeforeStaging"]}],"gender":"female","birthDate":"1947-02-01"},"request":{"method":"PUT","url":"Patient/da823bdf-248b-4b9b-8fec-363d673036c8"}},{"fullUrl":"https://madie.cms.gov/Encounter/2e3fbde5-1e80-479c-a27c-fdd80fe1c665","resource":{"resourceType":"Encounter","id":"2e3fbde5-1e80-479c-a27c-fdd80fe1c665","meta":{"profile":["http://hl7.org/fhir/us/qicore/StructureDefinition/qicore-encounter"]},"status":"finished","class":{"system":"http://terminology.hl7.org/CodeSystem/v3-ActCode","code":"AMB","display":"ambulatory"},"type":[{"coding":[{"system":"http://snomed.info/sct","version":"http://snomed.info/sct/731000124108/version/20240301","code":"185463005","display":"Visit out of hours (procedure)"}]}],"subject":{"reference":"Patient/da823bdf-248b-4b9b-8fec-363d673036c8"},"period":{"start":"2026-12-30T08:00:00.000+00:00","end":"2026-12-30T09:15:00.000+00:00"}},"request":{"method":"PUT","url":"Encounter/2e3fbde5-1e80-479c-a27c-fdd80fe1c665"}},{"fullUrl":"https://madie.cms.gov/Procedure/54d7da74-9294-49a6-98cd-74479ef968b2","resource":{"resourceType":"Procedure","id":"54d7da74-9294-49a6-98cd-74479ef968b2","meta":{"profile":["http://hl7.org/fhir/us/qicore/StructureDefinition/qicore-procedure"]},"extension":[{"url":"http://hl7.org/fhir/us/qicore/StructureDefinition/qicore-recorded","valueDateTime":"2026-05-29T08:00:00.000+00:00"}],"status":"completed","code":{"coding":[{"system":"http://www.ama-assn.org/go/cpt","version":"2024","code":"51585","display":"Cystectomy Done","userSelected":true}]},"subject":{"reference":"Patient/da823bdf-248b-4b9b-8fec-363d673036c8"},"performedPeriod":{"start":"2026-05-29T08:00:00.000+00:00","end":"2026-05-29T08:15:00.000+00:00"}},"request":{"method":"PUT","url":"Procedure/54d7da74-9294-49a6-98cd-74479ef968b2"}},{"fullUrl":"https://madie.cms.gov/Condition/45361a02-2028-41bf-b6a2-8a9f8d6e9c2b","resource":{"resourceType":"Condition","id":"45361a02-2028-41bf-b6a2-8a9f8d6e9c2b","meta":{"profile":["http://hl7.org/fhir/us/qicore/StructureDefinition/qicore-condition-problems-health-concerns"]},"clinicalStatus":{"coding":[{"system":"http://terminology.hl7.org/CodeSystem/condition-clinical","code":"active","display":"Active"}]},"verificationStatus":{"coding":[{"system":"http://terminology.hl7.org/CodeSystem/condition-ver-status","code":"confirmed","display":"Confirmed"}]},"category":[{"coding":[{"system":"http://terminology.hl7.org/CodeSystem/condition-category","code":"problem-list-item","display":"Problem List Item"}]}],"code":{"coding":[{"system":"http://hl7.org/fhir/sid/icd-10-cm","version":"2024","code":"C67.3","display":"Malignant neoplasm of anterior wall of bladder"}]},"subject":{"reference":"Patient/da823bdf-248b-4b9b-8fec-363d673036c8"},"onsetDateTime":"2026-06-30T08:00:00.000+00:00"},"request":{"method":"PUT","url":"Condition/45361a02-2028-41bf-b6a2-8a9f8d6e9c2b"}},{"fullUrl":"https://madie.cms.gov/Observation/83deab48-695d-4d1e-ba0d-c092089bebf7","resource":{"resourceType":"Observation","id":"83deab48-695d-4d1e-ba0d-c092089bebf7","meta":{"profile":["http://hl7.org/fhir/us/qicore/StructureDefinition/qicore-observation-lab"]},"partOf":[{"reference":"Procedure/54d7da74-9294-49a6-98cd-74479ef968b2"}],"status":"final","category":[{"coding":[{"system":"http://terminology.hl7.org/CodeSystem/observation-category","code":"procedure","display":"Procedure"}]}],"code":{"coding":[{"system":"http://loinc.org","version":"2.76","code":"21902-2","display":"Stage group.pathology Cancer"}]},"subject":{"reference":"Patient/da823bdf-248b-4b9b-8fec-363d673036c8"},"effectivePeriod":{"start":"2026-06-30T08:00:00.000+00:00","end":"2026-06-30T08:15:00.000+00:00"},"issued":"2026-06-30T08:15:00.000+00:00","valueCodeableConcept":{"coding":[{"system":"http://snomed.info/sct","version":"http://snomed.info/sct/731000124108/version/20240301","code":"1228883000","display":"American Joint Committee on Cancer cTa (qualifier value)"}]}},"request":{"method":"PUT","url":"Observation/83deab48-695d-4d1e-ba0d-c092089bebf7"}},{"fullUrl":"https://madie.cms.gov/Practitioner/8ceac3b2-31d7-408a-8bf6-f0df9bc5e4d5","resource":{"resourceType":"Practitioner","id":"8ceac3b2-31d7-408a-8bf6-f0df9bc5e4d5","meta":{"profile":["http://hl7.org/fhir/us/qicore/StructureDefinition/qicore-practitioner"]},"identifier":[{"use":"temp","system":"urn:oid:2.16.840.1.113883.4.336","value":"Practitioner-23"}],"active":true,"name":[{"family":"Careful","given":["Adam"],"prefix":["Dr"]}],"address":[{"use":"home","line":["534 Erewhon St"],"city":"PleasantVille","state":"UT","postalCode":"84414"}],"qualification":[{"identifier":[{"system":"http://example.org/UniversityIdentifier","value":"12345"}],"code":{"coding":[{"system":"http://terminology.hl7.org/CodeSystem/v2-0360|2.7","code":"BS","display":"Bachelor of Science"}],"text":"Bachelor of Science"},"period":{"start":"1996"},"issuer":{"display":"Example University"}}]},"request":{"method":"PUT","url":"Practitioner/8ceac3b2-31d7-408a-8bf6-f0df9bc5e4d5"}},{"fullUrl":"https://madie.cms.gov/Procedure/a2dec111-02da-4562-93c7-964c4390f760","resource":{"resourceType":"Procedure","id":"a2dec111-02da-4562-93c7-964c4390f760","meta":{"profile":["http://hl7.org/fhir/us/qicore/StructureDefinition/qicore-procedure"]},"extension":[{"url":"http://hl7.org/fhir/us/qicore/StructureDefinition/qicore-recorded","valueDateTime":"2026-06-30T08:00:00.000+00:00"}],"status":"completed","code":{"coding":[{"system":"http://snomed.info/sct","version":"http://snomed.info/sct/731000124108/version/20240301","code":"254292007","display":"Tumor staging","userSelected":true}]},"subject":{"reference":"Patient/da823bdf-248b-4b9b-8fec-363d673036c8"},"performedPeriod":{"start":"2026-06-30T08:00:00.000+00:00","end":"2026-06-30T08:15:00.000+00:00"}},"request":{"method":"PUT","url":"Procedure/a2dec111-02da-4562-93c7-964c4390f760"}},{"fullUrl":"https://madie.cms.gov/MeasureReport/60b0a482-d27e-41fa-930a-83e8d9db099f","resource":{"resourceType":"MeasureReport","id":"60b0a482-d27e-41fa-930a-83e8d9db099f","meta":{"profile":["http://hl7.org/fhir/us/cqfmeasures/StructureDefinition/test-case-cqfm"]},"contained":[{"resourceType":"Parameters","id":"a1d9b877-4d15-4522-9e94-f6aa4ef2aaa6-parameters","parameter":[{"name":"subject","valueString":"da823bdf-248b-4b9b-8fec-363d673036c8"}]}],"extension":[{"url":"http://hl7.org/fhir/StructureDefinition/cqf-inputParameters","valueReference":{"reference":"#a1d9b877-4d15-4522-9e94-f6aa4ef2aaa6-parameters"}},{"url":"http://hl7.org/fhir/us/cqfmeasures/StructureDefinition/cqfm-testCaseDescription","valueMarkdown":"Patient with OV in MP. Bladder cancer diagnosis and cancer staging in MP.  Pt had a cystectomy before staging and should be excluded. "}],"modifierExtension":[{"url":"http://hl7.org/fhir/us/cqfmeasures/StructureDefinition/cqfm-isTestCase","valueBoolean":true}],"status":"complete","type":"individual","measure":"https://madie.cms.gov/Measure/CMS646FHIRIntravesicalBacillusCalmetteGuerinForBladderCancer","period":{"start":"2026-01-01","end":"2026-12-31"},"group":[{"id":"Group_1","population":[{"id":"InitialPopulation_1","code":{"coding":[{"system":"http://terminology.hl7.org/CodeSystem/measure-population","code":"initial-population","display":"Initial Population"}]},"count":1},{"id":"Denominator_1","code":{"coding":[{"system":"http://terminology.hl7.org/CodeSystem/measure-population","code":"denominator","display":"Denominator"}]},"count":1},{"id":"DenominatorExclusion_1","code":{"coding":[{"system":"http://terminology.hl7.org/CodeSystem/measure-population","code":"denominator-exclusion","display":"Denominator Exclusion"}]},"count":1},{"id":"Numerator_1","code":{"coding":[{"system":"http://terminology.hl7.org/CodeSystem/measure-population","code":"numerator","display":"Numerator"}]},"count":0},{"id":"DenominatorException_1","code":{"coding":[{"system":"http://terminology.hl7.org/CodeSystem/measure-population","code":"denominator-exception","display":"Denominator Exception"}]},"count":0}],"measureScore":{"value":1.0}}],"evaluatedResource":[{"reference":"Patient/da823bdf-248b-4b9b-8fec-363d673036c8"},{"reference":"Encounter/2e3fbde5-1e80-479c-a27c-fdd80fe1c665"},{"reference":"Procedure/54d7da74-9294-49a6-98cd-74479ef968b2"},{"reference":"Condition/45361a02-2028-41bf-b6a2-8a9f8d6e9c2b"},{"reference":"Observation/83deab48-695d-4d1e-ba0d-c092089bebf7"},{"reference":"Practitioner/8ceac3b2-31d7-408a-8bf6-f0df9bc5e4d5"},{"reference":"Procedure/a2dec111-02da-4562-93c7-964c4390f760"}]},"request":{"method":"PUT","url":"MeasureReport/60b0a482-d27e-41fa-930a-83e8d9db099f"}}]},"request":{"method":"PUT","url":"Bundle/62bc69333e113102f8cedca6"}},{"resource":{"resourceType":"MeasureReport","id":"60b0a482-d27e-41fa-930a-83e8d9db099f","meta":{"profile":["http://hl7.org/fhir/us/cqfmeasures/StructureDefinition/test-case-cqfm"]},"contained":[{"resourceType":"Parameters","id":"a1d9b877-4d15-4522-9e94-f6aa4ef2aaa6-parameters","parameter":[{"name":"subject","valueString":"da823bdf-248b-4b9b-8fec-363d673036c8"}]}],"extension":[{"url":"http://hl7.org/fhir/StructureDefinition/cqf-inputParameters","valueReference":{"reference":"#a1d9b877-4d15-4522-9e94-f6aa4ef2aaa6-parameters"}},{"url":"http://hl7.org/fhir/us/cqfmeasures/StructureDefinition/cqfm-testCaseDescription","valueMarkdown":"Patient with OV in MP. Bladder cancer diagnosis and cancer staging in MP.  Pt had a cystectomy before staging and should be excluded. "}],"modifierExtension":[{"url":"http://hl7.org/fhir/us/cqfmeasures/StructureDefinition/cqfm-isTestCase","valueBoolean":true}],"status":"complete","type":"individual","measure":"https://madie.cms.gov/Measure/CMS646FHIRIntravesicalBacillusCalmetteGuerinForBladderCancer","period":{"start":"2026-01-01","end":"2026-12-31"},"group":[{"id":"Group_1","population":[{"id":"InitialPopulation_1","code":{"coding":[{"system":"http://terminology.hl7.org/CodeSystem/measure-population","code":"initial-population","display":"Initial Population"}]},"count":1},{"id":"Denominator_1","code":{"coding":[{"system":"http://terminology.hl7.org/CodeSystem/measure-population","code":"denominator","display":"Denominator"}]},"count":1},{"id":"DenominatorExclusion_1","code":{"coding":[{"system":"http://terminology.hl7.org/CodeSystem/measure-population","code":"denominator-exclusion","display":"Denominator Exclusion"}]},"count":1},{"id":"Numerator_1","code":{"coding":[{"system":"http://terminology.hl7.org/CodeSystem/measure-population","code":"numerator","display":"Numerator"}]},"count":0},{"id":"DenominatorException_1","code":{"coding":[{"system":"http://terminology.hl7.org/CodeSystem/measure-population","code":"denominator-exception","display":"Denominator Exception"}]},"count":0}],"measureScore":{"value":1.0}}],"evaluatedResource":[{"reference":"Patient/da823bdf-248b-4b9b-8fec-363d673036c8"},{"reference":"Encounter/2e3fbde5-1e80-479c-a27c-fdd80fe1c665"},{"reference":"Procedure/54d7da74-9294-49a6-98cd-74479ef968b2"},{"reference":"Condition/45361a02-2028-41bf-b6a2-8a9f8d6e9c2b"},{"reference":"Observation/83deab48-695d-4d1e-ba0d-c092089bebf7"},{"reference":"Practitioner/8ceac3b2-31d7-408a-8bf6-f0df9bc5e4d5"},{"reference":"Procedure/a2dec111-02da-4562-93c7-964c4390f760"}]},"request":{"method":"PUT","url":"MeasureReport/60b0a482-d27e-41fa-930a-83e8d9db099f"}},{"resource":{"resourceType":"Procedure","id":"a2dec111-02da-4562-93c7-964c4390f760","meta":{"profile":["http://hl7.org/fhir/us/qicore/StructureDefinition/qicore-procedure"]},"extension":[{"url":"http://hl7.org/fhir/us/qicore/StructureDefinition/qicore-recorded","valueDateTime":"2026-06-30T08:00:00.000+00:00"}],"status":"completed","code":{"coding":[{"system":"http://snomed.info/sct","version":"http://snomed.info/sct/731000124108/version/20240301","code":"254292007","display":"Tumor staging","userSelected":true}]},"subject":{"reference":"Patient/da823bdf-248b-4b9b-8fec-363d673036c8"},"performedPeriod":{"start":"2026-06-30T08:00:00.000+00:00","end":"2026-06-30T08:15:00.000+00:00"}},"request":{"method":"PUT","url":"Procedure/a2dec111-02da-4562-93c7-964c4390f760"}}]}