{"resourceType":"Bundle","id":"tests-9bb98b0b-b99e-4d58-b17a-74dc43dc062a-bundle","type":"transaction","entry":[{"resource":{"resourceType":"Practitioner","id":"783d959e-8988-46b6-a0c8-6efcbdf50f6c","meta":{"profile":["http://hl7.org/fhir/us/qicore/StructureDefinition/qicore-practitioner"]},"identifier":[{"use":"temp","system":"urn:oid:2.16.840.1.113883.4.336","value":"Practitioner-23"}],"active":true,"name":[{"family":"Careful","given":["Adam"],"prefix":["Dr"]}],"address":[{"use":"home","line":["534 Erewhon St"],"city":"PleasantVille","state":"UT","postalCode":"84414"}],"qualification":[{"identifier":[{"system":"http://example.org/UniversityIdentifier","value":"12345"}],"code":{"coding":[{"system":"http://terminology.hl7.org/CodeSystem/v2-0360|2.7","code":"BS","display":"Bachelor of Science"}],"text":"Bachelor of Science"},"period":{"start":"1996"},"issuer":{"display":"Example University"}}]},"request":{"method":"PUT","url":"Practitioner/783d959e-8988-46b6-a0c8-6efcbdf50f6c"}},{"resource":{"resourceType":"MedicationAdministration","id":"7cd4315e-b673-47c5-ae01-8511c958018f","meta":{"profile":["http://hl7.org/fhir/us/qicore/StructureDefinition/qicore-medicationadministration"]},"status":"in-progress","medicationCodeableConcept":{"coding":[{"system":"http://www.nlm.nih.gov/research/umls/rxnorm","version":"04012024","code":"1653579","display":"BCG, live, Tice strain 50 MG Injection"}]},"subject":{"reference":"Patient/9bb98b0b-b99e-4d58-b17a-74dc43dc062a"},"effectiveDateTime":"2026-01-01T08:00:00.000+00:00"},"request":{"method":"PUT","url":"MedicationAdministration/7cd4315e-b673-47c5-ae01-8511c958018f"}},{"resource":{"resourceType":"Bundle","id":"62bc69333e113102f8cedca6","type":"transaction","entry":[{"fullUrl":"https://madie.cms.gov/Patient/9bb98b0b-b99e-4d58-b17a-74dc43dc062a","resource":{"resourceType":"Patient","id":"9bb98b0b-b99e-4d58-b17a-74dc43dc062a","meta":{"profile":["http://hl7.org/fhir/us/qicore/StructureDefinition/qicore-patient"]},"extension":[{"url":"http://hl7.org/fhir/us/core/StructureDefinition/us-core-race","extension":[{"url":"ombCategory","valueCoding":{"system":"urn:oid:2.16.840.1.113883.6.238","code":"1002-5","display":"American Indian or Alaska Native"}},{"url":"text","valueString":"American Indian or Alaska Native"}]},{"url":"http://hl7.org/fhir/us/core/StructureDefinition/us-core-ethnicity","extension":[{"url":"ombCategory","valueCoding":{"system":"urn:oid:2.16.840.1.113883.6.238","code":"2135-2","display":"Hispanic or Latino"}},{"url":"text","valueString":"Hispanic or Latino"}]}],"identifier":[{"type":{"coding":[{"system":"http://terminology.hl7.org/CodeSystem/v2-0203","code":"MR"}]},"system":"https://bonnie-fhir.healthit.gov/","value":"62bc69333e113102f8cedca6"}],"name":[{"family":"NUMERPass","given":["FirstStagingJuly1BeforeMPEdge"]}],"gender":"female","birthDate":"1947-02-01"},"request":{"method":"PUT","url":"Patient/9bb98b0b-b99e-4d58-b17a-74dc43dc062a"}},{"fullUrl":"https://madie.cms.gov/Encounter/a0e46c21-7fa1-4f13-9c52-d3515e31df09","resource":{"resourceType":"Encounter","id":"a0e46c21-7fa1-4f13-9c52-d3515e31df09","meta":{"profile":["http://hl7.org/fhir/us/qicore/StructureDefinition/qicore-encounter"]},"status":"finished","class":{"system":"http://terminology.hl7.org/CodeSystem/v3-ActCode","code":"AMB","display":"ambulatory"},"type":[{"coding":[{"system":"http://snomed.info/sct","version":"http://snomed.info/sct/731000124108/version/20240301","code":"185463005","display":"Visit out of hours (procedure)"}]}],"subject":{"reference":"Patient/9bb98b0b-b99e-4d58-b17a-74dc43dc062a"},"period":{"start":"2026-01-01T08:00:00.000+00:00","end":"2026-01-01T09:15:00.000+00:00"}},"request":{"method":"PUT","url":"Encounter/a0e46c21-7fa1-4f13-9c52-d3515e31df09"}},{"fullUrl":"https://madie.cms.gov/Condition/8cf21303-b794-4ef5-9006-c7ed562ea54d","resource":{"resourceType":"Condition","id":"8cf21303-b794-4ef5-9006-c7ed562ea54d","meta":{"profile":["http://hl7.org/fhir/us/qicore/StructureDefinition/qicore-condition-problems-health-concerns"]},"clinicalStatus":{"coding":[{"system":"http://terminology.hl7.org/CodeSystem/condition-clinical","code":"active","display":"Active"}]},"verificationStatus":{"coding":[{"system":"http://terminology.hl7.org/CodeSystem/condition-ver-status","code":"confirmed","display":"Confirmed"}]},"category":[{"coding":[{"system":"http://terminology.hl7.org/CodeSystem/condition-category","code":"problem-list-item","display":"Problem List Item"}]}],"code":{"coding":[{"system":"http://hl7.org/fhir/sid/icd-10-cm","version":"2024","code":"C67.3","display":"Malignant neoplasm of anterior wall of bladder"}]},"subject":{"reference":"Patient/9bb98b0b-b99e-4d58-b17a-74dc43dc062a"},"onsetDateTime":"2025-07-01T08:15:00.000+00:00"},"request":{"method":"PUT","url":"Condition/8cf21303-b794-4ef5-9006-c7ed562ea54d"}},{"fullUrl":"https://madie.cms.gov/Observation/d45081d3-6cc1-42ba-85f9-7fc126722430","resource":{"resourceType":"Observation","id":"d45081d3-6cc1-42ba-85f9-7fc126722430","meta":{"profile":["http://hl7.org/fhir/us/qicore/StructureDefinition/qicore-observation-lab"]},"partOf":[{"reference":"Procedure/63d78685-7cc1-4910-9543-b53abc296b03"}],"status":"final","category":[{"coding":[{"system":"http://terminology.hl7.org/CodeSystem/observation-category","code":"procedure","display":"Procedure"}]}],"code":{"coding":[{"system":"http://loinc.org","version":"2.76","code":"21902-2","display":"Stage group.pathology Cancer"}]},"subject":{"reference":"Patient/9bb98b0b-b99e-4d58-b17a-74dc43dc062a"},"effectivePeriod":{"start":"2025-07-01T08:00:00.000+00:00","end":"2025-07-01T08:15:00.000+00:00"},"issued":"2025-07-01T08:15:00.000+00:00","valueCodeableConcept":{"coding":[{"system":"http://snomed.info/sct","version":"http://snomed.info/sct/731000124108/version/20240301","code":"1228883000","display":"American Joint Committee on Cancer cTa (qualifier value)"}]}},"request":{"method":"PUT","url":"Observation/d45081d3-6cc1-42ba-85f9-7fc126722430"}},{"fullUrl":"https://madie.cms.gov/MedicationAdministration/7cd4315e-b673-47c5-ae01-8511c958018f","resource":{"resourceType":"MedicationAdministration","id":"7cd4315e-b673-47c5-ae01-8511c958018f","meta":{"profile":["http://hl7.org/fhir/us/qicore/StructureDefinition/qicore-medicationadministration"]},"status":"in-progress","medicationCodeableConcept":{"coding":[{"system":"http://www.nlm.nih.gov/research/umls/rxnorm","version":"04012024","code":"1653579","display":"BCG, live, Tice strain 50 MG Injection"}]},"subject":{"reference":"Patient/9bb98b0b-b99e-4d58-b17a-74dc43dc062a"},"effectiveDateTime":"2026-01-01T08:00:00.000+00:00"},"request":{"method":"PUT","url":"MedicationAdministration/7cd4315e-b673-47c5-ae01-8511c958018f"}},{"fullUrl":"https://madie.cms.gov/Practitioner/783d959e-8988-46b6-a0c8-6efcbdf50f6c","resource":{"resourceType":"Practitioner","id":"783d959e-8988-46b6-a0c8-6efcbdf50f6c","meta":{"profile":["http://hl7.org/fhir/us/qicore/StructureDefinition/qicore-practitioner"]},"identifier":[{"use":"temp","system":"urn:oid:2.16.840.1.113883.4.336","value":"Practitioner-23"}],"active":true,"name":[{"family":"Careful","given":["Adam"],"prefix":["Dr"]}],"address":[{"use":"home","line":["534 Erewhon St"],"city":"PleasantVille","state":"UT","postalCode":"84414"}],"qualification":[{"identifier":[{"system":"http://example.org/UniversityIdentifier","value":"12345"}],"code":{"coding":[{"system":"http://terminology.hl7.org/CodeSystem/v2-0360|2.7","code":"BS","display":"Bachelor of Science"}],"text":"Bachelor of Science"},"period":{"start":"1996"},"issuer":{"display":"Example University"}}]},"request":{"method":"PUT","url":"Practitioner/783d959e-8988-46b6-a0c8-6efcbdf50f6c"}},{"fullUrl":"https://madie.cms.gov/Procedure/63d78685-7cc1-4910-9543-b53abc296b03","resource":{"resourceType":"Procedure","id":"63d78685-7cc1-4910-9543-b53abc296b03","meta":{"profile":["http://hl7.org/fhir/us/qicore/StructureDefinition/qicore-procedure"]},"extension":[{"url":"http://hl7.org/fhir/us/qicore/StructureDefinition/qicore-recorded","valueDateTime":"2025-07-01T08:00:00.000+00:00"}],"status":"completed","code":{"coding":[{"system":"http://snomed.info/sct","version":"http://snomed.info/sct/731000124108/version/20240301","code":"254292007","display":"Tumor staging","userSelected":true}]},"subject":{"reference":"Patient/9bb98b0b-b99e-4d58-b17a-74dc43dc062a"},"performedPeriod":{"start":"2025-07-01T08:00:00.000+00:00","end":"2025-07-01T08:15:00.000+00:00"}},"request":{"method":"PUT","url":"Procedure/63d78685-7cc1-4910-9543-b53abc296b03"}},{"fullUrl":"https://madie.cms.gov/MeasureReport/ef30546f-d365-4405-bd12-74a41c2fc503","resource":{"resourceType":"MeasureReport","id":"ef30546f-d365-4405-bd12-74a41c2fc503","meta":{"profile":["http://hl7.org/fhir/us/cqfmeasures/StructureDefinition/test-case-cqfm"]},"contained":[{"resourceType":"Parameters","id":"1eddc781-b047-43ec-9a2a-8e824d49cdd4-parameters","parameter":[{"name":"subject","valueString":"9bb98b0b-b99e-4d58-b17a-74dc43dc062a"}]}],"extension":[{"url":"http://hl7.org/fhir/StructureDefinition/cqf-inputParameters","valueReference":{"reference":"#1eddc781-b047-43ec-9a2a-8e824d49cdd4-parameters"}},{"url":"http://hl7.org/fhir/us/cqfmeasures/StructureDefinition/cqfm-testCaseDescription","valueMarkdown":"Patient with OV in MP. Bladder cancer staging July 1 year prior to MP with bladder cancer diagnosis.  BCG given Jan 1 of MP."}],"modifierExtension":[{"url":"http://hl7.org/fhir/us/cqfmeasures/StructureDefinition/cqfm-isTestCase","valueBoolean":true}],"status":"complete","type":"individual","measure":"https://madie.cms.gov/Measure/CMS646FHIRIntravesicalBacillusCalmetteGuerinForBladderCancer","period":{"start":"2026-01-01","end":"2026-12-31"},"group":[{"id":"Group_1","population":[{"id":"InitialPopulation_1","code":{"coding":[{"system":"http://terminology.hl7.org/CodeSystem/measure-population","code":"initial-population","display":"Initial Population"}]},"count":1},{"id":"Denominator_1","code":{"coding":[{"system":"http://terminology.hl7.org/CodeSystem/measure-population","code":"denominator","display":"Denominator"}]},"count":1},{"id":"DenominatorExclusion_1","code":{"coding":[{"system":"http://terminology.hl7.org/CodeSystem/measure-population","code":"denominator-exclusion","display":"Denominator Exclusion"}]},"count":0},{"id":"Numerator_1","code":{"coding":[{"system":"http://terminology.hl7.org/CodeSystem/measure-population","code":"numerator","display":"Numerator"}]},"count":1},{"id":"DenominatorException_1","code":{"coding":[{"system":"http://terminology.hl7.org/CodeSystem/measure-population","code":"denominator-exception","display":"Denominator Exception"}]},"count":0}],"measureScore":{"value":1.0}}],"evaluatedResource":[{"reference":"Patient/9bb98b0b-b99e-4d58-b17a-74dc43dc062a"},{"reference":"Encounter/a0e46c21-7fa1-4f13-9c52-d3515e31df09"},{"reference":"Condition/8cf21303-b794-4ef5-9006-c7ed562ea54d"},{"reference":"Observation/d45081d3-6cc1-42ba-85f9-7fc126722430"},{"reference":"MedicationAdministration/7cd4315e-b673-47c5-ae01-8511c958018f"},{"reference":"Practitioner/783d959e-8988-46b6-a0c8-6efcbdf50f6c"},{"reference":"Procedure/63d78685-7cc1-4910-9543-b53abc296b03"}]},"request":{"method":"PUT","url":"MeasureReport/ef30546f-d365-4405-bd12-74a41c2fc503"}}]},"request":{"method":"PUT","url":"Bundle/62bc69333e113102f8cedca6"}},{"resource":{"resourceType":"Patient","id":"9bb98b0b-b99e-4d58-b17a-74dc43dc062a","meta":{"profile":["http://hl7.org/fhir/us/qicore/StructureDefinition/qicore-patient"]},"extension":[{"url":"http://hl7.org/fhir/us/core/StructureDefinition/us-core-race","extension":[{"url":"ombCategory","valueCoding":{"system":"urn:oid:2.16.840.1.113883.6.238","code":"1002-5","display":"American Indian or Alaska Native"}},{"url":"text","valueString":"American Indian or Alaska Native"}]},{"url":"http://hl7.org/fhir/us/core/StructureDefinition/us-core-ethnicity","extension":[{"url":"ombCategory","valueCoding":{"system":"urn:oid:2.16.840.1.113883.6.238","code":"2135-2","display":"Hispanic or Latino"}},{"url":"text","valueString":"Hispanic or Latino"}]}],"identifier":[{"type":{"coding":[{"system":"http://terminology.hl7.org/CodeSystem/v2-0203","code":"MR"}]},"system":"https://bonnie-fhir.healthit.gov/","value":"62bc69333e113102f8cedca6"}],"name":[{"family":"NUMERPass","given":["FirstStagingJuly1BeforeMPEdge"]}],"gender":"female","birthDate":"1947-02-01"},"request":{"method":"PUT","url":"Patient/9bb98b0b-b99e-4d58-b17a-74dc43dc062a"}},{"resource":{"resourceType":"Observation","id":"d45081d3-6cc1-42ba-85f9-7fc126722430","meta":{"profile":["http://hl7.org/fhir/us/qicore/StructureDefinition/qicore-observation-lab"]},"partOf":[{"reference":"Procedure/63d78685-7cc1-4910-9543-b53abc296b03"}],"status":"final","category":[{"coding":[{"system":"http://terminology.hl7.org/CodeSystem/observation-category","code":"procedure","display":"Procedure"}]}],"code":{"coding":[{"system":"http://loinc.org","version":"2.76","code":"21902-2","display":"Stage group.pathology Cancer"}]},"subject":{"reference":"Patient/9bb98b0b-b99e-4d58-b17a-74dc43dc062a"},"effectivePeriod":{"start":"2025-07-01T08:00:00.000+00:00","end":"2025-07-01T08:15:00.000+00:00"},"issued":"2025-07-01T08:15:00.000+00:00","valueCodeableConcept":{"coding":[{"system":"http://snomed.info/sct","version":"http://snomed.info/sct/731000124108/version/20240301","code":"1228883000","display":"American Joint Committee on Cancer cTa (qualifier value)"}]}},"request":{"method":"PUT","url":"Observation/d45081d3-6cc1-42ba-85f9-7fc126722430"}},{"resource":{"resourceType":"Condition","id":"8cf21303-b794-4ef5-9006-c7ed562ea54d","meta":{"profile":["http://hl7.org/fhir/us/qicore/StructureDefinition/qicore-condition-problems-health-concerns"]},"clinicalStatus":{"coding":[{"system":"http://terminology.hl7.org/CodeSystem/condition-clinical","code":"active","display":"Active"}]},"verificationStatus":{"coding":[{"system":"http://terminology.hl7.org/CodeSystem/condition-ver-status","code":"confirmed","display":"Confirmed"}]},"category":[{"coding":[{"system":"http://terminology.hl7.org/CodeSystem/condition-category","code":"problem-list-item","display":"Problem List Item"}]}],"code":{"coding":[{"system":"http://hl7.org/fhir/sid/icd-10-cm","version":"2024","code":"C67.3","display":"Malignant neoplasm of anterior wall of bladder"}]},"subject":{"reference":"Patient/9bb98b0b-b99e-4d58-b17a-74dc43dc062a"},"onsetDateTime":"2025-07-01T08:15:00.000+00:00"},"request":{"method":"PUT","url":"Condition/8cf21303-b794-4ef5-9006-c7ed562ea54d"}},{"resource":{"resourceType":"Procedure","id":"63d78685-7cc1-4910-9543-b53abc296b03","meta":{"profile":["http://hl7.org/fhir/us/qicore/StructureDefinition/qicore-procedure"]},"extension":[{"url":"http://hl7.org/fhir/us/qicore/StructureDefinition/qicore-recorded","valueDateTime":"2025-07-01T08:00:00.000+00:00"}],"status":"completed","code":{"coding":[{"system":"http://snomed.info/sct","version":"http://snomed.info/sct/731000124108/version/20240301","code":"254292007","display":"Tumor staging","userSelected":true}]},"subject":{"reference":"Patient/9bb98b0b-b99e-4d58-b17a-74dc43dc062a"},"performedPeriod":{"start":"2025-07-01T08:00:00.000+00:00","end":"2025-07-01T08:15:00.000+00:00"}},"request":{"method":"PUT","url":"Procedure/63d78685-7cc1-4910-9543-b53abc296b03"}},{"resource":{"resourceType":"MeasureReport","id":"ef30546f-d365-4405-bd12-74a41c2fc503","meta":{"profile":["http://hl7.org/fhir/us/cqfmeasures/StructureDefinition/test-case-cqfm"]},"contained":[{"resourceType":"Parameters","id":"1eddc781-b047-43ec-9a2a-8e824d49cdd4-parameters","parameter":[{"name":"subject","valueString":"9bb98b0b-b99e-4d58-b17a-74dc43dc062a"}]}],"extension":[{"url":"http://hl7.org/fhir/StructureDefinition/cqf-inputParameters","valueReference":{"reference":"#1eddc781-b047-43ec-9a2a-8e824d49cdd4-parameters"}},{"url":"http://hl7.org/fhir/us/cqfmeasures/StructureDefinition/cqfm-testCaseDescription","valueMarkdown":"Patient with OV in MP. Bladder cancer staging July 1 year prior to MP with bladder cancer diagnosis.  BCG given Jan 1 of MP."}],"modifierExtension":[{"url":"http://hl7.org/fhir/us/cqfmeasures/StructureDefinition/cqfm-isTestCase","valueBoolean":true}],"status":"complete","type":"individual","measure":"https://madie.cms.gov/Measure/CMS646FHIRIntravesicalBacillusCalmetteGuerinForBladderCancer","period":{"start":"2026-01-01","end":"2026-12-31"},"group":[{"id":"Group_1","population":[{"id":"InitialPopulation_1","code":{"coding":[{"system":"http://terminology.hl7.org/CodeSystem/measure-population","code":"initial-population","display":"Initial Population"}]},"count":1},{"id":"Denominator_1","code":{"coding":[{"system":"http://terminology.hl7.org/CodeSystem/measure-population","code":"denominator","display":"Denominator"}]},"count":1},{"id":"DenominatorExclusion_1","code":{"coding":[{"system":"http://terminology.hl7.org/CodeSystem/measure-population","code":"denominator-exclusion","display":"Denominator Exclusion"}]},"count":0},{"id":"Numerator_1","code":{"coding":[{"system":"http://terminology.hl7.org/CodeSystem/measure-population","code":"numerator","display":"Numerator"}]},"count":1},{"id":"DenominatorException_1","code":{"coding":[{"system":"http://terminology.hl7.org/CodeSystem/measure-population","code":"denominator-exception","display":"Denominator Exception"}]},"count":0}],"measureScore":{"value":1.0}}],"evaluatedResource":[{"reference":"Patient/9bb98b0b-b99e-4d58-b17a-74dc43dc062a"},{"reference":"Encounter/a0e46c21-7fa1-4f13-9c52-d3515e31df09"},{"reference":"Condition/8cf21303-b794-4ef5-9006-c7ed562ea54d"},{"reference":"Observation/d45081d3-6cc1-42ba-85f9-7fc126722430"},{"reference":"MedicationAdministration/7cd4315e-b673-47c5-ae01-8511c958018f"},{"reference":"Practitioner/783d959e-8988-46b6-a0c8-6efcbdf50f6c"},{"reference":"Procedure/63d78685-7cc1-4910-9543-b53abc296b03"}]},"request":{"method":"PUT","url":"MeasureReport/ef30546f-d365-4405-bd12-74a41c2fc503"}},{"resource":{"resourceType":"Encounter","id":"a0e46c21-7fa1-4f13-9c52-d3515e31df09","meta":{"profile":["http://hl7.org/fhir/us/qicore/StructureDefinition/qicore-encounter"]},"status":"finished","class":{"system":"http://terminology.hl7.org/CodeSystem/v3-ActCode","code":"AMB","display":"ambulatory"},"type":[{"coding":[{"system":"http://snomed.info/sct","version":"http://snomed.info/sct/731000124108/version/20240301","code":"185463005","display":"Visit out of hours (procedure)"}]}],"subject":{"reference":"Patient/9bb98b0b-b99e-4d58-b17a-74dc43dc062a"},"period":{"start":"2026-01-01T08:00:00.000+00:00","end":"2026-01-01T09:15:00.000+00:00"}},"request":{"method":"PUT","url":"Encounter/a0e46c21-7fa1-4f13-9c52-d3515e31df09"}}]}