{
    "entry": [
        {
            "request": {
                "method": "PUT",
                "url": "Patient/9b3f40f2-2832-4862-b26e-4c46d02fd1ee"
            },
            "resource": {
                "identifier": [{
                    "system": "https://bonnie-fhir.healthit.gov/",
                    "type": {"coding": [{
                        "system": "http://terminology.hl7.org/CodeSystem/v2-0203",
                        "code": "MR"
                    }]},
                    "value": "628d4fa9786e3aa8c68d3cd4"
                }],
                "extension": [
                    {
                        "extension": [
                            {
                                "valueCoding": {
                                    "system": "urn:oid:2.16.840.1.113883.6.238",
                                    "code": "2054-5",
                                    "userSelected": true,
                                    "display": "Black or African American"
                                },
                                "url": "ombCategory"
                            },
                            {
                                "valueString": "Black or African American",
                                "url": "text"
                            }
                        ],
                        "url": "http://hl7.org/fhir/us/core/StructureDefinition/us-core-race"
                    },
                    {
                        "extension": [
                            {
                                "valueCoding": {
                                    "system": "urn:oid:2.16.840.1.113883.6.238",
                                    "code": "2186-5",
                                    "userSelected": true,
                                    "display": "Not Hispanic or Latino"
                                },
                                "url": "ombCategory"
                            },
                            {
                                "valueString": "Not Hispanic or Latino",
                                "url": "text"
                            }
                        ],
                        "url": "http://hl7.org/fhir/us/core/StructureDefinition/us-core-ethnicity"
                    }
                ],
                "gender": "female",
                "meta": {"profile": ["http://hl7.org/fhir/us/qicore/StructureDefinition/qicore-patient"]},
                "name": [{
                    "given": ["Age18HasEnc"],
                    "family": "IPPPass"
                }],
                "id": "9b3f40f2-2832-4862-b26e-4c46d02fd1ee",
                "birthDate": "2006-12-31",
                "resourceType": "Patient"
            },
            "fullUrl": "https://madie.cms.gov/Patient/9b3f40f2-2832-4862-b26e-4c46d02fd1ee"
        },
        {
            "request": {
                "method": "PUT",
                "url": "Encounter/aa983af2-a992-464d-ab1b-171f539aac9a"
            },
            "resource": {
                "period": {
                    "start": "2026-01-01T08:00:00.000+00:00",
                    "end": "2026-01-01T08:30:00.000+00:00"
                },
                "meta": {"profile": ["http://hl7.org/fhir/us/qicore/StructureDefinition/qicore-encounter"]},
                "subject": {"reference": "Patient/9b3f40f2-2832-4862-b26e-4c46d02fd1ee"},
                "id": "aa983af2-a992-464d-ab1b-171f539aac9a",
                "type": [{"coding": [{
                    "system": "http://snomed.info/sct",
                    "code": "103705002",
                    "userSelected": true,
                    "display": "Patient status observation (procedure)",
                    "version": "2022-03"
                }]}],
                "class": {
                    "system": "http://terminology.hl7.org/CodeSystem/v3-ActCode",
                    "code": "AMB",
                    "display": "ambulatory"
                },
                "resourceType": "Encounter",
                "status": "finished"
            },
            "fullUrl": "https://madie.cms.gov/Encounter/aa983af2-a992-464d-ab1b-171f539aac9a"
        },
        {
            "request": {
                "method": "PUT",
                "url": "Coverage/5e5783e9-05e1-4b83-8042-c4d7482f3205"
            },
            "resource": {
                "payor": [{"reference": "Organization/143bffe7-72ad-4af5-85ad-ffd97bd83a41"}],
                "beneficiary": {"reference": "Patient/9b3f40f2-2832-4862-b26e-4c46d02fd1ee"},
                "meta": {"profile": ["http://hl7.org/fhir/us/qicore/StructureDefinition/qicore-coverage"]},
                "id": "5e5783e9-05e1-4b83-8042-c4d7482f3205",
                "resourceType": "Coverage",
                "status": "active"
            },
            "fullUrl": "https://madie.cms.gov/Coverage/5e5783e9-05e1-4b83-8042-c4d7482f3205"
        },
        {
            "request": {
                "method": "PUT",
                "url": "Organization/143bffe7-72ad-4af5-85ad-ffd97bd83a41"
            },
            "resource": {
                "identifier": [{
                    "system": "urn:oid:2.16.840.1.113883.4.4",
                    "use": "temp",
                    "value": "21-3259825"
                }],
                "address": [{
                    "country": "USA",
                    "city": "Dallas",
                    "use": "billing",
                    "line": ["P.O. Box 660044"],
                    "postalCode": "75266-0044",
                    "state": "TX",
                    "type": "postal"
                }],
                "meta": {"profile": ["http://hl7.org/fhir/us/qicore/StructureDefinition/qicore-organization"]},
                "name": "Blue Cross Blue Shield of Texas",
                "active": true,
                "telecom": [{
                    "system": "phone",
                    "value": "(+1) 972-766-6900"
                }],
                "id": "143bffe7-72ad-4af5-85ad-ffd97bd83a41",
                "type": [{"coding": [{
                    "system": "http://terminology.hl7.org/CodeSystem/organization-type",
                    "code": "pay",
                    "display": "Payer"
                }]}],
                "resourceType": "Organization"
            },
            "fullUrl": "https://madie.cms.gov/Organization/143bffe7-72ad-4af5-85ad-ffd97bd83a41"
        },
        {
            "request": {
                "method": "PUT",
                "url": "MeasureReport/34290e5e-b839-4a5c-a5d9-c46167b8e985"
            },
            "resource": {
                "contained": [{
                    "parameter": [{
                        "valueString": "9b3f40f2-2832-4862-b26e-4c46d02fd1ee",
                        "name": "subject"
                    }],
                    "id": "6cc79461-cab6-47a6-ba22-63aca6a43990-parameters",
                    "resourceType": "Parameters"
                }],
                "extension": [
                    {
                        "valueReference": {"reference": "#6cc79461-cab6-47a6-ba22-63aca6a43990-parameters"},
                        "url": "http://hl7.org/fhir/StructureDefinition/cqf-inputParameters"
                    },
                    {
                        "valueMarkdown": "Age 18 day before start of MP, has a finished encounter first day of MP",
                        "url": "http://hl7.org/fhir/us/cqfmeasures/StructureDefinition/cqfm-testCaseDescription"
                    }
                ],
                "period": {
                    "start": "2026-01-01",
                    "end": "2026-12-31"
                },
                "measure": "https://madie.cms.gov/Measure/CMS22FHIRPCSBPScreeningFollowUp",
                "meta": {"profile": ["http://hl7.org/fhir/us/cqfmeasures/StructureDefinition/test-case-cqfm"]},
                "modifierExtension": [{
                    "valueBoolean": true,
                    "url": "http://hl7.org/fhir/us/cqfmeasures/StructureDefinition/cqfm-isTestCase"
                }],
                "id": "34290e5e-b839-4a5c-a5d9-c46167b8e985",
                "evaluatedResource": [
                    {"reference": "Patient/9b3f40f2-2832-4862-b26e-4c46d02fd1ee"},
                    {"reference": "Encounter/aa983af2-a992-464d-ab1b-171f539aac9a"},
                    {"reference": "Coverage/5e5783e9-05e1-4b83-8042-c4d7482f3205"},
                    {"reference": "Organization/143bffe7-72ad-4af5-85ad-ffd97bd83a41"}
                ],
                "type": "individual",
                "resourceType": "MeasureReport",
                "status": "complete",
                "group": [{
                    "id": "Group_1",
                    "measureScore": {"value": 0},
                    "population": [
                        {
                            "code": {"coding": [{
                                "system": "http://terminology.hl7.org/CodeSystem/measure-population",
                                "code": "initial-population",
                                "display": "Initial Population"
                            }]},
                            "count": 1,
                            "id": "InitialPopulation_1"
                        },
                        {
                            "code": {"coding": [{
                                "system": "http://terminology.hl7.org/CodeSystem/measure-population",
                                "code": "denominator",
                                "display": "Denominator"
                            }]},
                            "count": 1,
                            "id": "Denominator_1"
                        },
                        {
                            "code": {"coding": [{
                                "system": "http://terminology.hl7.org/CodeSystem/measure-population",
                                "code": "denominator-exclusion",
                                "display": "Denominator Exclusion"
                            }]},
                            "count": 0,
                            "id": "DenominatorExclusion_1"
                        },
                        {
                            "code": {"coding": [{
                                "system": "http://terminology.hl7.org/CodeSystem/measure-population",
                                "code": "numerator",
                                "display": "Numerator"
                            }]},
                            "count": 0,
                            "id": "Numerator_1"
                        },
                        {
                            "code": {"coding": [{
                                "system": "http://terminology.hl7.org/CodeSystem/measure-population",
                                "code": "denominator-exception",
                                "display": "Denominator Exception"
                            }]},
                            "count": 0,
                            "id": "DenominatorException_1"
                        }
                    ]
                }]
            },
            "fullUrl": "https://madie.cms.gov/MeasureReport/34290e5e-b839-4a5c-a5d9-c46167b8e985"
        }
    ],
    "id": "628d4fa9786e3aa8c68d3cd4",
    "type": "transaction",
    "resourceType": "Bundle"
}