{
  "resourceType": "Bundle",
  "id": "612e6f4202c62a011f2f130c",
  "type": "transaction",
  "entry": [ {
    "fullUrl": "https://madie.cms.gov/Patient/efad4991-4382-4ceb-8bc4-32e8ac088e47",
    "resource": {
      "resourceType": "Patient",
      "id": "efad4991-4382-4ceb-8bc4-32e8ac088e47",
      "meta": {
        "profile": [ "http://hl7.org/fhir/us/qicore/StructureDefinition/qicore-patient" ]
      },
      "text": {
        "status": "generated",
        "div": "<div xmlns=\"http://www.w3.org/1999/xhtml\"><div class=\"hapiHeaderText\">FactorXaConcurrentEndAnesConcurrentICU <b>NUMERPASS </b></div><table class=\"hapiPropertyTable\"><tbody><tr><td>Identifier</td><td>932bbfe395f764f868f766d1afbf2cb7</td></tr><tr><td>Date of birth</td><td><span>03 March 1974</span></td></tr></tbody></table></div>"
      },
      "extension": [ {
        "url": "http://hl7.org/fhir/us/core/StructureDefinition/us-core-race",
        "extension": [ {
          "url": "ombCategory",
          "valueCoding": {
            "system": "urn:oid:2.16.840.1.113883.6.238",
            "code": "1002-5",
            "display": "American Indian or Alaska Native",
            "userSelected": true
          }
        }, {
          "url": "text",
          "valueString": "American Indian or Alaska Native"
        } ]
      }, {
        "url": "http://hl7.org/fhir/us/core/StructureDefinition/us-core-ethnicity",
        "extension": [ {
          "url": "ombCategory",
          "valueCoding": {
            "system": "urn:oid:2.16.840.1.113883.6.238",
            "code": "2135-2",
            "display": "Hispanic or Latino",
            "userSelected": true
          }
        }, {
          "url": "text",
          "valueString": "Hispanic or Latino"
        } ]
      } ],
      "identifier": [ {
        "type": {
          "coding": [ {
            "system": "http://terminology.hl7.org/CodeSystem/v2-0203",
            "code": "MR"
          } ]
        },
        "system": "https://bonnie-fhir.healthit.gov/",
        "value": "612e6f4202c62a011f2f130c"
      } ],
      "active": true,
      "name": [ {
        "use": "usual",
        "family": "NUMERPass",
        "given": [ "FactorXaConcurrentEndAnesConcurrentICU" ]
      } ],
      "gender": "female",
      "birthDate": "1975-03-03"
    },
    "request": {
      "method": "PUT",
      "url": "Patient/efad4991-4382-4ceb-8bc4-32e8ac088e47"
    }
  }, {
    "fullUrl": "https://madie.cms.gov/Encounter/cab87b2e-b981-4cfe-895c-49e5ce386089",
    "resource": {
      "resourceType": "Encounter",
      "id": "cab87b2e-b981-4cfe-895c-49e5ce386089",
      "meta": {
        "profile": [ "http://hl7.org/fhir/us/qicore/StructureDefinition/qicore-encounter" ]
      },
      "status": "finished",
      "class": {
        "system": "http://terminology.hl7.org/CodeSystem/v3-ActCode",
        "code": "IMP",
        "display": "inpatient encounter"
      },
      "type": [ {
        "coding": [ {
          "system": "http://snomed.info/sct",
          "code": "8715000"
        } ]
      } ],
      "subject": {
        "reference": "Patient/efad4991-4382-4ceb-8bc4-32e8ac088e47"
      },
      "period": {
        "start": "2026-12-05T08:00:00.000+00:00",
        "end": "2026-12-30T08:15:00.000+00:00"
      },
      "length": {
        "value": 25,
        "unit": "days"
      },
      "diagnosis": [ {
        "condition": {
          "reference": "Condition/dc0c068d-6da4-4c67-89e5-bac9fa1c3417"
        },
        "rank": 1
      } ],
      "location": [ {
        "location": {
          "reference": "Location/f45bdfd8-9d34-4bc9-b734-50a98680f2a2"
        },
        "period": {
          "start": "2026-12-05T08:00:00.000+00:00",
          "end": "2026-12-12T08:15:00.000+00:00"
        }
      } ]
    },
    "request": {
      "method": "PUT",
      "url": "Encounter/cab87b2e-b981-4cfe-895c-49e5ce386089"
    }
  }, {
    "fullUrl": "https://madie.cms.gov/Coverage/0dbca139-5eac-4eed-8581-9ee63f5ff009",
    "resource": {
      "resourceType": "Coverage",
      "id": "0dbca139-5eac-4eed-8581-9ee63f5ff009",
      "status": "active",
      "beneficiary": {
        "reference": "Patient/efad4991-4382-4ceb-8bc4-32e8ac088e47"
      },
      "period": {
        "start": "1975-03-03T08:00:00.000+00:00"
      },
      "payor": [ {
        "reference": "Organization/56de7f57-0948-440a-98eb-bff0d8687a7a"
      } ]
    },
    "request": {
      "method": "PUT",
      "url": "Coverage/0dbca139-5eac-4eed-8581-9ee63f5ff009"
    }
  }, {
    "fullUrl": "https://madie.cms.gov/Condition/dc0c068d-6da4-4c67-89e5-bac9fa1c3417",
    "resource": {
      "resourceType": "Condition",
      "id": "dc0c068d-6da4-4c67-89e5-bac9fa1c3417",
      "meta": {
        "profile": [ "http://hl7.org/fhir/us/qicore/StructureDefinition/qicore-condition-problems-health-concerns" ]
      },
      "clinicalStatus": {
        "coding": [ {
          "system": "http://terminology.hl7.org/CodeSystem/condition-clinical",
          "code": "active"
        } ]
      },
      "verificationStatus": {
        "coding": [ {
          "system": "http://terminology.hl7.org/CodeSystem/condition-ver-status",
          "code": "confirmed"
        } ]
      },
      "category": [ {
        "coding": [ {
          "system": "http://terminology.hl7.org/CodeSystem/condition-category",
          "code": "problem-list-item",
          "display": "Problem list Item"
        } ]
      } ],
      "code": {
        "coding": [ {
          "system": "http://snomed.info/sct",
          "code": "120041000119109",
          "display": "Atrial fibrillation with rapid ventricular response (disorder)",
          "userSelected": true
        } ]
      },
      "subject": {
        "reference": "Patient/efad4991-4382-4ceb-8bc4-32e8ac088e47"
      },
      "onsetPeriod": {
        "start": "2026-12-09T08:00:00.000+00:00"
      }
    },
    "request": {
      "method": "PUT",
      "url": "Condition/dc0c068d-6da4-4c67-89e5-bac9fa1c3417"
    }
  }, {
    "fullUrl": "https://madie.cms.gov/MedicationAdministration/8f5d9d79-13e7-46a9-9c99-1d69fc86018e",
    "resource": {
      "resourceType": "MedicationAdministration",
      "id": "8f5d9d79-13e7-46a9-9c99-1d69fc86018e",
      "meta": {
        "profile": [ "http://hl7.org/fhir/us/qicore/StructureDefinition/qicore-medicationadministration" ]
      },
      "status": "completed",
      "medicationCodeableConcept": {
        "coding": [ {
          "system": "http://www.nlm.nih.gov/research/umls/rxnorm",
          "code": "1364435",
          "display": "apixaban 2.5 MG Oral Tablet"
        } ]
      },
      "subject": {
        "reference": "Patient/efad4991-4382-4ceb-8bc4-32e8ac088e47"
      },
      "effectivePeriod": {
        "start": "2026-12-05T11:00:00.000+00:00"
      }
    },
    "request": {
      "method": "PUT",
      "url": "MedicationAdministration/8f5d9d79-13e7-46a9-9c99-1d69fc86018e"
    }
  }, {
    "fullUrl": "https://madie.cms.gov/Procedure/4ae6c580-5dce-4e8e-968c-9864724c3d88",
    "resource": {
      "resourceType": "Procedure",
      "id": "4ae6c580-5dce-4e8e-968c-9864724c3d88",
      "meta": {
        "profile": [ "http://hl7.org/fhir/us/qicore/StructureDefinition/qicore-procedure" ]
      },
      "extension": [ {
        "url": "http://hl7.org/fhir/us/qicore/StructureDefinition/qicore-recorded",
        "valueDateTime": "2013-12-04T13:35:00.000+00:00"
      } ],
      "status": "completed",
      "code": {
        "coding": [ {
          "system": "http://snomed.info/sct",
          "code": "18946005"
        } ]
      },
      "subject": {
        "reference": "Patient/efad4991-4382-4ceb-8bc4-32e8ac088e47"
      },
      "performedPeriod": {
        "start": "2026-12-05T10:00:00.000+00:00",
        "end": "2026-12-05T11:00:00.000+00:00"
      }
    },
    "request": {
      "method": "PUT",
      "url": "Procedure/4ae6c580-5dce-4e8e-968c-9864724c3d88"
    }
  }, {
    "fullUrl": "https://madie.cms.gov/Location/f45bdfd8-9d34-4bc9-b734-50a98680f2a2",
    "resource": {
      "resourceType": "Location",
      "id": "f45bdfd8-9d34-4bc9-b734-50a98680f2a2",
      "meta": {
        "profile": [ "http://hl7.org/fhir/us/qicore/StructureDefinition/qicore-location" ]
      },
      "identifier": [ {
        "use": "usual",
        "system": "http://exampleoflocation.com",
        "value": "B1-S.F2"
      } ],
      "name": "Medical Surgical East, first floor",
      "type": [ {
        "coding": [ {
          "system": "https://www.cdc.gov/nhsn/cdaportal/terminology/codesystem/hsloc.html",
          "code": "1025-6",
          "display": "Trauma Critical Care",
          "userSelected": true
        } ]
      } ]
    },
    "request": {
      "method": "PUT",
      "url": "Location/f45bdfd8-9d34-4bc9-b734-50a98680f2a2"
    }
  }, {
    "fullUrl": "https://madie.cms.gov/Organization/56de7f57-0948-440a-98eb-bff0d8687a7a",
    "resource": {
      "resourceType": "Organization",
      "id": "56de7f57-0948-440a-98eb-bff0d8687a7a",
      "meta": {
        "profile": [ "http://hl7.org/fhir/us/qicore/StructureDefinition/qicore-organization" ]
      },
      "identifier": [ {
        "use": "temp",
        "system": "urn:oid:2.16.840.1.113883.4.4",
        "value": "21-3259825"
      } ],
      "active": true,
      "type": [ {
        "coding": [ {
          "system": "http://terminology.hl7.org/CodeSystem/organization-type",
          "code": "pay",
          "display": "Payer"
        } ]
      } ],
      "name": "Blue Cross Blue Shield of Texas",
      "telecom": [ {
        "system": "phone",
        "value": "(+1) 972-766-6900"
      } ],
      "address": [ {
        "use": "billing",
        "type": "postal",
        "line": [ "P.O. Box 660044" ],
        "city": "Dallas",
        "state": "TX",
        "postalCode": "75266-0044",
        "country": "USA"
      } ]
    },
    "request": {
      "method": "PUT",
      "url": "Organization/56de7f57-0948-440a-98eb-bff0d8687a7a"
    }
  }, {
    "fullUrl": "https://madie.cms.gov/Practitioner/f1245bbd-c7e3-48dd-a766-026b0112f95f",
    "resource": {
      "resourceType": "Practitioner",
      "id": "f1245bbd-c7e3-48dd-a766-026b0112f95f",
      "identifier": [ {
        "system": "http://hl7.org/fhir/sid/us-npi",
        "value": "123456"
      } ],
      "name": [ {
        "family": "Evil",
        "prefix": [ "Dr" ]
      } ]
    },
    "request": {
      "method": "PUT",
      "url": "Practitioner/f1245bbd-c7e3-48dd-a766-026b0112f95f"
    }
  }, {
    "fullUrl": "https://madie.cms.gov/MeasureReport/42e35de2-4ad2-4fd0-a702-382970a18b5b",
    "resource": {
      "resourceType": "MeasureReport",
      "id": "42e35de2-4ad2-4fd0-a702-382970a18b5b",
      "meta": {
        "profile": [ "http://hl7.org/fhir/us/cqfmeasures/StructureDefinition/test-case-cqfm" ]
      },
      "contained": [ {
        "resourceType": "Parameters",
        "id": "abef661a-2d21-4d77-a526-dc754eb78389-parameters",
        "parameter": [ {
          "name": "subject",
          "valueString": "efad4991-4382-4ceb-8bc4-32e8ac088e47"
        } ]
      } ],
      "extension": [ {
        "url": "http://hl7.org/fhir/StructureDefinition/cqf-inputParameters",
        "valueReference": {
          "reference": "#abef661a-2d21-4d77-a526-dc754eb78389-parameters"
        }
      }, {
        "url": "http://hl7.org/fhir/us/cqfmeasures/StructureDefinition/cqfm-testCaseDescription",
        "valueMarkdown": "factor Xa administered concurrent with end of neuraxial anesthesia concurrent with ICU transfer\n"
      } ],
      "modifierExtension": [ {
        "url": "http://hl7.org/fhir/us/cqfmeasures/StructureDefinition/cqfm-isTestCase",
        "valueBoolean": true
      } ],
      "status": "complete",
      "type": "individual",
      "measure": "https://madie.cms.gov/Measure/CMS190VTEProphylaxisICUFHIR",
      "period": {
        "start": "2026-01-01",
        "end": "2026-12-31"
      },
      "group": [ {
        "id": "Group_1",
        "population": [ {
          "id": "InitialPopulation_1",
          "code": {
            "coding": [ {
              "system": "http://terminology.hl7.org/CodeSystem/measure-population",
              "code": "initial-population",
              "display": "Initial Population"
            } ]
          },
          "count": 1
        }, {
          "id": "Denominator_1",
          "code": {
            "coding": [ {
              "system": "http://terminology.hl7.org/CodeSystem/measure-population",
              "code": "denominator",
              "display": "Denominator"
            } ]
          },
          "count": 1
        }, {
          "id": "DenominatorExclusion_1",
          "code": {
            "coding": [ {
              "system": "http://terminology.hl7.org/CodeSystem/measure-population",
              "code": "denominator-exclusion",
              "display": "Denominator Exclusion"
            } ]
          },
          "count": 0
        }, {
          "id": "Numerator_1",
          "code": {
            "coding": [ {
              "system": "http://terminology.hl7.org/CodeSystem/measure-population",
              "code": "numerator",
              "display": "Numerator"
            } ]
          },
          "count": 1
        }, {
          "id": "DenominatorException_1",
          "code": {
            "coding": [ {
              "system": "http://terminology.hl7.org/CodeSystem/measure-population",
              "code": "denominator-exception",
              "display": "Denominator Exception"
            } ]
          },
          "count": 0
        } ],
        "measureScore": {
          "value": 0.0
        }
      } ],
      "evaluatedResource": [ {
        "reference": "Patient/efad4991-4382-4ceb-8bc4-32e8ac088e47"
      }, {
        "reference": "Encounter/cab87b2e-b981-4cfe-895c-49e5ce386089"
      }, {
        "reference": "Coverage/0dbca139-5eac-4eed-8581-9ee63f5ff009"
      }, {
        "reference": "Condition/dc0c068d-6da4-4c67-89e5-bac9fa1c3417"
      }, {
        "reference": "MedicationAdministration/8f5d9d79-13e7-46a9-9c99-1d69fc86018e"
      }, {
        "reference": "Procedure/4ae6c580-5dce-4e8e-968c-9864724c3d88"
      }, {
        "reference": "Location/f45bdfd8-9d34-4bc9-b734-50a98680f2a2"
      }, {
        "reference": "Organization/56de7f57-0948-440a-98eb-bff0d8687a7a"
      }, {
        "reference": "Practitioner/f1245bbd-c7e3-48dd-a766-026b0112f95f"
      } ]
    },
    "request": {
      "method": "PUT",
      "url": "MeasureReport/42e35de2-4ad2-4fd0-a702-382970a18b5b"
    }
  } ]
}