{
  "resourceType": "Bundle",
  "id": "60f82c3098086b570510e2db",
  "type": "transaction",
  "entry": [ {
    "fullUrl": "https://madie.cms.gov/Patient/4e232654-578a-4526-bd7d-1b354c3c748f",
    "resource": {
      "resourceType": "Patient",
      "id": "4e232654-578a-4526-bd7d-1b354c3c748f",
      "meta": {
        "profile": [ "http://hl7.org/fhir/us/qicore/StructureDefinition/qicore-patient" ]
      },
      "text": {
        "status": "generated",
        "div": "<div xmlns=\"http://www.w3.org/1999/xhtml\"><div class=\"hapiHeaderText\">CMP_DayOf_RelvDat_1minB4ObsEnd_EDEndLT1hrB4Obs_ObsEndLT1hrB4IP <b>DENEXPASS </b></div><table class=\"hapiPropertyTable\"><tbody><tr><td>Date of birth</td><td><span>01 January 1980</span></td></tr></tbody></table></div>"
      },
      "extension": [ {
        "url": "http://hl7.org/fhir/us/core/StructureDefinition/us-core-race",
        "extension": [ {
          "url": "ombCategory",
          "valueCoding": {
            "system": "urn:oid:2.16.840.1.113883.6.238",
            "code": "2106-3",
            "display": "White",
            "userSelected": true
          }
        }, {
          "url": "text",
          "valueString": "White"
        } ]
      }, {
        "url": "http://hl7.org/fhir/us/core/StructureDefinition/us-core-ethnicity",
        "extension": [ {
          "url": "ombCategory",
          "valueCoding": {
            "system": "urn:oid:2.16.840.1.113883.6.238",
            "code": "2186-5",
            "display": "Not Hispanic or Latino",
            "userSelected": true
          }
        }, {
          "url": "text",
          "valueString": "Not Hispanic or Latino"
        } ]
      } ],
      "identifier": [ {
        "type": {
          "coding": [ {
            "system": "http://terminology.hl7.org/CodeSystem/v2-0203",
            "code": "MR"
          } ]
        },
        "system": "https://bonnie-fhir.healthit.gov/",
        "value": "60f82c3098086b570510e2db"
      } ],
      "active": true,
      "name": [ {
        "use": "usual",
        "family": "DENEXPass",
        "given": [ "CMPDayOfRelvDat1minB4ObsEndEDEndLT1hrB4ObsObsEndLT1hrB4IP" ]
      } ],
      "gender": "female",
      "birthDate": "1981-01-01"
    },
    "request": {
      "method": "PUT",
      "url": "Patient/4e232654-578a-4526-bd7d-1b354c3c748f"
    }
  }, {
    "fullUrl": "https://madie.cms.gov/Encounter/57c0a470-7689-4968-8712-af23c673fd2a",
    "resource": {
      "resourceType": "Encounter",
      "id": "57c0a470-7689-4968-8712-af23c673fd2a",
      "meta": {
        "profile": [ "http://hl7.org/fhir/us/qicore/StructureDefinition/qicore-encounter" ]
      },
      "status": "finished",
      "class": {
        "system": "http://terminology.hl7.org/CodeSystem/v3-ActCode",
        "code": "EMER",
        "display": "emergency"
      },
      "type": [ {
        "coding": [ {
          "system": "http://snomed.info/sct",
          "code": "4525004"
        } ]
      } ],
      "subject": {
        "reference": "Patient/4e232654-578a-4526-bd7d-1b354c3c748f"
      },
      "period": {
        "start": "2026-11-18T07:00:00Z",
        "end": "2026-11-18T08:01:00.000+00:00"
      },
      "reasonReference": [ {
        "reference": "Condition/1b9430a5-00e9-4966-8bc4-e92064f15fa6"
      } ]
    },
    "request": {
      "method": "PUT",
      "url": "Encounter/57c0a470-7689-4968-8712-af23c673fd2a"
    }
  }, {
    "fullUrl": "https://madie.cms.gov/Encounter/9703bcb8-af64-40e8-bdd3-2e50a66c588c",
    "resource": {
      "resourceType": "Encounter",
      "id": "9703bcb8-af64-40e8-bdd3-2e50a66c588c",
      "meta": {
        "profile": [ "http://hl7.org/fhir/us/qicore/StructureDefinition/qicore-encounter" ]
      },
      "status": "finished",
      "class": {
        "system": "http://terminology.hl7.org/CodeSystem/v3-ActCode",
        "code": "OBSENC",
        "display": "observation encounter"
      },
      "type": [ {
        "coding": [ {
          "system": "http://snomed.info/sct",
          "code": "448951000124107"
        } ]
      } ],
      "subject": {
        "reference": "Patient/4e232654-578a-4526-bd7d-1b354c3c748f"
      },
      "period": {
        "start": "2026-11-18T09:00:00Z",
        "end": "2026-11-18T10:01:00.000+00:00"
      }
    },
    "request": {
      "method": "PUT",
      "url": "Encounter/9703bcb8-af64-40e8-bdd3-2e50a66c588c"
    }
  }, {
    "fullUrl": "https://madie.cms.gov/Encounter/c85abfc2-8159-47d8-836c-d05f8dd12daf",
    "resource": {
      "resourceType": "Encounter",
      "id": "c85abfc2-8159-47d8-836c-d05f8dd12daf",
      "meta": {
        "profile": [ "http://hl7.org/fhir/us/qicore/StructureDefinition/qicore-encounter" ]
      },
      "status": "finished",
      "class": {
        "system": "http://terminology.hl7.org/CodeSystem/v3-ActCode",
        "code": "IMP",
        "display": "inpatient encounter"
      },
      "type": [ {
        "coding": [ {
          "system": "http://snomed.info/sct",
          "code": "183452005"
        } ]
      } ],
      "subject": {
        "reference": "Patient/4e232654-578a-4526-bd7d-1b354c3c748f"
      },
      "period": {
        "start": "2026-11-18T11:00:00Z",
        "end": "2026-11-20T08:15:00.000+00:00"
      },
      "reasonReference": [ {
        "reference": "Condition/Condition/1b9430a5-00e9-4966-8bc4-e92064f15fa6"
      } ]
    },
    "request": {
      "method": "PUT",
      "url": "Encounter/c85abfc2-8159-47d8-836c-d05f8dd12daf"
    }
  }, {
    "fullUrl": "https://madie.cms.gov/Procedure/9d660dd2-a284-4696-ab61-48d6ded7d1af",
    "resource": {
      "resourceType": "Procedure",
      "id": "9d660dd2-a284-4696-ab61-48d6ded7d1af",
      "meta": {
        "profile": [ "http://hl7.org/fhir/us/qicore/StructureDefinition/qicore-procedure" ]
      },
      "extension": [ {
        "url": "http://hl7.org/fhir/us/qicore/StructureDefinition/qicore-recorded",
        "valueDateTime": "2026-11-18T10:00:00Z"
      } ],
      "status": "completed",
      "code": {
        "coding": [ {
          "system": "http://snomed.info/sct",
          "code": "133918004"
        } ]
      },
      "subject": {
        "reference": "Patient/4e232654-578a-4526-bd7d-1b354c3c748f"
      },
      "performedDateTime": "2026-11-18T10:00:00Z"
    },
    "request": {
      "method": "PUT",
      "url": "Procedure/9d660dd2-a284-4696-ab61-48d6ded7d1af"
    }
  }, {
    "fullUrl": "https://madie.cms.gov/Condition/1b9430a5-00e9-4966-8bc4-e92064f15fa6",
    "resource": {
      "resourceType": "Condition",
      "id": "1b9430a5-00e9-4966-8bc4-e92064f15fa6",
      "meta": {
        "profile": [ "http://hl7.org/fhir/us/qicore/StructureDefinition/qicore-condition-encounter-diagnosis" ]
      },
      "clinicalStatus": {
        "coding": [ {
          "system": "http://terminology.hl7.org/CodeSystem/condition-clinical",
          "code": "active"
        } ]
      },
      "verificationStatus": {
        "coding": [ {
          "system": "http://terminology.hl7.org/CodeSystem/condition-ver-status",
          "code": "confirmed"
        } ]
      },
      "category": [ {
        "coding": [ {
          "system": "http://terminology.hl7.org/CodeSystem/condition-category",
          "code": "encounter-diagnosis",
          "display": "Encounter Diagnosis"
        } ]
      } ],
      "code": {
        "coding": [ {
          "system": "http://snomed.info/sct",
          "version": "2020-09",
          "code": "111297002",
          "display": "Nonparalytic stroke (disorder)",
          "userSelected": true
        } ]
      },
      "subject": {
        "reference": "Patient/4e232654-578a-4526-bd7d-1b354c3c748f"
      },
      "encounter": {
        "reference": "Encounter/c85abfc2-8159-47d8-836c-d05f8dd12daf"
      },
      "recordedDate": "2026-08-13T08:00:00Z"
    },
    "request": {
      "method": "PUT",
      "url": "Condition/1b9430a5-00e9-4966-8bc4-e92064f15fa6"
    }
  }, {
    "fullUrl": "https://madie.cms.gov/claim/5ca62962b8484628b8de1ec5",
    "resource": {
      "resourceType": "Claim",
      "id": "5ca62962b8484628b8de1ec5",
      "meta": {
        "profile": [ "http://hl7.org/fhir/us/qicore/StructureDefinition/qicore-claim" ]
      },
      "status": "active",
      "type": {
        "coding": [ {
          "system": "http://terminology.hl7.org/CodeSystem/claim-type",
          "code": "institutional"
        } ]
      },
      "use": "claim",
      "patient": {
        "reference": "Patient/4e232654-578a-4526-bd7d-1b354c3c748f"
      },
      "created": "2026-12-01",
      "provider": {
        "reference": "Practitioner/practitioner-123456"
      },
      "priority": {
        "coding": [ {
          "system": "http://terminology.hl7.org/CodeSystem/processpriority",
          "code": "normal"
        } ]
      },
      "diagnosis": [ {
        "sequence": 1,
        "diagnosisCodeableConcept": {
          "coding": [ {
            "system": "http://hl7.org/fhir/sid/icd-10-cm",
            "code": "I63.00"
          } ]
        },
        "type": [ {
          "coding": [ {
            "system": "http://terminology.hl7.org/CodeSystem/ex-diagnosistype",
            "code": "principal"
          } ]
        } ]
      } ],
      "insurance": [ {
        "sequence": 1,
        "focal": true,
        "coverage": {
          "reference": "Coverage/5fa041661c76ba66d9959367"
        }
      } ],
      "item": [ {
        "sequence": 1,
        "diagnosisSequence": [ 1 ],
        "productOrService": {
          "coding": [ {
            "system": "http://terminology.hl7.org/CodeSystem/ex-USCLS",
            "code": "99555"
          } ]
        },
        "encounter": [ {
          "reference": "Encounter/c85abfc2-8159-47d8-836c-d05f8dd12daf"
        } ]
      } ]
    },
    "request": {
      "method": "PUT",
      "url": "Claim/5ca62962b8484628b8de1ec5"
    }
  }, {
    "fullUrl": "https://madie.cms.gov/Coverage/9b495e6e-d47c-4699-875d-36c0cb4c795f",
    "resource": {
      "resourceType": "Coverage",
      "id": "9b495e6e-d47c-4699-875d-36c0cb4c795f",
      "meta": {
        "profile": [ "http://hl7.org/fhir/us/qicore/StructureDefinition/qicore-coverage" ]
      },
      "status": "active",
      "beneficiary": {
        "reference": "Patient/4e232654-578a-4526-bd7d-1b354c3c748f"
      },
      "payor": [ {
        "reference": "Organization/e39193f6-2e1f-467f-9fd1-1fc4d1678531"
      } ]
    },
    "request": {
      "method": "PUT",
      "url": "Coverage/9b495e6e-d47c-4699-875d-36c0cb4c795f"
    }
  }, {
    "fullUrl": "https://madie.cms.gov/Organization/e39193f6-2e1f-467f-9fd1-1fc4d1678531",
    "resource": {
      "resourceType": "Organization",
      "id": "e39193f6-2e1f-467f-9fd1-1fc4d1678531",
      "meta": {
        "profile": [ "http://hl7.org/fhir/us/qicore/StructureDefinition/qicore-organization" ]
      },
      "identifier": [ {
        "use": "temp",
        "system": "urn:oid:2.16.840.1.113883.4.4",
        "value": "21-3259825"
      } ],
      "active": true,
      "type": [ {
        "coding": [ {
          "system": "http://terminology.hl7.org/CodeSystem/organization-type",
          "code": "pay",
          "display": "Payer"
        } ]
      } ],
      "name": "Blue Cross Blue Shield of Texas",
      "telecom": [ {
        "system": "phone",
        "value": "(+1) 972-766-6900"
      } ],
      "address": [ {
        "use": "billing",
        "type": "postal",
        "line": [ "P.O. Box 660044" ],
        "city": "Dallas",
        "state": "TX",
        "postalCode": "75266-0044",
        "country": "USA"
      } ]
    },
    "request": {
      "method": "PUT",
      "url": "Organization/e39193f6-2e1f-467f-9fd1-1fc4d1678531"
    }
  }, {
    "fullUrl": "https://madie.cms.gov/MeasureReport/a9fa5c4f-6f15-477d-bb41-1e13333c9728",
    "resource": {
      "resourceType": "MeasureReport",
      "id": "a9fa5c4f-6f15-477d-bb41-1e13333c9728",
      "meta": {
        "profile": [ "http://hl7.org/fhir/us/cqfmeasures/StructureDefinition/test-case-cqfm" ]
      },
      "contained": [ {
        "resourceType": "Parameters",
        "id": "033e090d-8670-45e6-8f86-b450b71498c7-parameters",
        "parameter": [ {
          "name": "subject",
          "valueString": "4e232654-578a-4526-bd7d-1b354c3c748f"
        } ]
      } ],
      "extension": [ {
        "url": "http://hl7.org/fhir/StructureDefinition/cqf-inputParameters",
        "valueReference": {
          "reference": "#033e090d-8670-45e6-8f86-b450b71498c7-parameters"
        }
      }, {
        "url": "http://hl7.org/fhir/us/cqfmeasures/StructureDefinition/cqfm-testCaseDescription",
        "valueMarkdown": "Patient receives comfort measures performed on the day of hospital arrival, 1 min before Obs end. ED ends less than 1 hour before Obs Start, Obs ends less than 1 hour before IP start.\n"
      } ],
      "modifierExtension": [ {
        "url": "http://hl7.org/fhir/us/cqfmeasures/StructureDefinition/cqfm-isTestCase",
        "valueBoolean": true
      } ],
      "status": "complete",
      "type": "individual",
      "measure": "https://madie.cms.gov/Measure/CMS72FHIRSTKAntithromboticDay2",
      "period": {
        "start": "2026-01-01",
        "end": "2026-12-31"
      },
      "group": [ {
        "id": "Group_1",
        "population": [ {
          "id": "InitialPopulation_1",
          "code": {
            "coding": [ {
              "system": "http://terminology.hl7.org/CodeSystem/measure-population",
              "code": "initial-population",
              "display": "Initial Population"
            } ]
          },
          "count": 1
        }, {
          "id": "Denominator_1",
          "code": {
            "coding": [ {
              "system": "http://terminology.hl7.org/CodeSystem/measure-population",
              "code": "denominator",
              "display": "Denominator"
            } ]
          },
          "count": 1
        }, {
          "id": "DenominatorExclusion_1",
          "code": {
            "coding": [ {
              "system": "http://terminology.hl7.org/CodeSystem/measure-population",
              "code": "denominator-exclusion",
              "display": "Denominator Exclusion"
            } ]
          },
          "count": 1
        }, {
          "id": "Numerator_1",
          "code": {
            "coding": [ {
              "system": "http://terminology.hl7.org/CodeSystem/measure-population",
              "code": "numerator",
              "display": "Numerator"
            } ]
          },
          "count": 0
        }, {
          "id": "DenominatorException_1",
          "code": {
            "coding": [ {
              "system": "http://terminology.hl7.org/CodeSystem/measure-population",
              "code": "denominator-exception",
              "display": "Denominator Exception"
            } ]
          },
          "count": 0
        } ],
        "measureScore": {
          "value": 0.0
        }
      } ],
      "evaluatedResource": [ {
        "reference": "Patient/4e232654-578a-4526-bd7d-1b354c3c748f"
      }, {
        "reference": "Encounter/57c0a470-7689-4968-8712-af23c673fd2a"
      }, {
        "reference": "Encounter/9703bcb8-af64-40e8-bdd3-2e50a66c588c"
      }, {
        "reference": "Encounter/c85abfc2-8159-47d8-836c-d05f8dd12daf"
      }, {
        "reference": "Procedure/9d660dd2-a284-4696-ab61-48d6ded7d1af"
      }, {
        "reference": "Condition/1b9430a5-00e9-4966-8bc4-e92064f15fa6"
      }, {
        "reference": "Claim/5ca62962b8484628b8de1ec5"
      }, {
        "reference": "Coverage/9b495e6e-d47c-4699-875d-36c0cb4c795f"
      }, {
        "reference": "Organization/e39193f6-2e1f-467f-9fd1-1fc4d1678531"
      } ]
    },
    "request": {
      "method": "PUT",
      "url": "MeasureReport/a9fa5c4f-6f15-477d-bb41-1e13333c9728"
    }
  } ]
}