{
  "resourceType": "Bundle",
  "id": "6356dca654e383debade75aa",
  "type": "transaction",
  "entry": [ {
    "fullUrl": "https://madie.cms.gov/Patient/1b0eb7b9-ce99-4119-b298-405f32aa30d6",
    "resource": {
      "resourceType": "Patient",
      "id": "1b0eb7b9-ce99-4119-b298-405f32aa30d6",
      "meta": {
        "profile": [ "http://hl7.org/fhir/us/qicore/StructureDefinition/qicore-patient" ]
      },
      "text": {
        "status": "generated",
        "div": "<div xmlns=\"http://www.w3.org/1999/xhtml\"><div class=\"hapiHeaderText\">RISKDXEQPreTermBirthEGAEQ40Weeks<b>RISKFail</b></div><table class=\"hapiPropertyTable\"><tbody><tr><td>Date of birth</td><td><span>01 February 2004</span></td></tr></tbody></table></div>"
      },
      "extension": [ {
        "url": "http://hl7.org/fhir/us/core/StructureDefinition/us-core-race",
        "extension": [ {
          "url": "ombCategory",
          "valueCoding": {
            "system": "urn:oid:2.16.840.1.113883.6.238",
            "code": "1002-5",
            "display": "American Indian or Alaska Native",
            "userSelected": true
          }
        }, {
          "url": "text",
          "valueString": "American Indian or Alaska Native"
        } ]
      }, {
        "url": "http://hl7.org/fhir/us/core/StructureDefinition/us-core-ethnicity",
        "extension": [ {
          "url": "ombCategory",
          "valueCoding": {
            "system": "urn:oid:2.16.840.1.113883.6.238",
            "code": "2135-2",
            "display": "Hispanic or Latino",
            "userSelected": true
          }
        }, {
          "url": "text",
          "valueString": "Hispanic or Latino"
        } ]
      } ],
      "identifier": [ {
        "type": {
          "coding": [ {
            "system": "http://terminology.hl7.org/CodeSystem/v2-0203",
            "code": "MR"
          } ]
        },
        "system": "https://bonnie-fhir.healthit.gov/",
        "value": "6356dca654e383debade75aa"
      } ],
      "active": true,
      "name": [ {
        "use": "usual",
        "family": "RISKFail",
        "given": [ "RISKDXEQPreTermBirthEGAEQ40Weeks" ]
      } ],
      "gender": "female",
      "birthDate": "2005-02-01"
    },
    "request": {
      "method": "PUT",
      "url": "Patient/1b0eb7b9-ce99-4119-b298-405f32aa30d6"
    }
  }, {
    "fullUrl": "https://madie.cms.gov/Observation/43aeccf9-f65c-4011-82cf-5798e6244ff9",
    "resource": {
      "resourceType": "Observation",
      "id": "43aeccf9-f65c-4011-82cf-5798e6244ff9",
      "meta": {
        "profile": [ "http://hl7.org/fhir/us/qicore/StructureDefinition/qicore-simple-observation" ]
      },
      "status": "final",
      "category": [ {
        "coding": [ {
          "system": "http://terminology.hl7.org/CodeSystem/observation-category",
          "code": "exam",
          "display": "exam",
          "userSelected": true
        } ]
      } ],
      "code": {
        "coding": [ {
          "system": "http://loinc.org",
          "code": "93857-1"
        } ]
      },
      "subject": {
        "reference": "Patient/1b0eb7b9-ce99-4119-b298-405f32aa30d6"
      },
      "effectiveDateTime": "2026-02-01T08:00:00Z",
      "performer": [ {
        "reference": "Organization/example1",
        "display": "Hendricks Country Hospital"
      } ],
      "valueDateTime": "2026-02-01T08:00:00Z"
    },
    "request": {
      "method": "PUT",
      "url": "Observation/43aeccf9-f65c-4011-82cf-5798e6244ff9"
    }
  }, {
    "fullUrl": "https://madie.cms.gov/Observation/3d96de82-6137-4519-9ff6-4fd5170061dc",
    "resource": {
      "resourceType": "Observation",
      "id": "3d96de82-6137-4519-9ff6-4fd5170061dc",
      "meta": {
        "profile": [ "http://hl7.org/fhir/us/qicore/StructureDefinition/qicore-simple-observation" ]
      },
      "status": "final",
      "category": [ {
        "coding": [ {
          "system": "http://terminology.hl7.org/CodeSystem/observation-category",
          "code": "exam",
          "display": "exam",
          "userSelected": true
        } ]
      } ],
      "code": {
        "coding": [ {
          "system": "http://loinc.org",
          "code": "11884-4"
        } ]
      },
      "subject": {
        "reference": "Patient/1b0eb7b9-ce99-4119-b298-405f32aa30d6"
      },
      "effectiveDateTime": "2026-02-01T08:00:00Z",
      "performer": [ {
        "reference": "Organization/example1",
        "display": "Hendricks Country Hospital"
      } ],
      "valueQuantity": {
        "value": 40,
        "system": "http://unitsofmeasure.org",
        "code": "wk"
      }
    },
    "request": {
      "method": "PUT",
      "url": "Observation/3d96de82-6137-4519-9ff6-4fd5170061dc"
    }
  }, {
    "fullUrl": "https://madie.cms.gov/Encounter/47f2ccc9-ca60-45c6-9f6a-32efd717557f",
    "resource": {
      "resourceType": "Encounter",
      "id": "47f2ccc9-ca60-45c6-9f6a-32efd717557f",
      "meta": {
        "profile": [ "http://hl7.org/fhir/us/qicore/StructureDefinition/qicore-encounter" ]
      },
      "status": "finished",
      "class": {
        "system": "http://terminology.hl7.org/CodeSystem/v3-ActCode",
        "code": "IMP",
        "display": "inpatient encounter"
      },
      "type": [ {
        "coding": [ {
          "system": "http://snomed.info/sct",
          "code": "183452005"
        } ]
      } ],
      "subject": {
        "reference": "Patient/1b0eb7b9-ce99-4119-b298-405f32aa30d6"
      },
      "period": {
        "start": "2026-02-01T08:00:00Z",
        "end": "2026-02-05T08:15:00Z"
      },
      "diagnosis": [ {
        "extension": [ {
          "url": "http://hl7.org/fhir/us/qicore/StructureDefinition/qicore-encounter-diagnosisPresentOnAdmission",
          "valueCodeableConcept": {
            "coding": [ {
              "system": "https://www.cms.gov/Medicare/Medicare-Fee-for-Service-Payment/HospitalAcqCond/Coding",
              "code": "Y"
            } ]
          }
        } ],
        "condition": {
          "reference": "Condition/f32ecaa7-b627-4575-8b17-391b1dcef414"
        }
      } ]
    },
    "request": {
      "method": "PUT",
      "url": "Encounter/47f2ccc9-ca60-45c6-9f6a-32efd717557f"
    }
  }, {
    "fullUrl": "https://madie.cms.gov/Procedure/34626016-2b80-46b8-be91-e2d88d5aac5e",
    "resource": {
      "resourceType": "Procedure",
      "id": "34626016-2b80-46b8-be91-e2d88d5aac5e",
      "meta": {
        "profile": [ "http://hl7.org/fhir/us/qicore/StructureDefinition/qicore-procedure" ]
      },
      "extension": [ {
        "url": "http://hl7.org/fhir/us/qicore/StructureDefinition/qicore-recorded",
        "valueDateTime": "2014-04-05T13:35:00Z"
      } ],
      "status": "completed",
      "code": {
        "coding": [ {
          "system": "http://snomed.info/sct",
          "code": "10745001"
        } ]
      },
      "subject": {
        "reference": "Patient/1b0eb7b9-ce99-4119-b298-405f32aa30d6"
      },
      "performedPeriod": {
        "start": "2026-02-01T08:00:00Z",
        "end": "2026-02-05T08:15:00Z"
      }
    },
    "request": {
      "method": "PUT",
      "url": "Procedure/34626016-2b80-46b8-be91-e2d88d5aac5e"
    }
  }, {
    "fullUrl": "https://madie.cms.gov/Condition/f32ecaa7-b627-4575-8b17-391b1dcef414",
    "resource": {
      "resourceType": "Condition",
      "id": "f32ecaa7-b627-4575-8b17-391b1dcef414",
      "meta": {
        "profile": [ "http://hl7.org/fhir/us/qicore/StructureDefinition/qicore-condition-encounter-diagnosis" ]
      },
      "category": [ {
        "coding": [ {
          "system": "http://terminology.hl7.org/CodeSystem/condition-category",
          "code": "encounter-diagnosis",
          "display": "Encounter Diagnosis"
        } ]
      } ],
      "code": {
        "coding": [ {
          "system": "http://hl7.org/fhir/sid/icd-10-cm",
          "version": "2023",
          "code": "Z3A.20",
          "display": "20 weeks gestation",
          "userSelected": true
        } ]
      },
      "subject": {
        "reference": "Patient/1b0eb7b9-ce99-4119-b298-405f32aa30d6"
      },
      "recordedDate": "2026-10-26T08:00:00Z"
    },
    "request": {
      "method": "PUT",
      "url": "Condition/f32ecaa7-b627-4575-8b17-391b1dcef414"
    }
  }, {
    "fullUrl": "https://madie.cms.gov/Claim/0007ad36-893d-4db1-a300-e3d6926d3f7e",
    "resource": {
      "resourceType": "Claim",
      "id": "0007ad36-893d-4db1-a300-e3d6926d3f7e",
      "meta": {
        "profile": [ "http://hl7.org/fhir/us/qicore/StructureDefinition/qicore-claim" ]
      },
      "status": "active",
      "type": {
        "coding": [ {
          "system": "http://terminology.hl7.org/CodeSystem/claim-type",
          "code": "institutional",
          "display": "Institutional"
        } ]
      },
      "use": "claim",
      "patient": {
        "reference": "Patient/1b0eb7b9-ce99-4119-b298-405f32aa30d6"
      },
      "created": "2026-11-08",
      "provider": {
        "reference": "Practitioner/76055c24-8dd7-4cfb-830d-90565f3cab6a"
      },
      "priority": {
        "coding": [ {
          "system": "http://terminology.hl7.org/CodeSystem/processpriority",
          "code": "normal"
        } ]
      },
      "diagnosis": [ {
        "sequence": 1,
        "diagnosisCodeableConcept": {
          "coding": [ {
            "system": "http://hl7.org/fhir/sid/icd-10-cm",
            "code": "Z3A.20",
            "display": "20 weeks gestation of pregnancy"
          } ]
        },
        "type": [ {
          "coding": [ {
            "system": "http://terminology.hl7.org/CodeSystem/ex-diagnosistype",
            "code": "discharge",
            "display": "Discharge Diagnosis"
          } ]
        } ],
        "onAdmission": {
          "coding": [ {
            "system": "https://www.cms.gov/Medicare/Medicare-Fee-for-Service-Payment/HospitalAcqCond/Coding",
            "code": "Y"
          } ]
        }
      } ],
      "insurance": [ {
        "sequence": 1,
        "focal": true,
        "coverage": {
          "reference": "Coverage/Coverage-1"
        }
      } ],
      "item": [ {
        "sequence": 1,
        "careTeamSequence": [ 1 ],
        "diagnosisSequence": [ 1 ],
        "productOrService": {
          "coding": [ {
            "system": "http://www.ama-assn.org/go/cpt",
            "code": "99232"
          } ]
        },
        "encounter": [ {
          "reference": "Encounter/47f2ccc9-ca60-45c6-9f6a-32efd717557f"
        } ]
      }, {
        "sequence": 2,
        "careTeamSequence": [ 1 ],
        "diagnosisSequence": [ 2 ],
        "productOrService": {
          "coding": [ {
            "system": "http://www.ama-assn.org/go/cpt",
            "code": "99233"
          } ]
        },
        "encounter": [ {
          "reference": "Encounter/47f2ccc9-ca60-45c6-9f6a-32efd717557f"
        } ]
      } ],
      "total": {
        "value": 3800,
        "currency": "USD"
      }
    },
    "request": {
      "method": "PUT",
      "url": "Claim/0007ad36-893d-4db1-a300-e3d6926d3f7e"
    }
  }, {
    "fullUrl": "https://madie.cms.gov/Coverage/eb91e22b-4b2f-4014-97ad-22776d46577b",
    "resource": {
      "resourceType": "Coverage",
      "id": "eb91e22b-4b2f-4014-97ad-22776d46577b",
      "meta": {
        "profile": [ "http://hl7.org/fhir/us/qicore/StructureDefinition/qicore-coverage" ]
      },
      "status": "active",
      "subscriberId": "523435",
      "beneficiary": {
        "reference": "Patient/1b0eb7b9-ce99-4119-b298-405f32aa30d6"
      },
      "relationship": {
        "coding": [ {
          "system": "http://terminology.hl7.org/CodeSystem/subscriber-relationship",
          "code": "self"
        } ]
      },
      "payor": [ {
        "reference": "Organization/e8d415e5-0bee-4943-8f0b-3894a9e0b603"
      } ]
    },
    "request": {
      "method": "PUT",
      "url": "Coverage/eb91e22b-4b2f-4014-97ad-22776d46577b"
    }
  }, {
    "fullUrl": "https://madie.cms.gov/Organization/e8d415e5-0bee-4943-8f0b-3894a9e0b603",
    "resource": {
      "resourceType": "Organization",
      "id": "e8d415e5-0bee-4943-8f0b-3894a9e0b603",
      "meta": {
        "profile": [ "http://hl7.org/fhir/us/qicore/StructureDefinition/qicore-organization" ]
      },
      "identifier": [ {
        "use": "temp",
        "system": "urn:oid:2.16.840.1.113883.4.4",
        "value": "21-3259825"
      } ],
      "active": true,
      "type": [ {
        "coding": [ {
          "system": "http://terminology.hl7.org/CodeSystem/organization-type",
          "code": "pay",
          "display": "Payer"
        } ]
      } ],
      "name": "Blue Cross Blue Shield of Texas",
      "telecom": [ {
        "system": "phone",
        "value": "(+1) 972-766-6900"
      } ],
      "address": [ {
        "use": "billing",
        "type": "postal",
        "line": [ "P.O. Box 660044" ],
        "city": "Dallas",
        "state": "TX",
        "postalCode": "75266-0044",
        "country": "USA"
      } ]
    },
    "request": {
      "method": "PUT",
      "url": "Organization/e8d415e5-0bee-4943-8f0b-3894a9e0b603"
    }
  }, {
    "fullUrl": "https://madie.cms.gov/Practitioner/76055c24-8dd7-4cfb-830d-90565f3cab6a",
    "resource": {
      "resourceType": "Practitioner",
      "id": "76055c24-8dd7-4cfb-830d-90565f3cab6a",
      "meta": {
        "profile": [ "http://hl7.org/fhir/us/qicore/StructureDefinition/qicore-practitioner" ]
      },
      "identifier": [ {
        "system": "http://hl7.org/fhir/sid/us-npi",
        "value": "9999999896"
      } ],
      "name": [ {
        "family": "Evil",
        "prefix": [ "Dr" ]
      } ]
    },
    "request": {
      "method": "PUT",
      "url": "Practitioner/76055c24-8dd7-4cfb-830d-90565f3cab6a"
    }
  }, {
    "fullUrl": "https://madie.cms.gov/MeasureReport/8f5a72d4-8b51-40ff-bfef-075cd596c55a",
    "resource": {
      "resourceType": "MeasureReport",
      "id": "8f5a72d4-8b51-40ff-bfef-075cd596c55a",
      "meta": {
        "profile": [ "http://hl7.org/fhir/us/cqfmeasures/StructureDefinition/test-case-cqfm" ]
      },
      "contained": [ {
        "resourceType": "Parameters",
        "id": "294f20aa-bc1d-4eff-9720-53d6a6b647a6-parameters",
        "parameter": [ {
          "name": "subject",
          "valueString": "1b0eb7b9-ce99-4119-b298-405f32aa30d6"
        } ]
      } ],
      "extension": [ {
        "url": "http://hl7.org/fhir/StructureDefinition/cqf-inputParameters",
        "valueReference": {
          "reference": "#294f20aa-bc1d-4eff-9720-53d6a6b647a6-parameters"
        }
      }, {
        "url": "http://hl7.org/fhir/us/cqfmeasures/StructureDefinition/cqfm-testCaseDescription",
        "valueMarkdown": "RISKDXEQPreTermBirth And EGAEQ40Weeks\n"
      } ],
      "modifierExtension": [ {
        "url": "http://hl7.org/fhir/us/cqfmeasures/StructureDefinition/cqfm-isTestCase",
        "valueBoolean": true
      } ],
      "status": "complete",
      "type": "individual",
      "measure": "https://madie.cms.gov/Measure/CMS1028FHIRPCSevereOBComps",
      "period": {
        "start": "2026-01-01",
        "end": "2026-12-31"
      },
      "group": [ {
        "id": "Group_1",
        "population": [ {
          "id": "InitialPopulation_1",
          "code": {
            "coding": [ {
              "system": "http://terminology.hl7.org/CodeSystem/measure-population",
              "code": "initial-population",
              "display": "Initial Population"
            } ]
          },
          "count": 1
        }, {
          "id": "Denominator_1",
          "code": {
            "coding": [ {
              "system": "http://terminology.hl7.org/CodeSystem/measure-population",
              "code": "denominator",
              "display": "Denominator"
            } ]
          },
          "count": 1
        }, {
          "id": "Numerator_1",
          "code": {
            "coding": [ {
              "system": "http://terminology.hl7.org/CodeSystem/measure-population",
              "code": "numerator",
              "display": "Numerator"
            } ]
          },
          "count": 0
        }, {
          "id": "NumeratorExclusion_1",
          "code": {
            "coding": [ {
              "system": "http://terminology.hl7.org/CodeSystem/measure-population",
              "code": "numerator-exclusion",
              "display": "Numerator Exclusion"
            } ]
          },
          "count": 0
        } ],
        "measureScore": {
          "value": 0.0
        }
      }, {
        "id": "Group_2",
        "population": [ {
          "id": "InitialPopulation_2",
          "code": {
            "coding": [ {
              "system": "http://terminology.hl7.org/CodeSystem/measure-population",
              "code": "initial-population",
              "display": "Initial Population"
            } ]
          },
          "count": 1
        }, {
          "id": "Denominator_2",
          "code": {
            "coding": [ {
              "system": "http://terminology.hl7.org/CodeSystem/measure-population",
              "code": "denominator",
              "display": "Denominator"
            } ]
          },
          "count": 1
        }, {
          "id": "Numerator_2",
          "code": {
            "coding": [ {
              "system": "http://terminology.hl7.org/CodeSystem/measure-population",
              "code": "numerator",
              "display": "Numerator"
            } ]
          },
          "count": 0
        }, {
          "id": "NumeratorExclusion_2",
          "code": {
            "coding": [ {
              "system": "http://terminology.hl7.org/CodeSystem/measure-population",
              "code": "numerator-exclusion",
              "display": "Numerator Exclusion"
            } ]
          },
          "count": 0
        } ],
        "measureScore": {
          "value": 0.0
        }
      } ],
      "evaluatedResource": [ {
        "reference": "Patient/1b0eb7b9-ce99-4119-b298-405f32aa30d6"
      }, {
        "reference": "Observation/43aeccf9-f65c-4011-82cf-5798e6244ff9"
      }, {
        "reference": "Observation/3d96de82-6137-4519-9ff6-4fd5170061dc"
      }, {
        "reference": "Encounter/47f2ccc9-ca60-45c6-9f6a-32efd717557f"
      }, {
        "reference": "Procedure/34626016-2b80-46b8-be91-e2d88d5aac5e"
      }, {
        "reference": "Condition/f32ecaa7-b627-4575-8b17-391b1dcef414"
      }, {
        "reference": "Claim/0007ad36-893d-4db1-a300-e3d6926d3f7e"
      }, {
        "reference": "Coverage/eb91e22b-4b2f-4014-97ad-22776d46577b"
      }, {
        "reference": "Organization/e8d415e5-0bee-4943-8f0b-3894a9e0b603"
      }, {
        "reference": "Practitioner/76055c24-8dd7-4cfb-830d-90565f3cab6a"
      } ]
    },
    "request": {
      "method": "PUT",
      "url": "MeasureReport/8f5a72d4-8b51-40ff-bfef-075cd596c55a"
    }
  } ]
}