{
  "resourceType": "Bundle",
  "id": "tests-RiskVarPassFirstWhiteBloodCellCount-bundle",
  "type": "transaction",
  "entry": [ {
    "fullUrl": "https://madie.cms.gov/Encounter/27495c37-8aed-4b1c-bb02-a092e528ac56",
    "resource": {
      "resourceType": "Encounter",
      "id": "27495c37-8aed-4b1c-bb02-a092e528ac56",
      "meta": {
        "profile": [ "http://hl7.org/fhir/us/qicore/StructureDefinition/qicore-encounter" ]
      },
      "status": "finished",
      "class": {
        "system": "http://terminology.hl7.org/CodeSystem/v3-ActCode",
        "code": "IMP",
        "display": "inpatient encounter"
      },
      "type": [ {
        "coding": [ {
          "system": "http://snomed.info/sct",
          "code": "112689000",
          "display": "Hospital admission, elective, with complete pre-admission work-up"
        } ],
        "text": "Hospital admission, elective, with complete pre-admission work-up"
      } ],
      "priority": {
        "coding": [ {
          "system": "http://snomed.info/sct",
          "code": "103390000"
        } ]
      },
      "subject": {
        "reference": "Patient/c87a3d8c-6b6d-44d0-b701-27390c235991"
      },
      "period": {
        "start": "2026-04-10T08:00:00.000+00:00",
        "end": "2026-04-14T08:15:00.000+00:00"
      },
      "diagnosis": [ {
        "condition": {
          "reference": "Procedure/967e440e-8766-4705-924b-00b4a61b0458"
        },
        "rank": 1
      } ]
    },
    "request": {
      "method": "PUT",
      "url": "Encounter/27495c37-8aed-4b1c-bb02-a092e528ac56"
    }
  }, {
    "fullUrl": "https://madie.cms.gov/Patient/c87a3d8c-6b6d-44d0-b701-27390c235991",
    "resource": {
      "resourceType": "Patient",
      "id": "c87a3d8c-6b6d-44d0-b701-27390c235991",
      "meta": {
        "profile": [ "http://hl7.org/fhir/us/qicore/StructureDefinition/qicore-patient" ]
      },
      "extension": [ {
        "url": "http://hl7.org/fhir/us/core/StructureDefinition/us-core-race",
        "extension": [ {
          "url": "ombCategory",
          "valueCoding": {
            "system": "urn:oid:2.16.840.1.113883.6.238",
            "code": "2054-5",
            "display": "Black or African American",
            "userSelected": true
          }
        }, {
          "url": "text",
          "valueString": "Black or African American"
        } ]
      }, {
        "url": "http://hl7.org/fhir/us/core/StructureDefinition/us-core-ethnicity",
        "extension": [ {
          "url": "ombCategory",
          "valueCoding": {
            "system": "urn:oid:2.16.840.1.113883.6.238",
            "code": "2186-5",
            "display": "Not Hispanic or Latino",
            "userSelected": true
          }
        }, {
          "url": "text",
          "valueString": "Not Hispanic or Latino"
        } ]
      } ],
      "identifier": [ {
        "type": {
          "coding": [ {
            "system": "http://terminology.hl7.org/CodeSystem/v2-0203",
            "code": "MR"
          } ]
        },
        "system": "https://bonnie-fhir.healthit.gov/",
        "value": "61152a3b98086b7a79cbd7c1"
      } ],
      "active": true,
      "name": [ {
        "use": "usual",
        "family": "DENOMPass",
        "given": [ "RiskVariableASAClass" ]
      } ],
      "gender": "female",
      "birthDate": "1966-07-12"
    },
    "request": {
      "method": "PUT",
      "url": "Patient/c87a3d8c-6b6d-44d0-b701-27390c235991"
    }
  }, {
    "fullUrl": "https://madie.cms.gov/Observation/6585ea85-a316-4c2f-ad63-2da6404f6910",
    "resource": {
      "resourceType": "Observation",
      "id": "6585ea85-a316-4c2f-ad63-2da6404f6910",
      "meta": {
        "profile": [ "http://hl7.org/fhir/us/qicore/StructureDefinition/qicore-observation-lab" ]
      },
      "status": "final",
      "category": [ {
        "coding": [ {
          "system": "http://terminology.hl7.org/CodeSystem/observation-category",
          "code": "laboratory",
          "display": "Laboratory"
        } ],
        "text": "Laboratory"
      } ],
      "code": {
        "coding": [ {
          "system": "http://loinc.org",
          "code": "33256-9",
          "display": "Leukocytes [#/volume] corrected for nucleated erythrocytes in Blood by Automated count"
        } ],
        "text": "Leukocytes [#/volume] corrected for nucleated erythrocytes in Blood by Automated count"
      },
      "subject": {
        "reference": "Patient/c87a3d8c-6b6d-44d0-b701-27390c235991"
      },
      "encounter": {
        "reference": "Encounter/27495c37-8aed-4b1c-bb02-a092e528ac56"
      },
      "effectiveDateTime": "2026-04-11T09:00:00.000+00:00",
      "valueQuantity": {
        "value": 6,
        "unit": "K/ul",
        "system": "http://unitsofmeasure.org",
        "code": "K/ul"
      }
    },
    "request": {
      "method": "PUT",
      "url": "Observation/6585ea85-a316-4c2f-ad63-2da6404f6910"
    }
  }, {
    "fullUrl": "https://madie.cms.gov/Observation/db50d378-7944-42e3-bbd0-c6dee73f27fd",
    "resource": {
      "resourceType": "Observation",
      "id": "db50d378-7944-42e3-bbd0-c6dee73f27fd",
      "meta": {
        "profile": [ "http://hl7.org/fhir/us/qicore/StructureDefinition/qicore-observation-lab" ]
      },
      "status": "final",
      "category": [ {
        "coding": [ {
          "system": "http://terminology.hl7.org/CodeSystem/observation-category",
          "code": "laboratory",
          "display": "Laboratory"
        } ],
        "text": "Laboratory"
      } ],
      "code": {
        "coding": [ {
          "system": "http://loinc.org",
          "code": "33256-9",
          "display": "Leukocytes [#/volume] corrected for nucleated erythrocytes in Blood by Automated count"
        } ],
        "text": "Leukocytes [#/volume] corrected for nucleated erythrocytes in Blood by Automated count"
      },
      "subject": {
        "reference": "Patient/c87a3d8c-6b6d-44d0-b701-27390c235991"
      },
      "encounter": {
        "reference": "Encounter/27495c37-8aed-4b1c-bb02-a092e528ac56"
      },
      "effectiveDateTime": "2026-04-11T08:00:00.000+00:00",
      "valueQuantity": {
        "value": 8.9,
        "unit": "K/ul",
        "system": "http://unitsofmeasure.org",
        "code": "K/ul"
      }
    },
    "request": {
      "method": "PUT",
      "url": "Observation/db50d378-7944-42e3-bbd0-c6dee73f27fd"
    }
  }, {
    "fullUrl": "https://madie.cms.gov/Procedure/ef6697db-0ab2-492f-b504-052af0441e6b",
    "resource": {
      "resourceType": "Procedure",
      "id": "ef6697db-0ab2-492f-b504-052af0441e6b",
      "meta": {
        "profile": [ "http://hl7.org/fhir/us/qicore/StructureDefinition/qicore-procedure" ]
      },
      "extension": [ {
        "url": "http://hl7.org/fhir/us/qicore/StructureDefinition/qicore-recorded",
        "valueDateTime": "2026-04-11T10:30:00.000+00:00"
      } ],
      "status": "completed",
      "category": {
        "coding": [ {
          "system": "http://snomed.info/sct",
          "code": "18286008",
          "display": "General or neuraxial anesthesia"
        } ]
      },
      "code": {
        "coding": [ {
          "system": "http://snomed.info/sct",
          "code": "112943005",
          "display": "Epidural injection of anesthetic substance, diagnostic, caudal, continuous"
        } ]
      },
      "subject": {
        "reference": "Patient/c87a3d8c-6b6d-44d0-b701-27390c235991"
      },
      "performedPeriod": {
        "start": "2026-04-11T08:00:00.000+00:00",
        "end": "2026-04-11T10:15:00.000+00:00"
      }
    },
    "request": {
      "method": "PUT",
      "url": "Procedure/ef6697db-0ab2-492f-b504-052af0441e6b"
    }
  }, {
    "fullUrl": "https://madie.cms.gov/MeasureReport/6fd8358b-510c-4410-a642-1f1057c7cc3f",
    "resource": {
      "resourceType": "MeasureReport",
      "id": "6fd8358b-510c-4410-a642-1f1057c7cc3f",
      "meta": {
        "profile": [ "http://hl7.org/fhir/us/cqfmeasures/StructureDefinition/test-case-cqfm" ]
      },
      "contained": [ {
        "resourceType": "Parameters",
        "id": "d7e0d535-8de9-4b29-97c4-86aa663539c0-parameters",
        "parameter": [ {
          "name": "subject",
          "valueString": "c87a3d8c-6b6d-44d0-b701-27390c235991"
        } ]
      } ],
      "extension": [ {
        "url": "http://hl7.org/fhir/StructureDefinition/cqf-inputParameters",
        "valueReference": {
          "reference": "#d7e0d535-8de9-4b29-97c4-86aa663539c0-parameters"
        }
      }, {
        "url": "http://hl7.org/fhir/us/cqfmeasures/StructureDefinition/cqfm-testCaseDescription",
        "valueMarkdown": "DENOMPass satisfies First White Blood Cell Count risk variable"
      } ],
      "modifierExtension": [ {
        "url": "http://hl7.org/fhir/us/cqfmeasures/StructureDefinition/cqfm-isTestCase",
        "valueBoolean": true
      } ],
      "status": "complete",
      "type": "individual",
      "measure": "https://madie.cms.gov/Measure/CMS1218FHIRHHRF",
      "period": {
        "start": "2026-01-01",
        "end": "2026-12-31"
      },
      "group": [ {
        "id": "Group_1",
        "population": [ {
          "id": "InitialPopulation_1",
          "code": {
            "coding": [ {
              "system": "http://terminology.hl7.org/CodeSystem/measure-population",
              "code": "initial-population",
              "display": "Initial Population"
            } ]
          },
          "count": 1
        }, {
          "id": "Denominator_1",
          "code": {
            "coding": [ {
              "system": "http://terminology.hl7.org/CodeSystem/measure-population",
              "code": "denominator",
              "display": "Denominator"
            } ]
          },
          "count": 1
        }, {
          "id": "DenominatorExclusion_1",
          "code": {
            "coding": [ {
              "system": "http://terminology.hl7.org/CodeSystem/measure-population",
              "code": "denominator-exclusion",
              "display": "Denominator Exclusion"
            } ]
          },
          "count": 0
        }, {
          "id": "Numerator_1",
          "code": {
            "coding": [ {
              "system": "http://terminology.hl7.org/CodeSystem/measure-population",
              "code": "numerator",
              "display": "Numerator"
            } ]
          },
          "count": 0
        } ],
        "measureScore": {
          "value": 0.0
        }
      } ],
      "evaluatedResource": [ {
        "reference": "Encounter/27495c37-8aed-4b1c-bb02-a092e528ac56"
      }, {
        "reference": "Patient/c87a3d8c-6b6d-44d0-b701-27390c235991"
      }, {
        "reference": "Observation/6585ea85-a316-4c2f-ad63-2da6404f6910"
      }, {
        "reference": "Observation/db50d378-7944-42e3-bbd0-c6dee73f27fd"
      }, {
        "reference": "Procedure/ef6697db-0ab2-492f-b504-052af0441e6b"
      } ]
    },
    "request": {
      "method": "PUT",
      "url": "MeasureReport/6fd8358b-510c-4410-a642-1f1057c7cc3f"
    }
  } ]
}