{
  "resourceType": "Bundle",
  "id": "62b1d7bd3968556e5150cf2c",
  "type": "transaction",
  "entry": [ {
    "fullUrl": "https://madie.cms.gov/Patient/82134291-214a-4e6e-9969-9ccb6df412f0",
    "resource": {
      "resourceType": "Patient",
      "id": "82134291-214a-4e6e-9969-9ccb6df412f0",
      "meta": {
        "profile": [ "http://hl7.org/fhir/us/qicore/StructureDefinition/qicore-patient" ]
      },
      "extension": [ {
        "url": "http://hl7.org/fhir/us/core/StructureDefinition/us-core-race",
        "extension": [ {
          "url": "ombCategory",
          "valueCoding": {
            "system": "urn:oid:2.16.840.1.113883.6.238",
            "code": "1002-5",
            "display": "American Indian or Alaska Native",
            "userSelected": true
          }
        }, {
          "url": "text",
          "valueString": "American Indian or Alaska Native"
        } ]
      }, {
        "url": "http://hl7.org/fhir/us/core/StructureDefinition/us-core-ethnicity",
        "extension": [ {
          "url": "ombCategory",
          "valueCoding": {
            "system": "urn:oid:2.16.840.1.113883.6.238",
            "code": "2135-2",
            "display": "Hispanic or Latino",
            "userSelected": true
          }
        }, {
          "url": "text",
          "valueString": "Hispanic or Latino"
        } ]
      } ],
      "identifier": [ {
        "type": {
          "coding": [ {
            "system": "http://terminology.hl7.org/CodeSystem/v2-0203",
            "code": "MR"
          } ]
        },
        "system": "https://bonnie-fhir.healthit.gov/",
        "value": "62b1d7bd3968556e5150cf2c"
      } ],
      "name": [ {
        "family": "NUMERPass",
        "given": [ "PositiveAdultDepressionScreeningandFollowUp" ]
      } ],
      "gender": "male",
      "birthDate": "2008-01-01"
    },
    "request": {
      "method": "PUT",
      "url": "Patient/82134291-214a-4e6e-9969-9ccb6df412f0"
    }
  }, {
    "fullUrl": "https://madie.cms.gov/Encounter/8c224480-c059-4639-863b-bf4b98fd6b9d",
    "resource": {
      "resourceType": "Encounter",
      "id": "8c224480-c059-4639-863b-bf4b98fd6b9d",
      "meta": {
        "profile": [ "http://hl7.org/fhir/us/qicore/StructureDefinition/qicore-encounter" ]
      },
      "status": "finished",
      "class": {
        "system": "http://terminology.hl7.org/CodeSystem/v3-ActCode",
        "code": "AMB",
        "display": "ambulatory"
      },
      "type": [ {
        "coding": [ {
          "system": "http://snomed.info/sct",
          "version": "2021-09",
          "code": "10197000",
          "display": "Psychiatric interview and evaluation (procedure)",
          "userSelected": true
        } ]
      } ],
      "subject": {
        "reference": "Patient/82134291-214a-4e6e-9969-9ccb6df412f0"
      },
      "period": {
        "start": "2026-06-21T08:00:00.000+00:00",
        "end": "2026-06-21T08:15:00.000+00:00"
      }
    },
    "request": {
      "method": "PUT",
      "url": "Encounter/8c224480-c059-4639-863b-bf4b98fd6b9d"
    }
  }, {
    "fullUrl": "https://madie.cms.gov/Observation/6f49833b-0084-4f28-9862-3e48f2f1a6a8",
    "resource": {
      "resourceType": "Observation",
      "id": "6f49833b-0084-4f28-9862-3e48f2f1a6a8",
      "meta": {
        "profile": [ "http://hl7.org/fhir/us/qicore/StructureDefinition/qicore-observation-screening-assessment" ]
      },
      "status": "final",
      "category": [ {
        "coding": [ {
          "system": "http://terminology.hl7.org/CodeSystem/observation-category",
          "code": "procedure",
          "display": "Procedure"
        } ]
      } ],
      "code": {
        "coding": [ {
          "system": "http://loinc.org",
          "code": "73832-8",
          "display": "Adult depression screening assessment",
          "userSelected": true
        } ]
      },
      "subject": {
        "reference": "Patient/82134291-214a-4e6e-9969-9ccb6df412f0"
      },
      "effectiveDateTime": "2026-06-15T08:00:00.000+00:00",
      "valueCodeableConcept": {
        "coding": [ {
          "system": "http://snomed.info/sct",
          "code": "428181000124104",
          "display": "Depression screening positive (finding)",
          "userSelected": true
        } ]
      }
    },
    "request": {
      "method": "PUT",
      "url": "Observation/6f49833b-0084-4f28-9862-3e48f2f1a6a8"
    }
  }, {
    "fullUrl": "https://madie.cms.gov/MedicationRequest/9f4ed9bd-0044-4358-add8-f59cc992a39c",
    "resource": {
      "resourceType": "MedicationRequest",
      "id": "9f4ed9bd-0044-4358-add8-f59cc992a39c",
      "meta": {
        "profile": [ "http://hl7.org/fhir/us/qicore/StructureDefinition/qicore-medicationrequest" ]
      },
      "status": "active",
      "intent": "order",
      "doNotPerform": false,
      "medicationCodeableConcept": {
        "coding": [ {
          "system": "http://www.nlm.nih.gov/research/umls/rxnorm",
          "code": "1000048",
          "display": "doxepin hydrochloride 10 MG Oral Capsule",
          "userSelected": true
        } ]
      },
      "subject": {
        "reference": "Patient/82134291-214a-4e6e-9969-9ccb6df412f0"
      },
      "authoredOn": "2026-06-21T08:00:00.000+00:00",
      "requester": {
        "reference": "Practitioner/123456"
      }
    },
    "request": {
      "method": "PUT",
      "url": "MedicationRequest/9f4ed9bd-0044-4358-add8-f59cc992a39c"
    }
  }, {
    "fullUrl": "https://madie.cms.gov/Procedure/704feae7-3ff2-4dd3-a23d-9497d0d800ea",
    "resource": {
      "resourceType": "Procedure",
      "id": "704feae7-3ff2-4dd3-a23d-9497d0d800ea",
      "meta": {
        "profile": [ "http://hl7.org/fhir/us/qicore/StructureDefinition/qicore-procedure" ]
      },
      "extension": [ {
        "url": "http://hl7.org/fhir/us/qicore/StructureDefinition/qicore-recorded",
        "valueDateTime": "2026-06-21T08:00:00.000+00:00"
      } ],
      "status": "completed",
      "code": {
        "coding": [ {
          "system": "http://snomed.info/sct",
          "version": "2021-09",
          "code": "108313002",
          "display": "Family psychotherapy procedure (regime/therapy)",
          "userSelected": true
        } ]
      },
      "subject": {
        "reference": "Patient/82134291-214a-4e6e-9969-9ccb6df412f0"
      },
      "performedDateTime": "2026-06-21T08:00:00.000+00:00"
    },
    "request": {
      "method": "PUT",
      "url": "Procedure/704feae7-3ff2-4dd3-a23d-9497d0d800ea"
    }
  }, {
    "fullUrl": "https://madie.cms.gov/Coverage/4c2a0536-4290-4b7c-bcd2-37c745148e9d",
    "resource": {
      "resourceType": "Coverage",
      "id": "4c2a0536-4290-4b7c-bcd2-37c745148e9d",
      "meta": {
        "profile": [ "http://hl7.org/fhir/us/qicore/StructureDefinition/qicore-coverage" ]
      },
      "status": "active",
      "beneficiary": {
        "reference": "Patient/82134291-214a-4e6e-9969-9ccb6df412f0"
      },
      "payor": [ {
        "reference": "Organization/0209decf-8402-416d-8328-13d940136ebd"
      } ]
    },
    "request": {
      "method": "PUT",
      "url": "Coverage/4c2a0536-4290-4b7c-bcd2-37c745148e9d"
    }
  }, {
    "fullUrl": "https://madie.cms.gov/Organization/0209decf-8402-416d-8328-13d940136ebd",
    "resource": {
      "resourceType": "Organization",
      "id": "0209decf-8402-416d-8328-13d940136ebd",
      "meta": {
        "profile": [ "http://hl7.org/fhir/us/qicore/StructureDefinition/qicore-organization" ]
      },
      "identifier": [ {
        "use": "temp",
        "system": "urn:oid:2.16.840.1.113883.4.4",
        "value": "21-3259825"
      } ],
      "active": true,
      "type": [ {
        "coding": [ {
          "system": "http://terminology.hl7.org/CodeSystem/organization-type",
          "code": "pay",
          "display": "Payer"
        } ]
      } ],
      "name": "Blue Cross Blue Shield of Texas",
      "telecom": [ {
        "system": "phone",
        "value": "(+1) 972-766-6900"
      } ],
      "address": [ {
        "use": "billing",
        "type": "postal",
        "line": [ "P.O. Box 660044" ],
        "city": "Dallas",
        "state": "TX",
        "postalCode": "75266-0044",
        "country": "USA"
      } ]
    },
    "request": {
      "method": "PUT",
      "url": "Organization/0209decf-8402-416d-8328-13d940136ebd"
    }
  }, {
    "fullUrl": "https://madie.cms.gov/Practitioner/b0c377b8-e770-4643-a0bb-ed2861cfc480",
    "resource": {
      "resourceType": "Practitioner",
      "id": "b0c377b8-e770-4643-a0bb-ed2861cfc480",
      "meta": {
        "profile": [ "http://hl7.org/fhir/us/qicore/StructureDefinition/qicore-practitioner" ]
      },
      "identifier": [ {
        "system": "http://hl7.org/fhir/sid/us-npi",
        "value": "123456"
      } ],
      "name": [ {
        "family": "Evil",
        "prefix": [ "Dr" ]
      } ]
    },
    "request": {
      "method": "PUT",
      "url": "Practitioner/b0c377b8-e770-4643-a0bb-ed2861cfc480"
    }
  }, {
    "fullUrl": "https://madie.cms.gov/MeasureReport/88429b00-d70e-4da6-ada2-cd32140e16c1",
    "resource": {
      "resourceType": "MeasureReport",
      "id": "88429b00-d70e-4da6-ada2-cd32140e16c1",
      "meta": {
        "profile": [ "http://hl7.org/fhir/us/cqfmeasures/StructureDefinition/test-case-cqfm" ]
      },
      "contained": [ {
        "resourceType": "Parameters",
        "id": "aefe2c3b-c38a-458d-9dc7-9ccf1ccee515-parameters",
        "parameter": [ {
          "name": "subject",
          "valueString": "82134291-214a-4e6e-9969-9ccb6df412f0"
        } ]
      } ],
      "extension": [ {
        "url": "http://hl7.org/fhir/StructureDefinition/cqf-inputParameters",
        "valueReference": {
          "reference": "#aefe2c3b-c38a-458d-9dc7-9ccf1ccee515-parameters"
        }
      }, {
        "url": "http://hl7.org/fhir/us/cqfmeasures/StructureDefinition/cqfm-testCaseDescription",
        "valueMarkdown": "Adult with previous positive adult depression screening and medication request follow up and counseling"
      } ],
      "modifierExtension": [ {
        "url": "http://hl7.org/fhir/us/cqfmeasures/StructureDefinition/cqfm-isTestCase",
        "valueBoolean": true
      } ],
      "status": "complete",
      "type": "individual",
      "measure": "https://madie.cms.gov/Measure/CMS2FHIRPCSDepressionScreenAndFollowUp",
      "period": {
        "start": "2026-01-01",
        "end": "2026-12-31"
      },
      "group": [ {
        "id": "Group_1",
        "population": [ {
          "id": "InitialPopulation_1",
          "code": {
            "coding": [ {
              "system": "http://terminology.hl7.org/CodeSystem/measure-population",
              "code": "initial-population",
              "display": "Initial Population"
            } ]
          },
          "count": 1
        }, {
          "id": "Denominator_1",
          "code": {
            "coding": [ {
              "system": "http://terminology.hl7.org/CodeSystem/measure-population",
              "code": "denominator",
              "display": "Denominator"
            } ]
          },
          "count": 1
        }, {
          "id": "DenominatorExclusion_1",
          "code": {
            "coding": [ {
              "system": "http://terminology.hl7.org/CodeSystem/measure-population",
              "code": "denominator-exclusion",
              "display": "Denominator Exclusion"
            } ]
          },
          "count": 0
        }, {
          "id": "Numerator_1",
          "code": {
            "coding": [ {
              "system": "http://terminology.hl7.org/CodeSystem/measure-population",
              "code": "numerator",
              "display": "Numerator"
            } ]
          },
          "count": 1
        }, {
          "id": "DenominatorException_1",
          "code": {
            "coding": [ {
              "system": "http://terminology.hl7.org/CodeSystem/measure-population",
              "code": "denominator-exception",
              "display": "Denominator Exception"
            } ]
          },
          "count": 0
        } ],
        "measureScore": {
          "value": 1.0
        }
      } ],
      "evaluatedResource": [ {
        "reference": "Patient/82134291-214a-4e6e-9969-9ccb6df412f0"
      }, {
        "reference": "Encounter/8c224480-c059-4639-863b-bf4b98fd6b9d"
      }, {
        "reference": "Observation/6f49833b-0084-4f28-9862-3e48f2f1a6a8"
      }, {
        "reference": "MedicationRequest/9f4ed9bd-0044-4358-add8-f59cc992a39c"
      }, {
        "reference": "Procedure/704feae7-3ff2-4dd3-a23d-9497d0d800ea"
      }, {
        "reference": "Coverage/4c2a0536-4290-4b7c-bcd2-37c745148e9d"
      }, {
        "reference": "Organization/0209decf-8402-416d-8328-13d940136ebd"
      }, {
        "reference": "Practitioner/b0c377b8-e770-4643-a0bb-ed2861cfc480"
      } ]
    },
    "request": {
      "method": "PUT",
      "url": "MeasureReport/88429b00-d70e-4da6-ada2-cd32140e16c1"
    }
  } ]
}