{
  "resourceType": "Bundle",
  "id": "62f684febc6a474306a95b43",
  "type": "transaction",
  "entry": [ {
    "fullUrl": "https://madie.cms.gov/Patient/75a5223a-3a62-418a-bcc6-4522cfe71726",
    "resource": {
      "resourceType": "Patient",
      "id": "75a5223a-3a62-418a-bcc6-4522cfe71726",
      "meta": {
        "profile": [ "http://hl7.org/fhir/us/qicore/StructureDefinition/qicore-patient" ]
      },
      "extension": [ {
        "url": "http://hl7.org/fhir/us/core/StructureDefinition/us-core-race",
        "extension": [ {
          "url": "ombCategory",
          "valueCoding": {
            "system": "urn:oid:2.16.840.1.113883.6.238",
            "code": "1002-5",
            "display": "American Indian or Alaska Native",
            "userSelected": true
          }
        }, {
          "url": "text",
          "valueString": "American Indian or Alaska Native"
        } ]
      }, {
        "url": "http://hl7.org/fhir/us/core/StructureDefinition/us-core-ethnicity",
        "extension": [ {
          "url": "ombCategory",
          "valueCoding": {
            "system": "urn:oid:2.16.840.1.113883.6.238",
            "code": "2135-2",
            "display": "Hispanic or Latino",
            "userSelected": true
          }
        }, {
          "url": "text",
          "valueString": "Hispanic or Latino"
        } ]
      } ],
      "identifier": [ {
        "type": {
          "coding": [ {
            "system": "http://terminology.hl7.org/CodeSystem/v2-0203",
            "code": "MR"
          } ]
        },
        "system": "https://bonnie-fhir.healthit.gov/",
        "value": "62f684febc6a474306a95b43"
      } ],
      "name": [ {
        "family": "NUMERPass",
        "given": [ "PosAdultDepScreenandFUWI2DAfterEndOfEnc" ]
      } ],
      "gender": "male",
      "birthDate": "2008-01-01"
    },
    "request": {
      "method": "PUT",
      "url": "Patient/75a5223a-3a62-418a-bcc6-4522cfe71726"
    }
  }, {
    "fullUrl": "https://madie.cms.gov/Encounter/e918b89d-08ee-46b0-bde6-ad79879faf90",
    "resource": {
      "resourceType": "Encounter",
      "id": "e918b89d-08ee-46b0-bde6-ad79879faf90",
      "meta": {
        "profile": [ "http://hl7.org/fhir/us/qicore/StructureDefinition/qicore-encounter" ]
      },
      "status": "finished",
      "class": {
        "system": "http://terminology.hl7.org/CodeSystem/v3-ActCode",
        "code": "AMB",
        "display": "ambulatory"
      },
      "type": [ {
        "coding": [ {
          "system": "http://snomed.info/sct",
          "version": "2021-09",
          "code": "10197000",
          "display": "Psychiatric interview and evaluation (procedure)",
          "userSelected": true
        } ]
      } ],
      "subject": {
        "reference": "Patient/75a5223a-3a62-418a-bcc6-4522cfe71726"
      },
      "period": {
        "start": "2026-06-21T08:00:00.000+00:00",
        "end": "2026-06-21T08:15:00.000+00:00"
      }
    },
    "request": {
      "method": "PUT",
      "url": "Encounter/e918b89d-08ee-46b0-bde6-ad79879faf90"
    }
  }, {
    "fullUrl": "https://madie.cms.gov/Observation/3d4452a8-7073-4cf7-9c48-be6d12c3cd04",
    "resource": {
      "resourceType": "Observation",
      "id": "3d4452a8-7073-4cf7-9c48-be6d12c3cd04",
      "meta": {
        "profile": [ "http://hl7.org/fhir/us/qicore/StructureDefinition/qicore-observation-screening-assessment" ]
      },
      "status": "final",
      "category": [ {
        "coding": [ {
          "system": "http://terminology.hl7.org/CodeSystem/observation-category",
          "code": "procedure",
          "display": "Procedure"
        } ]
      } ],
      "code": {
        "coding": [ {
          "system": "http://loinc.org",
          "code": "73832-8",
          "display": "Adult depression screening assessment",
          "userSelected": true
        } ]
      },
      "subject": {
        "reference": "Patient/75a5223a-3a62-418a-bcc6-4522cfe71726"
      },
      "effectiveDateTime": "2026-06-15T08:00:00.000+00:00",
      "valueCodeableConcept": {
        "coding": [ {
          "system": "http://snomed.info/sct",
          "code": "428181000124104",
          "display": "Depression screening positive (finding)",
          "userSelected": true
        } ]
      }
    },
    "request": {
      "method": "PUT",
      "url": "Observation/3d4452a8-7073-4cf7-9c48-be6d12c3cd04"
    }
  }, {
    "fullUrl": "https://madie.cms.gov/MedicationRequest/4eb4cc7e-6332-4f68-a5ac-f0843cc93e2c",
    "resource": {
      "resourceType": "MedicationRequest",
      "id": "4eb4cc7e-6332-4f68-a5ac-f0843cc93e2c",
      "meta": {
        "profile": [ "http://hl7.org/fhir/us/qicore/StructureDefinition/qicore-medicationrequest" ]
      },
      "status": "active",
      "intent": "order",
      "doNotPerform": false,
      "medicationCodeableConcept": {
        "coding": [ {
          "system": "http://www.nlm.nih.gov/research/umls/rxnorm",
          "code": "1000048",
          "display": "doxepin hydrochloride 10 MG Oral Capsule",
          "userSelected": true
        } ]
      },
      "subject": {
        "reference": "Patient/75a5223a-3a62-418a-bcc6-4522cfe71726"
      },
      "authoredOn": "2026-06-22T08:00:00.000+00:00",
      "requester": {
        "reference": "Practitioner/123456"
      }
    },
    "request": {
      "method": "PUT",
      "url": "MedicationRequest/4eb4cc7e-6332-4f68-a5ac-f0843cc93e2c"
    }
  }, {
    "fullUrl": "https://madie.cms.gov/Coverage/6faabd36-f178-47bf-8d57-287618d36ded",
    "resource": {
      "resourceType": "Coverage",
      "id": "6faabd36-f178-47bf-8d57-287618d36ded",
      "meta": {
        "profile": [ "http://hl7.org/fhir/us/qicore/StructureDefinition/qicore-coverage" ]
      },
      "status": "active",
      "beneficiary": {
        "reference": "Patient/75a5223a-3a62-418a-bcc6-4522cfe71726"
      },
      "payor": [ {
        "reference": "Organization/58e19311-28ee-44c0-9c46-06b61bcfbf4b"
      } ]
    },
    "request": {
      "method": "PUT",
      "url": "Coverage/6faabd36-f178-47bf-8d57-287618d36ded"
    }
  }, {
    "fullUrl": "https://madie.cms.gov/Organization/58e19311-28ee-44c0-9c46-06b61bcfbf4b",
    "resource": {
      "resourceType": "Organization",
      "id": "58e19311-28ee-44c0-9c46-06b61bcfbf4b",
      "meta": {
        "profile": [ "http://hl7.org/fhir/us/qicore/StructureDefinition/qicore-organization" ]
      },
      "identifier": [ {
        "use": "temp",
        "system": "urn:oid:2.16.840.1.113883.4.4",
        "value": "21-3259825"
      } ],
      "active": true,
      "type": [ {
        "coding": [ {
          "system": "http://terminology.hl7.org/CodeSystem/organization-type",
          "code": "pay",
          "display": "Payer"
        } ]
      } ],
      "name": "Blue Cross Blue Shield of Texas",
      "telecom": [ {
        "system": "phone",
        "value": "(+1) 972-766-6900"
      } ],
      "address": [ {
        "use": "billing",
        "type": "postal",
        "line": [ "P.O. Box 660044" ],
        "city": "Dallas",
        "state": "TX",
        "postalCode": "75266-0044",
        "country": "USA"
      } ]
    },
    "request": {
      "method": "PUT",
      "url": "Organization/58e19311-28ee-44c0-9c46-06b61bcfbf4b"
    }
  }, {
    "fullUrl": "https://madie.cms.gov/Practitioner/7310deeb-f3bb-45a1-9328-5b5baedc2b76",
    "resource": {
      "resourceType": "Practitioner",
      "id": "7310deeb-f3bb-45a1-9328-5b5baedc2b76",
      "meta": {
        "profile": [ "http://hl7.org/fhir/us/qicore/StructureDefinition/qicore-practitioner" ]
      },
      "identifier": [ {
        "system": "http://hl7.org/fhir/sid/us-npi",
        "value": "123456"
      } ],
      "name": [ {
        "family": "Evil",
        "prefix": [ "Dr" ]
      } ]
    },
    "request": {
      "method": "PUT",
      "url": "Practitioner/7310deeb-f3bb-45a1-9328-5b5baedc2b76"
    }
  }, {
    "fullUrl": "https://madie.cms.gov/MeasureReport/4a0d86f1-e7d5-4858-a541-da92afb22b51",
    "resource": {
      "resourceType": "MeasureReport",
      "id": "4a0d86f1-e7d5-4858-a541-da92afb22b51",
      "meta": {
        "profile": [ "http://hl7.org/fhir/us/cqfmeasures/StructureDefinition/test-case-cqfm" ]
      },
      "contained": [ {
        "resourceType": "Parameters",
        "id": "bb3fa95b-aa8e-447f-b995-85666193acc4-parameters",
        "parameter": [ {
          "name": "subject",
          "valueString": "75a5223a-3a62-418a-bcc6-4522cfe71726"
        } ]
      } ],
      "extension": [ {
        "url": "http://hl7.org/fhir/StructureDefinition/cqf-inputParameters",
        "valueReference": {
          "reference": "#bb3fa95b-aa8e-447f-b995-85666193acc4-parameters"
        }
      }, {
        "url": "http://hl7.org/fhir/us/cqfmeasures/StructureDefinition/cqfm-testCaseDescription",
        "valueMarkdown": "Adult with previous positive adult depression screening and medication request follow up within 2 days after end of encounter"
      } ],
      "modifierExtension": [ {
        "url": "http://hl7.org/fhir/us/cqfmeasures/StructureDefinition/cqfm-isTestCase",
        "valueBoolean": true
      } ],
      "status": "complete",
      "type": "individual",
      "measure": "https://madie.cms.gov/Measure/CMS2FHIRPCSDepressionScreenAndFollowUp",
      "period": {
        "start": "2026-01-01",
        "end": "2026-12-31"
      },
      "group": [ {
        "id": "Group_1",
        "population": [ {
          "id": "InitialPopulation_1",
          "code": {
            "coding": [ {
              "system": "http://terminology.hl7.org/CodeSystem/measure-population",
              "code": "initial-population",
              "display": "Initial Population"
            } ]
          },
          "count": 1
        }, {
          "id": "Denominator_1",
          "code": {
            "coding": [ {
              "system": "http://terminology.hl7.org/CodeSystem/measure-population",
              "code": "denominator",
              "display": "Denominator"
            } ]
          },
          "count": 1
        }, {
          "id": "DenominatorExclusion_1",
          "code": {
            "coding": [ {
              "system": "http://terminology.hl7.org/CodeSystem/measure-population",
              "code": "denominator-exclusion",
              "display": "Denominator Exclusion"
            } ]
          },
          "count": 0
        }, {
          "id": "Numerator_1",
          "code": {
            "coding": [ {
              "system": "http://terminology.hl7.org/CodeSystem/measure-population",
              "code": "numerator",
              "display": "Numerator"
            } ]
          },
          "count": 1
        }, {
          "id": "DenominatorException_1",
          "code": {
            "coding": [ {
              "system": "http://terminology.hl7.org/CodeSystem/measure-population",
              "code": "denominator-exception",
              "display": "Denominator Exception"
            } ]
          },
          "count": 0
        } ],
        "measureScore": {
          "value": 1.0
        }
      } ],
      "evaluatedResource": [ {
        "reference": "Patient/75a5223a-3a62-418a-bcc6-4522cfe71726"
      }, {
        "reference": "Encounter/e918b89d-08ee-46b0-bde6-ad79879faf90"
      }, {
        "reference": "Observation/3d4452a8-7073-4cf7-9c48-be6d12c3cd04"
      }, {
        "reference": "MedicationRequest/4eb4cc7e-6332-4f68-a5ac-f0843cc93e2c"
      }, {
        "reference": "Coverage/6faabd36-f178-47bf-8d57-287618d36ded"
      }, {
        "reference": "Organization/58e19311-28ee-44c0-9c46-06b61bcfbf4b"
      }, {
        "reference": "Practitioner/7310deeb-f3bb-45a1-9328-5b5baedc2b76"
      } ]
    },
    "request": {
      "method": "PUT",
      "url": "MeasureReport/4a0d86f1-e7d5-4858-a541-da92afb22b51"
    }
  } ]
}