{
  "resourceType": "Bundle",
  "id": "62b1e0cb3968556e5150cf3a",
  "type": "transaction",
  "entry": [ {
    "fullUrl": "https://madie.cms.gov/Patient/d5f7630a-6fcf-4cfc-ba20-dfd5ee88af9a",
    "resource": {
      "resourceType": "Patient",
      "id": "d5f7630a-6fcf-4cfc-ba20-dfd5ee88af9a",
      "meta": {
        "profile": [ "http://hl7.org/fhir/us/qicore/StructureDefinition/qicore-patient" ]
      },
      "extension": [ {
        "url": "http://hl7.org/fhir/us/core/StructureDefinition/us-core-race",
        "extension": [ {
          "url": "ombCategory",
          "valueCoding": {
            "system": "urn:oid:2.16.840.1.113883.6.238",
            "code": "1002-5",
            "display": "American Indian or Alaska Native",
            "userSelected": true
          }
        }, {
          "url": "text",
          "valueString": "American Indian or Alaska Native"
        } ]
      }, {
        "url": "http://hl7.org/fhir/us/core/StructureDefinition/us-core-ethnicity",
        "extension": [ {
          "url": "ombCategory",
          "valueCoding": {
            "system": "urn:oid:2.16.840.1.113883.6.238",
            "code": "2135-2",
            "display": "Hispanic or Latino",
            "userSelected": true
          }
        }, {
          "url": "text",
          "valueString": "Hispanic or Latino"
        } ]
      } ],
      "identifier": [ {
        "type": {
          "coding": [ {
            "system": "http://terminology.hl7.org/CodeSystem/v2-0203",
            "code": "MR"
          } ]
        },
        "system": "https://bonnie-fhir.healthit.gov/",
        "value": "62b1e0cb3968556e5150cf3a"
      } ],
      "name": [ {
        "family": "NUMERPass",
        "given": [ "12yoPosAdolDepScreenandFollowUpPrescription" ]
      } ],
      "gender": "male",
      "birthDate": "2014-01-01"
    },
    "request": {
      "method": "PUT",
      "url": "Patient/d5f7630a-6fcf-4cfc-ba20-dfd5ee88af9a"
    }
  }, {
    "fullUrl": "https://madie.cms.gov/Encounter/ef2f2525-289a-4934-a88c-3dfea95b790f",
    "resource": {
      "resourceType": "Encounter",
      "id": "ef2f2525-289a-4934-a88c-3dfea95b790f",
      "meta": {
        "profile": [ "http://hl7.org/fhir/us/qicore/StructureDefinition/qicore-encounter" ]
      },
      "status": "finished",
      "class": {
        "system": "http://terminology.hl7.org/CodeSystem/v3-ActCode",
        "code": "AMB",
        "display": "ambulatory"
      },
      "type": [ {
        "coding": [ {
          "system": "http://snomed.info/sct",
          "version": "2021-09",
          "code": "10197000",
          "display": "Psychiatric interview and evaluation (procedure)",
          "userSelected": true
        } ]
      } ],
      "subject": {
        "reference": "Patient/d5f7630a-6fcf-4cfc-ba20-dfd5ee88af9a"
      },
      "period": {
        "start": "2026-06-21T08:00:00.000+00:00",
        "end": "2026-06-21T08:15:00.000+00:00"
      }
    },
    "request": {
      "method": "PUT",
      "url": "Encounter/ef2f2525-289a-4934-a88c-3dfea95b790f"
    }
  }, {
    "fullUrl": "https://madie.cms.gov/Observation/2d921f68-e079-4008-b6b4-d3c2f8b1a99c",
    "resource": {
      "resourceType": "Observation",
      "id": "2d921f68-e079-4008-b6b4-d3c2f8b1a99c",
      "meta": {
        "profile": [ "http://hl7.org/fhir/us/qicore/StructureDefinition/qicore-observation-screening-assessment" ]
      },
      "status": "final",
      "category": [ {
        "coding": [ {
          "system": "http://terminology.hl7.org/CodeSystem/observation-category",
          "code": "procedure",
          "display": "Procedure"
        } ]
      } ],
      "code": {
        "coding": [ {
          "system": "http://loinc.org",
          "code": "73831-0",
          "display": "Adolescent depression screening assessment",
          "userSelected": true
        } ]
      },
      "subject": {
        "reference": "Patient/d5f7630a-6fcf-4cfc-ba20-dfd5ee88af9a"
      },
      "effectiveDateTime": "2026-06-15T08:00:00.000+00:00",
      "valueCodeableConcept": {
        "coding": [ {
          "system": "http://snomed.info/sct",
          "code": "428181000124104",
          "display": "Depression screening positive (finding)",
          "userSelected": true
        } ]
      }
    },
    "request": {
      "method": "PUT",
      "url": "Observation/2d921f68-e079-4008-b6b4-d3c2f8b1a99c"
    }
  }, {
    "fullUrl": "https://madie.cms.gov/MedicationRequest/ad466151-fa65-4fcd-9468-0cfa54411c20",
    "resource": {
      "resourceType": "MedicationRequest",
      "id": "ad466151-fa65-4fcd-9468-0cfa54411c20",
      "meta": {
        "profile": [ "http://hl7.org/fhir/us/qicore/StructureDefinition/qicore-medicationrequest" ]
      },
      "status": "active",
      "intent": "order",
      "doNotPerform": false,
      "medicationCodeableConcept": {
        "coding": [ {
          "system": "http://www.nlm.nih.gov/research/umls/rxnorm",
          "code": "1190110",
          "display": "fluoxetine 60 MG Oral Tablet",
          "userSelected": true
        } ]
      },
      "subject": {
        "reference": "Patient/d5f7630a-6fcf-4cfc-ba20-dfd5ee88af9a"
      },
      "authoredOn": "2026-06-21T08:00:00.000+00:00",
      "requester": {
        "reference": "Practitioner/123456"
      }
    },
    "request": {
      "method": "PUT",
      "url": "MedicationRequest/ad466151-fa65-4fcd-9468-0cfa54411c20"
    }
  }, {
    "fullUrl": "https://madie.cms.gov/Coverage/a4b5b480-cd79-4e7e-823b-18ef572a75d2",
    "resource": {
      "resourceType": "Coverage",
      "id": "a4b5b480-cd79-4e7e-823b-18ef572a75d2",
      "meta": {
        "profile": [ "http://hl7.org/fhir/us/qicore/StructureDefinition/qicore-coverage" ]
      },
      "status": "active",
      "beneficiary": {
        "reference": "Patient/d5f7630a-6fcf-4cfc-ba20-dfd5ee88af9a"
      },
      "payor": [ {
        "reference": "Organization/f85a7e54-f5ec-432b-b4e5-1100445bb3af"
      } ]
    },
    "request": {
      "method": "PUT",
      "url": "Coverage/a4b5b480-cd79-4e7e-823b-18ef572a75d2"
    }
  }, {
    "fullUrl": "https://madie.cms.gov/Organization/f85a7e54-f5ec-432b-b4e5-1100445bb3af",
    "resource": {
      "resourceType": "Organization",
      "id": "f85a7e54-f5ec-432b-b4e5-1100445bb3af",
      "meta": {
        "profile": [ "http://hl7.org/fhir/us/qicore/StructureDefinition/qicore-organization" ]
      },
      "identifier": [ {
        "use": "temp",
        "system": "urn:oid:2.16.840.1.113883.4.4",
        "value": "21-3259825"
      } ],
      "active": true,
      "type": [ {
        "coding": [ {
          "system": "http://terminology.hl7.org/CodeSystem/organization-type",
          "code": "pay",
          "display": "Payer"
        } ]
      } ],
      "name": "Blue Cross Blue Shield of Texas",
      "telecom": [ {
        "system": "phone",
        "value": "(+1) 972-766-6900"
      } ],
      "address": [ {
        "use": "billing",
        "type": "postal",
        "line": [ "P.O. Box 660044" ],
        "city": "Dallas",
        "state": "TX",
        "postalCode": "75266-0044",
        "country": "USA"
      } ]
    },
    "request": {
      "method": "PUT",
      "url": "Organization/f85a7e54-f5ec-432b-b4e5-1100445bb3af"
    }
  }, {
    "fullUrl": "https://madie.cms.gov/Practitioner/2f6ab443-468d-42c8-85f8-43e29b6f1f7c",
    "resource": {
      "resourceType": "Practitioner",
      "id": "2f6ab443-468d-42c8-85f8-43e29b6f1f7c",
      "meta": {
        "profile": [ "http://hl7.org/fhir/us/qicore/StructureDefinition/qicore-practitioner" ]
      },
      "identifier": [ {
        "system": "http://hl7.org/fhir/sid/us-npi",
        "value": "123456"
      } ],
      "name": [ {
        "family": "Evil",
        "prefix": [ "Dr" ]
      } ]
    },
    "request": {
      "method": "PUT",
      "url": "Practitioner/2f6ab443-468d-42c8-85f8-43e29b6f1f7c"
    }
  }, {
    "fullUrl": "https://madie.cms.gov/MeasureReport/dc775c56-0e95-4afd-a087-06f3564570c0",
    "resource": {
      "resourceType": "MeasureReport",
      "id": "dc775c56-0e95-4afd-a087-06f3564570c0",
      "meta": {
        "profile": [ "http://hl7.org/fhir/us/cqfmeasures/StructureDefinition/test-case-cqfm" ]
      },
      "contained": [ {
        "resourceType": "Parameters",
        "id": "aeee60ac-b817-4478-8333-e1b03eda08bf-parameters",
        "parameter": [ {
          "name": "subject",
          "valueString": "d5f7630a-6fcf-4cfc-ba20-dfd5ee88af9a"
        } ]
      } ],
      "extension": [ {
        "url": "http://hl7.org/fhir/StructureDefinition/cqf-inputParameters",
        "valueReference": {
          "reference": "#aeee60ac-b817-4478-8333-e1b03eda08bf-parameters"
        }
      }, {
        "url": "http://hl7.org/fhir/us/cqfmeasures/StructureDefinition/cqfm-testCaseDescription",
        "valueMarkdown": "12yo with previous positive adolescent depression screening and medication request follow up"
      } ],
      "modifierExtension": [ {
        "url": "http://hl7.org/fhir/us/cqfmeasures/StructureDefinition/cqfm-isTestCase",
        "valueBoolean": true
      } ],
      "status": "complete",
      "type": "individual",
      "measure": "https://madie.cms.gov/Measure/CMS2FHIRPCSDepressionScreenAndFollowUp",
      "period": {
        "start": "2026-01-01",
        "end": "2026-12-31"
      },
      "group": [ {
        "id": "Group_1",
        "population": [ {
          "id": "InitialPopulation_1",
          "code": {
            "coding": [ {
              "system": "http://terminology.hl7.org/CodeSystem/measure-population",
              "code": "initial-population",
              "display": "Initial Population"
            } ]
          },
          "count": 1
        }, {
          "id": "Denominator_1",
          "code": {
            "coding": [ {
              "system": "http://terminology.hl7.org/CodeSystem/measure-population",
              "code": "denominator",
              "display": "Denominator"
            } ]
          },
          "count": 1
        }, {
          "id": "DenominatorExclusion_1",
          "code": {
            "coding": [ {
              "system": "http://terminology.hl7.org/CodeSystem/measure-population",
              "code": "denominator-exclusion",
              "display": "Denominator Exclusion"
            } ]
          },
          "count": 0
        }, {
          "id": "Numerator_1",
          "code": {
            "coding": [ {
              "system": "http://terminology.hl7.org/CodeSystem/measure-population",
              "code": "numerator",
              "display": "Numerator"
            } ]
          },
          "count": 1
        }, {
          "id": "DenominatorException_1",
          "code": {
            "coding": [ {
              "system": "http://terminology.hl7.org/CodeSystem/measure-population",
              "code": "denominator-exception",
              "display": "Denominator Exception"
            } ]
          },
          "count": 0
        } ],
        "measureScore": {
          "value": 1.0
        }
      } ],
      "evaluatedResource": [ {
        "reference": "Patient/d5f7630a-6fcf-4cfc-ba20-dfd5ee88af9a"
      }, {
        "reference": "Encounter/ef2f2525-289a-4934-a88c-3dfea95b790f"
      }, {
        "reference": "Observation/2d921f68-e079-4008-b6b4-d3c2f8b1a99c"
      }, {
        "reference": "MedicationRequest/ad466151-fa65-4fcd-9468-0cfa54411c20"
      }, {
        "reference": "Coverage/a4b5b480-cd79-4e7e-823b-18ef572a75d2"
      }, {
        "reference": "Organization/f85a7e54-f5ec-432b-b4e5-1100445bb3af"
      }, {
        "reference": "Practitioner/2f6ab443-468d-42c8-85f8-43e29b6f1f7c"
      } ]
    },
    "request": {
      "method": "PUT",
      "url": "MeasureReport/dc775c56-0e95-4afd-a087-06f3564570c0"
    }
  } ]
}