{"resourceType":"Bundle","id":"tests-15ad723f-b561-4cdd-9a11-7e6619780459-bundle","type":"transaction","entry":[{"fullUrl":"Encounter/0f8f4a23-fb67-4909-bd54-9180e9a23fdb","resource":{"resourceType":"Encounter","id":"0f8f4a23-fb67-4909-bd54-9180e9a23fdb","meta":{"profile":["http://hl7.org/fhir/us/qicore/StructureDefinition/qicore-encounter"]},"status":"finished","class":{"system":"http://terminology.hl7.org/CodeSystem/v3-ActCode","code":"AMB","display":"ambulatory"},"type":[{"coding":[{"system":"http://snomed.info/sct","version":"2021-09","code":"10197000","display":"Psychiatric interview and evaluation (procedure)","userSelected":true}]}],"subject":{"reference":"Patient/15ad723f-b561-4cdd-9a11-7e6619780459"},"period":{"start":"2026-06-21T08:00:00.000+00:00","end":"2026-06-21T08:15:00.000+00:00"}},"request":{"method":"PUT","url":"Encounter/0f8f4a23-fb67-4909-bd54-9180e9a23fdb"}},{"fullUrl":"Bundle/62b1e15a3968556e5150cf3b","resource":{"resourceType":"Bundle","id":"62b1e15a3968556e5150cf3b","type":"transaction","entry":[{"fullUrl":"https://madie.cms.gov/Patient/15ad723f-b561-4cdd-9a11-7e6619780459","resource":{"resourceType":"Patient","id":"15ad723f-b561-4cdd-9a11-7e6619780459","meta":{"profile":["http://hl7.org/fhir/us/qicore/StructureDefinition/qicore-patient"]},"extension":[{"url":"http://hl7.org/fhir/us/core/StructureDefinition/us-core-race","extension":[{"url":"ombCategory","valueCoding":{"system":"urn:oid:2.16.840.1.113883.6.238","code":"1002-5","display":"American Indian or Alaska Native","userSelected":true}},{"url":"text","valueString":"American Indian or Alaska Native"}]},{"url":"http://hl7.org/fhir/us/core/StructureDefinition/us-core-ethnicity","extension":[{"url":"ombCategory","valueCoding":{"system":"urn:oid:2.16.840.1.113883.6.238","code":"2135-2","display":"Hispanic or Latino","userSelected":true}},{"url":"text","valueString":"Hispanic or Latino"}]},{"url":"http://hl7.org/fhir/us/core/StructureDefinition/us-core-sex","valueCode":"248152002"}],"identifier":[{"type":{"coding":[{"system":"http://terminology.hl7.org/CodeSystem/v2-0203","code":"MR"}]},"system":"https://bonnie-fhir.healthit.gov/","value":"62b1e15a3968556e5150cf3b"}],"name":[{"family":"DENOMEXPass","given":["AdultHistoryOfBipolarActive"]}],"gender":"female","birthDate":"2008-01-01"},"request":{"method":"PUT","url":"Patient/15ad723f-b561-4cdd-9a11-7e6619780459"}},{"fullUrl":"https://madie.cms.gov/Encounter/0f8f4a23-fb67-4909-bd54-9180e9a23fdb","resource":{"resourceType":"Encounter","id":"0f8f4a23-fb67-4909-bd54-9180e9a23fdb","meta":{"profile":["http://hl7.org/fhir/us/qicore/StructureDefinition/qicore-encounter"]},"status":"finished","class":{"system":"http://terminology.hl7.org/CodeSystem/v3-ActCode","code":"AMB","display":"ambulatory"},"type":[{"coding":[{"system":"http://snomed.info/sct","version":"2021-09","code":"10197000","display":"Psychiatric interview and evaluation (procedure)","userSelected":true}]}],"subject":{"reference":"Patient/15ad723f-b561-4cdd-9a11-7e6619780459"},"period":{"start":"2026-06-21T08:00:00.000+00:00","end":"2026-06-21T08:15:00.000+00:00"}},"request":{"method":"PUT","url":"Encounter/0f8f4a23-fb67-4909-bd54-9180e9a23fdb"}},{"fullUrl":"https://madie.cms.gov/Condition/0eab7013-0907-4aed-85e1-e86d2138bff6","resource":{"resourceType":"Condition","id":"0eab7013-0907-4aed-85e1-e86d2138bff6","meta":{"profile":["http://hl7.org/fhir/us/qicore/StructureDefinition/qicore-condition-problems-health-concerns"]},"clinicalStatus":{"coding":[{"system":"http://terminology.hl7.org/CodeSystem/condition-clinical","code":"active","display":"active","userSelected":true}]},"category":[{"coding":[{"system":"http://terminology.hl7.org/CodeSystem/condition-category","code":"problem-list-item","display":"Problem List Item"}]}],"code":{"coding":[{"system":"http://snomed.info/sct","version":"2021-09","code":"10875004","display":"Severe mixed bipolar I disorder with psychotic features, mood-incongruent (disorder)","userSelected":true}]},"subject":{"reference":"Patient/15ad723f-b561-4cdd-9a11-7e6619780459"},"onsetDateTime":"2026-06-15T08:00:00.000+00:00"},"request":{"method":"PUT","url":"Condition/0eab7013-0907-4aed-85e1-e86d2138bff6"}},{"fullUrl":"https://madie.cms.gov/Coverage/e374b26d-3ab4-486f-9c22-beb2291d6a30","resource":{"resourceType":"Coverage","id":"e374b26d-3ab4-486f-9c22-beb2291d6a30","meta":{"profile":["http://hl7.org/fhir/us/qicore/StructureDefinition/qicore-coverage"]},"status":"active","beneficiary":{"reference":"Patient/15ad723f-b561-4cdd-9a11-7e6619780459"},"payor":[{"reference":"Organization/49feedd8-9ee6-4b52-8700-1971adb686de"}]},"request":{"method":"PUT","url":"Coverage/e374b26d-3ab4-486f-9c22-beb2291d6a30"}},{"fullUrl":"https://madie.cms.gov/Organization/49feedd8-9ee6-4b52-8700-1971adb686de","resource":{"resourceType":"Organization","id":"49feedd8-9ee6-4b52-8700-1971adb686de","meta":{"profile":["http://hl7.org/fhir/us/qicore/StructureDefinition/qicore-organization"]},"identifier":[{"use":"temp","system":"urn:oid:2.16.840.1.113883.4.4","value":"21-3259825"}],"active":true,"type":[{"coding":[{"system":"http://terminology.hl7.org/CodeSystem/organization-type","code":"pay","display":"Payer"}]}],"name":"Blue Cross Blue Shield of Texas","telecom":[{"system":"phone","value":"(+1) 972-766-6900"}],"address":[{"use":"billing","type":"postal","line":["P.O. Box 660044"],"city":"Dallas","state":"TX","postalCode":"75266-0044","country":"USA"}]},"request":{"method":"PUT","url":"Organization/49feedd8-9ee6-4b52-8700-1971adb686de"}},{"fullUrl":"https://madie.cms.gov/Practitioner/a660a8b1-6b84-4764-b2e9-92f471470ccc","resource":{"resourceType":"Practitioner","id":"a660a8b1-6b84-4764-b2e9-92f471470ccc","meta":{"profile":["http://hl7.org/fhir/us/qicore/StructureDefinition/qicore-practitioner"]},"identifier":[{"system":"http://hl7.org/fhir/sid/us-npi","value":"123456"}],"name":[{"family":"Evil","prefix":["Dr"]}]},"request":{"method":"PUT","url":"Practitioner/a660a8b1-6b84-4764-b2e9-92f471470ccc"}},{"fullUrl":"https://madie.cms.gov/MeasureReport/f4dbf83b-d14a-48a1-a8c4-5a03720d4f23","resource":{"resourceType":"MeasureReport","id":"f4dbf83b-d14a-48a1-a8c4-5a03720d4f23","meta":{"profile":["http://hl7.org/fhir/us/cqfmeasures/StructureDefinition/test-case-cqfm"]},"contained":[{"resourceType":"Parameters","id":"14924f90-5a3f-467e-b910-5cdb000d6885-parameters","parameter":[{"name":"subject","valueString":"15ad723f-b561-4cdd-9a11-7e6619780459"}]}],"extension":[{"url":"http://hl7.org/fhir/StructureDefinition/cqf-inputParameters","valueReference":{"reference":"#14924f90-5a3f-467e-b910-5cdb000d6885-parameters"}},{"url":"http://hl7.org/fhir/us/cqfmeasures/StructureDefinition/cqfm-testCaseDescription","valueMarkdown":"18 yo patient with history of bipolar - active"}],"modifierExtension":[{"url":"http://hl7.org/fhir/us/cqfmeasures/StructureDefinition/cqfm-isTestCase","valueBoolean":true}],"status":"complete","type":"individual","measure":"https://madie.cms.gov/Measure/CMS2FHIRPCSDepressionScreenAndFollowUp","period":{"start":"2026-01-01","end":"2026-12-31"},"group":[{"id":"Group_1","population":[{"id":"InitialPopulation_1","code":{"coding":[{"system":"http://terminology.hl7.org/CodeSystem/measure-population","code":"initial-population","display":"Initial Population"}]},"count":1},{"id":"Denominator_1","code":{"coding":[{"system":"http://terminology.hl7.org/CodeSystem/measure-population","code":"denominator","display":"Denominator"}]},"count":1},{"id":"DenominatorExclusion_1","code":{"coding":[{"system":"http://terminology.hl7.org/CodeSystem/measure-population","code":"denominator-exclusion","display":"Denominator Exclusion"}]},"count":1},{"id":"Numerator_1","code":{"coding":[{"system":"http://terminology.hl7.org/CodeSystem/measure-population","code":"numerator","display":"Numerator"}]},"count":0},{"id":"DenominatorException_1","code":{"coding":[{"system":"http://terminology.hl7.org/CodeSystem/measure-population","code":"denominator-exception","display":"Denominator Exception"}]},"count":0}],"measureScore":{"value":1.0}}],"evaluatedResource":[{"reference":"Patient/15ad723f-b561-4cdd-9a11-7e6619780459"},{"reference":"Encounter/0f8f4a23-fb67-4909-bd54-9180e9a23fdb"},{"reference":"Condition/0eab7013-0907-4aed-85e1-e86d2138bff6"},{"reference":"Coverage/e374b26d-3ab4-486f-9c22-beb2291d6a30"},{"reference":"Organization/49feedd8-9ee6-4b52-8700-1971adb686de"},{"reference":"Practitioner/a660a8b1-6b84-4764-b2e9-92f471470ccc"}]},"request":{"method":"PUT","url":"MeasureReport/f4dbf83b-d14a-48a1-a8c4-5a03720d4f23"}}]},"request":{"method":"PUT","url":"Bundle/62b1e15a3968556e5150cf3b"}},{"fullUrl":"Practitioner/a660a8b1-6b84-4764-b2e9-92f471470ccc","resource":{"resourceType":"Practitioner","id":"a660a8b1-6b84-4764-b2e9-92f471470ccc","meta":{"profile":["http://hl7.org/fhir/us/qicore/StructureDefinition/qicore-practitioner"]},"identifier":[{"system":"http://hl7.org/fhir/sid/us-npi","value":"123456"}],"name":[{"family":"Evil","prefix":["Dr"]}]},"request":{"method":"PUT","url":"Practitioner/a660a8b1-6b84-4764-b2e9-92f471470ccc"}},{"fullUrl":"Coverage/e374b26d-3ab4-486f-9c22-beb2291d6a30","resource":{"resourceType":"Coverage","id":"e374b26d-3ab4-486f-9c22-beb2291d6a30","meta":{"profile":["http://hl7.org/fhir/us/qicore/StructureDefinition/qicore-coverage"]},"status":"active","beneficiary":{"reference":"Patient/15ad723f-b561-4cdd-9a11-7e6619780459"},"payor":[{"reference":"Organization/49feedd8-9ee6-4b52-8700-1971adb686de"}]},"request":{"method":"PUT","url":"Coverage/e374b26d-3ab4-486f-9c22-beb2291d6a30"}},{"fullUrl":"Organization/49feedd8-9ee6-4b52-8700-1971adb686de","resource":{"resourceType":"Organization","id":"49feedd8-9ee6-4b52-8700-1971adb686de","meta":{"profile":["http://hl7.org/fhir/us/qicore/StructureDefinition/qicore-organization"]},"identifier":[{"use":"temp","system":"urn:oid:2.16.840.1.113883.4.4","value":"21-3259825"}],"active":true,"type":[{"coding":[{"system":"http://terminology.hl7.org/CodeSystem/organization-type","code":"pay","display":"Payer"}]}],"name":"Blue Cross Blue Shield of Texas","telecom":[{"system":"phone","value":"(+1) 972-766-6900"}],"address":[{"use":"billing","type":"postal","line":["P.O. Box 660044"],"city":"Dallas","state":"TX","postalCode":"75266-0044","country":"USA"}]},"request":{"method":"PUT","url":"Organization/49feedd8-9ee6-4b52-8700-1971adb686de"}},{"fullUrl":"Condition/0eab7013-0907-4aed-85e1-e86d2138bff6","resource":{"resourceType":"Condition","id":"0eab7013-0907-4aed-85e1-e86d2138bff6","meta":{"profile":["http://hl7.org/fhir/us/qicore/StructureDefinition/qicore-condition-problems-health-concerns"]},"clinicalStatus":{"coding":[{"system":"http://terminology.hl7.org/CodeSystem/condition-clinical","code":"active","display":"active","userSelected":true}]},"category":[{"coding":[{"system":"http://terminology.hl7.org/CodeSystem/condition-category","code":"problem-list-item","display":"Problem List Item"}]}],"code":{"coding":[{"system":"http://snomed.info/sct","version":"2021-09","code":"10875004","display":"Severe mixed bipolar I disorder with psychotic features, mood-incongruent (disorder)","userSelected":true}]},"subject":{"reference":"Patient/15ad723f-b561-4cdd-9a11-7e6619780459"},"onsetDateTime":"2026-06-15T08:00:00.000+00:00"},"request":{"method":"PUT","url":"Condition/0eab7013-0907-4aed-85e1-e86d2138bff6"}},{"fullUrl":"MeasureReport/f4dbf83b-d14a-48a1-a8c4-5a03720d4f23","resource":{"resourceType":"MeasureReport","id":"f4dbf83b-d14a-48a1-a8c4-5a03720d4f23","meta":{"profile":["http://hl7.org/fhir/us/cqfmeasures/StructureDefinition/test-case-cqfm"]},"contained":[{"resourceType":"Parameters","id":"14924f90-5a3f-467e-b910-5cdb000d6885-parameters","parameter":[{"name":"subject","valueString":"15ad723f-b561-4cdd-9a11-7e6619780459"}]}],"extension":[{"url":"http://hl7.org/fhir/StructureDefinition/cqf-inputParameters","valueReference":{"reference":"#14924f90-5a3f-467e-b910-5cdb000d6885-parameters"}},{"url":"http://hl7.org/fhir/us/cqfmeasures/StructureDefinition/cqfm-testCaseDescription","valueMarkdown":"18 yo patient with history of bipolar - active"}],"modifierExtension":[{"url":"http://hl7.org/fhir/us/cqfmeasures/StructureDefinition/cqfm-isTestCase","valueBoolean":true}],"status":"complete","type":"individual","measure":"https://madie.cms.gov/Measure/CMS2FHIRPCSDepressionScreenAndFollowUp","period":{"start":"2026-01-01","end":"2026-12-31"},"group":[{"id":"Group_1","population":[{"id":"InitialPopulation_1","code":{"coding":[{"system":"http://terminology.hl7.org/CodeSystem/measure-population","code":"initial-population","display":"Initial Population"}]},"count":1},{"id":"Denominator_1","code":{"coding":[{"system":"http://terminology.hl7.org/CodeSystem/measure-population","code":"denominator","display":"Denominator"}]},"count":1},{"id":"DenominatorExclusion_1","code":{"coding":[{"system":"http://terminology.hl7.org/CodeSystem/measure-population","code":"denominator-exclusion","display":"Denominator Exclusion"}]},"count":1},{"id":"Numerator_1","code":{"coding":[{"system":"http://terminology.hl7.org/CodeSystem/measure-population","code":"numerator","display":"Numerator"}]},"count":0},{"id":"DenominatorException_1","code":{"coding":[{"system":"http://terminology.hl7.org/CodeSystem/measure-population","code":"denominator-exception","display":"Denominator Exception"}]},"count":0}],"measureScore":{"value":1.0}}],"evaluatedResource":[{"reference":"Patient/15ad723f-b561-4cdd-9a11-7e6619780459"},{"reference":"Encounter/0f8f4a23-fb67-4909-bd54-9180e9a23fdb"},{"reference":"Condition/0eab7013-0907-4aed-85e1-e86d2138bff6"},{"reference":"Coverage/e374b26d-3ab4-486f-9c22-beb2291d6a30"},{"reference":"Organization/49feedd8-9ee6-4b52-8700-1971adb686de"},{"reference":"Practitioner/a660a8b1-6b84-4764-b2e9-92f471470ccc"}]},"request":{"method":"PUT","url":"MeasureReport/f4dbf83b-d14a-48a1-a8c4-5a03720d4f23"}},{"fullUrl":"Patient/15ad723f-b561-4cdd-9a11-7e6619780459","resource":{"resourceType":"Patient","id":"15ad723f-b561-4cdd-9a11-7e6619780459","meta":{"profile":["http://hl7.org/fhir/us/qicore/StructureDefinition/qicore-patient"]},"extension":[{"url":"http://hl7.org/fhir/us/core/StructureDefinition/us-core-race","extension":[{"url":"ombCategory","valueCoding":{"system":"urn:oid:2.16.840.1.113883.6.238","code":"1002-5","display":"American Indian or Alaska Native","userSelected":true}},{"url":"text","valueString":"American Indian or Alaska Native"}]},{"url":"http://hl7.org/fhir/us/core/StructureDefinition/us-core-ethnicity","extension":[{"url":"ombCategory","valueCoding":{"system":"urn:oid:2.16.840.1.113883.6.238","code":"2135-2","display":"Hispanic or Latino","userSelected":true}},{"url":"text","valueString":"Hispanic or Latino"}]},{"url":"http://hl7.org/fhir/us/core/StructureDefinition/us-core-sex","valueCode":"248152002"}],"identifier":[{"type":{"coding":[{"system":"http://terminology.hl7.org/CodeSystem/v2-0203","code":"MR"}]},"system":"https://bonnie-fhir.healthit.gov/","value":"62b1e15a3968556e5150cf3b"}],"name":[{"family":"DENOMEXPass","given":["AdultHistoryOfBipolarActive"]}],"gender":"female","birthDate":"2008-01-01"},"request":{"method":"PUT","url":"Patient/15ad723f-b561-4cdd-9a11-7e6619780459"}}]}