{"resourceType":"Bundle","id":"tests-3ce2c72d-d347-4fde-82cf-dc9992c73aad-bundle","type":"transaction","entry":[{"resource":{"resourceType":"Coverage","id":"3b6c1781-0ee6-4ccd-9542-4619db75fe8f","meta":{"profile":["http://hl7.org/fhir/us/qicore/StructureDefinition/qicore-coverage"]},"status":"active","beneficiary":{"reference":"Patient/3ce2c72d-d347-4fde-82cf-dc9992c73aad"},"payor":[{"reference":"Organization/b4374ae4-0848-4d55-81b7-a9ed933e8240"}]},"request":{"method":"PUT","url":"Coverage/3b6c1781-0ee6-4ccd-9542-4619db75fe8f"}},{"resource":{"resourceType":"Patient","id":"3ce2c72d-d347-4fde-82cf-dc9992c73aad","meta":{"profile":["http://hl7.org/fhir/us/qicore/StructureDefinition/qicore-patient"]},"extension":[{"url":"http://hl7.org/fhir/us/core/StructureDefinition/us-core-race","extension":[{"url":"ombCategory","valueCoding":{"system":"urn:oid:2.16.840.1.113883.6.238","code":"1002-5","display":"American Indian or Alaska Native","userSelected":true}},{"url":"text","valueString":"American Indian or Alaska Native"}]},{"url":"http://hl7.org/fhir/us/core/StructureDefinition/us-core-ethnicity","extension":[{"url":"ombCategory","valueCoding":{"system":"urn:oid:2.16.840.1.113883.6.238","code":"2135-2","display":"Hispanic or Latino","userSelected":true}},{"url":"text","valueString":"Hispanic or Latino"}]}],"identifier":[{"type":{"coding":[{"system":"http://terminology.hl7.org/CodeSystem/v2-0203","code":"MR"}]},"system":"https://bonnie-fhir.healthit.gov/","value":"62b1df283968556e5150cf33"}],"name":[{"family":"NUMERPass","given":["17yoNegativeAdolescentDepressionScreening"]}],"gender":"male","birthDate":"2009-01-01"},"request":{"method":"PUT","url":"Patient/3ce2c72d-d347-4fde-82cf-dc9992c73aad"}},{"resource":{"resourceType":"Bundle","id":"62b1df283968556e5150cf33","type":"transaction","entry":[{"fullUrl":"https://madie.cms.gov/Patient/3ce2c72d-d347-4fde-82cf-dc9992c73aad","resource":{"resourceType":"Patient","id":"3ce2c72d-d347-4fde-82cf-dc9992c73aad","meta":{"profile":["http://hl7.org/fhir/us/qicore/StructureDefinition/qicore-patient"]},"extension":[{"url":"http://hl7.org/fhir/us/core/StructureDefinition/us-core-race","extension":[{"url":"ombCategory","valueCoding":{"system":"urn:oid:2.16.840.1.113883.6.238","code":"1002-5","display":"American Indian or Alaska Native","userSelected":true}},{"url":"text","valueString":"American Indian or Alaska Native"}]},{"url":"http://hl7.org/fhir/us/core/StructureDefinition/us-core-ethnicity","extension":[{"url":"ombCategory","valueCoding":{"system":"urn:oid:2.16.840.1.113883.6.238","code":"2135-2","display":"Hispanic or Latino","userSelected":true}},{"url":"text","valueString":"Hispanic or Latino"}]}],"identifier":[{"type":{"coding":[{"system":"http://terminology.hl7.org/CodeSystem/v2-0203","code":"MR"}]},"system":"https://bonnie-fhir.healthit.gov/","value":"62b1df283968556e5150cf33"}],"name":[{"family":"NUMERPass","given":["17yoNegativeAdolescentDepressionScreening"]}],"gender":"male","birthDate":"2009-01-01"},"request":{"method":"PUT","url":"Patient/3ce2c72d-d347-4fde-82cf-dc9992c73aad"}},{"fullUrl":"https://madie.cms.gov/Encounter/ec59ad42-c334-4d85-8acf-062cd03c5da4","resource":{"resourceType":"Encounter","id":"ec59ad42-c334-4d85-8acf-062cd03c5da4","meta":{"profile":["http://hl7.org/fhir/us/qicore/StructureDefinition/qicore-encounter"]},"status":"finished","class":{"system":"http://terminology.hl7.org/CodeSystem/v3-ActCode","code":"AMB","display":"ambulatory"},"type":[{"coding":[{"system":"http://snomed.info/sct","version":"2021-09","code":"10197000","display":"Psychiatric interview and evaluation (procedure)","userSelected":true}]}],"subject":{"reference":"Patient/3ce2c72d-d347-4fde-82cf-dc9992c73aad"},"period":{"start":"2026-06-21T08:00:00.000+00:00","end":"2026-06-21T08:15:00.000+00:00"}},"request":{"method":"PUT","url":"Encounter/ec59ad42-c334-4d85-8acf-062cd03c5da4"}},{"fullUrl":"https://madie.cms.gov/Observation/9e95a724-3c6c-4c0a-b00c-a85e5347ee95","resource":{"resourceType":"Observation","id":"9e95a724-3c6c-4c0a-b00c-a85e5347ee95","meta":{"profile":["http://hl7.org/fhir/us/qicore/StructureDefinition/qicore-observation-screening-assessment"]},"status":"final","category":[{"coding":[{"system":"http://terminology.hl7.org/CodeSystem/observation-category","code":"procedure","display":"Procedure"}]}],"code":{"coding":[{"system":"http://loinc.org","code":"73831-0","display":"Adolescent depression screening assessment","userSelected":true}]},"subject":{"reference":"Patient/3ce2c72d-d347-4fde-82cf-dc9992c73aad"},"effectiveDateTime":"2026-06-15T08:00:00.000+00:00","valueCodeableConcept":{"coding":[{"system":"http://snomed.info/sct","code":"428171000124102","display":"Depression screening negative (finding)","userSelected":true}]}},"request":{"method":"PUT","url":"Observation/9e95a724-3c6c-4c0a-b00c-a85e5347ee95"}},{"fullUrl":"https://madie.cms.gov/Coverage/3b6c1781-0ee6-4ccd-9542-4619db75fe8f","resource":{"resourceType":"Coverage","id":"3b6c1781-0ee6-4ccd-9542-4619db75fe8f","meta":{"profile":["http://hl7.org/fhir/us/qicore/StructureDefinition/qicore-coverage"]},"status":"active","beneficiary":{"reference":"Patient/3ce2c72d-d347-4fde-82cf-dc9992c73aad"},"payor":[{"reference":"Organization/b4374ae4-0848-4d55-81b7-a9ed933e8240"}]},"request":{"method":"PUT","url":"Coverage/3b6c1781-0ee6-4ccd-9542-4619db75fe8f"}},{"fullUrl":"https://madie.cms.gov/Organization/b4374ae4-0848-4d55-81b7-a9ed933e8240","resource":{"resourceType":"Organization","id":"b4374ae4-0848-4d55-81b7-a9ed933e8240","meta":{"profile":["http://hl7.org/fhir/us/qicore/StructureDefinition/qicore-organization"]},"identifier":[{"use":"temp","system":"urn:oid:2.16.840.1.113883.4.4","value":"21-3259825"}],"active":true,"type":[{"coding":[{"system":"http://terminology.hl7.org/CodeSystem/organization-type","code":"pay","display":"Payer"}]}],"name":"Blue Cross Blue Shield of Texas","telecom":[{"system":"phone","value":"(+1) 972-766-6900"}],"address":[{"use":"billing","type":"postal","line":["P.O. Box 660044"],"city":"Dallas","state":"TX","postalCode":"75266-0044","country":"USA"}]},"request":{"method":"PUT","url":"Organization/b4374ae4-0848-4d55-81b7-a9ed933e8240"}},{"fullUrl":"https://madie.cms.gov/Practitioner/c9ce5cf2-5b21-4e19-b89d-cbf37129e5f6","resource":{"resourceType":"Practitioner","id":"c9ce5cf2-5b21-4e19-b89d-cbf37129e5f6","meta":{"profile":["http://hl7.org/fhir/us/qicore/StructureDefinition/qicore-practitioner"]},"identifier":[{"system":"http://hl7.org/fhir/sid/us-npi","value":"123456"}],"name":[{"family":"Evil","prefix":["Dr"]}]},"request":{"method":"PUT","url":"Practitioner/c9ce5cf2-5b21-4e19-b89d-cbf37129e5f6"}},{"fullUrl":"https://madie.cms.gov/MeasureReport/3cecd167-7d81-41f8-8210-86572a2142ad","resource":{"resourceType":"MeasureReport","id":"3cecd167-7d81-41f8-8210-86572a2142ad","meta":{"profile":["http://hl7.org/fhir/us/cqfmeasures/StructureDefinition/test-case-cqfm"]},"contained":[{"resourceType":"Parameters","id":"b6944a9f-96c0-4431-ac87-f14e92d081e1-parameters","parameter":[{"name":"subject","valueString":"3ce2c72d-d347-4fde-82cf-dc9992c73aad"}]}],"extension":[{"url":"http://hl7.org/fhir/StructureDefinition/cqf-inputParameters","valueReference":{"reference":"#b6944a9f-96c0-4431-ac87-f14e92d081e1-parameters"}},{"url":"http://hl7.org/fhir/us/cqfmeasures/StructureDefinition/cqfm-testCaseDescription","valueMarkdown":"17yo male with previous negative adolescent depression screening"}],"modifierExtension":[{"url":"http://hl7.org/fhir/us/cqfmeasures/StructureDefinition/cqfm-isTestCase","valueBoolean":true}],"status":"complete","type":"individual","measure":"https://madie.cms.gov/Measure/CMS2FHIRPCSDepressionScreenAndFollowUp","period":{"start":"2026-01-01","end":"2026-12-31"},"group":[{"id":"Group_1","population":[{"id":"InitialPopulation_1","code":{"coding":[{"system":"http://terminology.hl7.org/CodeSystem/measure-population","code":"initial-population","display":"Initial Population"}]},"count":1},{"id":"Denominator_1","code":{"coding":[{"system":"http://terminology.hl7.org/CodeSystem/measure-population","code":"denominator","display":"Denominator"}]},"count":1},{"id":"DenominatorExclusion_1","code":{"coding":[{"system":"http://terminology.hl7.org/CodeSystem/measure-population","code":"denominator-exclusion","display":"Denominator Exclusion"}]},"count":0},{"id":"Numerator_1","code":{"coding":[{"system":"http://terminology.hl7.org/CodeSystem/measure-population","code":"numerator","display":"Numerator"}]},"count":1},{"id":"DenominatorException_1","code":{"coding":[{"system":"http://terminology.hl7.org/CodeSystem/measure-population","code":"denominator-exception","display":"Denominator Exception"}]},"count":0}],"measureScore":{"value":1.0}}],"evaluatedResource":[{"reference":"Patient/3ce2c72d-d347-4fde-82cf-dc9992c73aad"},{"reference":"Encounter/ec59ad42-c334-4d85-8acf-062cd03c5da4"},{"reference":"Observation/9e95a724-3c6c-4c0a-b00c-a85e5347ee95"},{"reference":"Coverage/3b6c1781-0ee6-4ccd-9542-4619db75fe8f"},{"reference":"Organization/b4374ae4-0848-4d55-81b7-a9ed933e8240"},{"reference":"Practitioner/c9ce5cf2-5b21-4e19-b89d-cbf37129e5f6"}]},"request":{"method":"PUT","url":"MeasureReport/3cecd167-7d81-41f8-8210-86572a2142ad"}}]},"request":{"method":"PUT","url":"Bundle/62b1df283968556e5150cf33"}},{"resource":{"resourceType":"Organization","id":"b4374ae4-0848-4d55-81b7-a9ed933e8240","meta":{"profile":["http://hl7.org/fhir/us/qicore/StructureDefinition/qicore-organization"]},"identifier":[{"use":"temp","system":"urn:oid:2.16.840.1.113883.4.4","value":"21-3259825"}],"active":true,"type":[{"coding":[{"system":"http://terminology.hl7.org/CodeSystem/organization-type","code":"pay","display":"Payer"}]}],"name":"Blue Cross Blue Shield of Texas","telecom":[{"system":"phone","value":"(+1) 972-766-6900"}],"address":[{"use":"billing","type":"postal","line":["P.O. Box 660044"],"city":"Dallas","state":"TX","postalCode":"75266-0044","country":"USA"}]},"request":{"method":"PUT","url":"Organization/b4374ae4-0848-4d55-81b7-a9ed933e8240"}},{"resource":{"resourceType":"Observation","id":"9e95a724-3c6c-4c0a-b00c-a85e5347ee95","meta":{"profile":["http://hl7.org/fhir/us/qicore/StructureDefinition/qicore-observation-screening-assessment"]},"status":"final","category":[{"coding":[{"system":"http://terminology.hl7.org/CodeSystem/observation-category","code":"procedure","display":"Procedure"}]}],"code":{"coding":[{"system":"http://loinc.org","code":"73831-0","display":"Adolescent depression screening assessment","userSelected":true}]},"subject":{"reference":"Patient/3ce2c72d-d347-4fde-82cf-dc9992c73aad"},"effectiveDateTime":"2026-06-15T08:00:00.000+00:00","valueCodeableConcept":{"coding":[{"system":"http://snomed.info/sct","code":"428171000124102","display":"Depression screening negative (finding)","userSelected":true}]}},"request":{"method":"PUT","url":"Observation/9e95a724-3c6c-4c0a-b00c-a85e5347ee95"}},{"resource":{"resourceType":"MeasureReport","id":"3cecd167-7d81-41f8-8210-86572a2142ad","meta":{"profile":["http://hl7.org/fhir/us/cqfmeasures/StructureDefinition/test-case-cqfm"]},"contained":[{"resourceType":"Parameters","id":"b6944a9f-96c0-4431-ac87-f14e92d081e1-parameters","parameter":[{"name":"subject","valueString":"3ce2c72d-d347-4fde-82cf-dc9992c73aad"}]}],"extension":[{"url":"http://hl7.org/fhir/StructureDefinition/cqf-inputParameters","valueReference":{"reference":"#b6944a9f-96c0-4431-ac87-f14e92d081e1-parameters"}},{"url":"http://hl7.org/fhir/us/cqfmeasures/StructureDefinition/cqfm-testCaseDescription","valueMarkdown":"17yo male with previous negative adolescent depression screening"}],"modifierExtension":[{"url":"http://hl7.org/fhir/us/cqfmeasures/StructureDefinition/cqfm-isTestCase","valueBoolean":true}],"status":"complete","type":"individual","measure":"https://madie.cms.gov/Measure/CMS2FHIRPCSDepressionScreenAndFollowUp","period":{"start":"2026-01-01","end":"2026-12-31"},"group":[{"id":"Group_1","population":[{"id":"InitialPopulation_1","code":{"coding":[{"system":"http://terminology.hl7.org/CodeSystem/measure-population","code":"initial-population","display":"Initial Population"}]},"count":1},{"id":"Denominator_1","code":{"coding":[{"system":"http://terminology.hl7.org/CodeSystem/measure-population","code":"denominator","display":"Denominator"}]},"count":1},{"id":"DenominatorExclusion_1","code":{"coding":[{"system":"http://terminology.hl7.org/CodeSystem/measure-population","code":"denominator-exclusion","display":"Denominator Exclusion"}]},"count":0},{"id":"Numerator_1","code":{"coding":[{"system":"http://terminology.hl7.org/CodeSystem/measure-population","code":"numerator","display":"Numerator"}]},"count":1},{"id":"DenominatorException_1","code":{"coding":[{"system":"http://terminology.hl7.org/CodeSystem/measure-population","code":"denominator-exception","display":"Denominator Exception"}]},"count":0}],"measureScore":{"value":1.0}}],"evaluatedResource":[{"reference":"Patient/3ce2c72d-d347-4fde-82cf-dc9992c73aad"},{"reference":"Encounter/ec59ad42-c334-4d85-8acf-062cd03c5da4"},{"reference":"Observation/9e95a724-3c6c-4c0a-b00c-a85e5347ee95"},{"reference":"Coverage/3b6c1781-0ee6-4ccd-9542-4619db75fe8f"},{"reference":"Organization/b4374ae4-0848-4d55-81b7-a9ed933e8240"},{"reference":"Practitioner/c9ce5cf2-5b21-4e19-b89d-cbf37129e5f6"}]},"request":{"method":"PUT","url":"MeasureReport/3cecd167-7d81-41f8-8210-86572a2142ad"}},{"resource":{"resourceType":"Practitioner","id":"c9ce5cf2-5b21-4e19-b89d-cbf37129e5f6","meta":{"profile":["http://hl7.org/fhir/us/qicore/StructureDefinition/qicore-practitioner"]},"identifier":[{"system":"http://hl7.org/fhir/sid/us-npi","value":"123456"}],"name":[{"family":"Evil","prefix":["Dr"]}]},"request":{"method":"PUT","url":"Practitioner/c9ce5cf2-5b21-4e19-b89d-cbf37129e5f6"}},{"resource":{"resourceType":"Encounter","id":"ec59ad42-c334-4d85-8acf-062cd03c5da4","meta":{"profile":["http://hl7.org/fhir/us/qicore/StructureDefinition/qicore-encounter"]},"status":"finished","class":{"system":"http://terminology.hl7.org/CodeSystem/v3-ActCode","code":"AMB","display":"ambulatory"},"type":[{"coding":[{"system":"http://snomed.info/sct","version":"2021-09","code":"10197000","display":"Psychiatric interview and evaluation (procedure)","userSelected":true}]}],"subject":{"reference":"Patient/3ce2c72d-d347-4fde-82cf-dc9992c73aad"},"period":{"start":"2026-06-21T08:00:00.000+00:00","end":"2026-06-21T08:15:00.000+00:00"}},"request":{"method":"PUT","url":"Encounter/ec59ad42-c334-4d85-8acf-062cd03c5da4"}}]}