{"resourceType":"Bundle","id":"tests-6aaff09e-4a7b-4efa-93f8-13033e95c230-bundle","type":"transaction","entry":[{"fullUrl":"Patient/6aaff09e-4a7b-4efa-93f8-13033e95c230","resource":{"resourceType":"Patient","id":"6aaff09e-4a7b-4efa-93f8-13033e95c230","meta":{"profile":["http://hl7.org/fhir/us/qicore/StructureDefinition/qicore-patient"]},"extension":[{"url":"http://hl7.org/fhir/us/core/StructureDefinition/us-core-race","extension":[{"url":"ombCategory","valueCoding":{"system":"urn:oid:2.16.840.1.113883.6.238","code":"1002-5","display":"American Indian or Alaska Native","userSelected":true}},{"url":"text","valueString":"American Indian or Alaska Native"}]},{"url":"http://hl7.org/fhir/us/core/StructureDefinition/us-core-ethnicity","extension":[{"url":"ombCategory","valueCoding":{"system":"urn:oid:2.16.840.1.113883.6.238","code":"2135-2","display":"Hispanic or Latino","userSelected":true}},{"url":"text","valueString":"Hispanic or Latino"}]}],"identifier":[{"type":{"coding":[{"system":"http://terminology.hl7.org/CodeSystem/v2-0203","code":"MR"}]},"system":"https://bonnie-fhir.healthit.gov/","value":"62f65a0f5efef5272905e705"}],"name":[{"family":"DENEXCEPPass","given":["AdultPatientReasonForNoDepressionScreenAge18"]}],"gender":"male","birthDate":"2008-12-31"},"request":{"method":"PUT","url":"Patient/6aaff09e-4a7b-4efa-93f8-13033e95c230"}},{"fullUrl":"Encounter/563d1247-0886-4f83-bdb3-70b20dc39189","resource":{"resourceType":"Encounter","id":"563d1247-0886-4f83-bdb3-70b20dc39189","meta":{"profile":["http://hl7.org/fhir/us/qicore/StructureDefinition/qicore-encounter"]},"status":"finished","class":{"system":"http://terminology.hl7.org/CodeSystem/v3-ActCode","code":"AMB","display":"ambulatory"},"type":[{"coding":[{"system":"http://snomed.info/sct","version":"2021-09","code":"10197000","display":"Psychiatric interview and evaluation (procedure)","userSelected":true}]}],"subject":{"reference":"Patient/6aaff09e-4a7b-4efa-93f8-13033e95c230"},"period":{"start":"2026-06-28T08:00:00.000+00:00","end":"2026-06-28T08:15:00.000+00:00"}},"request":{"method":"PUT","url":"Encounter/563d1247-0886-4f83-bdb3-70b20dc39189"}},{"fullUrl":"Organization/b47f97c4-5ffd-470d-a6e5-41bf8cffec5b","resource":{"resourceType":"Organization","id":"b47f97c4-5ffd-470d-a6e5-41bf8cffec5b","meta":{"profile":["http://hl7.org/fhir/us/qicore/StructureDefinition/qicore-organization"]},"identifier":[{"use":"temp","system":"urn:oid:2.16.840.1.113883.4.4","value":"21-3259825"}],"active":true,"type":[{"coding":[{"system":"http://terminology.hl7.org/CodeSystem/organization-type","code":"pay","display":"Payer"}]}],"name":"Blue Cross Blue Shield of Texas","telecom":[{"system":"phone","value":"(+1) 972-766-6900"}],"address":[{"use":"billing","type":"postal","line":["P.O. Box 660044"],"city":"Dallas","state":"TX","postalCode":"75266-0044","country":"USA"}]},"request":{"method":"PUT","url":"Organization/b47f97c4-5ffd-470d-a6e5-41bf8cffec5b"}},{"fullUrl":"MeasureReport/47053502-fccc-43c2-ad30-c838bbf38f49","resource":{"resourceType":"MeasureReport","id":"47053502-fccc-43c2-ad30-c838bbf38f49","meta":{"profile":["http://hl7.org/fhir/us/cqfmeasures/StructureDefinition/test-case-cqfm"]},"contained":[{"resourceType":"Parameters","id":"c0c8d452-d606-4afb-830f-1956475fa169-parameters","parameter":[{"name":"subject","valueString":"6aaff09e-4a7b-4efa-93f8-13033e95c230"}]}],"extension":[{"url":"http://hl7.org/fhir/StructureDefinition/cqf-inputParameters","valueReference":{"reference":"#c0c8d452-d606-4afb-830f-1956475fa169-parameters"}},{"url":"http://hl7.org/fhir/us/cqfmeasures/StructureDefinition/cqfm-testCaseDescription","valueMarkdown":"18 yo male with patient reason for not screening for depression - 18 on last day MP."}],"modifierExtension":[{"url":"http://hl7.org/fhir/us/cqfmeasures/StructureDefinition/cqfm-isTestCase","valueBoolean":true}],"status":"complete","type":"individual","measure":"https://madie.cms.gov/Measure/CMS2FHIRPCSDepressionScreenAndFollowUp","period":{"start":"2026-01-01","end":"2026-12-31"},"group":[{"id":"Group_1","population":[{"id":"InitialPopulation_1","code":{"coding":[{"system":"http://terminology.hl7.org/CodeSystem/measure-population","code":"initial-population","display":"Initial Population"}]},"count":1},{"id":"Denominator_1","code":{"coding":[{"system":"http://terminology.hl7.org/CodeSystem/measure-population","code":"denominator","display":"Denominator"}]},"count":1},{"id":"DenominatorExclusion_1","code":{"coding":[{"system":"http://terminology.hl7.org/CodeSystem/measure-population","code":"denominator-exclusion","display":"Denominator Exclusion"}]},"count":0},{"id":"Numerator_1","code":{"coding":[{"system":"http://terminology.hl7.org/CodeSystem/measure-population","code":"numerator","display":"Numerator"}]},"count":0},{"id":"DenominatorException_1","code":{"coding":[{"system":"http://terminology.hl7.org/CodeSystem/measure-population","code":"denominator-exception","display":"Denominator Exception"}]},"count":1}],"measureScore":{"value":1.0}}],"evaluatedResource":[{"reference":"Patient/6aaff09e-4a7b-4efa-93f8-13033e95c230"},{"reference":"Encounter/563d1247-0886-4f83-bdb3-70b20dc39189"},{"reference":"Observation/0837be77-2795-4c26-a439-091eacb6528a"},{"reference":"Coverage/254ba952-3a27-4236-9e72-8b2ad3939a29"},{"reference":"Organization/b47f97c4-5ffd-470d-a6e5-41bf8cffec5b"},{"reference":"Practitioner/9a0cc23d-ed44-4a59-98cd-20899c2a1808"}]},"request":{"method":"PUT","url":"MeasureReport/47053502-fccc-43c2-ad30-c838bbf38f49"}},{"fullUrl":"Practitioner/9a0cc23d-ed44-4a59-98cd-20899c2a1808","resource":{"resourceType":"Practitioner","id":"9a0cc23d-ed44-4a59-98cd-20899c2a1808","meta":{"profile":["http://hl7.org/fhir/us/qicore/StructureDefinition/qicore-practitioner"]},"identifier":[{"system":"http://hl7.org/fhir/sid/us-npi","value":"123456"}],"name":[{"family":"Evil","prefix":["Dr"]}]},"request":{"method":"PUT","url":"Practitioner/9a0cc23d-ed44-4a59-98cd-20899c2a1808"}},{"fullUrl":"Observation/0837be77-2795-4c26-a439-091eacb6528a","resource":{"resourceType":"Observation","id":"0837be77-2795-4c26-a439-091eacb6528a","meta":{"profile":["http://hl7.org/fhir/us/qicore/StructureDefinition/qicore-observationcancelled"]},"extension":[{"url":"http://hl7.org/fhir/us/qicore/StructureDefinition/qicore-notDoneReason","valueCodeableConcept":{"coding":[{"system":"http://snomed.info/sct","code":"720834000","display":"Depression screening declined (situation)","userSelected":true}]}}],"status":"cancelled","category":[{"coding":[{"system":"http://terminology.hl7.org/CodeSystem/observation-category","code":"procedure","display":"Procedure"}]}],"code":{"coding":[{"system":"http://loinc.org","code":"73832-8","display":"Adult depression screening assessment","userSelected":true}]},"subject":{"reference":"Patient/6aaff09e-4a7b-4efa-93f8-13033e95c230"},"issued":"2026-06-28T08:00:00.000+00:00","valueBoolean":true},"request":{"method":"PUT","url":"Observation/0837be77-2795-4c26-a439-091eacb6528a"}},{"fullUrl":"Bundle/62f65a0f5efef5272905e705","resource":{"resourceType":"Bundle","id":"62f65a0f5efef5272905e705","type":"transaction","entry":[{"fullUrl":"https://madie.cms.gov/Patient/6aaff09e-4a7b-4efa-93f8-13033e95c230","resource":{"resourceType":"Patient","id":"6aaff09e-4a7b-4efa-93f8-13033e95c230","meta":{"profile":["http://hl7.org/fhir/us/qicore/StructureDefinition/qicore-patient"]},"extension":[{"url":"http://hl7.org/fhir/us/core/StructureDefinition/us-core-race","extension":[{"url":"ombCategory","valueCoding":{"system":"urn:oid:2.16.840.1.113883.6.238","code":"1002-5","display":"American Indian or Alaska Native","userSelected":true}},{"url":"text","valueString":"American Indian or Alaska Native"}]},{"url":"http://hl7.org/fhir/us/core/StructureDefinition/us-core-ethnicity","extension":[{"url":"ombCategory","valueCoding":{"system":"urn:oid:2.16.840.1.113883.6.238","code":"2135-2","display":"Hispanic or Latino","userSelected":true}},{"url":"text","valueString":"Hispanic or Latino"}]}],"identifier":[{"type":{"coding":[{"system":"http://terminology.hl7.org/CodeSystem/v2-0203","code":"MR"}]},"system":"https://bonnie-fhir.healthit.gov/","value":"62f65a0f5efef5272905e705"}],"name":[{"family":"DENEXCEPPass","given":["AdultPatientReasonForNoDepressionScreenAge18"]}],"gender":"male","birthDate":"2008-12-31"},"request":{"method":"PUT","url":"Patient/6aaff09e-4a7b-4efa-93f8-13033e95c230"}},{"fullUrl":"https://madie.cms.gov/Encounter/563d1247-0886-4f83-bdb3-70b20dc39189","resource":{"resourceType":"Encounter","id":"563d1247-0886-4f83-bdb3-70b20dc39189","meta":{"profile":["http://hl7.org/fhir/us/qicore/StructureDefinition/qicore-encounter"]},"status":"finished","class":{"system":"http://terminology.hl7.org/CodeSystem/v3-ActCode","code":"AMB","display":"ambulatory"},"type":[{"coding":[{"system":"http://snomed.info/sct","version":"2021-09","code":"10197000","display":"Psychiatric interview and evaluation (procedure)","userSelected":true}]}],"subject":{"reference":"Patient/6aaff09e-4a7b-4efa-93f8-13033e95c230"},"period":{"start":"2026-06-28T08:00:00.000+00:00","end":"2026-06-28T08:15:00.000+00:00"}},"request":{"method":"PUT","url":"Encounter/563d1247-0886-4f83-bdb3-70b20dc39189"}},{"fullUrl":"https://madie.cms.gov/Observation/0837be77-2795-4c26-a439-091eacb6528a","resource":{"resourceType":"Observation","id":"0837be77-2795-4c26-a439-091eacb6528a","meta":{"profile":["http://hl7.org/fhir/us/qicore/StructureDefinition/qicore-observationcancelled"]},"extension":[{"url":"http://hl7.org/fhir/us/qicore/StructureDefinition/qicore-notDoneReason","valueCodeableConcept":{"coding":[{"system":"http://snomed.info/sct","code":"720834000","display":"Depression screening declined (situation)","userSelected":true}]}}],"status":"cancelled","category":[{"coding":[{"system":"http://terminology.hl7.org/CodeSystem/observation-category","code":"procedure","display":"Procedure"}]}],"code":{"coding":[{"system":"http://loinc.org","code":"73832-8","display":"Adult depression screening assessment","userSelected":true}]},"subject":{"reference":"Patient/6aaff09e-4a7b-4efa-93f8-13033e95c230"},"issued":"2026-06-28T08:00:00.000+00:00","valueBoolean":true},"request":{"method":"PUT","url":"Observation/0837be77-2795-4c26-a439-091eacb6528a"}},{"fullUrl":"https://madie.cms.gov/Coverage/254ba952-3a27-4236-9e72-8b2ad3939a29","resource":{"resourceType":"Coverage","id":"254ba952-3a27-4236-9e72-8b2ad3939a29","meta":{"profile":["http://hl7.org/fhir/us/qicore/StructureDefinition/qicore-coverage"]},"status":"active","beneficiary":{"reference":"Patient/6aaff09e-4a7b-4efa-93f8-13033e95c230"},"payor":[{"reference":"Organization/b47f97c4-5ffd-470d-a6e5-41bf8cffec5b"}]},"request":{"method":"PUT","url":"Coverage/254ba952-3a27-4236-9e72-8b2ad3939a29"}},{"fullUrl":"https://madie.cms.gov/Organization/b47f97c4-5ffd-470d-a6e5-41bf8cffec5b","resource":{"resourceType":"Organization","id":"b47f97c4-5ffd-470d-a6e5-41bf8cffec5b","meta":{"profile":["http://hl7.org/fhir/us/qicore/StructureDefinition/qicore-organization"]},"identifier":[{"use":"temp","system":"urn:oid:2.16.840.1.113883.4.4","value":"21-3259825"}],"active":true,"type":[{"coding":[{"system":"http://terminology.hl7.org/CodeSystem/organization-type","code":"pay","display":"Payer"}]}],"name":"Blue Cross Blue Shield of Texas","telecom":[{"system":"phone","value":"(+1) 972-766-6900"}],"address":[{"use":"billing","type":"postal","line":["P.O. Box 660044"],"city":"Dallas","state":"TX","postalCode":"75266-0044","country":"USA"}]},"request":{"method":"PUT","url":"Organization/b47f97c4-5ffd-470d-a6e5-41bf8cffec5b"}},{"fullUrl":"https://madie.cms.gov/Practitioner/9a0cc23d-ed44-4a59-98cd-20899c2a1808","resource":{"resourceType":"Practitioner","id":"9a0cc23d-ed44-4a59-98cd-20899c2a1808","meta":{"profile":["http://hl7.org/fhir/us/qicore/StructureDefinition/qicore-practitioner"]},"identifier":[{"system":"http://hl7.org/fhir/sid/us-npi","value":"123456"}],"name":[{"family":"Evil","prefix":["Dr"]}]},"request":{"method":"PUT","url":"Practitioner/9a0cc23d-ed44-4a59-98cd-20899c2a1808"}},{"fullUrl":"https://madie.cms.gov/MeasureReport/47053502-fccc-43c2-ad30-c838bbf38f49","resource":{"resourceType":"MeasureReport","id":"47053502-fccc-43c2-ad30-c838bbf38f49","meta":{"profile":["http://hl7.org/fhir/us/cqfmeasures/StructureDefinition/test-case-cqfm"]},"contained":[{"resourceType":"Parameters","id":"c0c8d452-d606-4afb-830f-1956475fa169-parameters","parameter":[{"name":"subject","valueString":"6aaff09e-4a7b-4efa-93f8-13033e95c230"}]}],"extension":[{"url":"http://hl7.org/fhir/StructureDefinition/cqf-inputParameters","valueReference":{"reference":"#c0c8d452-d606-4afb-830f-1956475fa169-parameters"}},{"url":"http://hl7.org/fhir/us/cqfmeasures/StructureDefinition/cqfm-testCaseDescription","valueMarkdown":"18 yo male with patient reason for not screening for depression - 18 on last day MP."}],"modifierExtension":[{"url":"http://hl7.org/fhir/us/cqfmeasures/StructureDefinition/cqfm-isTestCase","valueBoolean":true}],"status":"complete","type":"individual","measure":"https://madie.cms.gov/Measure/CMS2FHIRPCSDepressionScreenAndFollowUp","period":{"start":"2026-01-01","end":"2026-12-31"},"group":[{"id":"Group_1","population":[{"id":"InitialPopulation_1","code":{"coding":[{"system":"http://terminology.hl7.org/CodeSystem/measure-population","code":"initial-population","display":"Initial Population"}]},"count":1},{"id":"Denominator_1","code":{"coding":[{"system":"http://terminology.hl7.org/CodeSystem/measure-population","code":"denominator","display":"Denominator"}]},"count":1},{"id":"DenominatorExclusion_1","code":{"coding":[{"system":"http://terminology.hl7.org/CodeSystem/measure-population","code":"denominator-exclusion","display":"Denominator Exclusion"}]},"count":0},{"id":"Numerator_1","code":{"coding":[{"system":"http://terminology.hl7.org/CodeSystem/measure-population","code":"numerator","display":"Numerator"}]},"count":0},{"id":"DenominatorException_1","code":{"coding":[{"system":"http://terminology.hl7.org/CodeSystem/measure-population","code":"denominator-exception","display":"Denominator Exception"}]},"count":1}],"measureScore":{"value":1.0}}],"evaluatedResource":[{"reference":"Patient/6aaff09e-4a7b-4efa-93f8-13033e95c230"},{"reference":"Encounter/563d1247-0886-4f83-bdb3-70b20dc39189"},{"reference":"Observation/0837be77-2795-4c26-a439-091eacb6528a"},{"reference":"Coverage/254ba952-3a27-4236-9e72-8b2ad3939a29"},{"reference":"Organization/b47f97c4-5ffd-470d-a6e5-41bf8cffec5b"},{"reference":"Practitioner/9a0cc23d-ed44-4a59-98cd-20899c2a1808"}]},"request":{"method":"PUT","url":"MeasureReport/47053502-fccc-43c2-ad30-c838bbf38f49"}}]},"request":{"method":"PUT","url":"Bundle/62f65a0f5efef5272905e705"}},{"fullUrl":"Coverage/254ba952-3a27-4236-9e72-8b2ad3939a29","resource":{"resourceType":"Coverage","id":"254ba952-3a27-4236-9e72-8b2ad3939a29","meta":{"profile":["http://hl7.org/fhir/us/qicore/StructureDefinition/qicore-coverage"]},"status":"active","beneficiary":{"reference":"Patient/6aaff09e-4a7b-4efa-93f8-13033e95c230"},"payor":[{"reference":"Organization/b47f97c4-5ffd-470d-a6e5-41bf8cffec5b"}]},"request":{"method":"PUT","url":"Coverage/254ba952-3a27-4236-9e72-8b2ad3939a29"}}]}