{"resourceType":"Bundle","id":"tests-12786a64-c20e-4542-a4c0-bf3129d6a9e0-bundle","type":"transaction","entry":[{"resource":{"resourceType":"Encounter","id":"ccea9eef-a334-4255-9966-781ad8462f79","meta":{"profile":["http://hl7.org/fhir/us/qicore/StructureDefinition/qicore-encounter"]},"status":"finished","class":{"system":"http://terminology.hl7.org/CodeSystem/v3-ActCode","code":"AMB","display":"ambulatory"},"type":[{"coding":[{"system":"http://snomed.info/sct","version":"2021-09","code":"10197000","display":"Psychiatric interview and evaluation (procedure)","userSelected":true}]}],"subject":{"reference":"Patient/12786a64-c20e-4542-a4c0-bf3129d6a9e0"},"period":{"start":"2026-06-28T08:00:00.000+00:00","end":"2026-06-28T08:15:00.000+00:00"}},"request":{"method":"PUT","url":"Encounter/ccea9eef-a334-4255-9966-781ad8462f79"}},{"resource":{"resourceType":"Observation","id":"a19efbc5-53be-4c8b-9018-0f80ef38b630","meta":{"profile":["http://hl7.org/fhir/us/qicore/StructureDefinition/qicore-observationcancelled"]},"extension":[{"url":"http://hl7.org/fhir/us/qicore/StructureDefinition/qicore-notDoneReason","valueCodeableConcept":{"coding":[{"system":"http://snomed.info/sct","code":"183932001","display":"Procedure contraindicated (situation)","userSelected":true}]}}],"status":"cancelled","category":[{"coding":[{"system":"http://terminology.hl7.org/CodeSystem/observation-category","code":"procedure","display":"Procedure"}]}],"code":{"coding":[{"system":"http://loinc.org","code":"73832-8","display":"Adult depression screening assessment","userSelected":true}]},"subject":{"reference":"Patient/12786a64-c20e-4542-a4c0-bf3129d6a9e0"},"issued":"2026-06-28T08:00:00.000+00:00","valueBoolean":true},"request":{"method":"PUT","url":"Observation/a19efbc5-53be-4c8b-9018-0f80ef38b630"}},{"resource":{"resourceType":"Organization","id":"4ee29af9-382c-4632-82fc-9b676595f6b2","meta":{"profile":["http://hl7.org/fhir/us/qicore/StructureDefinition/qicore-organization"]},"identifier":[{"use":"temp","system":"urn:oid:2.16.840.1.113883.4.4","value":"21-3259825"}],"active":true,"type":[{"coding":[{"system":"http://terminology.hl7.org/CodeSystem/organization-type","code":"pay","display":"Payer"}]}],"name":"Blue Cross Blue Shield of Texas","telecom":[{"system":"phone","value":"(+1) 972-766-6900"}],"address":[{"use":"billing","type":"postal","line":["P.O. Box 660044"],"city":"Dallas","state":"TX","postalCode":"75266-0044","country":"USA"}]},"request":{"method":"PUT","url":"Organization/4ee29af9-382c-4632-82fc-9b676595f6b2"}},{"resource":{"resourceType":"Bundle","id":"62bb0269a2aa708c99ded708","type":"transaction","entry":[{"fullUrl":"https://madie.cms.gov/Patient/12786a64-c20e-4542-a4c0-bf3129d6a9e0","resource":{"resourceType":"Patient","id":"12786a64-c20e-4542-a4c0-bf3129d6a9e0","meta":{"profile":["http://hl7.org/fhir/us/qicore/StructureDefinition/qicore-patient"]},"extension":[{"url":"http://hl7.org/fhir/us/core/StructureDefinition/us-core-race","extension":[{"url":"ombCategory","valueCoding":{"system":"urn:oid:2.16.840.1.113883.6.238","code":"1002-5","display":"American Indian or Alaska Native","userSelected":true}},{"url":"text","valueString":"American Indian or Alaska Native"}]},{"url":"http://hl7.org/fhir/us/core/StructureDefinition/us-core-ethnicity","extension":[{"url":"ombCategory","valueCoding":{"system":"urn:oid:2.16.840.1.113883.6.238","code":"2135-2","display":"Hispanic or Latino","userSelected":true}},{"url":"text","valueString":"Hispanic or Latino"}]},{"url":"http://hl7.org/fhir/us/core/StructureDefinition/us-core-sex","valueCode":"248153007"}],"identifier":[{"type":{"coding":[{"system":"http://terminology.hl7.org/CodeSystem/v2-0203","code":"MR"}]},"system":"https://bonnie-fhir.healthit.gov/","value":"62bb0269a2aa708c99ded708"}],"name":[{"family":"DENEXCEPPass","given":["AdultMedicalReasonForNoDepressionScreenAge18"]}],"gender":"male","birthDate":"2008-01-01"},"request":{"method":"PUT","url":"Patient/12786a64-c20e-4542-a4c0-bf3129d6a9e0"}},{"fullUrl":"https://madie.cms.gov/Encounter/ccea9eef-a334-4255-9966-781ad8462f79","resource":{"resourceType":"Encounter","id":"ccea9eef-a334-4255-9966-781ad8462f79","meta":{"profile":["http://hl7.org/fhir/us/qicore/StructureDefinition/qicore-encounter"]},"status":"finished","class":{"system":"http://terminology.hl7.org/CodeSystem/v3-ActCode","code":"AMB","display":"ambulatory"},"type":[{"coding":[{"system":"http://snomed.info/sct","version":"2021-09","code":"10197000","display":"Psychiatric interview and evaluation (procedure)","userSelected":true}]}],"subject":{"reference":"Patient/12786a64-c20e-4542-a4c0-bf3129d6a9e0"},"period":{"start":"2026-06-28T08:00:00.000+00:00","end":"2026-06-28T08:15:00.000+00:00"}},"request":{"method":"PUT","url":"Encounter/ccea9eef-a334-4255-9966-781ad8462f79"}},{"fullUrl":"https://madie.cms.gov/Observation/a19efbc5-53be-4c8b-9018-0f80ef38b630","resource":{"resourceType":"Observation","id":"a19efbc5-53be-4c8b-9018-0f80ef38b630","meta":{"profile":["http://hl7.org/fhir/us/qicore/StructureDefinition/qicore-observationcancelled"]},"extension":[{"url":"http://hl7.org/fhir/us/qicore/StructureDefinition/qicore-notDoneReason","valueCodeableConcept":{"coding":[{"system":"http://snomed.info/sct","code":"183932001","display":"Procedure contraindicated (situation)","userSelected":true}]}}],"status":"cancelled","category":[{"coding":[{"system":"http://terminology.hl7.org/CodeSystem/observation-category","code":"procedure","display":"Procedure"}]}],"code":{"coding":[{"system":"http://loinc.org","code":"73832-8","display":"Adult depression screening assessment","userSelected":true}]},"subject":{"reference":"Patient/12786a64-c20e-4542-a4c0-bf3129d6a9e0"},"issued":"2026-06-28T08:00:00.000+00:00","valueBoolean":true},"request":{"method":"PUT","url":"Observation/a19efbc5-53be-4c8b-9018-0f80ef38b630"}},{"fullUrl":"https://madie.cms.gov/Coverage/333bd1c4-12a7-42c5-987f-5eeef6d0229c","resource":{"resourceType":"Coverage","id":"333bd1c4-12a7-42c5-987f-5eeef6d0229c","meta":{"profile":["http://hl7.org/fhir/us/qicore/StructureDefinition/qicore-coverage"]},"status":"active","beneficiary":{"reference":"Patient/12786a64-c20e-4542-a4c0-bf3129d6a9e0"},"payor":[{"reference":"Organization/4ee29af9-382c-4632-82fc-9b676595f6b2"}]},"request":{"method":"PUT","url":"Coverage/333bd1c4-12a7-42c5-987f-5eeef6d0229c"}},{"fullUrl":"https://madie.cms.gov/Organization/4ee29af9-382c-4632-82fc-9b676595f6b2","resource":{"resourceType":"Organization","id":"4ee29af9-382c-4632-82fc-9b676595f6b2","meta":{"profile":["http://hl7.org/fhir/us/qicore/StructureDefinition/qicore-organization"]},"identifier":[{"use":"temp","system":"urn:oid:2.16.840.1.113883.4.4","value":"21-3259825"}],"active":true,"type":[{"coding":[{"system":"http://terminology.hl7.org/CodeSystem/organization-type","code":"pay","display":"Payer"}]}],"name":"Blue Cross Blue Shield of Texas","telecom":[{"system":"phone","value":"(+1) 972-766-6900"}],"address":[{"use":"billing","type":"postal","line":["P.O. Box 660044"],"city":"Dallas","state":"TX","postalCode":"75266-0044","country":"USA"}]},"request":{"method":"PUT","url":"Organization/4ee29af9-382c-4632-82fc-9b676595f6b2"}},{"fullUrl":"https://madie.cms.gov/Practitioner/2f6c4666-b1d4-41d7-941c-26747de23c64","resource":{"resourceType":"Practitioner","id":"2f6c4666-b1d4-41d7-941c-26747de23c64","meta":{"profile":["http://hl7.org/fhir/us/qicore/StructureDefinition/qicore-practitioner"]},"identifier":[{"system":"http://hl7.org/fhir/sid/us-npi","value":"123456"}],"name":[{"family":"Evil","prefix":["Dr"]}]},"request":{"method":"PUT","url":"Practitioner/2f6c4666-b1d4-41d7-941c-26747de23c64"}},{"fullUrl":"https://madie.cms.gov/MeasureReport/c0d1bf5d-7b81-4261-86e1-3393b856822f","resource":{"resourceType":"MeasureReport","id":"c0d1bf5d-7b81-4261-86e1-3393b856822f","meta":{"profile":["http://hl7.org/fhir/us/cqfmeasures/StructureDefinition/test-case-cqfm"]},"contained":[{"resourceType":"Parameters","id":"8d25b6ff-36b6-452b-afe8-4300114b12ea-parameters","parameter":[{"name":"subject","valueString":"12786a64-c20e-4542-a4c0-bf3129d6a9e0"}]}],"extension":[{"url":"http://hl7.org/fhir/StructureDefinition/cqf-inputParameters","valueReference":{"reference":"#8d25b6ff-36b6-452b-afe8-4300114b12ea-parameters"}},{"url":"http://hl7.org/fhir/us/cqfmeasures/StructureDefinition/cqfm-testCaseDescription","valueMarkdown":"18 yo male with medical reason for not screening for depression - 18 on first day MP"}],"modifierExtension":[{"url":"http://hl7.org/fhir/us/cqfmeasures/StructureDefinition/cqfm-isTestCase","valueBoolean":true}],"status":"complete","type":"individual","measure":"https://madie.cms.gov/Measure/CMS2FHIRPCSDepressionScreenAndFollowUp","period":{"start":"2026-01-01","end":"2026-12-31"},"group":[{"id":"Group_1","population":[{"id":"InitialPopulation_1","code":{"coding":[{"system":"http://terminology.hl7.org/CodeSystem/measure-population","code":"initial-population","display":"Initial Population"}]},"count":1},{"id":"Denominator_1","code":{"coding":[{"system":"http://terminology.hl7.org/CodeSystem/measure-population","code":"denominator","display":"Denominator"}]},"count":1},{"id":"DenominatorExclusion_1","code":{"coding":[{"system":"http://terminology.hl7.org/CodeSystem/measure-population","code":"denominator-exclusion","display":"Denominator Exclusion"}]},"count":0},{"id":"Numerator_1","code":{"coding":[{"system":"http://terminology.hl7.org/CodeSystem/measure-population","code":"numerator","display":"Numerator"}]},"count":0},{"id":"DenominatorException_1","code":{"coding":[{"system":"http://terminology.hl7.org/CodeSystem/measure-population","code":"denominator-exception","display":"Denominator Exception"}]},"count":1}],"measureScore":{"value":1.0}}],"evaluatedResource":[{"reference":"Patient/12786a64-c20e-4542-a4c0-bf3129d6a9e0"},{"reference":"Encounter/ccea9eef-a334-4255-9966-781ad8462f79"},{"reference":"Observation/a19efbc5-53be-4c8b-9018-0f80ef38b630"},{"reference":"Coverage/333bd1c4-12a7-42c5-987f-5eeef6d0229c"},{"reference":"Organization/4ee29af9-382c-4632-82fc-9b676595f6b2"},{"reference":"Practitioner/2f6c4666-b1d4-41d7-941c-26747de23c64"}]},"request":{"method":"PUT","url":"MeasureReport/c0d1bf5d-7b81-4261-86e1-3393b856822f"}}]},"request":{"method":"PUT","url":"Bundle/62bb0269a2aa708c99ded708"}},{"resource":{"resourceType":"MeasureReport","id":"c0d1bf5d-7b81-4261-86e1-3393b856822f","meta":{"profile":["http://hl7.org/fhir/us/cqfmeasures/StructureDefinition/test-case-cqfm"]},"contained":[{"resourceType":"Parameters","id":"8d25b6ff-36b6-452b-afe8-4300114b12ea-parameters","parameter":[{"name":"subject","valueString":"12786a64-c20e-4542-a4c0-bf3129d6a9e0"}]}],"extension":[{"url":"http://hl7.org/fhir/StructureDefinition/cqf-inputParameters","valueReference":{"reference":"#8d25b6ff-36b6-452b-afe8-4300114b12ea-parameters"}},{"url":"http://hl7.org/fhir/us/cqfmeasures/StructureDefinition/cqfm-testCaseDescription","valueMarkdown":"18 yo male with medical reason for not screening for depression - 18 on first day MP"}],"modifierExtension":[{"url":"http://hl7.org/fhir/us/cqfmeasures/StructureDefinition/cqfm-isTestCase","valueBoolean":true}],"status":"complete","type":"individual","measure":"https://madie.cms.gov/Measure/CMS2FHIRPCSDepressionScreenAndFollowUp","period":{"start":"2026-01-01","end":"2026-12-31"},"group":[{"id":"Group_1","population":[{"id":"InitialPopulation_1","code":{"coding":[{"system":"http://terminology.hl7.org/CodeSystem/measure-population","code":"initial-population","display":"Initial Population"}]},"count":1},{"id":"Denominator_1","code":{"coding":[{"system":"http://terminology.hl7.org/CodeSystem/measure-population","code":"denominator","display":"Denominator"}]},"count":1},{"id":"DenominatorExclusion_1","code":{"coding":[{"system":"http://terminology.hl7.org/CodeSystem/measure-population","code":"denominator-exclusion","display":"Denominator Exclusion"}]},"count":0},{"id":"Numerator_1","code":{"coding":[{"system":"http://terminology.hl7.org/CodeSystem/measure-population","code":"numerator","display":"Numerator"}]},"count":0},{"id":"DenominatorException_1","code":{"coding":[{"system":"http://terminology.hl7.org/CodeSystem/measure-population","code":"denominator-exception","display":"Denominator Exception"}]},"count":1}],"measureScore":{"value":1.0}}],"evaluatedResource":[{"reference":"Patient/12786a64-c20e-4542-a4c0-bf3129d6a9e0"},{"reference":"Encounter/ccea9eef-a334-4255-9966-781ad8462f79"},{"reference":"Observation/a19efbc5-53be-4c8b-9018-0f80ef38b630"},{"reference":"Coverage/333bd1c4-12a7-42c5-987f-5eeef6d0229c"},{"reference":"Organization/4ee29af9-382c-4632-82fc-9b676595f6b2"},{"reference":"Practitioner/2f6c4666-b1d4-41d7-941c-26747de23c64"}]},"request":{"method":"PUT","url":"MeasureReport/c0d1bf5d-7b81-4261-86e1-3393b856822f"}},{"resource":{"resourceType":"Practitioner","id":"2f6c4666-b1d4-41d7-941c-26747de23c64","meta":{"profile":["http://hl7.org/fhir/us/qicore/StructureDefinition/qicore-practitioner"]},"identifier":[{"system":"http://hl7.org/fhir/sid/us-npi","value":"123456"}],"name":[{"family":"Evil","prefix":["Dr"]}]},"request":{"method":"PUT","url":"Practitioner/2f6c4666-b1d4-41d7-941c-26747de23c64"}},{"resource":{"resourceType":"Coverage","id":"333bd1c4-12a7-42c5-987f-5eeef6d0229c","meta":{"profile":["http://hl7.org/fhir/us/qicore/StructureDefinition/qicore-coverage"]},"status":"active","beneficiary":{"reference":"Patient/12786a64-c20e-4542-a4c0-bf3129d6a9e0"},"payor":[{"reference":"Organization/4ee29af9-382c-4632-82fc-9b676595f6b2"}]},"request":{"method":"PUT","url":"Coverage/333bd1c4-12a7-42c5-987f-5eeef6d0229c"}},{"resource":{"resourceType":"Patient","id":"12786a64-c20e-4542-a4c0-bf3129d6a9e0","meta":{"profile":["http://hl7.org/fhir/us/qicore/StructureDefinition/qicore-patient"]},"extension":[{"url":"http://hl7.org/fhir/us/core/StructureDefinition/us-core-race","extension":[{"url":"ombCategory","valueCoding":{"system":"urn:oid:2.16.840.1.113883.6.238","code":"1002-5","display":"American Indian or Alaska Native","userSelected":true}},{"url":"text","valueString":"American Indian or Alaska Native"}]},{"url":"http://hl7.org/fhir/us/core/StructureDefinition/us-core-ethnicity","extension":[{"url":"ombCategory","valueCoding":{"system":"urn:oid:2.16.840.1.113883.6.238","code":"2135-2","display":"Hispanic or Latino","userSelected":true}},{"url":"text","valueString":"Hispanic or Latino"}]},{"url":"http://hl7.org/fhir/us/core/StructureDefinition/us-core-sex","valueCode":"248153007"}],"identifier":[{"type":{"coding":[{"system":"http://terminology.hl7.org/CodeSystem/v2-0203","code":"MR"}]},"system":"https://bonnie-fhir.healthit.gov/","value":"62bb0269a2aa708c99ded708"}],"name":[{"family":"DENEXCEPPass","given":["AdultMedicalReasonForNoDepressionScreenAge18"]}],"gender":"male","birthDate":"2008-01-01"},"request":{"method":"PUT","url":"Patient/12786a64-c20e-4542-a4c0-bf3129d6a9e0"}}]}