{"resourceType":"Bundle","id":"tests-7009a1c3-93a8-4028-b42a-0bd9953f6ebb-bundle","type":"transaction","entry":[{"fullUrl":"Condition/62954aaa-9651-485e-b2d6-b5872aab3eab","resource":{"resourceType":"Condition","id":"62954aaa-9651-485e-b2d6-b5872aab3eab","meta":{"profile":["http://hl7.org/fhir/us/qicore/StructureDefinition/qicore-condition-problems-health-concerns"]},"clinicalStatus":{"coding":[{"system":"http://terminology.hl7.org/CodeSystem/condition-clinical","code":"recurrence","display":"recurrence","userSelected":true}]},"category":[{"coding":[{"system":"http://terminology.hl7.org/CodeSystem/condition-category","code":"problem-list-item","display":"Problem List Item"}]}],"code":{"coding":[{"system":"http://snomed.info/sct","version":"2021-09","code":"10875004","display":"Severe mixed bipolar I disorder with psychotic features, mood-incongruent (disorder)","userSelected":true}]},"subject":{"reference":"Patient/7009a1c3-93a8-4028-b42a-0bd9953f6ebb"},"onsetDateTime":"2026-06-15T08:00:00.000+00:00"},"request":{"method":"PUT","url":"Condition/62954aaa-9651-485e-b2d6-b5872aab3eab"}},{"fullUrl":"Bundle/62b1e15a3968556e5150cf3b","resource":{"resourceType":"Bundle","id":"62b1e15a3968556e5150cf3b","type":"transaction","entry":[{"fullUrl":"https://madie.cms.gov/Patient/7009a1c3-93a8-4028-b42a-0bd9953f6ebb","resource":{"resourceType":"Patient","id":"7009a1c3-93a8-4028-b42a-0bd9953f6ebb","meta":{"profile":["http://hl7.org/fhir/us/qicore/StructureDefinition/qicore-patient"]},"extension":[{"url":"http://hl7.org/fhir/us/core/StructureDefinition/us-core-race","extension":[{"url":"ombCategory","valueCoding":{"system":"urn:oid:2.16.840.1.113883.6.238","code":"1002-5","display":"American Indian or Alaska Native","userSelected":true}},{"url":"text","valueString":"American Indian or Alaska Native"}]},{"url":"http://hl7.org/fhir/us/core/StructureDefinition/us-core-ethnicity","extension":[{"url":"ombCategory","valueCoding":{"system":"urn:oid:2.16.840.1.113883.6.238","code":"2135-2","display":"Hispanic or Latino","userSelected":true}},{"url":"text","valueString":"Hispanic or Latino"}]}],"identifier":[{"type":{"coding":[{"system":"http://terminology.hl7.org/CodeSystem/v2-0203","code":"MR"}]},"system":"https://bonnie-fhir.healthit.gov/","value":"62b1e15a3968556e5150cf3b"}],"name":[{"family":"DENOMEXPass","given":["AdultHistoryOfBipolarRecurrence"]}],"gender":"male","birthDate":"2008-01-01"},"request":{"method":"PUT","url":"Patient/7009a1c3-93a8-4028-b42a-0bd9953f6ebb"}},{"fullUrl":"https://madie.cms.gov/Encounter/b48b39a7-cbe9-4ee4-a6ed-598e0bc84c86","resource":{"resourceType":"Encounter","id":"b48b39a7-cbe9-4ee4-a6ed-598e0bc84c86","meta":{"profile":["http://hl7.org/fhir/us/qicore/StructureDefinition/qicore-encounter"]},"status":"finished","class":{"system":"http://terminology.hl7.org/CodeSystem/v3-ActCode","code":"AMB","display":"ambulatory"},"type":[{"coding":[{"system":"http://snomed.info/sct","version":"2021-09","code":"10197000","display":"Psychiatric interview and evaluation (procedure)","userSelected":true}]}],"subject":{"reference":"Patient/7009a1c3-93a8-4028-b42a-0bd9953f6ebb"},"period":{"start":"2026-06-21T08:00:00.000+00:00","end":"2026-06-21T08:15:00.000+00:00"}},"request":{"method":"PUT","url":"Encounter/b48b39a7-cbe9-4ee4-a6ed-598e0bc84c86"}},{"fullUrl":"https://madie.cms.gov/Condition/62954aaa-9651-485e-b2d6-b5872aab3eab","resource":{"resourceType":"Condition","id":"62954aaa-9651-485e-b2d6-b5872aab3eab","meta":{"profile":["http://hl7.org/fhir/us/qicore/StructureDefinition/qicore-condition-problems-health-concerns"]},"clinicalStatus":{"coding":[{"system":"http://terminology.hl7.org/CodeSystem/condition-clinical","code":"recurrence","display":"recurrence","userSelected":true}]},"category":[{"coding":[{"system":"http://terminology.hl7.org/CodeSystem/condition-category","code":"problem-list-item","display":"Problem List Item"}]}],"code":{"coding":[{"system":"http://snomed.info/sct","version":"2021-09","code":"10875004","display":"Severe mixed bipolar I disorder with psychotic features, mood-incongruent (disorder)","userSelected":true}]},"subject":{"reference":"Patient/7009a1c3-93a8-4028-b42a-0bd9953f6ebb"},"onsetDateTime":"2026-06-15T08:00:00.000+00:00"},"request":{"method":"PUT","url":"Condition/62954aaa-9651-485e-b2d6-b5872aab3eab"}},{"fullUrl":"https://madie.cms.gov/Coverage/d992bac5-1765-4d7d-a1c9-4537900a4824","resource":{"resourceType":"Coverage","id":"d992bac5-1765-4d7d-a1c9-4537900a4824","meta":{"profile":["http://hl7.org/fhir/us/qicore/StructureDefinition/qicore-coverage"]},"status":"active","beneficiary":{"reference":"Patient/7009a1c3-93a8-4028-b42a-0bd9953f6ebb"},"payor":[{"reference":"Organization/0073a170-7b3e-4886-a1e3-2fcfcf78d48c"}]},"request":{"method":"PUT","url":"Coverage/d992bac5-1765-4d7d-a1c9-4537900a4824"}},{"fullUrl":"https://madie.cms.gov/Organization/0073a170-7b3e-4886-a1e3-2fcfcf78d48c","resource":{"resourceType":"Organization","id":"0073a170-7b3e-4886-a1e3-2fcfcf78d48c","meta":{"profile":["http://hl7.org/fhir/us/qicore/StructureDefinition/qicore-organization"]},"identifier":[{"use":"temp","system":"urn:oid:2.16.840.1.113883.4.4","value":"21-3259825"}],"active":true,"type":[{"coding":[{"system":"http://terminology.hl7.org/CodeSystem/organization-type","code":"pay","display":"Payer"}]}],"name":"Blue Cross Blue Shield of Texas","telecom":[{"system":"phone","value":"(+1) 972-766-6900"}],"address":[{"use":"billing","type":"postal","line":["P.O. Box 660044"],"city":"Dallas","state":"TX","postalCode":"75266-0044","country":"USA"}]},"request":{"method":"PUT","url":"Organization/0073a170-7b3e-4886-a1e3-2fcfcf78d48c"}},{"fullUrl":"https://madie.cms.gov/Practitioner/294da0fa-9839-4788-864b-a4b11b13869e","resource":{"resourceType":"Practitioner","id":"294da0fa-9839-4788-864b-a4b11b13869e","meta":{"profile":["http://hl7.org/fhir/us/qicore/StructureDefinition/qicore-practitioner"]},"identifier":[{"system":"http://hl7.org/fhir/sid/us-npi","value":"123456"}],"name":[{"family":"Evil","prefix":["Dr"]}]},"request":{"method":"PUT","url":"Practitioner/294da0fa-9839-4788-864b-a4b11b13869e"}},{"fullUrl":"https://madie.cms.gov/MeasureReport/3c83841d-45b2-4039-b7ad-5ad662d4d0ef","resource":{"resourceType":"MeasureReport","id":"3c83841d-45b2-4039-b7ad-5ad662d4d0ef","meta":{"profile":["http://hl7.org/fhir/us/cqfmeasures/StructureDefinition/test-case-cqfm"]},"contained":[{"resourceType":"Parameters","id":"3003757f-d080-4c40-8ba8-21e02316afc1-parameters","parameter":[{"name":"subject","valueString":"7009a1c3-93a8-4028-b42a-0bd9953f6ebb"}]}],"extension":[{"url":"http://hl7.org/fhir/StructureDefinition/cqf-inputParameters","valueReference":{"reference":"#3003757f-d080-4c40-8ba8-21e02316afc1-parameters"}},{"url":"http://hl7.org/fhir/us/cqfmeasures/StructureDefinition/cqfm-testCaseDescription","valueMarkdown":"18 yo patient with history of bipolar - recurrence"}],"modifierExtension":[{"url":"http://hl7.org/fhir/us/cqfmeasures/StructureDefinition/cqfm-isTestCase","valueBoolean":true}],"status":"complete","type":"individual","measure":"https://madie.cms.gov/Measure/CMS2FHIRPCSDepressionScreenAndFollowUp","period":{"start":"2026-01-01","end":"2026-12-31"},"group":[{"id":"Group_1","population":[{"id":"InitialPopulation_1","code":{"coding":[{"system":"http://terminology.hl7.org/CodeSystem/measure-population","code":"initial-population","display":"Initial Population"}]},"count":1},{"id":"Denominator_1","code":{"coding":[{"system":"http://terminology.hl7.org/CodeSystem/measure-population","code":"denominator","display":"Denominator"}]},"count":1},{"id":"DenominatorExclusion_1","code":{"coding":[{"system":"http://terminology.hl7.org/CodeSystem/measure-population","code":"denominator-exclusion","display":"Denominator Exclusion"}]},"count":1},{"id":"Numerator_1","code":{"coding":[{"system":"http://terminology.hl7.org/CodeSystem/measure-population","code":"numerator","display":"Numerator"}]},"count":0},{"id":"DenominatorException_1","code":{"coding":[{"system":"http://terminology.hl7.org/CodeSystem/measure-population","code":"denominator-exception","display":"Denominator Exception"}]},"count":0}],"measureScore":{"value":1.0}}],"evaluatedResource":[{"reference":"Patient/7009a1c3-93a8-4028-b42a-0bd9953f6ebb"},{"reference":"Encounter/b48b39a7-cbe9-4ee4-a6ed-598e0bc84c86"},{"reference":"Condition/62954aaa-9651-485e-b2d6-b5872aab3eab"},{"reference":"Coverage/d992bac5-1765-4d7d-a1c9-4537900a4824"},{"reference":"Organization/0073a170-7b3e-4886-a1e3-2fcfcf78d48c"},{"reference":"Practitioner/294da0fa-9839-4788-864b-a4b11b13869e"}]},"request":{"method":"PUT","url":"MeasureReport/3c83841d-45b2-4039-b7ad-5ad662d4d0ef"}}]},"request":{"method":"PUT","url":"Bundle/62b1e15a3968556e5150cf3b"}},{"fullUrl":"Practitioner/294da0fa-9839-4788-864b-a4b11b13869e","resource":{"resourceType":"Practitioner","id":"294da0fa-9839-4788-864b-a4b11b13869e","meta":{"profile":["http://hl7.org/fhir/us/qicore/StructureDefinition/qicore-practitioner"]},"identifier":[{"system":"http://hl7.org/fhir/sid/us-npi","value":"123456"}],"name":[{"family":"Evil","prefix":["Dr"]}]},"request":{"method":"PUT","url":"Practitioner/294da0fa-9839-4788-864b-a4b11b13869e"}},{"fullUrl":"Patient/7009a1c3-93a8-4028-b42a-0bd9953f6ebb","resource":{"resourceType":"Patient","id":"7009a1c3-93a8-4028-b42a-0bd9953f6ebb","meta":{"profile":["http://hl7.org/fhir/us/qicore/StructureDefinition/qicore-patient"]},"extension":[{"url":"http://hl7.org/fhir/us/core/StructureDefinition/us-core-race","extension":[{"url":"ombCategory","valueCoding":{"system":"urn:oid:2.16.840.1.113883.6.238","code":"1002-5","display":"American Indian or Alaska Native","userSelected":true}},{"url":"text","valueString":"American Indian or Alaska Native"}]},{"url":"http://hl7.org/fhir/us/core/StructureDefinition/us-core-ethnicity","extension":[{"url":"ombCategory","valueCoding":{"system":"urn:oid:2.16.840.1.113883.6.238","code":"2135-2","display":"Hispanic or Latino","userSelected":true}},{"url":"text","valueString":"Hispanic or Latino"}]}],"identifier":[{"type":{"coding":[{"system":"http://terminology.hl7.org/CodeSystem/v2-0203","code":"MR"}]},"system":"https://bonnie-fhir.healthit.gov/","value":"62b1e15a3968556e5150cf3b"}],"name":[{"family":"DENOMEXPass","given":["AdultHistoryOfBipolarRecurrence"]}],"gender":"male","birthDate":"2008-01-01"},"request":{"method":"PUT","url":"Patient/7009a1c3-93a8-4028-b42a-0bd9953f6ebb"}},{"fullUrl":"Organization/0073a170-7b3e-4886-a1e3-2fcfcf78d48c","resource":{"resourceType":"Organization","id":"0073a170-7b3e-4886-a1e3-2fcfcf78d48c","meta":{"profile":["http://hl7.org/fhir/us/qicore/StructureDefinition/qicore-organization"]},"identifier":[{"use":"temp","system":"urn:oid:2.16.840.1.113883.4.4","value":"21-3259825"}],"active":true,"type":[{"coding":[{"system":"http://terminology.hl7.org/CodeSystem/organization-type","code":"pay","display":"Payer"}]}],"name":"Blue Cross Blue Shield of Texas","telecom":[{"system":"phone","value":"(+1) 972-766-6900"}],"address":[{"use":"billing","type":"postal","line":["P.O. Box 660044"],"city":"Dallas","state":"TX","postalCode":"75266-0044","country":"USA"}]},"request":{"method":"PUT","url":"Organization/0073a170-7b3e-4886-a1e3-2fcfcf78d48c"}},{"fullUrl":"MeasureReport/3c83841d-45b2-4039-b7ad-5ad662d4d0ef","resource":{"resourceType":"MeasureReport","id":"3c83841d-45b2-4039-b7ad-5ad662d4d0ef","meta":{"profile":["http://hl7.org/fhir/us/cqfmeasures/StructureDefinition/test-case-cqfm"]},"contained":[{"resourceType":"Parameters","id":"3003757f-d080-4c40-8ba8-21e02316afc1-parameters","parameter":[{"name":"subject","valueString":"7009a1c3-93a8-4028-b42a-0bd9953f6ebb"}]}],"extension":[{"url":"http://hl7.org/fhir/StructureDefinition/cqf-inputParameters","valueReference":{"reference":"#3003757f-d080-4c40-8ba8-21e02316afc1-parameters"}},{"url":"http://hl7.org/fhir/us/cqfmeasures/StructureDefinition/cqfm-testCaseDescription","valueMarkdown":"18 yo patient with history of bipolar - recurrence"}],"modifierExtension":[{"url":"http://hl7.org/fhir/us/cqfmeasures/StructureDefinition/cqfm-isTestCase","valueBoolean":true}],"status":"complete","type":"individual","measure":"https://madie.cms.gov/Measure/CMS2FHIRPCSDepressionScreenAndFollowUp","period":{"start":"2026-01-01","end":"2026-12-31"},"group":[{"id":"Group_1","population":[{"id":"InitialPopulation_1","code":{"coding":[{"system":"http://terminology.hl7.org/CodeSystem/measure-population","code":"initial-population","display":"Initial Population"}]},"count":1},{"id":"Denominator_1","code":{"coding":[{"system":"http://terminology.hl7.org/CodeSystem/measure-population","code":"denominator","display":"Denominator"}]},"count":1},{"id":"DenominatorExclusion_1","code":{"coding":[{"system":"http://terminology.hl7.org/CodeSystem/measure-population","code":"denominator-exclusion","display":"Denominator Exclusion"}]},"count":1},{"id":"Numerator_1","code":{"coding":[{"system":"http://terminology.hl7.org/CodeSystem/measure-population","code":"numerator","display":"Numerator"}]},"count":0},{"id":"DenominatorException_1","code":{"coding":[{"system":"http://terminology.hl7.org/CodeSystem/measure-population","code":"denominator-exception","display":"Denominator Exception"}]},"count":0}],"measureScore":{"value":1.0}}],"evaluatedResource":[{"reference":"Patient/7009a1c3-93a8-4028-b42a-0bd9953f6ebb"},{"reference":"Encounter/b48b39a7-cbe9-4ee4-a6ed-598e0bc84c86"},{"reference":"Condition/62954aaa-9651-485e-b2d6-b5872aab3eab"},{"reference":"Coverage/d992bac5-1765-4d7d-a1c9-4537900a4824"},{"reference":"Organization/0073a170-7b3e-4886-a1e3-2fcfcf78d48c"},{"reference":"Practitioner/294da0fa-9839-4788-864b-a4b11b13869e"}]},"request":{"method":"PUT","url":"MeasureReport/3c83841d-45b2-4039-b7ad-5ad662d4d0ef"}},{"fullUrl":"Encounter/b48b39a7-cbe9-4ee4-a6ed-598e0bc84c86","resource":{"resourceType":"Encounter","id":"b48b39a7-cbe9-4ee4-a6ed-598e0bc84c86","meta":{"profile":["http://hl7.org/fhir/us/qicore/StructureDefinition/qicore-encounter"]},"status":"finished","class":{"system":"http://terminology.hl7.org/CodeSystem/v3-ActCode","code":"AMB","display":"ambulatory"},"type":[{"coding":[{"system":"http://snomed.info/sct","version":"2021-09","code":"10197000","display":"Psychiatric interview and evaluation (procedure)","userSelected":true}]}],"subject":{"reference":"Patient/7009a1c3-93a8-4028-b42a-0bd9953f6ebb"},"period":{"start":"2026-06-21T08:00:00.000+00:00","end":"2026-06-21T08:15:00.000+00:00"}},"request":{"method":"PUT","url":"Encounter/b48b39a7-cbe9-4ee4-a6ed-598e0bc84c86"}},{"fullUrl":"Coverage/d992bac5-1765-4d7d-a1c9-4537900a4824","resource":{"resourceType":"Coverage","id":"d992bac5-1765-4d7d-a1c9-4537900a4824","meta":{"profile":["http://hl7.org/fhir/us/qicore/StructureDefinition/qicore-coverage"]},"status":"active","beneficiary":{"reference":"Patient/7009a1c3-93a8-4028-b42a-0bd9953f6ebb"},"payor":[{"reference":"Organization/0073a170-7b3e-4886-a1e3-2fcfcf78d48c"}]},"request":{"method":"PUT","url":"Coverage/d992bac5-1765-4d7d-a1c9-4537900a4824"}}]}