{"resourceType":"Bundle","id":"tests-be498e62-5ef2-47fa-8127-dfc5a7eb6ac9-bundle","type":"transaction","entry":[{"fullUrl":"Patient/be498e62-5ef2-47fa-8127-dfc5a7eb6ac9","resource":{"resourceType":"Patient","id":"be498e62-5ef2-47fa-8127-dfc5a7eb6ac9","meta":{"profile":["http://hl7.org/fhir/us/qicore/StructureDefinition/qicore-patient"]},"extension":[{"url":"http://hl7.org/fhir/us/core/StructureDefinition/us-core-race","extension":[{"url":"ombCategory","valueCoding":{"system":"urn:oid:2.16.840.1.113883.6.238","code":"1002-5","display":"American Indian or Alaska Native","userSelected":true}},{"url":"text","valueString":"American Indian or Alaska Native"}]},{"url":"http://hl7.org/fhir/us/core/StructureDefinition/us-core-ethnicity","extension":[{"url":"ombCategory","valueCoding":{"system":"urn:oid:2.16.840.1.113883.6.238","code":"2135-2","display":"Hispanic or Latino","userSelected":true}},{"url":"text","valueString":"Hispanic or Latino"}]}],"identifier":[{"type":{"coding":[{"system":"http://terminology.hl7.org/CodeSystem/v2-0203","code":"MR"}]},"system":"https://bonnie-fhir.healthit.gov/","value":"62f66a8b5efef5272905e715"}],"name":[{"family":"IPFail","given":["11yoDepressionScreening"]}],"gender":"male","birthDate":"2014-01-03"},"request":{"method":"PUT","url":"Patient/be498e62-5ef2-47fa-8127-dfc5a7eb6ac9"}},{"fullUrl":"MeasureReport/b3ff2e89-31d7-4d1b-a98b-fee8cfece175","resource":{"resourceType":"MeasureReport","id":"b3ff2e89-31d7-4d1b-a98b-fee8cfece175","meta":{"profile":["http://hl7.org/fhir/us/cqfmeasures/StructureDefinition/test-case-cqfm"]},"contained":[{"resourceType":"Parameters","id":"26315bad-a8d4-44e0-a4ad-778835d84207-parameters","parameter":[{"name":"subject","valueString":"be498e62-5ef2-47fa-8127-dfc5a7eb6ac9"}]}],"extension":[{"url":"http://hl7.org/fhir/StructureDefinition/cqf-inputParameters","valueReference":{"reference":"#26315bad-a8d4-44e0-a4ad-778835d84207-parameters"}},{"url":"http://hl7.org/fhir/us/cqfmeasures/StructureDefinition/cqfm-testCaseDescription","valueMarkdown":"11yoDepressionScreening - 11yr, 11mo, 30days"}],"modifierExtension":[{"url":"http://hl7.org/fhir/us/cqfmeasures/StructureDefinition/cqfm-isTestCase","valueBoolean":true}],"status":"complete","type":"individual","measure":"https://madie.cms.gov/Measure/CMS2FHIRPCSDepressionScreenAndFollowUp","period":{"start":"2026-01-01","end":"2026-12-31"},"group":[{"id":"Group_1","population":[{"id":"InitialPopulation_1","code":{"coding":[{"system":"http://terminology.hl7.org/CodeSystem/measure-population","code":"initial-population","display":"Initial Population"}]},"count":0},{"id":"Denominator_1","code":{"coding":[{"system":"http://terminology.hl7.org/CodeSystem/measure-population","code":"denominator","display":"Denominator"}]},"count":0},{"id":"DenominatorExclusion_1","code":{"coding":[{"system":"http://terminology.hl7.org/CodeSystem/measure-population","code":"denominator-exclusion","display":"Denominator Exclusion"}]},"count":0},{"id":"Numerator_1","code":{"coding":[{"system":"http://terminology.hl7.org/CodeSystem/measure-population","code":"numerator","display":"Numerator"}]},"count":0},{"id":"DenominatorException_1","code":{"coding":[{"system":"http://terminology.hl7.org/CodeSystem/measure-population","code":"denominator-exception","display":"Denominator Exception"}]},"count":0}],"measureScore":{"value":1.0}}],"evaluatedResource":[{"reference":"Patient/be498e62-5ef2-47fa-8127-dfc5a7eb6ac9"},{"reference":"Encounter/75f06c13-0808-4bc5-b8a4-109c36aa9310"}]},"request":{"method":"PUT","url":"MeasureReport/b3ff2e89-31d7-4d1b-a98b-fee8cfece175"}},{"fullUrl":"Bundle/62f66a8b5efef5272905e715","resource":{"resourceType":"Bundle","id":"62f66a8b5efef5272905e715","type":"transaction","entry":[{"fullUrl":"https://madie.cms.gov/Patient/be498e62-5ef2-47fa-8127-dfc5a7eb6ac9","resource":{"resourceType":"Patient","id":"be498e62-5ef2-47fa-8127-dfc5a7eb6ac9","meta":{"profile":["http://hl7.org/fhir/us/qicore/StructureDefinition/qicore-patient"]},"extension":[{"url":"http://hl7.org/fhir/us/core/StructureDefinition/us-core-race","extension":[{"url":"ombCategory","valueCoding":{"system":"urn:oid:2.16.840.1.113883.6.238","code":"1002-5","display":"American Indian or Alaska Native","userSelected":true}},{"url":"text","valueString":"American Indian or Alaska Native"}]},{"url":"http://hl7.org/fhir/us/core/StructureDefinition/us-core-ethnicity","extension":[{"url":"ombCategory","valueCoding":{"system":"urn:oid:2.16.840.1.113883.6.238","code":"2135-2","display":"Hispanic or Latino","userSelected":true}},{"url":"text","valueString":"Hispanic or Latino"}]}],"identifier":[{"type":{"coding":[{"system":"http://terminology.hl7.org/CodeSystem/v2-0203","code":"MR"}]},"system":"https://bonnie-fhir.healthit.gov/","value":"62f66a8b5efef5272905e715"}],"name":[{"family":"IPFail","given":["11yoDepressionScreening"]}],"gender":"male","birthDate":"2014-01-03"},"request":{"method":"PUT","url":"Patient/be498e62-5ef2-47fa-8127-dfc5a7eb6ac9"}},{"fullUrl":"https://madie.cms.gov/Encounter/75f06c13-0808-4bc5-b8a4-109c36aa9310","resource":{"resourceType":"Encounter","id":"75f06c13-0808-4bc5-b8a4-109c36aa9310","meta":{"profile":["http://hl7.org/fhir/us/qicore/StructureDefinition/qicore-encounter"]},"status":"finished","class":{"system":"http://terminology.hl7.org/CodeSystem/v3-ActCode","code":"AMB","display":"ambulatory"},"type":[{"coding":[{"system":"http://snomed.info/sct","version":"2021-09","code":"10197000","display":"Psychiatric interview and evaluation (procedure)","userSelected":true}]}],"subject":{"reference":"Patient/be498e62-5ef2-47fa-8127-dfc5a7eb6ac9"},"period":{"start":"2026-08-12T08:00:00.000+00:00","end":"2026-08-12T08:15:00.000+00:00"}},"request":{"method":"PUT","url":"Encounter/75f06c13-0808-4bc5-b8a4-109c36aa9310"}},{"fullUrl":"https://madie.cms.gov/MeasureReport/b3ff2e89-31d7-4d1b-a98b-fee8cfece175","resource":{"resourceType":"MeasureReport","id":"b3ff2e89-31d7-4d1b-a98b-fee8cfece175","meta":{"profile":["http://hl7.org/fhir/us/cqfmeasures/StructureDefinition/test-case-cqfm"]},"contained":[{"resourceType":"Parameters","id":"26315bad-a8d4-44e0-a4ad-778835d84207-parameters","parameter":[{"name":"subject","valueString":"be498e62-5ef2-47fa-8127-dfc5a7eb6ac9"}]}],"extension":[{"url":"http://hl7.org/fhir/StructureDefinition/cqf-inputParameters","valueReference":{"reference":"#26315bad-a8d4-44e0-a4ad-778835d84207-parameters"}},{"url":"http://hl7.org/fhir/us/cqfmeasures/StructureDefinition/cqfm-testCaseDescription","valueMarkdown":"11yoDepressionScreening - 11yr, 11mo, 30days"}],"modifierExtension":[{"url":"http://hl7.org/fhir/us/cqfmeasures/StructureDefinition/cqfm-isTestCase","valueBoolean":true}],"status":"complete","type":"individual","measure":"https://madie.cms.gov/Measure/CMS2FHIRPCSDepressionScreenAndFollowUp","period":{"start":"2026-01-01","end":"2026-12-31"},"group":[{"id":"Group_1","population":[{"id":"InitialPopulation_1","code":{"coding":[{"system":"http://terminology.hl7.org/CodeSystem/measure-population","code":"initial-population","display":"Initial Population"}]},"count":0},{"id":"Denominator_1","code":{"coding":[{"system":"http://terminology.hl7.org/CodeSystem/measure-population","code":"denominator","display":"Denominator"}]},"count":0},{"id":"DenominatorExclusion_1","code":{"coding":[{"system":"http://terminology.hl7.org/CodeSystem/measure-population","code":"denominator-exclusion","display":"Denominator Exclusion"}]},"count":0},{"id":"Numerator_1","code":{"coding":[{"system":"http://terminology.hl7.org/CodeSystem/measure-population","code":"numerator","display":"Numerator"}]},"count":0},{"id":"DenominatorException_1","code":{"coding":[{"system":"http://terminology.hl7.org/CodeSystem/measure-population","code":"denominator-exception","display":"Denominator Exception"}]},"count":0}],"measureScore":{"value":1.0}}],"evaluatedResource":[{"reference":"Patient/be498e62-5ef2-47fa-8127-dfc5a7eb6ac9"},{"reference":"Encounter/75f06c13-0808-4bc5-b8a4-109c36aa9310"}]},"request":{"method":"PUT","url":"MeasureReport/b3ff2e89-31d7-4d1b-a98b-fee8cfece175"}}]},"request":{"method":"PUT","url":"Bundle/62f66a8b5efef5272905e715"}},{"fullUrl":"Encounter/75f06c13-0808-4bc5-b8a4-109c36aa9310","resource":{"resourceType":"Encounter","id":"75f06c13-0808-4bc5-b8a4-109c36aa9310","meta":{"profile":["http://hl7.org/fhir/us/qicore/StructureDefinition/qicore-encounter"]},"status":"finished","class":{"system":"http://terminology.hl7.org/CodeSystem/v3-ActCode","code":"AMB","display":"ambulatory"},"type":[{"coding":[{"system":"http://snomed.info/sct","version":"2021-09","code":"10197000","display":"Psychiatric interview and evaluation (procedure)","userSelected":true}]}],"subject":{"reference":"Patient/be498e62-5ef2-47fa-8127-dfc5a7eb6ac9"},"period":{"start":"2026-08-12T08:00:00.000+00:00","end":"2026-08-12T08:15:00.000+00:00"}},"request":{"method":"PUT","url":"Encounter/75f06c13-0808-4bc5-b8a4-109c36aa9310"}}]}