{"resourceType":"Bundle","id":"tests-86761769-1b1b-44c1-81cb-3f034a6a0bc2-bundle","type":"transaction","entry":[{"resource":{"resourceType":"MeasureReport","id":"fbd75787-9a62-4642-a4a6-d3a753d29fc9","meta":{"profile":["http://hl7.org/fhir/us/cqfmeasures/StructureDefinition/test-case-cqfm"]},"contained":[{"resourceType":"Parameters","id":"a7df2c33-4701-4a0b-858c-53ec70060003-parameters","parameter":[{"name":"subject","valueString":"86761769-1b1b-44c1-81cb-3f034a6a0bc2"}]}],"extension":[{"url":"http://hl7.org/fhir/StructureDefinition/cqf-inputParameters","valueReference":{"reference":"#a7df2c33-4701-4a0b-858c-53ec70060003-parameters"}},{"url":"http://hl7.org/fhir/us/cqfmeasures/StructureDefinition/cqfm-testCaseDescription","valueMarkdown":"18 yo male with telephone visit"}],"modifierExtension":[{"url":"http://hl7.org/fhir/us/cqfmeasures/StructureDefinition/cqfm-isTestCase","valueBoolean":true}],"status":"complete","type":"individual","measure":"https://madie.cms.gov/Measure/CMS2FHIRPCSDepressionScreenAndFollowUp","period":{"start":"2026-01-01","end":"2026-12-31"},"group":[{"id":"Group_1","population":[{"id":"InitialPopulation_1","code":{"coding":[{"system":"http://terminology.hl7.org/CodeSystem/measure-population","code":"initial-population","display":"Initial Population"}]},"count":1},{"id":"Denominator_1","code":{"coding":[{"system":"http://terminology.hl7.org/CodeSystem/measure-population","code":"denominator","display":"Denominator"}]},"count":1},{"id":"DenominatorExclusion_1","code":{"coding":[{"system":"http://terminology.hl7.org/CodeSystem/measure-population","code":"denominator-exclusion","display":"Denominator Exclusion"}]},"count":0},{"id":"Numerator_1","code":{"coding":[{"system":"http://terminology.hl7.org/CodeSystem/measure-population","code":"numerator","display":"Numerator"}]},"count":0},{"id":"DenominatorException_1","code":{"coding":[{"system":"http://terminology.hl7.org/CodeSystem/measure-population","code":"denominator-exception","display":"Denominator Exception"}]},"count":0}],"measureScore":{"value":1.0}}],"evaluatedResource":[{"reference":"Patient/86761769-1b1b-44c1-81cb-3f034a6a0bc2"},{"reference":"Encounter/f82dee6b-ac8a-4cef-b3ee-f8ff7478d407"},{"reference":"Coverage/5e9bdbb0-7f0a-41f3-8a20-d0048aea3c1a"},{"reference":"Organization/7654901c-03ac-430b-8e00-0499531ed031"},{"reference":"Practitioner/6d4a4005-b201-4066-9265-9f866c72bb1c"}]},"request":{"method":"PUT","url":"MeasureReport/fbd75787-9a62-4642-a4a6-d3a753d29fc9"}},{"resource":{"resourceType":"Practitioner","id":"6d4a4005-b201-4066-9265-9f866c72bb1c","meta":{"profile":["http://hl7.org/fhir/us/qicore/StructureDefinition/qicore-practitioner"]},"identifier":[{"system":"http://hl7.org/fhir/sid/us-npi","value":"123456"}],"name":[{"family":"Evil","prefix":["Dr"]}]},"request":{"method":"PUT","url":"Practitioner/6d4a4005-b201-4066-9265-9f866c72bb1c"}},{"resource":{"resourceType":"Coverage","id":"5e9bdbb0-7f0a-41f3-8a20-d0048aea3c1a","meta":{"profile":["http://hl7.org/fhir/us/qicore/StructureDefinition/qicore-coverage"]},"status":"active","beneficiary":{"reference":"Patient/86761769-1b1b-44c1-81cb-3f034a6a0bc2"},"payor":[{"reference":"Organization/7654901c-03ac-430b-8e00-0499531ed031"}]},"request":{"method":"PUT","url":"Coverage/5e9bdbb0-7f0a-41f3-8a20-d0048aea3c1a"}},{"resource":{"resourceType":"Encounter","id":"f82dee6b-ac8a-4cef-b3ee-f8ff7478d407","meta":{"profile":["http://hl7.org/fhir/us/qicore/StructureDefinition/qicore-encounter"]},"status":"finished","class":{"system":"http://terminology.hl7.org/CodeSystem/v3-ActCode","code":"AMB","display":"ambulatory"},"type":[{"coding":[{"system":"http://snomed.info/sct","version":"2021-09","code":"185317003","display":"Telephone encounter (procedure)","userSelected":true}]}],"subject":{"reference":"Patient/86761769-1b1b-44c1-81cb-3f034a6a0bc2"},"period":{"start":"2026-08-12T08:00:00.000+00:00","end":"2026-08-12T08:15:00.000+00:00"}},"request":{"method":"PUT","url":"Encounter/f82dee6b-ac8a-4cef-b3ee-f8ff7478d407"}},{"resource":{"resourceType":"Organization","id":"7654901c-03ac-430b-8e00-0499531ed031","meta":{"profile":["http://hl7.org/fhir/us/qicore/StructureDefinition/qicore-organization"]},"identifier":[{"use":"temp","system":"urn:oid:2.16.840.1.113883.4.4","value":"21-3259825"}],"active":true,"type":[{"coding":[{"system":"http://terminology.hl7.org/CodeSystem/organization-type","code":"pay","display":"Payer"}]}],"name":"Blue Cross Blue Shield of Texas","telecom":[{"system":"phone","value":"(+1) 972-766-6900"}],"address":[{"use":"billing","type":"postal","line":["P.O. Box 660044"],"city":"Dallas","state":"TX","postalCode":"75266-0044","country":"USA"}]},"request":{"method":"PUT","url":"Organization/7654901c-03ac-430b-8e00-0499531ed031"}},{"resource":{"resourceType":"Bundle","id":"62f664415efef5272905e713","type":"transaction","entry":[{"fullUrl":"https://madie.cms.gov/Patient/86761769-1b1b-44c1-81cb-3f034a6a0bc2","resource":{"resourceType":"Patient","id":"86761769-1b1b-44c1-81cb-3f034a6a0bc2","meta":{"profile":["http://hl7.org/fhir/us/qicore/StructureDefinition/qicore-patient"]},"extension":[{"url":"http://hl7.org/fhir/us/core/StructureDefinition/us-core-race","extension":[{"url":"ombCategory","valueCoding":{"system":"urn:oid:2.16.840.1.113883.6.238","code":"1002-5","display":"American Indian or Alaska Native","userSelected":true}},{"url":"text","valueString":"American Indian or Alaska Native"}]},{"url":"http://hl7.org/fhir/us/core/StructureDefinition/us-core-ethnicity","extension":[{"url":"ombCategory","valueCoding":{"system":"urn:oid:2.16.840.1.113883.6.238","code":"2135-2","display":"Hispanic or Latino","userSelected":true}},{"url":"text","valueString":"Hispanic or Latino"}]}],"identifier":[{"type":{"coding":[{"system":"http://terminology.hl7.org/CodeSystem/v2-0203","code":"MR"}]},"system":"https://bonnie-fhir.healthit.gov/","value":"62f664415efef5272905e713"}],"name":[{"family":"DENOMPass","given":["AdultTelephoneVisit"]}],"gender":"male","birthDate":"2008-01-01"},"request":{"method":"PUT","url":"Patient/86761769-1b1b-44c1-81cb-3f034a6a0bc2"}},{"fullUrl":"https://madie.cms.gov/Encounter/f82dee6b-ac8a-4cef-b3ee-f8ff7478d407","resource":{"resourceType":"Encounter","id":"f82dee6b-ac8a-4cef-b3ee-f8ff7478d407","meta":{"profile":["http://hl7.org/fhir/us/qicore/StructureDefinition/qicore-encounter"]},"status":"finished","class":{"system":"http://terminology.hl7.org/CodeSystem/v3-ActCode","code":"AMB","display":"ambulatory"},"type":[{"coding":[{"system":"http://snomed.info/sct","version":"2021-09","code":"185317003","display":"Telephone encounter (procedure)","userSelected":true}]}],"subject":{"reference":"Patient/86761769-1b1b-44c1-81cb-3f034a6a0bc2"},"period":{"start":"2026-08-12T08:00:00.000+00:00","end":"2026-08-12T08:15:00.000+00:00"}},"request":{"method":"PUT","url":"Encounter/f82dee6b-ac8a-4cef-b3ee-f8ff7478d407"}},{"fullUrl":"https://madie.cms.gov/Coverage/5e9bdbb0-7f0a-41f3-8a20-d0048aea3c1a","resource":{"resourceType":"Coverage","id":"5e9bdbb0-7f0a-41f3-8a20-d0048aea3c1a","meta":{"profile":["http://hl7.org/fhir/us/qicore/StructureDefinition/qicore-coverage"]},"status":"active","beneficiary":{"reference":"Patient/86761769-1b1b-44c1-81cb-3f034a6a0bc2"},"payor":[{"reference":"Organization/7654901c-03ac-430b-8e00-0499531ed031"}]},"request":{"method":"PUT","url":"Coverage/5e9bdbb0-7f0a-41f3-8a20-d0048aea3c1a"}},{"fullUrl":"https://madie.cms.gov/Organization/7654901c-03ac-430b-8e00-0499531ed031","resource":{"resourceType":"Organization","id":"7654901c-03ac-430b-8e00-0499531ed031","meta":{"profile":["http://hl7.org/fhir/us/qicore/StructureDefinition/qicore-organization"]},"identifier":[{"use":"temp","system":"urn:oid:2.16.840.1.113883.4.4","value":"21-3259825"}],"active":true,"type":[{"coding":[{"system":"http://terminology.hl7.org/CodeSystem/organization-type","code":"pay","display":"Payer"}]}],"name":"Blue Cross Blue Shield of Texas","telecom":[{"system":"phone","value":"(+1) 972-766-6900"}],"address":[{"use":"billing","type":"postal","line":["P.O. Box 660044"],"city":"Dallas","state":"TX","postalCode":"75266-0044","country":"USA"}]},"request":{"method":"PUT","url":"Organization/7654901c-03ac-430b-8e00-0499531ed031"}},{"fullUrl":"https://madie.cms.gov/Practitioner/6d4a4005-b201-4066-9265-9f866c72bb1c","resource":{"resourceType":"Practitioner","id":"6d4a4005-b201-4066-9265-9f866c72bb1c","meta":{"profile":["http://hl7.org/fhir/us/qicore/StructureDefinition/qicore-practitioner"]},"identifier":[{"system":"http://hl7.org/fhir/sid/us-npi","value":"123456"}],"name":[{"family":"Evil","prefix":["Dr"]}]},"request":{"method":"PUT","url":"Practitioner/6d4a4005-b201-4066-9265-9f866c72bb1c"}},{"fullUrl":"https://madie.cms.gov/MeasureReport/fbd75787-9a62-4642-a4a6-d3a753d29fc9","resource":{"resourceType":"MeasureReport","id":"fbd75787-9a62-4642-a4a6-d3a753d29fc9","meta":{"profile":["http://hl7.org/fhir/us/cqfmeasures/StructureDefinition/test-case-cqfm"]},"contained":[{"resourceType":"Parameters","id":"a7df2c33-4701-4a0b-858c-53ec70060003-parameters","parameter":[{"name":"subject","valueString":"86761769-1b1b-44c1-81cb-3f034a6a0bc2"}]}],"extension":[{"url":"http://hl7.org/fhir/StructureDefinition/cqf-inputParameters","valueReference":{"reference":"#a7df2c33-4701-4a0b-858c-53ec70060003-parameters"}},{"url":"http://hl7.org/fhir/us/cqfmeasures/StructureDefinition/cqfm-testCaseDescription","valueMarkdown":"18 yo male with telephone visit"}],"modifierExtension":[{"url":"http://hl7.org/fhir/us/cqfmeasures/StructureDefinition/cqfm-isTestCase","valueBoolean":true}],"status":"complete","type":"individual","measure":"https://madie.cms.gov/Measure/CMS2FHIRPCSDepressionScreenAndFollowUp","period":{"start":"2026-01-01","end":"2026-12-31"},"group":[{"id":"Group_1","population":[{"id":"InitialPopulation_1","code":{"coding":[{"system":"http://terminology.hl7.org/CodeSystem/measure-population","code":"initial-population","display":"Initial Population"}]},"count":1},{"id":"Denominator_1","code":{"coding":[{"system":"http://terminology.hl7.org/CodeSystem/measure-population","code":"denominator","display":"Denominator"}]},"count":1},{"id":"DenominatorExclusion_1","code":{"coding":[{"system":"http://terminology.hl7.org/CodeSystem/measure-population","code":"denominator-exclusion","display":"Denominator Exclusion"}]},"count":0},{"id":"Numerator_1","code":{"coding":[{"system":"http://terminology.hl7.org/CodeSystem/measure-population","code":"numerator","display":"Numerator"}]},"count":0},{"id":"DenominatorException_1","code":{"coding":[{"system":"http://terminology.hl7.org/CodeSystem/measure-population","code":"denominator-exception","display":"Denominator Exception"}]},"count":0}],"measureScore":{"value":1.0}}],"evaluatedResource":[{"reference":"Patient/86761769-1b1b-44c1-81cb-3f034a6a0bc2"},{"reference":"Encounter/f82dee6b-ac8a-4cef-b3ee-f8ff7478d407"},{"reference":"Coverage/5e9bdbb0-7f0a-41f3-8a20-d0048aea3c1a"},{"reference":"Organization/7654901c-03ac-430b-8e00-0499531ed031"},{"reference":"Practitioner/6d4a4005-b201-4066-9265-9f866c72bb1c"}]},"request":{"method":"PUT","url":"MeasureReport/fbd75787-9a62-4642-a4a6-d3a753d29fc9"}}]},"request":{"method":"PUT","url":"Bundle/62f664415efef5272905e713"}},{"resource":{"resourceType":"Patient","id":"86761769-1b1b-44c1-81cb-3f034a6a0bc2","meta":{"profile":["http://hl7.org/fhir/us/qicore/StructureDefinition/qicore-patient"]},"extension":[{"url":"http://hl7.org/fhir/us/core/StructureDefinition/us-core-race","extension":[{"url":"ombCategory","valueCoding":{"system":"urn:oid:2.16.840.1.113883.6.238","code":"1002-5","display":"American Indian or Alaska Native","userSelected":true}},{"url":"text","valueString":"American Indian or Alaska Native"}]},{"url":"http://hl7.org/fhir/us/core/StructureDefinition/us-core-ethnicity","extension":[{"url":"ombCategory","valueCoding":{"system":"urn:oid:2.16.840.1.113883.6.238","code":"2135-2","display":"Hispanic or Latino","userSelected":true}},{"url":"text","valueString":"Hispanic or Latino"}]}],"identifier":[{"type":{"coding":[{"system":"http://terminology.hl7.org/CodeSystem/v2-0203","code":"MR"}]},"system":"https://bonnie-fhir.healthit.gov/","value":"62f664415efef5272905e713"}],"name":[{"family":"DENOMPass","given":["AdultTelephoneVisit"]}],"gender":"male","birthDate":"2008-01-01"},"request":{"method":"PUT","url":"Patient/86761769-1b1b-44c1-81cb-3f034a6a0bc2"}}]}