{"resourceType":"Bundle","id":"tests-d1fc6b6d-025e-446b-a941-e62a76217e28-bundle","type":"transaction","entry":[{"fullUrl":"Organization/a8269403-2e80-4f1e-9375-adccc43249f5","resource":{"resourceType":"Organization","id":"a8269403-2e80-4f1e-9375-adccc43249f5","meta":{"profile":["http://hl7.org/fhir/us/qicore/StructureDefinition/qicore-organization"]},"identifier":[{"use":"temp","system":"urn:oid:2.16.840.1.113883.4.4","value":"21-3259825"}],"active":true,"type":[{"coding":[{"system":"http://terminology.hl7.org/CodeSystem/organization-type","code":"pay","display":"Payer"}]}],"name":"Blue Cross Blue Shield of Texas","telecom":[{"system":"phone","value":"(+1) 972-766-6900"}],"address":[{"use":"billing","type":"postal","line":["P.O. Box 660044"],"city":"Dallas","state":"TX","postalCode":"75266-0044","country":"USA"}]},"request":{"method":"PUT","url":"Organization/a8269403-2e80-4f1e-9375-adccc43249f5"}},{"fullUrl":"MeasureReport/3e9082ae-0aea-430a-a2bc-189551e3b6e0","resource":{"resourceType":"MeasureReport","id":"3e9082ae-0aea-430a-a2bc-189551e3b6e0","meta":{"profile":["http://hl7.org/fhir/us/cqfmeasures/StructureDefinition/test-case-cqfm"]},"contained":[{"resourceType":"Parameters","id":"0f0cffce-89a1-4b32-91e1-09e6ee5806da-parameters","parameter":[{"name":"subject","valueString":"d1fc6b6d-025e-446b-a941-e62a76217e28"}]}],"extension":[{"url":"http://hl7.org/fhir/StructureDefinition/cqf-inputParameters","valueReference":{"reference":"#0f0cffce-89a1-4b32-91e1-09e6ee5806da-parameters"}},{"url":"http://hl7.org/fhir/us/cqfmeasures/StructureDefinition/cqfm-testCaseDescription","valueMarkdown":"Adult with previous positive adult depression screening and medication request follow up 3 days after end of encounter"}],"modifierExtension":[{"url":"http://hl7.org/fhir/us/cqfmeasures/StructureDefinition/cqfm-isTestCase","valueBoolean":true}],"status":"complete","type":"individual","measure":"https://madie.cms.gov/Measure/CMS2FHIRPCSDepressionScreenAndFollowUp","period":{"start":"2026-01-01","end":"2026-12-31"},"group":[{"id":"Group_1","population":[{"id":"InitialPopulation_1","code":{"coding":[{"system":"http://terminology.hl7.org/CodeSystem/measure-population","code":"initial-population","display":"Initial Population"}]},"count":1},{"id":"Denominator_1","code":{"coding":[{"system":"http://terminology.hl7.org/CodeSystem/measure-population","code":"denominator","display":"Denominator"}]},"count":1},{"id":"DenominatorExclusion_1","code":{"coding":[{"system":"http://terminology.hl7.org/CodeSystem/measure-population","code":"denominator-exclusion","display":"Denominator Exclusion"}]},"count":0},{"id":"Numerator_1","code":{"coding":[{"system":"http://terminology.hl7.org/CodeSystem/measure-population","code":"numerator","display":"Numerator"}]},"count":0},{"id":"DenominatorException_1","code":{"coding":[{"system":"http://terminology.hl7.org/CodeSystem/measure-population","code":"denominator-exception","display":"Denominator Exception"}]},"count":0}],"measureScore":{"value":1.0}}],"evaluatedResource":[{"reference":"Patient/d1fc6b6d-025e-446b-a941-e62a76217e28"},{"reference":"Encounter/4582eac4-59cf-4474-a801-09f9bff1df36"},{"reference":"Observation/4734ac80-b410-4c3d-a066-acb5473e43ef"},{"reference":"MedicationRequest/42dc66c2-1a6f-46dc-a1c2-6bfc1df27474"},{"reference":"Coverage/71aab464-53ef-4788-b63b-2c9fbc81c0c7"},{"reference":"Organization/a8269403-2e80-4f1e-9375-adccc43249f5"},{"reference":"Practitioner/17a00a81-71f2-4c30-816e-c03304324362"}]},"request":{"method":"PUT","url":"MeasureReport/3e9082ae-0aea-430a-a2bc-189551e3b6e0"}},{"fullUrl":"Practitioner/17a00a81-71f2-4c30-816e-c03304324362","resource":{"resourceType":"Practitioner","id":"17a00a81-71f2-4c30-816e-c03304324362","meta":{"profile":["http://hl7.org/fhir/us/qicore/StructureDefinition/qicore-practitioner"]},"identifier":[{"system":"http://hl7.org/fhir/sid/us-npi","value":"123456"}],"name":[{"family":"Evil","prefix":["Dr"]}]},"request":{"method":"PUT","url":"Practitioner/17a00a81-71f2-4c30-816e-c03304324362"}},{"fullUrl":"Observation/4734ac80-b410-4c3d-a066-acb5473e43ef","resource":{"resourceType":"Observation","id":"4734ac80-b410-4c3d-a066-acb5473e43ef","meta":{"profile":["http://hl7.org/fhir/us/qicore/StructureDefinition/qicore-observation-screening-assessment"]},"status":"final","category":[{"coding":[{"system":"http://terminology.hl7.org/CodeSystem/observation-category","code":"procedure","display":"Procedure"}]}],"code":{"coding":[{"system":"http://loinc.org","code":"73832-8","display":"Adult depression screening assessment","userSelected":true}]},"subject":{"reference":"Patient/d1fc6b6d-025e-446b-a941-e62a76217e28"},"effectiveDateTime":"2026-06-15T08:00:00.000+00:00","valueCodeableConcept":{"coding":[{"system":"http://snomed.info/sct","code":"428181000124104","display":"Depression screening positive (finding)","userSelected":true}]}},"request":{"method":"PUT","url":"Observation/4734ac80-b410-4c3d-a066-acb5473e43ef"}},{"fullUrl":"Coverage/71aab464-53ef-4788-b63b-2c9fbc81c0c7","resource":{"resourceType":"Coverage","id":"71aab464-53ef-4788-b63b-2c9fbc81c0c7","meta":{"profile":["http://hl7.org/fhir/us/qicore/StructureDefinition/qicore-coverage"]},"status":"active","beneficiary":{"reference":"Patient/d1fc6b6d-025e-446b-a941-e62a76217e28"},"payor":[{"reference":"Organization/a8269403-2e80-4f1e-9375-adccc43249f5"}]},"request":{"method":"PUT","url":"Coverage/71aab464-53ef-4788-b63b-2c9fbc81c0c7"}},{"fullUrl":"Encounter/4582eac4-59cf-4474-a801-09f9bff1df36","resource":{"resourceType":"Encounter","id":"4582eac4-59cf-4474-a801-09f9bff1df36","meta":{"profile":["http://hl7.org/fhir/us/qicore/StructureDefinition/qicore-encounter"]},"status":"finished","class":{"system":"http://terminology.hl7.org/CodeSystem/v3-ActCode","code":"AMB","display":"ambulatory"},"type":[{"coding":[{"system":"http://snomed.info/sct","version":"2021-09","code":"10197000","display":"Psychiatric interview and evaluation (procedure)","userSelected":true}]}],"subject":{"reference":"Patient/d1fc6b6d-025e-446b-a941-e62a76217e28"},"period":{"start":"2026-06-21T08:00:00.000+00:00","end":"2026-06-21T08:15:00.000+00:00"}},"request":{"method":"PUT","url":"Encounter/4582eac4-59cf-4474-a801-09f9bff1df36"}},{"fullUrl":"Bundle/62f686a3bc6a474306a95b45","resource":{"resourceType":"Bundle","id":"62f686a3bc6a474306a95b45","type":"transaction","entry":[{"fullUrl":"https://madie.cms.gov/Patient/d1fc6b6d-025e-446b-a941-e62a76217e28","resource":{"resourceType":"Patient","id":"d1fc6b6d-025e-446b-a941-e62a76217e28","meta":{"profile":["http://hl7.org/fhir/us/qicore/StructureDefinition/qicore-patient"]},"extension":[{"url":"http://hl7.org/fhir/us/core/StructureDefinition/us-core-race","extension":[{"url":"ombCategory","valueCoding":{"system":"urn:oid:2.16.840.1.113883.6.238","code":"1002-5","display":"American Indian or Alaska Native","userSelected":true}},{"url":"text","valueString":"American Indian or Alaska Native"}]},{"url":"http://hl7.org/fhir/us/core/StructureDefinition/us-core-ethnicity","extension":[{"url":"ombCategory","valueCoding":{"system":"urn:oid:2.16.840.1.113883.6.238","code":"2135-2","display":"Hispanic or Latino","userSelected":true}},{"url":"text","valueString":"Hispanic or Latino"}]}],"identifier":[{"type":{"coding":[{"system":"http://terminology.hl7.org/CodeSystem/v2-0203","code":"MR"}]},"system":"https://bonnie-fhir.healthit.gov/","value":"62f686a3bc6a474306a95b45"}],"name":[{"family":"NUMERFail","given":["PosAdultDepScreenandFU3DAfterEndOfEnc"]}],"gender":"male","birthDate":"2008-01-01"},"request":{"method":"PUT","url":"Patient/d1fc6b6d-025e-446b-a941-e62a76217e28"}},{"fullUrl":"https://madie.cms.gov/Encounter/4582eac4-59cf-4474-a801-09f9bff1df36","resource":{"resourceType":"Encounter","id":"4582eac4-59cf-4474-a801-09f9bff1df36","meta":{"profile":["http://hl7.org/fhir/us/qicore/StructureDefinition/qicore-encounter"]},"status":"finished","class":{"system":"http://terminology.hl7.org/CodeSystem/v3-ActCode","code":"AMB","display":"ambulatory"},"type":[{"coding":[{"system":"http://snomed.info/sct","version":"2021-09","code":"10197000","display":"Psychiatric interview and evaluation (procedure)","userSelected":true}]}],"subject":{"reference":"Patient/d1fc6b6d-025e-446b-a941-e62a76217e28"},"period":{"start":"2026-06-21T08:00:00.000+00:00","end":"2026-06-21T08:15:00.000+00:00"}},"request":{"method":"PUT","url":"Encounter/4582eac4-59cf-4474-a801-09f9bff1df36"}},{"fullUrl":"https://madie.cms.gov/Observation/4734ac80-b410-4c3d-a066-acb5473e43ef","resource":{"resourceType":"Observation","id":"4734ac80-b410-4c3d-a066-acb5473e43ef","meta":{"profile":["http://hl7.org/fhir/us/qicore/StructureDefinition/qicore-observation-screening-assessment"]},"status":"final","category":[{"coding":[{"system":"http://terminology.hl7.org/CodeSystem/observation-category","code":"procedure","display":"Procedure"}]}],"code":{"coding":[{"system":"http://loinc.org","code":"73832-8","display":"Adult depression screening assessment","userSelected":true}]},"subject":{"reference":"Patient/d1fc6b6d-025e-446b-a941-e62a76217e28"},"effectiveDateTime":"2026-06-15T08:00:00.000+00:00","valueCodeableConcept":{"coding":[{"system":"http://snomed.info/sct","code":"428181000124104","display":"Depression screening positive (finding)","userSelected":true}]}},"request":{"method":"PUT","url":"Observation/4734ac80-b410-4c3d-a066-acb5473e43ef"}},{"fullUrl":"https://madie.cms.gov/MedicationRequest/42dc66c2-1a6f-46dc-a1c2-6bfc1df27474","resource":{"resourceType":"MedicationRequest","id":"42dc66c2-1a6f-46dc-a1c2-6bfc1df27474","meta":{"profile":["http://hl7.org/fhir/us/qicore/StructureDefinition/qicore-medicationrequest"]},"status":"active","intent":"order","doNotPerform":false,"medicationCodeableConcept":{"coding":[{"system":"http://www.nlm.nih.gov/research/umls/rxnorm","code":"1000048","display":"doxepin hydrochloride 10 MG Oral Capsule","userSelected":true}]},"subject":{"reference":"Patient/d1fc6b6d-025e-446b-a941-e62a76217e28"},"authoredOn":"2025-06-24T08:00:00.000+00:00","requester":{"reference":"Practitioner/123456"}},"request":{"method":"PUT","url":"MedicationRequest/42dc66c2-1a6f-46dc-a1c2-6bfc1df27474"}},{"fullUrl":"https://madie.cms.gov/Coverage/71aab464-53ef-4788-b63b-2c9fbc81c0c7","resource":{"resourceType":"Coverage","id":"71aab464-53ef-4788-b63b-2c9fbc81c0c7","meta":{"profile":["http://hl7.org/fhir/us/qicore/StructureDefinition/qicore-coverage"]},"status":"active","beneficiary":{"reference":"Patient/d1fc6b6d-025e-446b-a941-e62a76217e28"},"payor":[{"reference":"Organization/a8269403-2e80-4f1e-9375-adccc43249f5"}]},"request":{"method":"PUT","url":"Coverage/71aab464-53ef-4788-b63b-2c9fbc81c0c7"}},{"fullUrl":"https://madie.cms.gov/Organization/a8269403-2e80-4f1e-9375-adccc43249f5","resource":{"resourceType":"Organization","id":"a8269403-2e80-4f1e-9375-adccc43249f5","meta":{"profile":["http://hl7.org/fhir/us/qicore/StructureDefinition/qicore-organization"]},"identifier":[{"use":"temp","system":"urn:oid:2.16.840.1.113883.4.4","value":"21-3259825"}],"active":true,"type":[{"coding":[{"system":"http://terminology.hl7.org/CodeSystem/organization-type","code":"pay","display":"Payer"}]}],"name":"Blue Cross Blue Shield of Texas","telecom":[{"system":"phone","value":"(+1) 972-766-6900"}],"address":[{"use":"billing","type":"postal","line":["P.O. Box 660044"],"city":"Dallas","state":"TX","postalCode":"75266-0044","country":"USA"}]},"request":{"method":"PUT","url":"Organization/a8269403-2e80-4f1e-9375-adccc43249f5"}},{"fullUrl":"https://madie.cms.gov/Practitioner/17a00a81-71f2-4c30-816e-c03304324362","resource":{"resourceType":"Practitioner","id":"17a00a81-71f2-4c30-816e-c03304324362","meta":{"profile":["http://hl7.org/fhir/us/qicore/StructureDefinition/qicore-practitioner"]},"identifier":[{"system":"http://hl7.org/fhir/sid/us-npi","value":"123456"}],"name":[{"family":"Evil","prefix":["Dr"]}]},"request":{"method":"PUT","url":"Practitioner/17a00a81-71f2-4c30-816e-c03304324362"}},{"fullUrl":"https://madie.cms.gov/MeasureReport/3e9082ae-0aea-430a-a2bc-189551e3b6e0","resource":{"resourceType":"MeasureReport","id":"3e9082ae-0aea-430a-a2bc-189551e3b6e0","meta":{"profile":["http://hl7.org/fhir/us/cqfmeasures/StructureDefinition/test-case-cqfm"]},"contained":[{"resourceType":"Parameters","id":"0f0cffce-89a1-4b32-91e1-09e6ee5806da-parameters","parameter":[{"name":"subject","valueString":"d1fc6b6d-025e-446b-a941-e62a76217e28"}]}],"extension":[{"url":"http://hl7.org/fhir/StructureDefinition/cqf-inputParameters","valueReference":{"reference":"#0f0cffce-89a1-4b32-91e1-09e6ee5806da-parameters"}},{"url":"http://hl7.org/fhir/us/cqfmeasures/StructureDefinition/cqfm-testCaseDescription","valueMarkdown":"Adult with previous positive adult depression screening and medication request follow up 3 days after end of encounter"}],"modifierExtension":[{"url":"http://hl7.org/fhir/us/cqfmeasures/StructureDefinition/cqfm-isTestCase","valueBoolean":true}],"status":"complete","type":"individual","measure":"https://madie.cms.gov/Measure/CMS2FHIRPCSDepressionScreenAndFollowUp","period":{"start":"2026-01-01","end":"2026-12-31"},"group":[{"id":"Group_1","population":[{"id":"InitialPopulation_1","code":{"coding":[{"system":"http://terminology.hl7.org/CodeSystem/measure-population","code":"initial-population","display":"Initial Population"}]},"count":1},{"id":"Denominator_1","code":{"coding":[{"system":"http://terminology.hl7.org/CodeSystem/measure-population","code":"denominator","display":"Denominator"}]},"count":1},{"id":"DenominatorExclusion_1","code":{"coding":[{"system":"http://terminology.hl7.org/CodeSystem/measure-population","code":"denominator-exclusion","display":"Denominator Exclusion"}]},"count":0},{"id":"Numerator_1","code":{"coding":[{"system":"http://terminology.hl7.org/CodeSystem/measure-population","code":"numerator","display":"Numerator"}]},"count":0},{"id":"DenominatorException_1","code":{"coding":[{"system":"http://terminology.hl7.org/CodeSystem/measure-population","code":"denominator-exception","display":"Denominator Exception"}]},"count":0}],"measureScore":{"value":1.0}}],"evaluatedResource":[{"reference":"Patient/d1fc6b6d-025e-446b-a941-e62a76217e28"},{"reference":"Encounter/4582eac4-59cf-4474-a801-09f9bff1df36"},{"reference":"Observation/4734ac80-b410-4c3d-a066-acb5473e43ef"},{"reference":"MedicationRequest/42dc66c2-1a6f-46dc-a1c2-6bfc1df27474"},{"reference":"Coverage/71aab464-53ef-4788-b63b-2c9fbc81c0c7"},{"reference":"Organization/a8269403-2e80-4f1e-9375-adccc43249f5"},{"reference":"Practitioner/17a00a81-71f2-4c30-816e-c03304324362"}]},"request":{"method":"PUT","url":"MeasureReport/3e9082ae-0aea-430a-a2bc-189551e3b6e0"}}]},"request":{"method":"PUT","url":"Bundle/62f686a3bc6a474306a95b45"}},{"fullUrl":"Patient/d1fc6b6d-025e-446b-a941-e62a76217e28","resource":{"resourceType":"Patient","id":"d1fc6b6d-025e-446b-a941-e62a76217e28","meta":{"profile":["http://hl7.org/fhir/us/qicore/StructureDefinition/qicore-patient"]},"extension":[{"url":"http://hl7.org/fhir/us/core/StructureDefinition/us-core-race","extension":[{"url":"ombCategory","valueCoding":{"system":"urn:oid:2.16.840.1.113883.6.238","code":"1002-5","display":"American Indian or Alaska Native","userSelected":true}},{"url":"text","valueString":"American Indian or Alaska Native"}]},{"url":"http://hl7.org/fhir/us/core/StructureDefinition/us-core-ethnicity","extension":[{"url":"ombCategory","valueCoding":{"system":"urn:oid:2.16.840.1.113883.6.238","code":"2135-2","display":"Hispanic or Latino","userSelected":true}},{"url":"text","valueString":"Hispanic or Latino"}]}],"identifier":[{"type":{"coding":[{"system":"http://terminology.hl7.org/CodeSystem/v2-0203","code":"MR"}]},"system":"https://bonnie-fhir.healthit.gov/","value":"62f686a3bc6a474306a95b45"}],"name":[{"family":"NUMERFail","given":["PosAdultDepScreenandFU3DAfterEndOfEnc"]}],"gender":"male","birthDate":"2008-01-01"},"request":{"method":"PUT","url":"Patient/d1fc6b6d-025e-446b-a941-e62a76217e28"}},{"fullUrl":"MedicationRequest/42dc66c2-1a6f-46dc-a1c2-6bfc1df27474","resource":{"resourceType":"MedicationRequest","id":"42dc66c2-1a6f-46dc-a1c2-6bfc1df27474","meta":{"profile":["http://hl7.org/fhir/us/qicore/StructureDefinition/qicore-medicationrequest"]},"status":"active","intent":"order","doNotPerform":false,"medicationCodeableConcept":{"coding":[{"system":"http://www.nlm.nih.gov/research/umls/rxnorm","code":"1000048","display":"doxepin hydrochloride 10 MG Oral Capsule","userSelected":true}]},"subject":{"reference":"Patient/d1fc6b6d-025e-446b-a941-e62a76217e28"},"authoredOn":"2025-06-24T08:00:00.000+00:00","requester":{"reference":"Practitioner/123456"}},"request":{"method":"PUT","url":"MedicationRequest/42dc66c2-1a6f-46dc-a1c2-6bfc1df27474"}}]}