{"resourceType":"Bundle","id":"tests-6f3808b3-69a2-4080-9529-8582b4d5c5d5-bundle","type":"transaction","entry":[{"fullUrl":"Condition/774c2ea1-d2fa-4e00-bde3-b9020b4fa66e","resource":{"resourceType":"Condition","id":"774c2ea1-d2fa-4e00-bde3-b9020b4fa66e","meta":{"profile":["http://hl7.org/fhir/us/qicore/StructureDefinition/qicore-condition-problems-health-concerns"]},"clinicalStatus":{"coding":[{"system":"http://terminology.hl7.org/CodeSystem/condition-clinical","code":"relapse","display":"relapse","userSelected":true}]},"category":[{"coding":[{"system":"http://hl7.org/fhir/us/core/CodeSystem/condition-category","code":"health-concern","display":"Health Concern"}]}],"code":{"coding":[{"system":"http://snomed.info/sct","version":"2021-09","code":"10875004","display":"Severe mixed bipolar I disorder with psychotic features, mood-incongruent (disorder)","userSelected":true}]},"subject":{"reference":"Patient/6f3808b3-69a2-4080-9529-8582b4d5c5d5"},"onsetDateTime":"2026-06-14T07:59:00.000+00:00"},"request":{"method":"PUT","url":"Condition/774c2ea1-d2fa-4e00-bde3-b9020b4fa66e"}},{"fullUrl":"Organization/1bf59ef0-4736-4258-900b-685c32a92d96","resource":{"resourceType":"Organization","id":"1bf59ef0-4736-4258-900b-685c32a92d96","meta":{"profile":["http://hl7.org/fhir/us/qicore/StructureDefinition/qicore-organization"]},"identifier":[{"use":"temp","system":"urn:oid:2.16.840.1.113883.4.4","value":"21-3259825"}],"active":true,"type":[{"coding":[{"system":"http://terminology.hl7.org/CodeSystem/organization-type","code":"pay","display":"Payer"}]}],"name":"Blue Cross Blue Shield of Texas","telecom":[{"system":"phone","value":"(+1) 972-766-6900"}],"address":[{"use":"billing","type":"postal","line":["P.O. Box 660044"],"city":"Dallas","state":"TX","postalCode":"75266-0044","country":"USA"}]},"request":{"method":"PUT","url":"Organization/1bf59ef0-4736-4258-900b-685c32a92d96"}},{"fullUrl":"MeasureReport/cfa2dd40-a047-4af6-af24-1fc981f36d0e","resource":{"resourceType":"MeasureReport","id":"cfa2dd40-a047-4af6-af24-1fc981f36d0e","meta":{"profile":["http://hl7.org/fhir/us/cqfmeasures/StructureDefinition/test-case-cqfm"]},"contained":[{"resourceType":"Parameters","id":"b2474133-85cd-44f2-9d98-f8afea564bc6-parameters","parameter":[{"name":"subject","valueString":"6f3808b3-69a2-4080-9529-8582b4d5c5d5"}]}],"extension":[{"url":"http://hl7.org/fhir/StructureDefinition/cqf-inputParameters","valueReference":{"reference":"#b2474133-85cd-44f2-9d98-f8afea564bc6-parameters"}},{"url":"http://hl7.org/fhir/us/cqfmeasures/StructureDefinition/cqfm-testCaseDescription","valueMarkdown":"18 yo patient with history of bipolar - relapse"}],"modifierExtension":[{"url":"http://hl7.org/fhir/us/cqfmeasures/StructureDefinition/cqfm-isTestCase","valueBoolean":true}],"status":"complete","type":"individual","measure":"https://madie.cms.gov/Measure/CMS2FHIRPCSDepressionScreenAndFollowUp","period":{"start":"2026-01-01","end":"2026-12-31"},"group":[{"id":"Group_1","population":[{"id":"InitialPopulation_1","code":{"coding":[{"system":"http://terminology.hl7.org/CodeSystem/measure-population","code":"initial-population","display":"Initial Population"}]},"count":1},{"id":"Denominator_1","code":{"coding":[{"system":"http://terminology.hl7.org/CodeSystem/measure-population","code":"denominator","display":"Denominator"}]},"count":1},{"id":"DenominatorExclusion_1","code":{"coding":[{"system":"http://terminology.hl7.org/CodeSystem/measure-population","code":"denominator-exclusion","display":"Denominator Exclusion"}]},"count":1},{"id":"Numerator_1","code":{"coding":[{"system":"http://terminology.hl7.org/CodeSystem/measure-population","code":"numerator","display":"Numerator"}]},"count":0},{"id":"DenominatorException_1","code":{"coding":[{"system":"http://terminology.hl7.org/CodeSystem/measure-population","code":"denominator-exception","display":"Denominator Exception"}]},"count":0}],"measureScore":{"value":1.0}}],"evaluatedResource":[{"reference":"Patient/6f3808b3-69a2-4080-9529-8582b4d5c5d5"},{"reference":"Encounter/d2df9edc-18c7-41c2-9271-f489fe62d9f0"},{"reference":"Condition/774c2ea1-d2fa-4e00-bde3-b9020b4fa66e"},{"reference":"Coverage/21946363-8683-4306-beb1-3f3307581716"},{"reference":"Organization/1bf59ef0-4736-4258-900b-685c32a92d96"},{"reference":"Practitioner/78969a42-bfc7-4fb3-a695-d6d36a72b8da"}]},"request":{"method":"PUT","url":"MeasureReport/cfa2dd40-a047-4af6-af24-1fc981f36d0e"}},{"fullUrl":"Encounter/d2df9edc-18c7-41c2-9271-f489fe62d9f0","resource":{"resourceType":"Encounter","id":"d2df9edc-18c7-41c2-9271-f489fe62d9f0","meta":{"profile":["http://hl7.org/fhir/us/qicore/StructureDefinition/qicore-encounter"]},"status":"finished","class":{"system":"http://terminology.hl7.org/CodeSystem/v3-ActCode","code":"AMB","display":"ambulatory"},"type":[{"coding":[{"system":"http://snomed.info/sct","version":"2021-09","code":"10197000","display":"Psychiatric interview and evaluation (procedure)","userSelected":true}]}],"subject":{"reference":"Patient/6f3808b3-69a2-4080-9529-8582b4d5c5d5"},"period":{"start":"2026-06-15T08:00:00.000+00:00","end":"2026-06-21T08:15:00.000+00:00"}},"request":{"method":"PUT","url":"Encounter/d2df9edc-18c7-41c2-9271-f489fe62d9f0"}},{"fullUrl":"Patient/6f3808b3-69a2-4080-9529-8582b4d5c5d5","resource":{"resourceType":"Patient","id":"6f3808b3-69a2-4080-9529-8582b4d5c5d5","meta":{"profile":["http://hl7.org/fhir/us/qicore/StructureDefinition/qicore-patient"]},"extension":[{"url":"http://hl7.org/fhir/us/core/StructureDefinition/us-core-race","extension":[{"url":"ombCategory","valueCoding":{"system":"urn:oid:2.16.840.1.113883.6.238","code":"1002-5","display":"American Indian or Alaska Native","userSelected":true}},{"url":"text","valueString":"American Indian or Alaska Native"}]},{"url":"http://hl7.org/fhir/us/core/StructureDefinition/us-core-ethnicity","extension":[{"url":"ombCategory","valueCoding":{"system":"urn:oid:2.16.840.1.113883.6.238","code":"2135-2","display":"Hispanic or Latino","userSelected":true}},{"url":"text","valueString":"Hispanic or Latino"}]}],"identifier":[{"type":{"coding":[{"system":"http://terminology.hl7.org/CodeSystem/v2-0203","code":"MR"}]},"system":"https://bonnie-fhir.healthit.gov/","value":"62b1e15a3968556e5150cf3b"}],"name":[{"family":"DENOMEXPass","given":["AdultHistoryOfBipolarRelapse"]}],"gender":"male","birthDate":"2008-01-01"},"request":{"method":"PUT","url":"Patient/6f3808b3-69a2-4080-9529-8582b4d5c5d5"}},{"fullUrl":"Bundle/62b1e15a3968556e5150cf3b","resource":{"resourceType":"Bundle","id":"62b1e15a3968556e5150cf3b","type":"transaction","entry":[{"fullUrl":"https://madie.cms.gov/Patient/6f3808b3-69a2-4080-9529-8582b4d5c5d5","resource":{"resourceType":"Patient","id":"6f3808b3-69a2-4080-9529-8582b4d5c5d5","meta":{"profile":["http://hl7.org/fhir/us/qicore/StructureDefinition/qicore-patient"]},"extension":[{"url":"http://hl7.org/fhir/us/core/StructureDefinition/us-core-race","extension":[{"url":"ombCategory","valueCoding":{"system":"urn:oid:2.16.840.1.113883.6.238","code":"1002-5","display":"American Indian or Alaska Native","userSelected":true}},{"url":"text","valueString":"American Indian or Alaska Native"}]},{"url":"http://hl7.org/fhir/us/core/StructureDefinition/us-core-ethnicity","extension":[{"url":"ombCategory","valueCoding":{"system":"urn:oid:2.16.840.1.113883.6.238","code":"2135-2","display":"Hispanic or Latino","userSelected":true}},{"url":"text","valueString":"Hispanic or Latino"}]}],"identifier":[{"type":{"coding":[{"system":"http://terminology.hl7.org/CodeSystem/v2-0203","code":"MR"}]},"system":"https://bonnie-fhir.healthit.gov/","value":"62b1e15a3968556e5150cf3b"}],"name":[{"family":"DENOMEXPass","given":["AdultHistoryOfBipolarRelapse"]}],"gender":"male","birthDate":"2008-01-01"},"request":{"method":"PUT","url":"Patient/6f3808b3-69a2-4080-9529-8582b4d5c5d5"}},{"fullUrl":"https://madie.cms.gov/Encounter/d2df9edc-18c7-41c2-9271-f489fe62d9f0","resource":{"resourceType":"Encounter","id":"d2df9edc-18c7-41c2-9271-f489fe62d9f0","meta":{"profile":["http://hl7.org/fhir/us/qicore/StructureDefinition/qicore-encounter"]},"status":"finished","class":{"system":"http://terminology.hl7.org/CodeSystem/v3-ActCode","code":"AMB","display":"ambulatory"},"type":[{"coding":[{"system":"http://snomed.info/sct","version":"2021-09","code":"10197000","display":"Psychiatric interview and evaluation (procedure)","userSelected":true}]}],"subject":{"reference":"Patient/6f3808b3-69a2-4080-9529-8582b4d5c5d5"},"period":{"start":"2026-06-15T08:00:00.000+00:00","end":"2026-06-21T08:15:00.000+00:00"}},"request":{"method":"PUT","url":"Encounter/d2df9edc-18c7-41c2-9271-f489fe62d9f0"}},{"fullUrl":"https://madie.cms.gov/Condition/774c2ea1-d2fa-4e00-bde3-b9020b4fa66e","resource":{"resourceType":"Condition","id":"774c2ea1-d2fa-4e00-bde3-b9020b4fa66e","meta":{"profile":["http://hl7.org/fhir/us/qicore/StructureDefinition/qicore-condition-problems-health-concerns"]},"clinicalStatus":{"coding":[{"system":"http://terminology.hl7.org/CodeSystem/condition-clinical","code":"relapse","display":"relapse","userSelected":true}]},"category":[{"coding":[{"system":"http://hl7.org/fhir/us/core/CodeSystem/condition-category","code":"health-concern","display":"Health Concern"}]}],"code":{"coding":[{"system":"http://snomed.info/sct","version":"2021-09","code":"10875004","display":"Severe mixed bipolar I disorder with psychotic features, mood-incongruent (disorder)","userSelected":true}]},"subject":{"reference":"Patient/6f3808b3-69a2-4080-9529-8582b4d5c5d5"},"onsetDateTime":"2026-06-14T07:59:00.000+00:00"},"request":{"method":"PUT","url":"Condition/774c2ea1-d2fa-4e00-bde3-b9020b4fa66e"}},{"fullUrl":"https://madie.cms.gov/Coverage/21946363-8683-4306-beb1-3f3307581716","resource":{"resourceType":"Coverage","id":"21946363-8683-4306-beb1-3f3307581716","meta":{"profile":["http://hl7.org/fhir/us/qicore/StructureDefinition/qicore-coverage"]},"status":"active","beneficiary":{"reference":"Patient/6f3808b3-69a2-4080-9529-8582b4d5c5d5"},"payor":[{"reference":"Organization/1bf59ef0-4736-4258-900b-685c32a92d96"}]},"request":{"method":"PUT","url":"Coverage/21946363-8683-4306-beb1-3f3307581716"}},{"fullUrl":"https://madie.cms.gov/Organization/1bf59ef0-4736-4258-900b-685c32a92d96","resource":{"resourceType":"Organization","id":"1bf59ef0-4736-4258-900b-685c32a92d96","meta":{"profile":["http://hl7.org/fhir/us/qicore/StructureDefinition/qicore-organization"]},"identifier":[{"use":"temp","system":"urn:oid:2.16.840.1.113883.4.4","value":"21-3259825"}],"active":true,"type":[{"coding":[{"system":"http://terminology.hl7.org/CodeSystem/organization-type","code":"pay","display":"Payer"}]}],"name":"Blue Cross Blue Shield of Texas","telecom":[{"system":"phone","value":"(+1) 972-766-6900"}],"address":[{"use":"billing","type":"postal","line":["P.O. Box 660044"],"city":"Dallas","state":"TX","postalCode":"75266-0044","country":"USA"}]},"request":{"method":"PUT","url":"Organization/1bf59ef0-4736-4258-900b-685c32a92d96"}},{"fullUrl":"https://madie.cms.gov/Practitioner/78969a42-bfc7-4fb3-a695-d6d36a72b8da","resource":{"resourceType":"Practitioner","id":"78969a42-bfc7-4fb3-a695-d6d36a72b8da","meta":{"profile":["http://hl7.org/fhir/us/qicore/StructureDefinition/qicore-practitioner"]},"identifier":[{"system":"http://hl7.org/fhir/sid/us-npi","value":"123456"}],"name":[{"family":"Evil","prefix":["Dr"]}]},"request":{"method":"PUT","url":"Practitioner/78969a42-bfc7-4fb3-a695-d6d36a72b8da"}},{"fullUrl":"https://madie.cms.gov/MeasureReport/cfa2dd40-a047-4af6-af24-1fc981f36d0e","resource":{"resourceType":"MeasureReport","id":"cfa2dd40-a047-4af6-af24-1fc981f36d0e","meta":{"profile":["http://hl7.org/fhir/us/cqfmeasures/StructureDefinition/test-case-cqfm"]},"contained":[{"resourceType":"Parameters","id":"b2474133-85cd-44f2-9d98-f8afea564bc6-parameters","parameter":[{"name":"subject","valueString":"6f3808b3-69a2-4080-9529-8582b4d5c5d5"}]}],"extension":[{"url":"http://hl7.org/fhir/StructureDefinition/cqf-inputParameters","valueReference":{"reference":"#b2474133-85cd-44f2-9d98-f8afea564bc6-parameters"}},{"url":"http://hl7.org/fhir/us/cqfmeasures/StructureDefinition/cqfm-testCaseDescription","valueMarkdown":"18 yo patient with history of bipolar - relapse"}],"modifierExtension":[{"url":"http://hl7.org/fhir/us/cqfmeasures/StructureDefinition/cqfm-isTestCase","valueBoolean":true}],"status":"complete","type":"individual","measure":"https://madie.cms.gov/Measure/CMS2FHIRPCSDepressionScreenAndFollowUp","period":{"start":"2026-01-01","end":"2026-12-31"},"group":[{"id":"Group_1","population":[{"id":"InitialPopulation_1","code":{"coding":[{"system":"http://terminology.hl7.org/CodeSystem/measure-population","code":"initial-population","display":"Initial Population"}]},"count":1},{"id":"Denominator_1","code":{"coding":[{"system":"http://terminology.hl7.org/CodeSystem/measure-population","code":"denominator","display":"Denominator"}]},"count":1},{"id":"DenominatorExclusion_1","code":{"coding":[{"system":"http://terminology.hl7.org/CodeSystem/measure-population","code":"denominator-exclusion","display":"Denominator Exclusion"}]},"count":1},{"id":"Numerator_1","code":{"coding":[{"system":"http://terminology.hl7.org/CodeSystem/measure-population","code":"numerator","display":"Numerator"}]},"count":0},{"id":"DenominatorException_1","code":{"coding":[{"system":"http://terminology.hl7.org/CodeSystem/measure-population","code":"denominator-exception","display":"Denominator Exception"}]},"count":0}],"measureScore":{"value":1.0}}],"evaluatedResource":[{"reference":"Patient/6f3808b3-69a2-4080-9529-8582b4d5c5d5"},{"reference":"Encounter/d2df9edc-18c7-41c2-9271-f489fe62d9f0"},{"reference":"Condition/774c2ea1-d2fa-4e00-bde3-b9020b4fa66e"},{"reference":"Coverage/21946363-8683-4306-beb1-3f3307581716"},{"reference":"Organization/1bf59ef0-4736-4258-900b-685c32a92d96"},{"reference":"Practitioner/78969a42-bfc7-4fb3-a695-d6d36a72b8da"}]},"request":{"method":"PUT","url":"MeasureReport/cfa2dd40-a047-4af6-af24-1fc981f36d0e"}}]},"request":{"method":"PUT","url":"Bundle/62b1e15a3968556e5150cf3b"}},{"fullUrl":"Coverage/21946363-8683-4306-beb1-3f3307581716","resource":{"resourceType":"Coverage","id":"21946363-8683-4306-beb1-3f3307581716","meta":{"profile":["http://hl7.org/fhir/us/qicore/StructureDefinition/qicore-coverage"]},"status":"active","beneficiary":{"reference":"Patient/6f3808b3-69a2-4080-9529-8582b4d5c5d5"},"payor":[{"reference":"Organization/1bf59ef0-4736-4258-900b-685c32a92d96"}]},"request":{"method":"PUT","url":"Coverage/21946363-8683-4306-beb1-3f3307581716"}},{"fullUrl":"Practitioner/78969a42-bfc7-4fb3-a695-d6d36a72b8da","resource":{"resourceType":"Practitioner","id":"78969a42-bfc7-4fb3-a695-d6d36a72b8da","meta":{"profile":["http://hl7.org/fhir/us/qicore/StructureDefinition/qicore-practitioner"]},"identifier":[{"system":"http://hl7.org/fhir/sid/us-npi","value":"123456"}],"name":[{"family":"Evil","prefix":["Dr"]}]},"request":{"method":"PUT","url":"Practitioner/78969a42-bfc7-4fb3-a695-d6d36a72b8da"}}]}