{"resourceType":"Bundle","id":"tests-39c99530-08b9-4ed2-bac7-6a59c1e1ad71-bundle","type":"transaction","entry":[{"resource":{"resourceType":"Encounter","id":"ba595649-a804-4a16-a11e-fa19d8c45bd7","meta":{"profile":["http://hl7.org/fhir/us/qicore/StructureDefinition/qicore-encounter"]},"status":"finished","class":{"system":"http://terminology.hl7.org/CodeSystem/v3-ActCode","code":"AMB","display":"ambulatory"},"type":[{"coding":[{"system":"http://snomed.info/sct","version":"2021-09","code":"10197000","display":"Psychiatric interview and evaluation (procedure)","userSelected":true}]}],"subject":{"reference":"Patient/39c99530-08b9-4ed2-bac7-6a59c1e1ad71"},"period":{"start":"2026-08-12T08:00:00.000+00:00","end":"2026-08-12T08:15:00.000+00:00"}},"request":{"method":"PUT","url":"Encounter/ba595649-a804-4a16-a11e-fa19d8c45bd7"}},{"resource":{"resourceType":"Bundle","id":"62f6640e5efef5272905e711","type":"transaction","entry":[{"fullUrl":"https://madie.cms.gov/Patient/39c99530-08b9-4ed2-bac7-6a59c1e1ad71","resource":{"resourceType":"Patient","id":"39c99530-08b9-4ed2-bac7-6a59c1e1ad71","meta":{"profile":["http://hl7.org/fhir/us/qicore/StructureDefinition/qicore-patient"]},"extension":[{"url":"http://hl7.org/fhir/us/core/StructureDefinition/us-core-race","extension":[{"url":"ombCategory","valueCoding":{"system":"urn:oid:2.16.840.1.113883.6.238","code":"1002-5","display":"American Indian or Alaska Native","userSelected":true}},{"url":"text","valueString":"American Indian or Alaska Native"}]},{"url":"http://hl7.org/fhir/us/core/StructureDefinition/us-core-ethnicity","extension":[{"url":"ombCategory","valueCoding":{"system":"urn:oid:2.16.840.1.113883.6.238","code":"2135-2","display":"Hispanic or Latino","userSelected":true}},{"url":"text","valueString":"Hispanic or Latino"}]}],"identifier":[{"type":{"coding":[{"system":"http://terminology.hl7.org/CodeSystem/v2-0203","code":"MR"}]},"system":"https://bonnie-fhir.healthit.gov/","value":"62f6640e5efef5272905e711"}],"name":[{"family":"DENOMPass","given":["AdultDepressionScreening"]}],"gender":"female","birthDate":"2008-01-01"},"request":{"method":"PUT","url":"Patient/39c99530-08b9-4ed2-bac7-6a59c1e1ad71"}},{"fullUrl":"https://madie.cms.gov/Encounter/ba595649-a804-4a16-a11e-fa19d8c45bd7","resource":{"resourceType":"Encounter","id":"ba595649-a804-4a16-a11e-fa19d8c45bd7","meta":{"profile":["http://hl7.org/fhir/us/qicore/StructureDefinition/qicore-encounter"]},"status":"finished","class":{"system":"http://terminology.hl7.org/CodeSystem/v3-ActCode","code":"AMB","display":"ambulatory"},"type":[{"coding":[{"system":"http://snomed.info/sct","version":"2021-09","code":"10197000","display":"Psychiatric interview and evaluation (procedure)","userSelected":true}]}],"subject":{"reference":"Patient/39c99530-08b9-4ed2-bac7-6a59c1e1ad71"},"period":{"start":"2026-08-12T08:00:00.000+00:00","end":"2026-08-12T08:15:00.000+00:00"}},"request":{"method":"PUT","url":"Encounter/ba595649-a804-4a16-a11e-fa19d8c45bd7"}},{"fullUrl":"https://madie.cms.gov/MeasureReport/1b05916c-64d8-4ffe-a7ed-b2e82802a882","resource":{"resourceType":"MeasureReport","id":"1b05916c-64d8-4ffe-a7ed-b2e82802a882","meta":{"profile":["http://hl7.org/fhir/us/cqfmeasures/StructureDefinition/test-case-cqfm"]},"contained":[{"resourceType":"Parameters","id":"2f544518-d002-44ee-af87-7f50fd3fa5ef-parameters","parameter":[{"name":"subject","valueString":"39c99530-08b9-4ed2-bac7-6a59c1e1ad71"}]}],"extension":[{"url":"http://hl7.org/fhir/StructureDefinition/cqf-inputParameters","valueReference":{"reference":"#2f544518-d002-44ee-af87-7f50fd3fa5ef-parameters"}},{"url":"http://hl7.org/fhir/us/cqfmeasures/StructureDefinition/cqfm-testCaseDescription","valueMarkdown":"18 yo female with depression screening"}],"modifierExtension":[{"url":"http://hl7.org/fhir/us/cqfmeasures/StructureDefinition/cqfm-isTestCase","valueBoolean":true}],"status":"complete","type":"individual","measure":"https://madie.cms.gov/Measure/CMS2FHIRPCSDepressionScreenAndFollowUp","period":{"start":"2026-01-01","end":"2026-12-31"},"group":[{"id":"Group_1","population":[{"id":"InitialPopulation_1","code":{"coding":[{"system":"http://terminology.hl7.org/CodeSystem/measure-population","code":"initial-population","display":"Initial Population"}]},"count":1},{"id":"Denominator_1","code":{"coding":[{"system":"http://terminology.hl7.org/CodeSystem/measure-population","code":"denominator","display":"Denominator"}]},"count":1},{"id":"DenominatorExclusion_1","code":{"coding":[{"system":"http://terminology.hl7.org/CodeSystem/measure-population","code":"denominator-exclusion","display":"Denominator Exclusion"}]},"count":0},{"id":"Numerator_1","code":{"coding":[{"system":"http://terminology.hl7.org/CodeSystem/measure-population","code":"numerator","display":"Numerator"}]},"count":0},{"id":"DenominatorException_1","code":{"coding":[{"system":"http://terminology.hl7.org/CodeSystem/measure-population","code":"denominator-exception","display":"Denominator Exception"}]},"count":0}],"measureScore":{"value":1.0}}],"evaluatedResource":[{"reference":"Patient/39c99530-08b9-4ed2-bac7-6a59c1e1ad71"},{"reference":"Encounter/ba595649-a804-4a16-a11e-fa19d8c45bd7"}]},"request":{"method":"PUT","url":"MeasureReport/1b05916c-64d8-4ffe-a7ed-b2e82802a882"}}]},"request":{"method":"PUT","url":"Bundle/62f6640e5efef5272905e711"}},{"resource":{"resourceType":"Patient","id":"39c99530-08b9-4ed2-bac7-6a59c1e1ad71","meta":{"profile":["http://hl7.org/fhir/us/qicore/StructureDefinition/qicore-patient"]},"extension":[{"url":"http://hl7.org/fhir/us/core/StructureDefinition/us-core-race","extension":[{"url":"ombCategory","valueCoding":{"system":"urn:oid:2.16.840.1.113883.6.238","code":"1002-5","display":"American Indian or Alaska Native","userSelected":true}},{"url":"text","valueString":"American Indian or Alaska Native"}]},{"url":"http://hl7.org/fhir/us/core/StructureDefinition/us-core-ethnicity","extension":[{"url":"ombCategory","valueCoding":{"system":"urn:oid:2.16.840.1.113883.6.238","code":"2135-2","display":"Hispanic or Latino","userSelected":true}},{"url":"text","valueString":"Hispanic or Latino"}]}],"identifier":[{"type":{"coding":[{"system":"http://terminology.hl7.org/CodeSystem/v2-0203","code":"MR"}]},"system":"https://bonnie-fhir.healthit.gov/","value":"62f6640e5efef5272905e711"}],"name":[{"family":"DENOMPass","given":["AdultDepressionScreening"]}],"gender":"female","birthDate":"2008-01-01"},"request":{"method":"PUT","url":"Patient/39c99530-08b9-4ed2-bac7-6a59c1e1ad71"}},{"resource":{"resourceType":"MeasureReport","id":"1b05916c-64d8-4ffe-a7ed-b2e82802a882","meta":{"profile":["http://hl7.org/fhir/us/cqfmeasures/StructureDefinition/test-case-cqfm"]},"contained":[{"resourceType":"Parameters","id":"2f544518-d002-44ee-af87-7f50fd3fa5ef-parameters","parameter":[{"name":"subject","valueString":"39c99530-08b9-4ed2-bac7-6a59c1e1ad71"}]}],"extension":[{"url":"http://hl7.org/fhir/StructureDefinition/cqf-inputParameters","valueReference":{"reference":"#2f544518-d002-44ee-af87-7f50fd3fa5ef-parameters"}},{"url":"http://hl7.org/fhir/us/cqfmeasures/StructureDefinition/cqfm-testCaseDescription","valueMarkdown":"18 yo female with depression screening"}],"modifierExtension":[{"url":"http://hl7.org/fhir/us/cqfmeasures/StructureDefinition/cqfm-isTestCase","valueBoolean":true}],"status":"complete","type":"individual","measure":"https://madie.cms.gov/Measure/CMS2FHIRPCSDepressionScreenAndFollowUp","period":{"start":"2026-01-01","end":"2026-12-31"},"group":[{"id":"Group_1","population":[{"id":"InitialPopulation_1","code":{"coding":[{"system":"http://terminology.hl7.org/CodeSystem/measure-population","code":"initial-population","display":"Initial Population"}]},"count":1},{"id":"Denominator_1","code":{"coding":[{"system":"http://terminology.hl7.org/CodeSystem/measure-population","code":"denominator","display":"Denominator"}]},"count":1},{"id":"DenominatorExclusion_1","code":{"coding":[{"system":"http://terminology.hl7.org/CodeSystem/measure-population","code":"denominator-exclusion","display":"Denominator Exclusion"}]},"count":0},{"id":"Numerator_1","code":{"coding":[{"system":"http://terminology.hl7.org/CodeSystem/measure-population","code":"numerator","display":"Numerator"}]},"count":0},{"id":"DenominatorException_1","code":{"coding":[{"system":"http://terminology.hl7.org/CodeSystem/measure-population","code":"denominator-exception","display":"Denominator Exception"}]},"count":0}],"measureScore":{"value":1.0}}],"evaluatedResource":[{"reference":"Patient/39c99530-08b9-4ed2-bac7-6a59c1e1ad71"},{"reference":"Encounter/ba595649-a804-4a16-a11e-fa19d8c45bd7"}]},"request":{"method":"PUT","url":"MeasureReport/1b05916c-64d8-4ffe-a7ed-b2e82802a882"}}]}