{"resourceType":"Bundle","id":"tests-f256f4bb-e5ad-4e93-bee7-7237b1fa275a-bundle","type":"transaction","entry":[{"fullUrl":"Observation/70b03e81-dfd4-48e7-a360-35b14d6dc31b","resource":{"resourceType":"Observation","id":"70b03e81-dfd4-48e7-a360-35b14d6dc31b","meta":{"profile":["http://hl7.org/fhir/us/qicore/StructureDefinition/qicore-observation-screening-assessment"]},"status":"final","category":[{"coding":[{"system":"http://terminology.hl7.org/CodeSystem/observation-category","code":"procedure","display":"Procedure"}]}],"code":{"coding":[{"system":"http://loinc.org","code":"73832-8","display":"Adult depression screening assessment","userSelected":true}]},"subject":{"reference":"Patient/f256f4bb-e5ad-4e93-bee7-7237b1fa275a"},"effectiveDateTime":"2026-06-15T08:00:00.000+00:00","valueCodeableConcept":{"coding":[{"system":"http://snomed.info/sct","code":"428171000124102","display":"Depression screening negative (finding)","userSelected":true}]}},"request":{"method":"PUT","url":"Observation/70b03e81-dfd4-48e7-a360-35b14d6dc31b"}},{"fullUrl":"Bundle/62b1dee33968556e5150cf32","resource":{"resourceType":"Bundle","id":"62b1dee33968556e5150cf32","type":"transaction","entry":[{"fullUrl":"https://madie.cms.gov/Patient/f256f4bb-e5ad-4e93-bee7-7237b1fa275a","resource":{"resourceType":"Patient","id":"f256f4bb-e5ad-4e93-bee7-7237b1fa275a","meta":{"profile":["http://hl7.org/fhir/us/qicore/StructureDefinition/qicore-patient"]},"extension":[{"url":"http://hl7.org/fhir/us/core/StructureDefinition/us-core-race","extension":[{"url":"ombCategory","valueCoding":{"system":"urn:oid:2.16.840.1.113883.6.238","code":"1002-5","display":"American Indian or Alaska Native","userSelected":true}},{"url":"text","valueString":"American Indian or Alaska Native"}]},{"url":"http://hl7.org/fhir/us/core/StructureDefinition/us-core-ethnicity","extension":[{"url":"ombCategory","valueCoding":{"system":"urn:oid:2.16.840.1.113883.6.238","code":"2135-2","display":"Hispanic or Latino","userSelected":true}},{"url":"text","valueString":"Hispanic or Latino"}]}],"identifier":[{"type":{"coding":[{"system":"http://terminology.hl7.org/CodeSystem/v2-0203","code":"MR"}]},"system":"https://bonnie-fhir.healthit.gov/","value":"62b1dee33968556e5150cf32"}],"name":[{"family":"NUMERPass","given":["17yoNegativeAdultDepressionScreening"]}],"gender":"male","birthDate":"2009-01-01"},"request":{"method":"PUT","url":"Patient/f256f4bb-e5ad-4e93-bee7-7237b1fa275a"}},{"fullUrl":"https://madie.cms.gov/Encounter/b5ebada8-6f71-44f1-b110-053988d26fa4","resource":{"resourceType":"Encounter","id":"b5ebada8-6f71-44f1-b110-053988d26fa4","meta":{"profile":["http://hl7.org/fhir/us/qicore/StructureDefinition/qicore-encounter"]},"status":"finished","class":{"system":"http://terminology.hl7.org/CodeSystem/v3-ActCode","code":"AMB","display":"ambulatory"},"type":[{"coding":[{"system":"http://snomed.info/sct","version":"2021-09","code":"10197000","display":"Psychiatric interview and evaluation (procedure)","userSelected":true}]}],"subject":{"reference":"Patient/f256f4bb-e5ad-4e93-bee7-7237b1fa275a"},"period":{"start":"2026-06-21T08:00:00.000+00:00","end":"2026-06-21T08:15:00.000+00:00"}},"request":{"method":"PUT","url":"Encounter/b5ebada8-6f71-44f1-b110-053988d26fa4"}},{"fullUrl":"https://madie.cms.gov/Observation/70b03e81-dfd4-48e7-a360-35b14d6dc31b","resource":{"resourceType":"Observation","id":"70b03e81-dfd4-48e7-a360-35b14d6dc31b","meta":{"profile":["http://hl7.org/fhir/us/qicore/StructureDefinition/qicore-observation-screening-assessment"]},"status":"final","category":[{"coding":[{"system":"http://terminology.hl7.org/CodeSystem/observation-category","code":"procedure","display":"Procedure"}]}],"code":{"coding":[{"system":"http://loinc.org","code":"73832-8","display":"Adult depression screening assessment","userSelected":true}]},"subject":{"reference":"Patient/f256f4bb-e5ad-4e93-bee7-7237b1fa275a"},"effectiveDateTime":"2026-06-15T08:00:00.000+00:00","valueCodeableConcept":{"coding":[{"system":"http://snomed.info/sct","code":"428171000124102","display":"Depression screening negative (finding)","userSelected":true}]}},"request":{"method":"PUT","url":"Observation/70b03e81-dfd4-48e7-a360-35b14d6dc31b"}},{"fullUrl":"https://madie.cms.gov/Coverage/6ee72265-2edc-4af1-8a52-8ab26c059910","resource":{"resourceType":"Coverage","id":"6ee72265-2edc-4af1-8a52-8ab26c059910","meta":{"profile":["http://hl7.org/fhir/us/qicore/StructureDefinition/qicore-coverage"]},"status":"active","beneficiary":{"reference":"Patient/f256f4bb-e5ad-4e93-bee7-7237b1fa275a"},"payor":[{"reference":"Organization/723e453a-9b0d-4280-a6f1-3388b368c234"}]},"request":{"method":"PUT","url":"Coverage/6ee72265-2edc-4af1-8a52-8ab26c059910"}},{"fullUrl":"https://madie.cms.gov/Organization/723e453a-9b0d-4280-a6f1-3388b368c234","resource":{"resourceType":"Organization","id":"723e453a-9b0d-4280-a6f1-3388b368c234","meta":{"profile":["http://hl7.org/fhir/us/qicore/StructureDefinition/qicore-organization"]},"identifier":[{"use":"temp","system":"urn:oid:2.16.840.1.113883.4.4","value":"21-3259825"}],"active":true,"type":[{"coding":[{"system":"http://terminology.hl7.org/CodeSystem/organization-type","code":"pay","display":"Payer"}]}],"name":"Blue Cross Blue Shield of Texas","telecom":[{"system":"phone","value":"(+1) 972-766-6900"}],"address":[{"use":"billing","type":"postal","line":["P.O. Box 660044"],"city":"Dallas","state":"TX","postalCode":"75266-0044","country":"USA"}]},"request":{"method":"PUT","url":"Organization/723e453a-9b0d-4280-a6f1-3388b368c234"}},{"fullUrl":"https://madie.cms.gov/Practitioner/ae82d168-c00c-4326-99fc-5a23e6914402","resource":{"resourceType":"Practitioner","id":"ae82d168-c00c-4326-99fc-5a23e6914402","meta":{"profile":["http://hl7.org/fhir/us/qicore/StructureDefinition/qicore-practitioner"]},"identifier":[{"system":"http://hl7.org/fhir/sid/us-npi","value":"123456"}],"name":[{"family":"Evil","prefix":["Dr"]}]},"request":{"method":"PUT","url":"Practitioner/ae82d168-c00c-4326-99fc-5a23e6914402"}},{"fullUrl":"https://madie.cms.gov/MeasureReport/b3baeedc-3363-4ff2-a7ed-c5810ab0b659","resource":{"resourceType":"MeasureReport","id":"b3baeedc-3363-4ff2-a7ed-c5810ab0b659","meta":{"profile":["http://hl7.org/fhir/us/cqfmeasures/StructureDefinition/test-case-cqfm"]},"contained":[{"resourceType":"Parameters","id":"f2a13521-ceea-42fc-8162-96d639e8d98f-parameters","parameter":[{"name":"subject","valueString":"f256f4bb-e5ad-4e93-bee7-7237b1fa275a"}]}],"extension":[{"url":"http://hl7.org/fhir/StructureDefinition/cqf-inputParameters","valueReference":{"reference":"#f2a13521-ceea-42fc-8162-96d639e8d98f-parameters"}},{"url":"http://hl7.org/fhir/us/cqfmeasures/StructureDefinition/cqfm-testCaseDescription","valueMarkdown":"17yo with previous negative adult depression screening"}],"modifierExtension":[{"url":"http://hl7.org/fhir/us/cqfmeasures/StructureDefinition/cqfm-isTestCase","valueBoolean":true}],"status":"complete","type":"individual","measure":"https://madie.cms.gov/Measure/CMS2FHIRPCSDepressionScreenAndFollowUp","period":{"start":"2026-01-01","end":"2026-12-31"},"group":[{"id":"Group_1","population":[{"id":"InitialPopulation_1","code":{"coding":[{"system":"http://terminology.hl7.org/CodeSystem/measure-population","code":"initial-population","display":"Initial Population"}]},"count":1},{"id":"Denominator_1","code":{"coding":[{"system":"http://terminology.hl7.org/CodeSystem/measure-population","code":"denominator","display":"Denominator"}]},"count":1},{"id":"DenominatorExclusion_1","code":{"coding":[{"system":"http://terminology.hl7.org/CodeSystem/measure-population","code":"denominator-exclusion","display":"Denominator Exclusion"}]},"count":0},{"id":"Numerator_1","code":{"coding":[{"system":"http://terminology.hl7.org/CodeSystem/measure-population","code":"numerator","display":"Numerator"}]},"count":1},{"id":"DenominatorException_1","code":{"coding":[{"system":"http://terminology.hl7.org/CodeSystem/measure-population","code":"denominator-exception","display":"Denominator Exception"}]},"count":0}],"measureScore":{"value":1.0}}],"evaluatedResource":[{"reference":"Patient/f256f4bb-e5ad-4e93-bee7-7237b1fa275a"},{"reference":"Encounter/b5ebada8-6f71-44f1-b110-053988d26fa4"},{"reference":"Observation/70b03e81-dfd4-48e7-a360-35b14d6dc31b"},{"reference":"Coverage/6ee72265-2edc-4af1-8a52-8ab26c059910"},{"reference":"Organization/723e453a-9b0d-4280-a6f1-3388b368c234"},{"reference":"Practitioner/ae82d168-c00c-4326-99fc-5a23e6914402"}]},"request":{"method":"PUT","url":"MeasureReport/b3baeedc-3363-4ff2-a7ed-c5810ab0b659"}}]},"request":{"method":"PUT","url":"Bundle/62b1dee33968556e5150cf32"}},{"fullUrl":"Coverage/6ee72265-2edc-4af1-8a52-8ab26c059910","resource":{"resourceType":"Coverage","id":"6ee72265-2edc-4af1-8a52-8ab26c059910","meta":{"profile":["http://hl7.org/fhir/us/qicore/StructureDefinition/qicore-coverage"]},"status":"active","beneficiary":{"reference":"Patient/f256f4bb-e5ad-4e93-bee7-7237b1fa275a"},"payor":[{"reference":"Organization/723e453a-9b0d-4280-a6f1-3388b368c234"}]},"request":{"method":"PUT","url":"Coverage/6ee72265-2edc-4af1-8a52-8ab26c059910"}},{"fullUrl":"Practitioner/ae82d168-c00c-4326-99fc-5a23e6914402","resource":{"resourceType":"Practitioner","id":"ae82d168-c00c-4326-99fc-5a23e6914402","meta":{"profile":["http://hl7.org/fhir/us/qicore/StructureDefinition/qicore-practitioner"]},"identifier":[{"system":"http://hl7.org/fhir/sid/us-npi","value":"123456"}],"name":[{"family":"Evil","prefix":["Dr"]}]},"request":{"method":"PUT","url":"Practitioner/ae82d168-c00c-4326-99fc-5a23e6914402"}},{"fullUrl":"Organization/723e453a-9b0d-4280-a6f1-3388b368c234","resource":{"resourceType":"Organization","id":"723e453a-9b0d-4280-a6f1-3388b368c234","meta":{"profile":["http://hl7.org/fhir/us/qicore/StructureDefinition/qicore-organization"]},"identifier":[{"use":"temp","system":"urn:oid:2.16.840.1.113883.4.4","value":"21-3259825"}],"active":true,"type":[{"coding":[{"system":"http://terminology.hl7.org/CodeSystem/organization-type","code":"pay","display":"Payer"}]}],"name":"Blue Cross Blue Shield of Texas","telecom":[{"system":"phone","value":"(+1) 972-766-6900"}],"address":[{"use":"billing","type":"postal","line":["P.O. Box 660044"],"city":"Dallas","state":"TX","postalCode":"75266-0044","country":"USA"}]},"request":{"method":"PUT","url":"Organization/723e453a-9b0d-4280-a6f1-3388b368c234"}},{"fullUrl":"MeasureReport/b3baeedc-3363-4ff2-a7ed-c5810ab0b659","resource":{"resourceType":"MeasureReport","id":"b3baeedc-3363-4ff2-a7ed-c5810ab0b659","meta":{"profile":["http://hl7.org/fhir/us/cqfmeasures/StructureDefinition/test-case-cqfm"]},"contained":[{"resourceType":"Parameters","id":"f2a13521-ceea-42fc-8162-96d639e8d98f-parameters","parameter":[{"name":"subject","valueString":"f256f4bb-e5ad-4e93-bee7-7237b1fa275a"}]}],"extension":[{"url":"http://hl7.org/fhir/StructureDefinition/cqf-inputParameters","valueReference":{"reference":"#f2a13521-ceea-42fc-8162-96d639e8d98f-parameters"}},{"url":"http://hl7.org/fhir/us/cqfmeasures/StructureDefinition/cqfm-testCaseDescription","valueMarkdown":"17yo with previous negative adult depression screening"}],"modifierExtension":[{"url":"http://hl7.org/fhir/us/cqfmeasures/StructureDefinition/cqfm-isTestCase","valueBoolean":true}],"status":"complete","type":"individual","measure":"https://madie.cms.gov/Measure/CMS2FHIRPCSDepressionScreenAndFollowUp","period":{"start":"2026-01-01","end":"2026-12-31"},"group":[{"id":"Group_1","population":[{"id":"InitialPopulation_1","code":{"coding":[{"system":"http://terminology.hl7.org/CodeSystem/measure-population","code":"initial-population","display":"Initial Population"}]},"count":1},{"id":"Denominator_1","code":{"coding":[{"system":"http://terminology.hl7.org/CodeSystem/measure-population","code":"denominator","display":"Denominator"}]},"count":1},{"id":"DenominatorExclusion_1","code":{"coding":[{"system":"http://terminology.hl7.org/CodeSystem/measure-population","code":"denominator-exclusion","display":"Denominator Exclusion"}]},"count":0},{"id":"Numerator_1","code":{"coding":[{"system":"http://terminology.hl7.org/CodeSystem/measure-population","code":"numerator","display":"Numerator"}]},"count":1},{"id":"DenominatorException_1","code":{"coding":[{"system":"http://terminology.hl7.org/CodeSystem/measure-population","code":"denominator-exception","display":"Denominator Exception"}]},"count":0}],"measureScore":{"value":1.0}}],"evaluatedResource":[{"reference":"Patient/f256f4bb-e5ad-4e93-bee7-7237b1fa275a"},{"reference":"Encounter/b5ebada8-6f71-44f1-b110-053988d26fa4"},{"reference":"Observation/70b03e81-dfd4-48e7-a360-35b14d6dc31b"},{"reference":"Coverage/6ee72265-2edc-4af1-8a52-8ab26c059910"},{"reference":"Organization/723e453a-9b0d-4280-a6f1-3388b368c234"},{"reference":"Practitioner/ae82d168-c00c-4326-99fc-5a23e6914402"}]},"request":{"method":"PUT","url":"MeasureReport/b3baeedc-3363-4ff2-a7ed-c5810ab0b659"}},{"fullUrl":"Patient/f256f4bb-e5ad-4e93-bee7-7237b1fa275a","resource":{"resourceType":"Patient","id":"f256f4bb-e5ad-4e93-bee7-7237b1fa275a","meta":{"profile":["http://hl7.org/fhir/us/qicore/StructureDefinition/qicore-patient"]},"extension":[{"url":"http://hl7.org/fhir/us/core/StructureDefinition/us-core-race","extension":[{"url":"ombCategory","valueCoding":{"system":"urn:oid:2.16.840.1.113883.6.238","code":"1002-5","display":"American Indian or Alaska Native","userSelected":true}},{"url":"text","valueString":"American Indian or Alaska Native"}]},{"url":"http://hl7.org/fhir/us/core/StructureDefinition/us-core-ethnicity","extension":[{"url":"ombCategory","valueCoding":{"system":"urn:oid:2.16.840.1.113883.6.238","code":"2135-2","display":"Hispanic or Latino","userSelected":true}},{"url":"text","valueString":"Hispanic or Latino"}]}],"identifier":[{"type":{"coding":[{"system":"http://terminology.hl7.org/CodeSystem/v2-0203","code":"MR"}]},"system":"https://bonnie-fhir.healthit.gov/","value":"62b1dee33968556e5150cf32"}],"name":[{"family":"NUMERPass","given":["17yoNegativeAdultDepressionScreening"]}],"gender":"male","birthDate":"2009-01-01"},"request":{"method":"PUT","url":"Patient/f256f4bb-e5ad-4e93-bee7-7237b1fa275a"}},{"fullUrl":"Encounter/b5ebada8-6f71-44f1-b110-053988d26fa4","resource":{"resourceType":"Encounter","id":"b5ebada8-6f71-44f1-b110-053988d26fa4","meta":{"profile":["http://hl7.org/fhir/us/qicore/StructureDefinition/qicore-encounter"]},"status":"finished","class":{"system":"http://terminology.hl7.org/CodeSystem/v3-ActCode","code":"AMB","display":"ambulatory"},"type":[{"coding":[{"system":"http://snomed.info/sct","version":"2021-09","code":"10197000","display":"Psychiatric interview and evaluation (procedure)","userSelected":true}]}],"subject":{"reference":"Patient/f256f4bb-e5ad-4e93-bee7-7237b1fa275a"},"period":{"start":"2026-06-21T08:00:00.000+00:00","end":"2026-06-21T08:15:00.000+00:00"}},"request":{"method":"PUT","url":"Encounter/b5ebada8-6f71-44f1-b110-053988d26fa4"}}]}