{
  "resourceType": "Bundle",
  "id": "IPFail-19wTHAProcOct31OPConsultAug1",
  "type": "transaction",
  "entry": [ {
    "fullUrl": "https://madie.cms.gov/Patient/d40a5866-cea0-459a-ad8e-5b121ef4135a",
    "resource": {
      "resourceType": "Patient",
      "id": "d40a5866-cea0-459a-ad8e-5b121ef4135a",
      "meta": {
        "profile": [ "http://hl7.org/fhir/us/qicore/StructureDefinition/qicore-patient" ]
      },
      "extension": [ {
        "url": "http://hl7.org/fhir/us/core/StructureDefinition/us-core-race",
        "extension": [ {
          "url": "ombCategory",
          "valueCoding": {
            "system": "urn:oid:2.16.840.1.113883.6.238",
            "code": "2028-9",
            "display": "Asian"
          }
        }, {
          "url": "text",
          "valueString": "Asian"
        } ]
      }, {
        "url": "http://hl7.org/fhir/us/core/StructureDefinition/us-core-ethnicity",
        "extension": [ {
          "url": "ombCategory",
          "valueCoding": {
            "system": "urn:oid:2.16.840.1.113883.6.238",
            "code": "2135-2",
            "display": "Hispanic or Latino"
          }
        }, {
          "url": "text",
          "valueString": "Hispanic or Latino"
        } ]
      } ],
      "identifier": [ {
        "system": "http://hospital.smarthealthit.org",
        "value": "999999995"
      } ],
      "name": [ {
        "family": "Bertha",
        "given": [ "Betty" ]
      } ],
      "gender": "female",
      "birthDate": "2007-01-01"
    },
    "request": {
      "method": "PUT",
      "url": "Patient/d40a5866-cea0-459a-ad8e-5b121ef4135a"
    }
  }, {
    "fullUrl": "https://madie.cms.gov/Procedure/7f87f804-9caf-42f4-b3cc-8e97661a7ae1",
    "resource": {
      "resourceType": "Procedure",
      "id": "7f87f804-9caf-42f4-b3cc-8e97661a7ae1",
      "meta": {
        "profile": [ "http://hl7.org/fhir/us/qicore/StructureDefinition/qicore-procedure" ]
      },
      "extension": [ {
        "url": "http://hl7.org/fhir/us/qicore/StructureDefinition/qicore-recorded",
        "valueDateTime": "2024-10-31T00:00:00.000Z"
      } ],
      "status": "completed",
      "code": {
        "coding": [ {
          "system": "http://www.cms.gov/Medicare/Coding/ICD10",
          "code": "0SR9019",
          "display": "Replacement of Right Hip Joint with Metal Synthetic Substitute, Cemented, Open Approach"
        } ]
      },
      "subject": {
        "reference": "Patient/d40a5866-cea0-459a-ad8e-5b121ef4135a"
      },
      "performedPeriod": {
        "start": "2024-10-31T00:00:00.000Z",
        "end": "2024-10-31T01:00:00.000Z"
      }
    },
    "request": {
      "method": "PUT",
      "url": "Procedure/7f87f804-9caf-42f4-b3cc-8e97661a7ae1"
    }
  }, {
    "fullUrl": "https://madie.cms.gov/Encounter/8633e6aa-fd9c-4210-8595-b8ac44d8ca21",
    "resource": {
      "resourceType": "Encounter",
      "id": "8633e6aa-fd9c-4210-8595-b8ac44d8ca21",
      "meta": {
        "profile": [ "http://hl7.org/fhir/us/qicore/StructureDefinition/qicore-encounter" ]
      },
      "status": "finished",
      "class": {
        "system": "http://terminology.hl7.org/CodeSystem/v3-ActCode",
        "code": "AMB",
        "display": "ambulatory"
      },
      "type": [ {
        "coding": [ {
          "system": "http://snomed.info/sct",
          "code": "281036007",
          "display": "Follow-up consultation (procedure)"
        } ]
      } ],
      "subject": {
        "reference": "Patient/d40a5866-cea0-459a-ad8e-5b121ef4135a"
      },
      "period": {
        "start": "2025-08-01T00:00:00.000Z",
        "end": "2025-08-01T01:15:00.000Z"
      }
    },
    "request": {
      "method": "PUT",
      "url": "Encounter/8633e6aa-fd9c-4210-8595-b8ac44d8ca21"
    }
  }, {
    "fullUrl": "https://madie.cms.gov/MeasureReport/c86de227-1494-4a1e-8c8b-b4d1ab37d1bf",
    "resource": {
      "resourceType": "MeasureReport",
      "id": "c86de227-1494-4a1e-8c8b-b4d1ab37d1bf",
      "meta": {
        "profile": [ "http://hl7.org/fhir/us/cqfmeasures/StructureDefinition/test-case-cqfm" ]
      },
      "contained": [ {
        "resourceType": "Parameters",
        "id": "9c24efb6-b416-4b6a-8880-0f764b01df55-parameters",
        "parameter": [ {
          "name": "subject",
          "valueString": "d40a5866-cea0-459a-ad8e-5b121ef4135a"
        } ]
      } ],
      "extension": [ {
        "url": "http://hl7.org/fhir/StructureDefinition/cqf-inputParameters",
        "valueReference": {
          "reference": "#9c24efb6-b416-4b6a-8880-0f764b01df55-parameters"
        }
      }, {
        "url": "http://hl7.org/fhir/us/cqfmeasures/StructureDefinition/cqfm-testCaseDescription",
        "valueMarkdown": "Patient 19yo w/ a THA Procedure 10/31 before THAProcedure Interval & Post Op Visit Outpatient Encounter on 08/01 during Qualifying Encounter Interval"
      } ],
      "modifierExtension": [ {
        "url": "http://hl7.org/fhir/us/cqfmeasures/StructureDefinition/cqfm-isTestCase",
        "valueBoolean": true
      } ],
      "status": "complete",
      "type": "individual",
      "measure": "https://madie.cms.gov/Measure/CMS56FHIRFunctionalStatusAssessmentforTotalHipReplacement",
      "period": {
        "start": "2026-01-01",
        "end": "2026-12-31"
      },
      "group": [ {
        "id": "Group_1",
        "population": [ {
          "id": "InitialPopulation_1",
          "code": {
            "coding": [ {
              "system": "http://terminology.hl7.org/CodeSystem/measure-population",
              "code": "initial-population",
              "display": "Initial Population"
            } ]
          },
          "count": 0
        }, {
          "id": "Denominator_1",
          "code": {
            "coding": [ {
              "system": "http://terminology.hl7.org/CodeSystem/measure-population",
              "code": "denominator",
              "display": "Denominator"
            } ]
          },
          "count": 0
        }, {
          "id": "DenominatorExclusion_1",
          "code": {
            "coding": [ {
              "system": "http://terminology.hl7.org/CodeSystem/measure-population",
              "code": "denominator-exclusion",
              "display": "Denominator Exclusion"
            } ]
          },
          "count": 0
        }, {
          "id": "Numerator_1",
          "code": {
            "coding": [ {
              "system": "http://terminology.hl7.org/CodeSystem/measure-population",
              "code": "numerator",
              "display": "Numerator"
            } ]
          },
          "count": 0
        } ],
        "measureScore": {
          "value": 1.0
        }
      } ],
      "evaluatedResource": [ {
        "reference": "Patient/d40a5866-cea0-459a-ad8e-5b121ef4135a"
      }, {
        "reference": "Procedure/7f87f804-9caf-42f4-b3cc-8e97661a7ae1"
      }, {
        "reference": "Encounter/8633e6aa-fd9c-4210-8595-b8ac44d8ca21"
      } ]
    },
    "request": {
      "method": "PUT",
      "url": "MeasureReport/c86de227-1494-4a1e-8c8b-b4d1ab37d1bf"
    }
  } ]
}