{
  "resourceType": "Bundle",
  "id": "964313131",
  "type": "transaction",
  "entry": [ {
    "fullUrl": "https://madie.cms.gov/Patient/71dd3794-ce93-473b-8d90-9d68c0dac6d8",
    "resource": {
      "resourceType": "Patient",
      "id": "71dd3794-ce93-473b-8d90-9d68c0dac6d8",
      "meta": {
        "profile": [ "http://hl7.org/fhir/us/qicore/StructureDefinition/qicore-patient" ]
      },
      "extension": [ {
        "url": "http://hl7.org/fhir/us/core/StructureDefinition/us-core-race",
        "extension": [ {
          "url": "ombCategory",
          "valueCoding": {
            "system": "urn:oid:2.16.840.1.113883.6.238",
            "code": "2054-5",
            "display": "Black or African American"
          }
        }, {
          "url": "text",
          "valueString": "Black or African American"
        } ]
      }, {
        "url": "http://hl7.org/fhir/us/core/StructureDefinition/us-core-ethnicity",
        "extension": [ {
          "url": "ombCategory",
          "valueCoding": {
            "system": "urn:oid:2.16.840.1.113883.6.238",
            "code": "2186-5",
            "display": "Not Hispanic or Latino"
          }
        }, {
          "url": "text",
          "valueString": "Not Hispanic or Latino"
        } ]
      } ],
      "identifier": [ {
        "type": {
          "coding": [ {
            "system": "http://terminology.hl7.org/CodeSystem/v2-0203",
            "code": "MR"
          } ]
        },
        "system": "https://bonnie-fhir.healthit.gov/",
        "value": "1351313131"
      } ],
      "active": true,
      "name": [ {
        "use": "usual",
        "family": "DENEXCEPFail",
        "given": [ "ArrhythmiaEnteredInError" ]
      } ],
      "gender": "male",
      "birthDate": "1948-02-03"
    },
    "request": {
      "method": "PUT",
      "url": "Patient/71dd3794-ce93-473b-8d90-9d68c0dac6d8"
    }
  }, {
    "fullUrl": "https://madie.cms.gov/Encounter/0c1c102c-baaa-4ad5-95ec-73c7e2d83f12",
    "resource": {
      "resourceType": "Encounter",
      "id": "0c1c102c-baaa-4ad5-95ec-73c7e2d83f12",
      "meta": {
        "profile": [ "http://hl7.org/fhir/us/qicore/StructureDefinition/qicore-encounter" ]
      },
      "status": "finished",
      "class": {
        "system": "http://terminology.hl7.org/CodeSystem/v3-ActCode",
        "code": "AMB",
        "display": "ambulatory"
      },
      "type": [ {
        "coding": [ {
          "system": "http://www.ama-assn.org/go/cpt",
          "version": "2024",
          "code": "99213"
        } ]
      } ],
      "subject": {
        "reference": "Patient/71dd3794-ce93-473b-8d90-9d68c0dac6d8"
      },
      "period": {
        "start": "2026-05-25T14:20:00.000+00:00",
        "end": "2026-05-25T14:40:00.000+00:00"
      }
    },
    "request": {
      "method": "PUT",
      "url": "Encounter/0c1c102c-baaa-4ad5-95ec-73c7e2d83f12"
    }
  }, {
    "fullUrl": "https://madie.cms.gov/Encounter/fb6d3baa-40b6-45a1-b2f7-da662fd0f236",
    "resource": {
      "resourceType": "Encounter",
      "id": "fb6d3baa-40b6-45a1-b2f7-da662fd0f236",
      "meta": {
        "profile": [ "http://hl7.org/fhir/us/qicore/StructureDefinition/qicore-encounter" ]
      },
      "status": "finished",
      "class": {
        "system": "http://terminology.hl7.org/CodeSystem/v3-ActCode",
        "code": "AMB",
        "display": "ambulatory"
      },
      "type": [ {
        "coding": [ {
          "system": "http://www.ama-assn.org/go/cpt",
          "version": "2024",
          "code": "99212"
        } ]
      } ],
      "subject": {
        "reference": "Patient/71dd3794-ce93-473b-8d90-9d68c0dac6d8"
      },
      "period": {
        "start": "2026-09-05T15:30:00.000+00:00",
        "end": "2026-09-05T15:50:00.000+00:00"
      }
    },
    "request": {
      "method": "PUT",
      "url": "Encounter/fb6d3baa-40b6-45a1-b2f7-da662fd0f236"
    }
  }, {
    "fullUrl": "https://madie.cms.gov/Condition/05863f75-c256-42b9-a9f0-972ffc2b94b0",
    "resource": {
      "resourceType": "Condition",
      "id": "05863f75-c256-42b9-a9f0-972ffc2b94b0",
      "meta": {
        "profile": [ "http://hl7.org/fhir/us/qicore/StructureDefinition/qicore-condition-problems-health-concerns" ]
      },
      "clinicalStatus": {
        "coding": [ {
          "system": "http://terminology.hl7.org/CodeSystem/condition-clinical",
          "code": "active",
          "display": "active"
        } ]
      },
      "verificationStatus": {
        "coding": [ {
          "system": "http://terminology.hl7.org/CodeSystem/condition-ver-status",
          "code": "confirmed",
          "display": "Confirmed"
        } ]
      },
      "category": [ {
        "coding": [ {
          "system": "http://terminology.hl7.org/CodeSystem/condition-category",
          "code": "problem-list-item",
          "display": "problem list item"
        } ]
      } ],
      "code": {
        "coding": [ {
          "system": "http://snomed.info/sct",
          "version": "http://snomed.info/sct/731000124108/version/20240301",
          "code": "364006"
        } ]
      },
      "subject": {
        "reference": "Patient/71dd3794-ce93-473b-8d90-9d68c0dac6d8"
      },
      "onsetPeriod": {
        "start": "2026-06-27T10:00:00.000+00:00"
      }
    },
    "request": {
      "method": "PUT",
      "url": "Condition/05863f75-c256-42b9-a9f0-972ffc2b94b0"
    }
  }, {
    "fullUrl": "https://madie.cms.gov/Condition/d1f1469f-a295-4c30-b7b0-9cd57bf9ae09",
    "resource": {
      "resourceType": "Condition",
      "id": "d1f1469f-a295-4c30-b7b0-9cd57bf9ae09",
      "meta": {
        "profile": [ "http://hl7.org/fhir/us/qicore/StructureDefinition/qicore-condition-problems-health-concerns" ]
      },
      "clinicalStatus": {
        "coding": [ {
          "system": "http://terminology.hl7.org/CodeSystem/condition-clinical",
          "code": "active",
          "display": "active"
        } ]
      },
      "verificationStatus": {
        "coding": [ {
          "system": "http://terminology.hl7.org/CodeSystem/condition-ver-status",
          "code": "confirmed",
          "display": "Confirmed"
        } ]
      },
      "category": [ {
        "coding": [ {
          "system": "http://terminology.hl7.org/CodeSystem/condition-category",
          "code": "problem-list-item",
          "display": "problem list item"
        } ]
      } ],
      "severity": {
        "coding": [ {
          "system": "http://snomed.info/sct",
          "version": "http://snomed.info/sct/731000124108/version/20240301",
          "code": "24484000",
          "display": "Severe (severity modifier) (qualifier value)"
        } ]
      },
      "code": {
        "coding": [ {
          "system": "http://snomed.info/sct",
          "version": "http://snomed.info/sct/731000124108/version/20240301",
          "code": "134401001",
          "display": "Left ventricular systolic dysfunction (disorder)"
        } ]
      },
      "subject": {
        "reference": "Patient/71dd3794-ce93-473b-8d90-9d68c0dac6d8"
      },
      "onsetPeriod": {
        "start": "2026-08-11T23:50:00.000+00:00"
      }
    },
    "request": {
      "method": "PUT",
      "url": "Condition/d1f1469f-a295-4c30-b7b0-9cd57bf9ae09"
    }
  }, {
    "fullUrl": "https://madie.cms.gov/Condition/3631cf76-2bd2-4b48-82b5-7f602890fa3c",
    "resource": {
      "resourceType": "Condition",
      "id": "3631cf76-2bd2-4b48-82b5-7f602890fa3c",
      "meta": {
        "profile": [ "http://hl7.org/fhir/us/qicore/StructureDefinition/qicore-condition-problems-health-concerns" ]
      },
      "verificationStatus": {
        "coding": [ {
          "system": "http://terminology.hl7.org/CodeSystem/condition-ver-status",
          "code": "entered-in-error",
          "display": "entered in error"
        } ]
      },
      "category": [ {
        "coding": [ {
          "system": "http://terminology.hl7.org/CodeSystem/condition-category",
          "code": "problem-list-item",
          "display": "problem list item"
        } ]
      } ],
      "code": {
        "coding": [ {
          "system": "http://snomed.info/sct",
          "version": "http://snomed.info/sct/731000124108/version/20240301",
          "code": "11849007",
          "display": "Atrioventricular junctional rhythm (disorder)"
        } ]
      },
      "subject": {
        "reference": "Patient/71dd3794-ce93-473b-8d90-9d68c0dac6d8"
      },
      "onsetPeriod": {
        "start": "2026-06-27T10:00:00.000+00:00"
      }
    },
    "request": {
      "method": "PUT",
      "url": "Condition/3631cf76-2bd2-4b48-82b5-7f602890fa3c"
    }
  }, {
    "fullUrl": "https://madie.cms.gov/MeasureReport/a9401f9c-b194-41e0-bc72-5549a6957fbd",
    "resource": {
      "resourceType": "MeasureReport",
      "id": "a9401f9c-b194-41e0-bc72-5549a6957fbd",
      "meta": {
        "profile": [ "http://hl7.org/fhir/us/cqfmeasures/StructureDefinition/test-case-cqfm" ]
      },
      "contained": [ {
        "resourceType": "Parameters",
        "id": "9cbd01be-8b2f-4a7c-baaf-a66430999b33-parameters",
        "parameter": [ {
          "name": "subject",
          "valueString": "71dd3794-ce93-473b-8d90-9d68c0dac6d8"
        } ]
      } ],
      "extension": [ {
        "url": "http://hl7.org/fhir/StructureDefinition/cqf-inputParameters",
        "valueReference": {
          "reference": "#9cbd01be-8b2f-4a7c-baaf-a66430999b33-parameters"
        }
      }, {
        "url": "http://hl7.org/fhir/us/cqfmeasures/StructureDefinition/cqfm-testCaseDescription",
        "valueMarkdown": "Patient with arrhythmia entered in error"
      } ],
      "modifierExtension": [ {
        "url": "http://hl7.org/fhir/us/cqfmeasures/StructureDefinition/cqfm-isTestCase",
        "valueBoolean": true
      } ],
      "status": "complete",
      "type": "individual",
      "measure": "https://madie.cms.gov/Measure/CMS144FHIRHFBetaBlockerTherapyforLVSD",
      "period": {
        "start": "2026-01-01",
        "end": "2026-12-31"
      },
      "group": [ {
        "id": "Group_1",
        "population": [ {
          "id": "InitialPopulation_1",
          "code": {
            "coding": [ {
              "system": "http://terminology.hl7.org/CodeSystem/measure-population",
              "code": "initial-population",
              "display": "Initial Population"
            } ]
          },
          "count": 1
        }, {
          "id": "Denominator_1",
          "code": {
            "coding": [ {
              "system": "http://terminology.hl7.org/CodeSystem/measure-population",
              "code": "denominator",
              "display": "Denominator"
            } ]
          },
          "count": 1
        }, {
          "id": "DenominatorExclusion_1",
          "code": {
            "coding": [ {
              "system": "http://terminology.hl7.org/CodeSystem/measure-population",
              "code": "denominator-exclusion",
              "display": "Denominator Exclusion"
            } ]
          },
          "count": 0
        }, {
          "id": "Numerator_1",
          "code": {
            "coding": [ {
              "system": "http://terminology.hl7.org/CodeSystem/measure-population",
              "code": "numerator",
              "display": "Numerator"
            } ]
          },
          "count": 0
        }, {
          "id": "DenominatorException_1",
          "code": {
            "coding": [ {
              "system": "http://terminology.hl7.org/CodeSystem/measure-population",
              "code": "denominator-exception",
              "display": "Denominator Exception"
            } ]
          },
          "count": 0
        } ],
        "measureScore": {
          "value": 1.0
        }
      } ],
      "evaluatedResource": [ {
        "reference": "Patient/71dd3794-ce93-473b-8d90-9d68c0dac6d8"
      }, {
        "reference": "Encounter/0c1c102c-baaa-4ad5-95ec-73c7e2d83f12"
      }, {
        "reference": "Encounter/fb6d3baa-40b6-45a1-b2f7-da662fd0f236"
      }, {
        "reference": "Condition/05863f75-c256-42b9-a9f0-972ffc2b94b0"
      }, {
        "reference": "Condition/d1f1469f-a295-4c30-b7b0-9cd57bf9ae09"
      }, {
        "reference": "Condition/3631cf76-2bd2-4b48-82b5-7f602890fa3c"
      } ]
    },
    "request": {
      "method": "PUT",
      "url": "MeasureReport/a9401f9c-b194-41e0-bc72-5549a6957fbd"
    }
  } ]
}