{"resourceType":"Bundle","id":"tests-57858042-c2aa-49f4-b401-1f1fd9ab289a-bundle","type":"transaction","entry":[{"resource":{"resourceType":"Bundle","id":"62fbe009bf5132f90ee35d30","type":"transaction","entry":[{"fullUrl":"https://madie.cms.gov/Patient/57858042-c2aa-49f4-b401-1f1fd9ab289a","resource":{"resourceType":"Patient","id":"57858042-c2aa-49f4-b401-1f1fd9ab289a","meta":{"profile":["http://hl7.org/fhir/us/qicore/StructureDefinition/qicore-patient"]},"extension":[{"url":"http://hl7.org/fhir/us/core/StructureDefinition/us-core-race","extension":[{"url":"ombCategory","valueCoding":{"system":"urn:oid:2.16.840.1.113883.6.238","code":"2054-5","display":"Black or African American","userSelected":true}},{"url":"text","valueString":"Black or African American"}]},{"url":"http://hl7.org/fhir/us/core/StructureDefinition/us-core-ethnicity","extension":[{"url":"ombCategory","valueCoding":{"system":"urn:oid:2.16.840.1.113883.6.238","code":"2186-5","display":"Not Hispanic or Latino","userSelected":true}},{"url":"text","valueString":"Not Hispanic or Latino"}]}],"identifier":[{"type":{"coding":[{"system":"http://terminology.hl7.org/CodeSystem/v2-0203","code":"MR"}]},"system":"https://bonnie-fhir.healthit.gov/","value":"62fbe009bf5132f90ee35d30"}],"name":[{"family":"DENEXPass","given":["DischargeToHomeHospiceCareDuringMP"]}],"gender":"male","birthDate":"1946-10-15"},"request":{"method":"PUT","url":"Patient/57858042-c2aa-49f4-b401-1f1fd9ab289a"}},{"fullUrl":"https://madie.cms.gov/Encounter/d96b3909-fb2d-47ce-a851-1f7bf6ae53ff","resource":{"resourceType":"Encounter","id":"d96b3909-fb2d-47ce-a851-1f7bf6ae53ff","meta":{"profile":["http://hl7.org/fhir/us/qicore/StructureDefinition/qicore-encounter"]},"status":"finished","class":{"system":"http://terminology.hl7.org/CodeSystem/v3-ActCode","code":"AMB","display":"ambulatory"},"type":[{"coding":[{"system":"http://snomed.info/sct","version":"2022-03","code":"10197000","display":"Psychiatric interview and evaluation (procedure)","userSelected":true}]}],"subject":{"reference":"Patient/57858042-c2aa-49f4-b401-1f1fd9ab289a"},"period":{"start":"2026-12-31T23:30:00.000+00:00","end":"2026-12-31T23:59:00.000+00:00"}},"request":{"method":"PUT","url":"Encounter/d96b3909-fb2d-47ce-a851-1f7bf6ae53ff"}},{"fullUrl":"https://madie.cms.gov/Observation/71a0b9f9-01ea-4f8e-80bf-7bd918e58da4","resource":{"resourceType":"Observation","id":"71a0b9f9-01ea-4f8e-80bf-7bd918e58da4","meta":{"profile":["http://hl7.org/fhir/us/qicore/StructureDefinition/qicore-simple-observation"]},"status":"corrected","category":[{"coding":[{"system":"http://terminology.hl7.org/CodeSystem/observation-category","code":"procedure","display":"Procedure"}]}],"code":{"coding":[{"system":"http://loinc.org","code":"39156-5","display":"Body mass index (BMI) [Ratio]","userSelected":true}]},"subject":{"reference":"Patient/57858042-c2aa-49f4-b401-1f1fd9ab289a"},"effectiveDateTime":"2026-12-31T23:59:00.000+00:00","valueQuantity":{"value":25,"unit":"kg/m2"}},"request":{"method":"PUT","url":"Observation/71a0b9f9-01ea-4f8e-80bf-7bd918e58da4"}},{"fullUrl":"https://madie.cms.gov/Procedure/045d00d5-a60d-4ec8-93d7-262664d9bfce","resource":{"resourceType":"Procedure","id":"045d00d5-a60d-4ec8-93d7-262664d9bfce","meta":{"profile":["http://hl7.org/fhir/us/qicore/StructureDefinition/qicore-procedure"]},"extension":[{"url":"http://hl7.org/fhir/us/qicore/StructureDefinition/qicore-recorded","valueDateTime":"2026-12-31T23:59:00.000+00:00"}],"status":"completed","code":{"coding":[{"system":"http://snomed.info/sct","version":"2022-03","code":"182922004","display":"Dietary regime (regime/therapy)","userSelected":true}]},"subject":{"reference":"Patient/57858042-c2aa-49f4-b401-1f1fd9ab289a"},"performedDateTime":"2026-12-31T23:59:00.000+00:00","reasonCode":[{"coding":[{"system":"http://hl7.org/fhir/sid/icd-10-cm","code":"E66.01","display":"Morbid (severe) obesity due to excess calories","userSelected":true}]}]},"request":{"method":"PUT","url":"Procedure/045d00d5-a60d-4ec8-93d7-262664d9bfce"}},{"fullUrl":"https://madie.cms.gov/Encounter/3aa8da77-0fd5-410c-8cf0-f87d35cc316f","resource":{"resourceType":"Encounter","id":"3aa8da77-0fd5-410c-8cf0-f87d35cc316f","meta":{"profile":["http://hl7.org/fhir/us/qicore/StructureDefinition/qicore-encounter"]},"status":"finished","class":{"system":"http://terminology.hl7.org/CodeSystem/v3-ActCode","code":"AMB","display":"ambulatory"},"type":[{"coding":[{"system":"http://snomed.info/sct","version":"2022-03","code":"183452005","display":"Emergency hospital admission (procedure)","userSelected":true}]}],"subject":{"reference":"Patient/57858042-c2aa-49f4-b401-1f1fd9ab289a"},"period":{"start":"2026-01-01T00:01:00.000+00:00","end":"2026-01-02T00:59:00.000+00:00"},"hospitalization":{"dischargeDisposition":{"coding":[{"system":"http://snomed.info/sct","code":"428361000124107","display":"Discharge to home for hospice care (procedure)","userSelected":true}]}}},"request":{"method":"PUT","url":"Encounter/3aa8da77-0fd5-410c-8cf0-f87d35cc316f"}},{"fullUrl":"https://madie.cms.gov/Coverage/076d4f27-ae8a-4aaa-9d2f-3b05a0d5419a","resource":{"resourceType":"Coverage","id":"076d4f27-ae8a-4aaa-9d2f-3b05a0d5419a","meta":{"profile":["http://hl7.org/fhir/us/qicore/StructureDefinition/qicore-coverage"]},"status":"active","beneficiary":{"reference":"Patient/57858042-c2aa-49f4-b401-1f1fd9ab289a"},"payor":[{"reference":"Organization/7bae9f45-6f06-4ec9-849e-aa5a51ab44ed"}]},"request":{"method":"PUT","url":"Coverage/076d4f27-ae8a-4aaa-9d2f-3b05a0d5419a"}},{"fullUrl":"https://madie.cms.gov/Organization/7bae9f45-6f06-4ec9-849e-aa5a51ab44ed","resource":{"resourceType":"Organization","id":"7bae9f45-6f06-4ec9-849e-aa5a51ab44ed","meta":{"profile":["http://hl7.org/fhir/us/qicore/StructureDefinition/qicore-organization"]},"identifier":[{"use":"temp","system":"urn:oid:2.16.840.1.113883.4.4","value":"21-3259825"}],"active":true,"type":[{"coding":[{"system":"http://terminology.hl7.org/CodeSystem/organization-type","code":"pay","display":"Payer"}]}],"name":"Blue Cross Blue Shield of Texas","telecom":[{"system":"phone","value":"(+1) 972-766-6900"}],"address":[{"use":"billing","type":"postal","line":["P.O. Box 660044"],"city":"Dallas","state":"TX","postalCode":"75266-0044","country":"USA"}]},"request":{"method":"PUT","url":"Organization/7bae9f45-6f06-4ec9-849e-aa5a51ab44ed"}},{"fullUrl":"https://madie.cms.gov/MeasureReport/7c12c2fe-1e80-415c-a884-33f73a4ecf64","resource":{"resourceType":"MeasureReport","id":"7c12c2fe-1e80-415c-a884-33f73a4ecf64","meta":{"profile":["http://hl7.org/fhir/us/cqfmeasures/StructureDefinition/test-case-cqfm"]},"contained":[{"resourceType":"Parameters","id":"36e4b46c-60af-4316-a555-8a9a978b1565-parameters","parameter":[{"name":"subject","valueString":"57858042-c2aa-49f4-b401-1f1fd9ab289a"}]}],"extension":[{"url":"http://hl7.org/fhir/StructureDefinition/cqf-inputParameters","valueReference":{"reference":"#36e4b46c-60af-4316-a555-8a9a978b1565-parameters"}},{"url":"http://hl7.org/fhir/us/cqfmeasures/StructureDefinition/cqfm-testCaseDescription","valueMarkdown":"1 clinic enc, last day and last 29 minutes of the year, BMI 25 kg/m2\n 1 hospital enc. for which the patient was discharged to home hospice. "}],"modifierExtension":[{"url":"http://hl7.org/fhir/us/cqfmeasures/StructureDefinition/cqfm-isTestCase","valueBoolean":true}],"status":"complete","type":"individual","measure":"https://madie.cms.gov/Measure/CMS69FHIRPCSBMIScreenAndFollowUp","period":{"start":"2026-01-01","end":"2026-12-31"},"group":[{"id":"Group_1","population":[{"id":"InitialPopulation_1","code":{"coding":[{"system":"http://terminology.hl7.org/CodeSystem/measure-population","code":"initial-population","display":"Initial Population"}]},"count":1},{"id":"Denominator_1","code":{"coding":[{"system":"http://terminology.hl7.org/CodeSystem/measure-population","code":"denominator","display":"Denominator"}]},"count":1},{"id":"DenominatorExclusion_1","code":{"coding":[{"system":"http://terminology.hl7.org/CodeSystem/measure-population","code":"denominator-exclusion","display":"Denominator Exclusion"}]},"count":1},{"id":"Numerator_1","code":{"coding":[{"system":"http://terminology.hl7.org/CodeSystem/measure-population","code":"numerator","display":"Numerator"}]},"count":0},{"id":"DenominatorException_1","code":{"coding":[{"system":"http://terminology.hl7.org/CodeSystem/measure-population","code":"denominator-exception","display":"Denominator Exception"}]},"count":0}],"measureScore":{"value":1}}],"evaluatedResource":[{"reference":"Patient/57858042-c2aa-49f4-b401-1f1fd9ab289a"},{"reference":"Encounter/d96b3909-fb2d-47ce-a851-1f7bf6ae53ff"},{"reference":"Observation/71a0b9f9-01ea-4f8e-80bf-7bd918e58da4"},{"reference":"Procedure/045d00d5-a60d-4ec8-93d7-262664d9bfce"},{"reference":"Encounter/3aa8da77-0fd5-410c-8cf0-f87d35cc316f"},{"reference":"Coverage/076d4f27-ae8a-4aaa-9d2f-3b05a0d5419a"},{"reference":"Organization/7bae9f45-6f06-4ec9-849e-aa5a51ab44ed"}]},"request":{"method":"PUT","url":"MeasureReport/7c12c2fe-1e80-415c-a884-33f73a4ecf64"}}]},"request":{"method":"PUT","url":"Bundle/62fbe009bf5132f90ee35d30"}},{"resource":{"resourceType":"Coverage","id":"076d4f27-ae8a-4aaa-9d2f-3b05a0d5419a","meta":{"profile":["http://hl7.org/fhir/us/qicore/StructureDefinition/qicore-coverage"]},"status":"active","beneficiary":{"reference":"Patient/57858042-c2aa-49f4-b401-1f1fd9ab289a"},"payor":[{"reference":"Organization/7bae9f45-6f06-4ec9-849e-aa5a51ab44ed"}]},"request":{"method":"PUT","url":"Coverage/076d4f27-ae8a-4aaa-9d2f-3b05a0d5419a"}},{"resource":{"resourceType":"Encounter","id":"3aa8da77-0fd5-410c-8cf0-f87d35cc316f","meta":{"profile":["http://hl7.org/fhir/us/qicore/StructureDefinition/qicore-encounter"]},"status":"finished","class":{"system":"http://terminology.hl7.org/CodeSystem/v3-ActCode","code":"AMB","display":"ambulatory"},"type":[{"coding":[{"system":"http://snomed.info/sct","version":"2022-03","code":"183452005","display":"Emergency hospital admission (procedure)","userSelected":true}]}],"subject":{"reference":"Patient/57858042-c2aa-49f4-b401-1f1fd9ab289a"},"period":{"start":"2026-01-01T00:01:00.000+00:00","end":"2026-01-02T00:59:00.000+00:00"},"hospitalization":{"dischargeDisposition":{"coding":[{"system":"http://snomed.info/sct","code":"428361000124107","display":"Discharge to home for hospice care (procedure)","userSelected":true}]}}},"request":{"method":"PUT","url":"Encounter/3aa8da77-0fd5-410c-8cf0-f87d35cc316f"}},{"resource":{"resourceType":"Encounter","id":"d96b3909-fb2d-47ce-a851-1f7bf6ae53ff","meta":{"profile":["http://hl7.org/fhir/us/qicore/StructureDefinition/qicore-encounter"]},"status":"finished","class":{"system":"http://terminology.hl7.org/CodeSystem/v3-ActCode","code":"AMB","display":"ambulatory"},"type":[{"coding":[{"system":"http://snomed.info/sct","version":"2022-03","code":"10197000","display":"Psychiatric interview and evaluation (procedure)","userSelected":true}]}],"subject":{"reference":"Patient/57858042-c2aa-49f4-b401-1f1fd9ab289a"},"period":{"start":"2026-12-31T23:30:00.000+00:00","end":"2026-12-31T23:59:00.000+00:00"}},"request":{"method":"PUT","url":"Encounter/d96b3909-fb2d-47ce-a851-1f7bf6ae53ff"}},{"resource":{"resourceType":"MeasureReport","id":"7c12c2fe-1e80-415c-a884-33f73a4ecf64","meta":{"profile":["http://hl7.org/fhir/us/cqfmeasures/StructureDefinition/test-case-cqfm"]},"contained":[{"resourceType":"Parameters","id":"36e4b46c-60af-4316-a555-8a9a978b1565-parameters","parameter":[{"name":"subject","valueString":"57858042-c2aa-49f4-b401-1f1fd9ab289a"}]}],"extension":[{"url":"http://hl7.org/fhir/StructureDefinition/cqf-inputParameters","valueReference":{"reference":"#36e4b46c-60af-4316-a555-8a9a978b1565-parameters"}},{"url":"http://hl7.org/fhir/us/cqfmeasures/StructureDefinition/cqfm-testCaseDescription","valueMarkdown":"1 clinic enc, last day and last 29 minutes of the year, BMI 25 kg/m2\n 1 hospital enc. for which the patient was discharged to home hospice. "}],"modifierExtension":[{"url":"http://hl7.org/fhir/us/cqfmeasures/StructureDefinition/cqfm-isTestCase","valueBoolean":true}],"status":"complete","type":"individual","measure":"https://madie.cms.gov/Measure/CMS69FHIRPCSBMIScreenAndFollowUp","period":{"start":"2026-01-01","end":"2026-12-31"},"group":[{"id":"Group_1","population":[{"id":"InitialPopulation_1","code":{"coding":[{"system":"http://terminology.hl7.org/CodeSystem/measure-population","code":"initial-population","display":"Initial Population"}]},"count":1},{"id":"Denominator_1","code":{"coding":[{"system":"http://terminology.hl7.org/CodeSystem/measure-population","code":"denominator","display":"Denominator"}]},"count":1},{"id":"DenominatorExclusion_1","code":{"coding":[{"system":"http://terminology.hl7.org/CodeSystem/measure-population","code":"denominator-exclusion","display":"Denominator Exclusion"}]},"count":1},{"id":"Numerator_1","code":{"coding":[{"system":"http://terminology.hl7.org/CodeSystem/measure-population","code":"numerator","display":"Numerator"}]},"count":0},{"id":"DenominatorException_1","code":{"coding":[{"system":"http://terminology.hl7.org/CodeSystem/measure-population","code":"denominator-exception","display":"Denominator Exception"}]},"count":0}],"measureScore":{"value":1}}],"evaluatedResource":[{"reference":"Patient/57858042-c2aa-49f4-b401-1f1fd9ab289a"},{"reference":"Encounter/d96b3909-fb2d-47ce-a851-1f7bf6ae53ff"},{"reference":"Observation/71a0b9f9-01ea-4f8e-80bf-7bd918e58da4"},{"reference":"Procedure/045d00d5-a60d-4ec8-93d7-262664d9bfce"},{"reference":"Encounter/3aa8da77-0fd5-410c-8cf0-f87d35cc316f"},{"reference":"Coverage/076d4f27-ae8a-4aaa-9d2f-3b05a0d5419a"},{"reference":"Organization/7bae9f45-6f06-4ec9-849e-aa5a51ab44ed"}]},"request":{"method":"PUT","url":"MeasureReport/7c12c2fe-1e80-415c-a884-33f73a4ecf64"}},{"resource":{"resourceType":"Observation","id":"71a0b9f9-01ea-4f8e-80bf-7bd918e58da4","meta":{"profile":["http://hl7.org/fhir/us/qicore/StructureDefinition/qicore-simple-observation"]},"status":"corrected","category":[{"coding":[{"system":"http://terminology.hl7.org/CodeSystem/observation-category","code":"procedure","display":"Procedure"}]}],"code":{"coding":[{"system":"http://loinc.org","code":"39156-5","display":"Body mass index (BMI) [Ratio]","userSelected":true}]},"subject":{"reference":"Patient/57858042-c2aa-49f4-b401-1f1fd9ab289a"},"effectiveDateTime":"2026-12-31T23:59:00.000+00:00","valueQuantity":{"value":25,"unit":"kg/m2"}},"request":{"method":"PUT","url":"Observation/71a0b9f9-01ea-4f8e-80bf-7bd918e58da4"}},{"resource":{"resourceType":"Organization","id":"7bae9f45-6f06-4ec9-849e-aa5a51ab44ed","meta":{"profile":["http://hl7.org/fhir/us/qicore/StructureDefinition/qicore-organization"]},"identifier":[{"use":"temp","system":"urn:oid:2.16.840.1.113883.4.4","value":"21-3259825"}],"active":true,"type":[{"coding":[{"system":"http://terminology.hl7.org/CodeSystem/organization-type","code":"pay","display":"Payer"}]}],"name":"Blue Cross Blue Shield of Texas","telecom":[{"system":"phone","value":"(+1) 972-766-6900"}],"address":[{"use":"billing","type":"postal","line":["P.O. Box 660044"],"city":"Dallas","state":"TX","postalCode":"75266-0044","country":"USA"}]},"request":{"method":"PUT","url":"Organization/7bae9f45-6f06-4ec9-849e-aa5a51ab44ed"}},{"resource":{"resourceType":"Patient","id":"57858042-c2aa-49f4-b401-1f1fd9ab289a","meta":{"profile":["http://hl7.org/fhir/us/qicore/StructureDefinition/qicore-patient"]},"extension":[{"url":"http://hl7.org/fhir/us/core/StructureDefinition/us-core-race","extension":[{"url":"ombCategory","valueCoding":{"system":"urn:oid:2.16.840.1.113883.6.238","code":"2054-5","display":"Black or African American","userSelected":true}},{"url":"text","valueString":"Black or African American"}]},{"url":"http://hl7.org/fhir/us/core/StructureDefinition/us-core-ethnicity","extension":[{"url":"ombCategory","valueCoding":{"system":"urn:oid:2.16.840.1.113883.6.238","code":"2186-5","display":"Not Hispanic or Latino","userSelected":true}},{"url":"text","valueString":"Not Hispanic or Latino"}]}],"identifier":[{"type":{"coding":[{"system":"http://terminology.hl7.org/CodeSystem/v2-0203","code":"MR"}]},"system":"https://bonnie-fhir.healthit.gov/","value":"62fbe009bf5132f90ee35d30"}],"name":[{"family":"DENEXPass","given":["DischargeToHomeHospiceCareDuringMP"]}],"gender":"male","birthDate":"1946-10-15"},"request":{"method":"PUT","url":"Patient/57858042-c2aa-49f4-b401-1f1fd9ab289a"}},{"resource":{"resourceType":"Procedure","id":"045d00d5-a60d-4ec8-93d7-262664d9bfce","meta":{"profile":["http://hl7.org/fhir/us/qicore/StructureDefinition/qicore-procedure"]},"extension":[{"url":"http://hl7.org/fhir/us/qicore/StructureDefinition/qicore-recorded","valueDateTime":"2026-12-31T23:59:00.000+00:00"}],"status":"completed","code":{"coding":[{"system":"http://snomed.info/sct","version":"2022-03","code":"182922004","display":"Dietary regime (regime/therapy)","userSelected":true}]},"subject":{"reference":"Patient/57858042-c2aa-49f4-b401-1f1fd9ab289a"},"performedDateTime":"2026-12-31T23:59:00.000+00:00","reasonCode":[{"coding":[{"system":"http://hl7.org/fhir/sid/icd-10-cm","code":"E66.01","display":"Morbid (severe) obesity due to excess calories","userSelected":true}]}]},"request":{"method":"PUT","url":"Procedure/045d00d5-a60d-4ec8-93d7-262664d9bfce"}}]}