{"resourceType":"Bundle","id":"tests-03f01144-2230-42ab-b81f-594e1c2baa62-bundle","type":"transaction","entry":[{"fullUrl":"Encounter/c4f2f2a3-82a9-47c9-8ae4-a7f1e29f7219","resource":{"resourceType":"Encounter","id":"c4f2f2a3-82a9-47c9-8ae4-a7f1e29f7219","meta":{"profile":["http://hl7.org/fhir/us/qicore/StructureDefinition/qicore-encounter"]},"status":"finished","class":{"system":"http://terminology.hl7.org/CodeSystem/v3-ActCode","code":"AMB","display":"ambulatory"},"type":[{"coding":[{"system":"http://snomed.info/sct","version":"2022-03","code":"305284002","display":"Admission by palliative care physician (procedure)","userSelected":true}]}],"subject":{"reference":"Patient/03f01144-2230-42ab-b81f-594e1c2baa62"},"period":{"start":"2027-01-01T00:30:00.000+00:00","end":"2027-01-01T00:59:00.000+00:00"}},"request":{"method":"PUT","url":"Encounter/c4f2f2a3-82a9-47c9-8ae4-a7f1e29f7219"}},{"fullUrl":"Coverage/fd9c9c47-3e8a-43ab-9808-9027ab60a127","resource":{"resourceType":"Coverage","id":"fd9c9c47-3e8a-43ab-9808-9027ab60a127","meta":{"profile":["http://hl7.org/fhir/us/qicore/StructureDefinition/qicore-coverage"]},"status":"active","beneficiary":{"reference":"Patient/03f01144-2230-42ab-b81f-594e1c2baa62"},"payor":[{"reference":"Organization/dd4df47d-1aa2-466d-bf09-6b719d41747f"}]},"request":{"method":"PUT","url":"Coverage/fd9c9c47-3e8a-43ab-9808-9027ab60a127"}},{"fullUrl":"Bundle/62aa5f74c4be4c506d4a5349","resource":{"resourceType":"Bundle","id":"62aa5f74c4be4c506d4a5349","type":"transaction","entry":[{"fullUrl":"https://madie.cms.gov/Patient/03f01144-2230-42ab-b81f-594e1c2baa62","resource":{"resourceType":"Patient","id":"03f01144-2230-42ab-b81f-594e1c2baa62","meta":{"profile":["http://hl7.org/fhir/us/qicore/StructureDefinition/qicore-patient"]},"extension":[{"url":"http://hl7.org/fhir/us/core/StructureDefinition/us-core-race","extension":[{"url":"ombCategory","valueCoding":{"system":"urn:oid:2.16.840.1.113883.6.238","code":"2028-9","display":"Asian","userSelected":true}},{"url":"text","valueString":"Asian"}]},{"url":"http://hl7.org/fhir/us/core/StructureDefinition/us-core-ethnicity","extension":[{"url":"ombCategory","valueCoding":{"system":"urn:oid:2.16.840.1.113883.6.238","code":"2186-5","display":"Not Hispanic or Latino","userSelected":true}},{"url":"text","valueString":"Not Hispanic or Latino"}]},{"url":"http://hl7.org/fhir/us/core/StructureDefinition/us-core-sex","valueCode":"248152002"}],"identifier":[{"type":{"coding":[{"system":"http://terminology.hl7.org/CodeSystem/v2-0203","code":"MR"}]},"system":"https://bonnie-fhir.healthit.gov/","value":"62aa5f74c4be4c506d4a5349"}],"name":[{"family":"DENEXPass","given":["PalliativeCareEncounterAfterMP"]}],"gender":"female","birthDate":"2006-01-01"},"request":{"method":"PUT","url":"Patient/03f01144-2230-42ab-b81f-594e1c2baa62"}},{"fullUrl":"https://madie.cms.gov/Encounter/df4bdaba-f1df-464d-b22a-7d35bcc7b6a7","resource":{"resourceType":"Encounter","id":"df4bdaba-f1df-464d-b22a-7d35bcc7b6a7","meta":{"profile":["http://hl7.org/fhir/us/qicore/StructureDefinition/qicore-encounter"]},"status":"finished","class":{"system":"http://terminology.hl7.org/CodeSystem/v3-ActCode","code":"AMB","display":"ambulatory"},"type":[{"coding":[{"system":"http://snomed.info/sct","version":"2022-03","code":"10197000","display":"Psychiatric interview and evaluation (procedure)","userSelected":true}]}],"subject":{"reference":"Patient/03f01144-2230-42ab-b81f-594e1c2baa62"},"period":{"start":"2026-12-31T23:30:00.000+00:00","end":"2026-12-31T23:59:00.000+00:00"}},"request":{"method":"PUT","url":"Encounter/df4bdaba-f1df-464d-b22a-7d35bcc7b6a7"}},{"fullUrl":"https://madie.cms.gov/Encounter/c4f2f2a3-82a9-47c9-8ae4-a7f1e29f7219","resource":{"resourceType":"Encounter","id":"c4f2f2a3-82a9-47c9-8ae4-a7f1e29f7219","meta":{"profile":["http://hl7.org/fhir/us/qicore/StructureDefinition/qicore-encounter"]},"status":"finished","class":{"system":"http://terminology.hl7.org/CodeSystem/v3-ActCode","code":"AMB","display":"ambulatory"},"type":[{"coding":[{"system":"http://snomed.info/sct","version":"2022-03","code":"305284002","display":"Admission by palliative care physician (procedure)","userSelected":true}]}],"subject":{"reference":"Patient/03f01144-2230-42ab-b81f-594e1c2baa62"},"period":{"start":"2027-01-01T00:30:00.000+00:00","end":"2027-01-01T00:59:00.000+00:00"}},"request":{"method":"PUT","url":"Encounter/c4f2f2a3-82a9-47c9-8ae4-a7f1e29f7219"}},{"fullUrl":"https://madie.cms.gov/Coverage/fd9c9c47-3e8a-43ab-9808-9027ab60a127","resource":{"resourceType":"Coverage","id":"fd9c9c47-3e8a-43ab-9808-9027ab60a127","meta":{"profile":["http://hl7.org/fhir/us/qicore/StructureDefinition/qicore-coverage"]},"status":"active","beneficiary":{"reference":"Patient/03f01144-2230-42ab-b81f-594e1c2baa62"},"payor":[{"reference":"Organization/dd4df47d-1aa2-466d-bf09-6b719d41747f"}]},"request":{"method":"PUT","url":"Coverage/fd9c9c47-3e8a-43ab-9808-9027ab60a127"}},{"fullUrl":"https://madie.cms.gov/Organization/dd4df47d-1aa2-466d-bf09-6b719d41747f","resource":{"resourceType":"Organization","id":"dd4df47d-1aa2-466d-bf09-6b719d41747f","meta":{"profile":["http://hl7.org/fhir/us/qicore/StructureDefinition/qicore-organization"]},"identifier":[{"use":"temp","system":"urn:oid:2.16.840.1.113883.4.4","value":"21-3259825"}],"active":true,"type":[{"coding":[{"system":"http://terminology.hl7.org/CodeSystem/organization-type","code":"pay","display":"Payer"}]}],"name":"Blue Cross Blue Shield of Texas","telecom":[{"system":"phone","value":"(+1) 972-766-6900"}],"address":[{"use":"billing","type":"postal","line":["P.O. Box 660044"],"city":"Dallas","state":"TX","postalCode":"75266-0044","country":"USA"}]},"request":{"method":"PUT","url":"Organization/dd4df47d-1aa2-466d-bf09-6b719d41747f"}},{"fullUrl":"https://madie.cms.gov/MeasureReport/fbdc3158-047f-4375-9cae-f9e2f982b420","resource":{"resourceType":"MeasureReport","id":"fbdc3158-047f-4375-9cae-f9e2f982b420","meta":{"profile":["http://hl7.org/fhir/us/cqfmeasures/StructureDefinition/test-case-cqfm"]},"contained":[{"resourceType":"Parameters","id":"4ae035ca-0cef-4e49-9ff7-4a173f060e93-parameters","parameter":[{"name":"subject","valueString":"03f01144-2230-42ab-b81f-594e1c2baa62"}]}],"extension":[{"url":"http://hl7.org/fhir/StructureDefinition/cqf-inputParameters","valueReference":{"reference":"#4ae035ca-0cef-4e49-9ff7-4a173f060e93-parameters"}},{"url":"http://hl7.org/fhir/us/cqfmeasures/StructureDefinition/cqfm-testCaseDescription","valueMarkdown":"Palliative care encounter first day of following year, age 18"}],"modifierExtension":[{"url":"http://hl7.org/fhir/us/cqfmeasures/StructureDefinition/cqfm-isTestCase","valueBoolean":true}],"status":"complete","type":"individual","measure":"https://madie.cms.gov/Measure/CMS69FHIRPCSBMIScreenAndFollowUp","period":{"start":"2026-01-01","end":"2026-12-31"},"group":[{"id":"Group_1","population":[{"id":"InitialPopulation_1","code":{"coding":[{"system":"http://terminology.hl7.org/CodeSystem/measure-population","code":"initial-population","display":"Initial Population"}]},"count":1},{"id":"Denominator_1","code":{"coding":[{"system":"http://terminology.hl7.org/CodeSystem/measure-population","code":"denominator","display":"Denominator"}]},"count":1},{"id":"DenominatorExclusion_1","code":{"coding":[{"system":"http://terminology.hl7.org/CodeSystem/measure-population","code":"denominator-exclusion","display":"Denominator Exclusion"}]},"count":0},{"id":"Numerator_1","code":{"coding":[{"system":"http://terminology.hl7.org/CodeSystem/measure-population","code":"numerator","display":"Numerator"}]},"count":0},{"id":"DenominatorException_1","code":{"coding":[{"system":"http://terminology.hl7.org/CodeSystem/measure-population","code":"denominator-exception","display":"Denominator Exception"}]},"count":0}],"measureScore":{"value":1.0}}],"evaluatedResource":[{"reference":"Patient/03f01144-2230-42ab-b81f-594e1c2baa62"},{"reference":"Encounter/df4bdaba-f1df-464d-b22a-7d35bcc7b6a7"},{"reference":"Encounter/c4f2f2a3-82a9-47c9-8ae4-a7f1e29f7219"},{"reference":"Coverage/fd9c9c47-3e8a-43ab-9808-9027ab60a127"},{"reference":"Organization/dd4df47d-1aa2-466d-bf09-6b719d41747f"}]},"request":{"method":"PUT","url":"MeasureReport/fbdc3158-047f-4375-9cae-f9e2f982b420"}}]},"request":{"method":"PUT","url":"Bundle/62aa5f74c4be4c506d4a5349"}},{"fullUrl":"MeasureReport/fbdc3158-047f-4375-9cae-f9e2f982b420","resource":{"resourceType":"MeasureReport","id":"fbdc3158-047f-4375-9cae-f9e2f982b420","meta":{"profile":["http://hl7.org/fhir/us/cqfmeasures/StructureDefinition/test-case-cqfm"]},"contained":[{"resourceType":"Parameters","id":"4ae035ca-0cef-4e49-9ff7-4a173f060e93-parameters","parameter":[{"name":"subject","valueString":"03f01144-2230-42ab-b81f-594e1c2baa62"}]}],"extension":[{"url":"http://hl7.org/fhir/StructureDefinition/cqf-inputParameters","valueReference":{"reference":"#4ae035ca-0cef-4e49-9ff7-4a173f060e93-parameters"}},{"url":"http://hl7.org/fhir/us/cqfmeasures/StructureDefinition/cqfm-testCaseDescription","valueMarkdown":"Palliative care encounter first day of following year, age 18"}],"modifierExtension":[{"url":"http://hl7.org/fhir/us/cqfmeasures/StructureDefinition/cqfm-isTestCase","valueBoolean":true}],"status":"complete","type":"individual","measure":"https://madie.cms.gov/Measure/CMS69FHIRPCSBMIScreenAndFollowUp","period":{"start":"2026-01-01","end":"2026-12-31"},"group":[{"id":"Group_1","population":[{"id":"InitialPopulation_1","code":{"coding":[{"system":"http://terminology.hl7.org/CodeSystem/measure-population","code":"initial-population","display":"Initial Population"}]},"count":1},{"id":"Denominator_1","code":{"coding":[{"system":"http://terminology.hl7.org/CodeSystem/measure-population","code":"denominator","display":"Denominator"}]},"count":1},{"id":"DenominatorExclusion_1","code":{"coding":[{"system":"http://terminology.hl7.org/CodeSystem/measure-population","code":"denominator-exclusion","display":"Denominator Exclusion"}]},"count":0},{"id":"Numerator_1","code":{"coding":[{"system":"http://terminology.hl7.org/CodeSystem/measure-population","code":"numerator","display":"Numerator"}]},"count":0},{"id":"DenominatorException_1","code":{"coding":[{"system":"http://terminology.hl7.org/CodeSystem/measure-population","code":"denominator-exception","display":"Denominator Exception"}]},"count":0}],"measureScore":{"value":1.0}}],"evaluatedResource":[{"reference":"Patient/03f01144-2230-42ab-b81f-594e1c2baa62"},{"reference":"Encounter/df4bdaba-f1df-464d-b22a-7d35bcc7b6a7"},{"reference":"Encounter/c4f2f2a3-82a9-47c9-8ae4-a7f1e29f7219"},{"reference":"Coverage/fd9c9c47-3e8a-43ab-9808-9027ab60a127"},{"reference":"Organization/dd4df47d-1aa2-466d-bf09-6b719d41747f"}]},"request":{"method":"PUT","url":"MeasureReport/fbdc3158-047f-4375-9cae-f9e2f982b420"}},{"fullUrl":"Patient/03f01144-2230-42ab-b81f-594e1c2baa62","resource":{"resourceType":"Patient","id":"03f01144-2230-42ab-b81f-594e1c2baa62","meta":{"profile":["http://hl7.org/fhir/us/qicore/StructureDefinition/qicore-patient"]},"extension":[{"url":"http://hl7.org/fhir/us/core/StructureDefinition/us-core-race","extension":[{"url":"ombCategory","valueCoding":{"system":"urn:oid:2.16.840.1.113883.6.238","code":"2028-9","display":"Asian","userSelected":true}},{"url":"text","valueString":"Asian"}]},{"url":"http://hl7.org/fhir/us/core/StructureDefinition/us-core-ethnicity","extension":[{"url":"ombCategory","valueCoding":{"system":"urn:oid:2.16.840.1.113883.6.238","code":"2186-5","display":"Not Hispanic or Latino","userSelected":true}},{"url":"text","valueString":"Not Hispanic or Latino"}]},{"url":"http://hl7.org/fhir/us/core/StructureDefinition/us-core-sex","valueCode":"248152002"}],"identifier":[{"type":{"coding":[{"system":"http://terminology.hl7.org/CodeSystem/v2-0203","code":"MR"}]},"system":"https://bonnie-fhir.healthit.gov/","value":"62aa5f74c4be4c506d4a5349"}],"name":[{"family":"DENEXPass","given":["PalliativeCareEncounterAfterMP"]}],"gender":"female","birthDate":"2006-01-01"},"request":{"method":"PUT","url":"Patient/03f01144-2230-42ab-b81f-594e1c2baa62"}},{"fullUrl":"Encounter/df4bdaba-f1df-464d-b22a-7d35bcc7b6a7","resource":{"resourceType":"Encounter","id":"df4bdaba-f1df-464d-b22a-7d35bcc7b6a7","meta":{"profile":["http://hl7.org/fhir/us/qicore/StructureDefinition/qicore-encounter"]},"status":"finished","class":{"system":"http://terminology.hl7.org/CodeSystem/v3-ActCode","code":"AMB","display":"ambulatory"},"type":[{"coding":[{"system":"http://snomed.info/sct","version":"2022-03","code":"10197000","display":"Psychiatric interview and evaluation (procedure)","userSelected":true}]}],"subject":{"reference":"Patient/03f01144-2230-42ab-b81f-594e1c2baa62"},"period":{"start":"2026-12-31T23:30:00.000+00:00","end":"2026-12-31T23:59:00.000+00:00"}},"request":{"method":"PUT","url":"Encounter/df4bdaba-f1df-464d-b22a-7d35bcc7b6a7"}},{"fullUrl":"Organization/dd4df47d-1aa2-466d-bf09-6b719d41747f","resource":{"resourceType":"Organization","id":"dd4df47d-1aa2-466d-bf09-6b719d41747f","meta":{"profile":["http://hl7.org/fhir/us/qicore/StructureDefinition/qicore-organization"]},"identifier":[{"use":"temp","system":"urn:oid:2.16.840.1.113883.4.4","value":"21-3259825"}],"active":true,"type":[{"coding":[{"system":"http://terminology.hl7.org/CodeSystem/organization-type","code":"pay","display":"Payer"}]}],"name":"Blue Cross Blue Shield of Texas","telecom":[{"system":"phone","value":"(+1) 972-766-6900"}],"address":[{"use":"billing","type":"postal","line":["P.O. Box 660044"],"city":"Dallas","state":"TX","postalCode":"75266-0044","country":"USA"}]},"request":{"method":"PUT","url":"Organization/dd4df47d-1aa2-466d-bf09-6b719d41747f"}}]}