{"resourceType":"Bundle","id":"tests-8e38b797-4dec-437d-8bf0-6f0fc78f8ea7-bundle","type":"transaction","entry":[{"resource":{"resourceType":"Encounter","id":"2db46994-4c32-47d7-adff-0003d536902d","meta":{"profile":["http://hl7.org/fhir/us/qicore/StructureDefinition/qicore-encounter"]},"status":"finished","class":{"system":"http://terminology.hl7.org/CodeSystem/v3-ActCode","code":"AMB","display":"ambulatory"},"type":[{"coding":[{"system":"http://snomed.info/sct","version":"2022-03","code":"10197000","display":"Psychiatric interview and evaluation (procedure)","userSelected":true}]}],"subject":{"reference":"Patient/8e38b797-4dec-437d-8bf0-6f0fc78f8ea7"},"period":{"start":"2026-01-01T00:00:00.000+00:00","end":"2026-01-01T00:30:00.000+00:00"}},"request":{"method":"PUT","url":"Encounter/2db46994-4c32-47d7-adff-0003d536902d"}},{"resource":{"resourceType":"Condition","id":"5b9b0ba8-a068-4228-bff3-f80a92f9300c","meta":{"profile":["http://hl7.org/fhir/us/qicore/StructureDefinition/qicore-condition-problems-health-concerns"]},"clinicalStatus":{"coding":[{"system":"http://terminology.hl7.org/CodeSystem/condition-clinical","code":"active","display":"active","userSelected":true}]},"category":[{"coding":[{"system":"http://hl7.org/fhir/us/core/CodeSystem/condition-category","code":"health-concern","display":"Health Concern"},{"system":"http://snomed.info/sct","code":"439401001","display":"Diagnosis"}]}],"code":{"coding":[{"system":"http://hl7.org/fhir/sid/icd-10-cm","version":"2023","code":"E66.01","display":"Morbid (severe) obesity due to excess calories","userSelected":true}]},"subject":{"reference":"Patient/8e38b797-4dec-437d-8bf0-6f0fc78f8ea7"},"onsetDateTime":"2026-01-01T00:05:00.000+00:00"},"request":{"method":"PUT","url":"Condition/5b9b0ba8-a068-4228-bff3-f80a92f9300c"}},{"resource":{"resourceType":"Observation","id":"4e42348f-d89e-400c-a1b3-b434345f4113","meta":{"profile":["http://hl7.org/fhir/us/core/StructureDefinition/us-core-bmi"]},"status":"final","category":[{"coding":[{"system":"http://terminology.hl7.org/CodeSystem/observation-category","code":"vital-signs","display":"Vital Signs"}]}],"code":{"coding":[{"system":"http://loinc.org","code":"39156-5","display":"Body mass index (BMI) [Ratio]","userSelected":true}]},"subject":{"reference":"Patient/8e38b797-4dec-437d-8bf0-6f0fc78f8ea7"},"effectiveDateTime":"2026-01-01T00:30:00.000+00:00","valueQuantity":{"value":30.0,"unit":"kg/m2","system":"http://unitsofmeasure.org","code":"kg/m2"}},"request":{"method":"PUT","url":"Observation/4e42348f-d89e-400c-a1b3-b434345f4113"}},{"resource":{"resourceType":"MeasureReport","id":"19b35e2d-373e-4117-ab66-2340ef6e035a","meta":{"profile":["http://hl7.org/fhir/us/cqfmeasures/StructureDefinition/test-case-cqfm"]},"contained":[{"resourceType":"Parameters","id":"45d935b7-2229-45a7-8728-2838b973553f-parameters","parameter":[{"name":"subject","valueString":"8e38b797-4dec-437d-8bf0-6f0fc78f8ea7"}]}],"extension":[{"url":"http://hl7.org/fhir/StructureDefinition/cqf-inputParameters","valueReference":{"reference":"#45d935b7-2229-45a7-8728-2838b973553f-parameters"}},{"url":"http://hl7.org/fhir/us/cqfmeasures/StructureDefinition/cqfm-testCaseDescription","valueMarkdown":"High BMI with dietary intervention ordered - f/u for above normal BMI, condition overweight"}],"modifierExtension":[{"url":"http://hl7.org/fhir/us/cqfmeasures/StructureDefinition/cqfm-isTestCase","valueBoolean":true}],"status":"complete","type":"individual","measure":"https://madie.cms.gov/Measure/CMS69FHIRPCSBMIScreenAndFollowUp","period":{"start":"2026-01-01","end":"2026-12-31"},"group":[{"id":"Group_1","population":[{"id":"InitialPopulation_1","code":{"coding":[{"system":"http://terminology.hl7.org/CodeSystem/measure-population","code":"initial-population","display":"Initial Population"}]},"count":1},{"id":"Denominator_1","code":{"coding":[{"system":"http://terminology.hl7.org/CodeSystem/measure-population","code":"denominator","display":"Denominator"}]},"count":1},{"id":"DenominatorExclusion_1","code":{"coding":[{"system":"http://terminology.hl7.org/CodeSystem/measure-population","code":"denominator-exclusion","display":"Denominator Exclusion"}]},"count":0},{"id":"Numerator_1","code":{"coding":[{"system":"http://terminology.hl7.org/CodeSystem/measure-population","code":"numerator","display":"Numerator"}]},"count":1},{"id":"DenominatorException_1","code":{"coding":[{"system":"http://terminology.hl7.org/CodeSystem/measure-population","code":"denominator-exception","display":"Denominator Exception"}]},"count":0}],"measureScore":{"value":1.0}}],"evaluatedResource":[{"reference":"Patient/8e38b797-4dec-437d-8bf0-6f0fc78f8ea7"},{"reference":"Encounter/2db46994-4c32-47d7-adff-0003d536902d"},{"reference":"Observation/4e42348f-d89e-400c-a1b3-b434345f4113"},{"reference":"Condition/5b9b0ba8-a068-4228-bff3-f80a92f9300c"},{"reference":"ServiceRequest/4e6f932b-56af-4668-a196-5ce570726709"},{"reference":"Coverage/e9382126-496b-4015-9e5a-eee661f01710"},{"reference":"Organization/86b3c9c2-0dab-43e2-a9b3-75ab58f0fe5d"}]},"request":{"method":"PUT","url":"MeasureReport/19b35e2d-373e-4117-ab66-2340ef6e035a"}},{"resource":{"resourceType":"ServiceRequest","id":"4e6f932b-56af-4668-a196-5ce570726709","meta":{"profile":["http://hl7.org/fhir/us/qicore/StructureDefinition/qicore-servicerequest"]},"status":"active","intent":"order","code":{"coding":[{"system":"http://snomed.info/sct","version":"2022-03","code":"182922004","display":"Dietary regime (regime/therapy)","userSelected":true}]},"subject":{"reference":"Patient/8e38b797-4dec-437d-8bf0-6f0fc78f8ea7"},"authoredOn":"2026-01-01T00:30:00.000+00:00","reasonCode":[{"coding":[{"system":"http://hl7.org/fhir/sid/icd-10-cm","version":"2023","code":"E66.01","display":"Morbid (severe) obesity due to excess calories","userSelected":true}]}]},"request":{"method":"PUT","url":"ServiceRequest/4e6f932b-56af-4668-a196-5ce570726709"}},{"resource":{"resourceType":"Patient","id":"8e38b797-4dec-437d-8bf0-6f0fc78f8ea7","meta":{"profile":["http://hl7.org/fhir/us/qicore/StructureDefinition/qicore-patient"]},"extension":[{"url":"http://hl7.org/fhir/us/core/StructureDefinition/us-core-race","extension":[{"url":"ombCategory","valueCoding":{"system":"urn:oid:2.16.840.1.113883.6.238","code":"2106-3","display":"White","userSelected":true}},{"url":"text","valueString":"White"}]},{"url":"http://hl7.org/fhir/us/core/StructureDefinition/us-core-ethnicity","extension":[{"url":"ombCategory","valueCoding":{"system":"urn:oid:2.16.840.1.113883.6.238","code":"2186-5","display":"Not Hispanic or Latino","userSelected":true}},{"url":"text","valueString":"Not Hispanic or Latino"}]}],"identifier":[{"type":{"coding":[{"system":"http://terminology.hl7.org/CodeSystem/v2-0203","code":"MR"}]},"system":"https://bonnie-fhir.healthit.gov/","value":"62df045c5db91778f87ca900"}],"name":[{"family":"NUMERPass","given":["HighBMIAndInterventionOrderedFollowUp"]}],"gender":"male","birthDate":"1957-11-07"},"request":{"method":"PUT","url":"Patient/8e38b797-4dec-437d-8bf0-6f0fc78f8ea7"}},{"resource":{"resourceType":"Bundle","id":"62df045c5db91778f87ca900","type":"transaction","entry":[{"fullUrl":"https://madie.cms.gov/Patient/8e38b797-4dec-437d-8bf0-6f0fc78f8ea7","resource":{"resourceType":"Patient","id":"8e38b797-4dec-437d-8bf0-6f0fc78f8ea7","meta":{"profile":["http://hl7.org/fhir/us/qicore/StructureDefinition/qicore-patient"]},"extension":[{"url":"http://hl7.org/fhir/us/core/StructureDefinition/us-core-race","extension":[{"url":"ombCategory","valueCoding":{"system":"urn:oid:2.16.840.1.113883.6.238","code":"2106-3","display":"White","userSelected":true}},{"url":"text","valueString":"White"}]},{"url":"http://hl7.org/fhir/us/core/StructureDefinition/us-core-ethnicity","extension":[{"url":"ombCategory","valueCoding":{"system":"urn:oid:2.16.840.1.113883.6.238","code":"2186-5","display":"Not Hispanic or Latino","userSelected":true}},{"url":"text","valueString":"Not Hispanic or Latino"}]}],"identifier":[{"type":{"coding":[{"system":"http://terminology.hl7.org/CodeSystem/v2-0203","code":"MR"}]},"system":"https://bonnie-fhir.healthit.gov/","value":"62df045c5db91778f87ca900"}],"name":[{"family":"NUMERPass","given":["HighBMIAndInterventionOrderedFollowUp"]}],"gender":"male","birthDate":"1957-11-07"},"request":{"method":"PUT","url":"Patient/8e38b797-4dec-437d-8bf0-6f0fc78f8ea7"}},{"fullUrl":"https://madie.cms.gov/Encounter/2db46994-4c32-47d7-adff-0003d536902d","resource":{"resourceType":"Encounter","id":"2db46994-4c32-47d7-adff-0003d536902d","meta":{"profile":["http://hl7.org/fhir/us/qicore/StructureDefinition/qicore-encounter"]},"status":"finished","class":{"system":"http://terminology.hl7.org/CodeSystem/v3-ActCode","code":"AMB","display":"ambulatory"},"type":[{"coding":[{"system":"http://snomed.info/sct","version":"2022-03","code":"10197000","display":"Psychiatric interview and evaluation (procedure)","userSelected":true}]}],"subject":{"reference":"Patient/8e38b797-4dec-437d-8bf0-6f0fc78f8ea7"},"period":{"start":"2026-01-01T00:00:00.000+00:00","end":"2026-01-01T00:30:00.000+00:00"}},"request":{"method":"PUT","url":"Encounter/2db46994-4c32-47d7-adff-0003d536902d"}},{"fullUrl":"https://madie.cms.gov/Observation/4e42348f-d89e-400c-a1b3-b434345f4113","resource":{"resourceType":"Observation","id":"4e42348f-d89e-400c-a1b3-b434345f4113","meta":{"profile":["http://hl7.org/fhir/us/core/StructureDefinition/us-core-bmi"]},"status":"final","category":[{"coding":[{"system":"http://terminology.hl7.org/CodeSystem/observation-category","code":"vital-signs","display":"Vital Signs"}]}],"code":{"coding":[{"system":"http://loinc.org","code":"39156-5","display":"Body mass index (BMI) [Ratio]","userSelected":true}]},"subject":{"reference":"Patient/8e38b797-4dec-437d-8bf0-6f0fc78f8ea7"},"effectiveDateTime":"2026-01-01T00:30:00.000+00:00","valueQuantity":{"value":30.0,"unit":"kg/m2","system":"http://unitsofmeasure.org","code":"kg/m2"}},"request":{"method":"PUT","url":"Observation/4e42348f-d89e-400c-a1b3-b434345f4113"}},{"fullUrl":"https://madie.cms.gov/Condition/5b9b0ba8-a068-4228-bff3-f80a92f9300c","resource":{"resourceType":"Condition","id":"5b9b0ba8-a068-4228-bff3-f80a92f9300c","meta":{"profile":["http://hl7.org/fhir/us/qicore/StructureDefinition/qicore-condition-problems-health-concerns"]},"clinicalStatus":{"coding":[{"system":"http://terminology.hl7.org/CodeSystem/condition-clinical","code":"active","display":"active","userSelected":true}]},"category":[{"coding":[{"system":"http://hl7.org/fhir/us/core/CodeSystem/condition-category","code":"health-concern","display":"Health Concern"},{"system":"http://snomed.info/sct","code":"439401001","display":"Diagnosis"}]}],"code":{"coding":[{"system":"http://hl7.org/fhir/sid/icd-10-cm","version":"2023","code":"E66.01","display":"Morbid (severe) obesity due to excess calories","userSelected":true}]},"subject":{"reference":"Patient/8e38b797-4dec-437d-8bf0-6f0fc78f8ea7"},"onsetDateTime":"2026-01-01T00:05:00.000+00:00"},"request":{"method":"PUT","url":"Condition/5b9b0ba8-a068-4228-bff3-f80a92f9300c"}},{"fullUrl":"https://madie.cms.gov/ServiceRequest/4e6f932b-56af-4668-a196-5ce570726709","resource":{"resourceType":"ServiceRequest","id":"4e6f932b-56af-4668-a196-5ce570726709","meta":{"profile":["http://hl7.org/fhir/us/qicore/StructureDefinition/qicore-servicerequest"]},"status":"active","intent":"order","code":{"coding":[{"system":"http://snomed.info/sct","version":"2022-03","code":"182922004","display":"Dietary regime (regime/therapy)","userSelected":true}]},"subject":{"reference":"Patient/8e38b797-4dec-437d-8bf0-6f0fc78f8ea7"},"authoredOn":"2026-01-01T00:30:00.000+00:00","reasonCode":[{"coding":[{"system":"http://hl7.org/fhir/sid/icd-10-cm","version":"2023","code":"E66.01","display":"Morbid (severe) obesity due to excess calories","userSelected":true}]}]},"request":{"method":"PUT","url":"ServiceRequest/4e6f932b-56af-4668-a196-5ce570726709"}},{"fullUrl":"https://madie.cms.gov/Coverage/e9382126-496b-4015-9e5a-eee661f01710","resource":{"resourceType":"Coverage","id":"e9382126-496b-4015-9e5a-eee661f01710","meta":{"profile":["http://hl7.org/fhir/us/qicore/StructureDefinition/qicore-coverage"]},"status":"active","beneficiary":{"reference":"Patient/8e38b797-4dec-437d-8bf0-6f0fc78f8ea7"},"payor":[{"reference":"Organization/86b3c9c2-0dab-43e2-a9b3-75ab58f0fe5d"}]},"request":{"method":"PUT","url":"Coverage/e9382126-496b-4015-9e5a-eee661f01710"}},{"fullUrl":"https://madie.cms.gov/Organization/86b3c9c2-0dab-43e2-a9b3-75ab58f0fe5d","resource":{"resourceType":"Organization","id":"86b3c9c2-0dab-43e2-a9b3-75ab58f0fe5d","meta":{"profile":["http://hl7.org/fhir/us/qicore/StructureDefinition/qicore-organization"]},"identifier":[{"use":"temp","system":"urn:oid:2.16.840.1.113883.4.4","value":"21-3259825"}],"active":true,"type":[{"coding":[{"system":"http://terminology.hl7.org/CodeSystem/organization-type","code":"pay","display":"Payer"}]}],"name":"Blue Cross Blue Shield of Texas","telecom":[{"system":"phone","value":"(+1) 972-766-6900"}],"address":[{"use":"billing","type":"postal","line":["P.O. Box 660044"],"city":"Dallas","state":"TX","postalCode":"75266-0044","country":"USA"}]},"request":{"method":"PUT","url":"Organization/86b3c9c2-0dab-43e2-a9b3-75ab58f0fe5d"}},{"fullUrl":"https://madie.cms.gov/MeasureReport/19b35e2d-373e-4117-ab66-2340ef6e035a","resource":{"resourceType":"MeasureReport","id":"19b35e2d-373e-4117-ab66-2340ef6e035a","meta":{"profile":["http://hl7.org/fhir/us/cqfmeasures/StructureDefinition/test-case-cqfm"]},"contained":[{"resourceType":"Parameters","id":"45d935b7-2229-45a7-8728-2838b973553f-parameters","parameter":[{"name":"subject","valueString":"8e38b797-4dec-437d-8bf0-6f0fc78f8ea7"}]}],"extension":[{"url":"http://hl7.org/fhir/StructureDefinition/cqf-inputParameters","valueReference":{"reference":"#45d935b7-2229-45a7-8728-2838b973553f-parameters"}},{"url":"http://hl7.org/fhir/us/cqfmeasures/StructureDefinition/cqfm-testCaseDescription","valueMarkdown":"High BMI with dietary intervention ordered - f/u for above normal BMI, condition overweight"}],"modifierExtension":[{"url":"http://hl7.org/fhir/us/cqfmeasures/StructureDefinition/cqfm-isTestCase","valueBoolean":true}],"status":"complete","type":"individual","measure":"https://madie.cms.gov/Measure/CMS69FHIRPCSBMIScreenAndFollowUp","period":{"start":"2026-01-01","end":"2026-12-31"},"group":[{"id":"Group_1","population":[{"id":"InitialPopulation_1","code":{"coding":[{"system":"http://terminology.hl7.org/CodeSystem/measure-population","code":"initial-population","display":"Initial Population"}]},"count":1},{"id":"Denominator_1","code":{"coding":[{"system":"http://terminology.hl7.org/CodeSystem/measure-population","code":"denominator","display":"Denominator"}]},"count":1},{"id":"DenominatorExclusion_1","code":{"coding":[{"system":"http://terminology.hl7.org/CodeSystem/measure-population","code":"denominator-exclusion","display":"Denominator Exclusion"}]},"count":0},{"id":"Numerator_1","code":{"coding":[{"system":"http://terminology.hl7.org/CodeSystem/measure-population","code":"numerator","display":"Numerator"}]},"count":1},{"id":"DenominatorException_1","code":{"coding":[{"system":"http://terminology.hl7.org/CodeSystem/measure-population","code":"denominator-exception","display":"Denominator Exception"}]},"count":0}],"measureScore":{"value":1.0}}],"evaluatedResource":[{"reference":"Patient/8e38b797-4dec-437d-8bf0-6f0fc78f8ea7"},{"reference":"Encounter/2db46994-4c32-47d7-adff-0003d536902d"},{"reference":"Observation/4e42348f-d89e-400c-a1b3-b434345f4113"},{"reference":"Condition/5b9b0ba8-a068-4228-bff3-f80a92f9300c"},{"reference":"ServiceRequest/4e6f932b-56af-4668-a196-5ce570726709"},{"reference":"Coverage/e9382126-496b-4015-9e5a-eee661f01710"},{"reference":"Organization/86b3c9c2-0dab-43e2-a9b3-75ab58f0fe5d"}]},"request":{"method":"PUT","url":"MeasureReport/19b35e2d-373e-4117-ab66-2340ef6e035a"}}]},"request":{"method":"PUT","url":"Bundle/62df045c5db91778f87ca900"}},{"resource":{"resourceType":"Organization","id":"86b3c9c2-0dab-43e2-a9b3-75ab58f0fe5d","meta":{"profile":["http://hl7.org/fhir/us/qicore/StructureDefinition/qicore-organization"]},"identifier":[{"use":"temp","system":"urn:oid:2.16.840.1.113883.4.4","value":"21-3259825"}],"active":true,"type":[{"coding":[{"system":"http://terminology.hl7.org/CodeSystem/organization-type","code":"pay","display":"Payer"}]}],"name":"Blue Cross Blue Shield of Texas","telecom":[{"system":"phone","value":"(+1) 972-766-6900"}],"address":[{"use":"billing","type":"postal","line":["P.O. Box 660044"],"city":"Dallas","state":"TX","postalCode":"75266-0044","country":"USA"}]},"request":{"method":"PUT","url":"Organization/86b3c9c2-0dab-43e2-a9b3-75ab58f0fe5d"}},{"resource":{"resourceType":"Coverage","id":"e9382126-496b-4015-9e5a-eee661f01710","meta":{"profile":["http://hl7.org/fhir/us/qicore/StructureDefinition/qicore-coverage"]},"status":"active","beneficiary":{"reference":"Patient/8e38b797-4dec-437d-8bf0-6f0fc78f8ea7"},"payor":[{"reference":"Organization/86b3c9c2-0dab-43e2-a9b3-75ab58f0fe5d"}]},"request":{"method":"PUT","url":"Coverage/e9382126-496b-4015-9e5a-eee661f01710"}}]}