{"resourceType":"Bundle","id":"tests-2a976bc2-493b-421f-842e-36d31463f261-bundle","type":"transaction","entry":[{"resource":{"resourceType":"Bundle","id":"62aa507fc4be4c506d4a533a","type":"transaction","entry":[{"fullUrl":"https://madie.cms.gov/Patient/2a976bc2-493b-421f-842e-36d31463f261","resource":{"resourceType":"Patient","id":"2a976bc2-493b-421f-842e-36d31463f261","meta":{"profile":["http://hl7.org/fhir/us/qicore/StructureDefinition/qicore-patient"]},"extension":[{"url":"http://hl7.org/fhir/us/core/StructureDefinition/us-core-race","extension":[{"url":"ombCategory","valueCoding":{"system":"urn:oid:2.16.840.1.113883.6.238","code":"1002-5","display":"American Indian or Alaska Native","userSelected":true}},{"url":"text","valueString":"American Indian or Alaska Native"}]},{"url":"http://hl7.org/fhir/us/core/StructureDefinition/us-core-ethnicity","extension":[{"url":"ombCategory","valueCoding":{"system":"urn:oid:2.16.840.1.113883.6.238","code":"2186-5","display":"Not Hispanic or Latino","userSelected":true}},{"url":"text","valueString":"Not Hispanic or Latino"}]}],"identifier":[{"type":{"coding":[{"system":"http://terminology.hl7.org/CodeSystem/v2-0203","code":"MR"}]},"system":"https://bonnie-fhir.healthit.gov/","value":"62aa507fc4be4c506d4a533a"}],"name":[{"family":"DENOMPass","given":["Patient18DayOfEncounter"]}],"gender":"male","birthDate":"2005-01-01"},"request":{"method":"PUT","url":"Patient/2a976bc2-493b-421f-842e-36d31463f261"}},{"fullUrl":"https://madie.cms.gov/Encounter/03660c50-c46e-4530-ae2d-e17263e2c18e","resource":{"resourceType":"Encounter","id":"03660c50-c46e-4530-ae2d-e17263e2c18e","meta":{"profile":["http://hl7.org/fhir/us/qicore/StructureDefinition/qicore-encounter"]},"status":"finished","class":{"system":"http://terminology.hl7.org/CodeSystem/v3-ActCode","code":"AMB","display":"ambulatory"},"type":[{"coding":[{"system":"http://snomed.info/sct","version":"2022-03","code":"10197000","display":"Psychiatric interview and evaluation (procedure)","userSelected":true}]}],"subject":{"reference":"Patient/2a976bc2-493b-421f-842e-36d31463f261"},"period":{"start":"2026-01-01T00:00:00.000+00:00","end":"2026-01-01T00:30:00.000+00:00"}},"request":{"method":"PUT","url":"Encounter/03660c50-c46e-4530-ae2d-e17263e2c18e"}},{"fullUrl":"https://madie.cms.gov/Coverage/0e949a92-ffb8-408b-a8ad-7b0d92753156","resource":{"resourceType":"Coverage","id":"0e949a92-ffb8-408b-a8ad-7b0d92753156","meta":{"profile":["http://hl7.org/fhir/us/qicore/StructureDefinition/qicore-coverage"]},"status":"active","beneficiary":{"reference":"Patient/2a976bc2-493b-421f-842e-36d31463f261"},"payor":[{"reference":"Organization/13ccd7af-8707-4ff4-8ff1-98dcfd65886d"}]},"request":{"method":"PUT","url":"Coverage/0e949a92-ffb8-408b-a8ad-7b0d92753156"}},{"fullUrl":"https://madie.cms.gov/Organization/13ccd7af-8707-4ff4-8ff1-98dcfd65886d","resource":{"resourceType":"Organization","id":"13ccd7af-8707-4ff4-8ff1-98dcfd65886d","meta":{"profile":["http://hl7.org/fhir/us/qicore/StructureDefinition/qicore-organization"]},"identifier":[{"use":"temp","system":"urn:oid:2.16.840.1.113883.4.4","value":"21-3259825"}],"active":true,"type":[{"coding":[{"system":"http://terminology.hl7.org/CodeSystem/organization-type","code":"pay","display":"Payer"}]}],"name":"Blue Cross Blue Shield of Texas","telecom":[{"system":"phone","value":"(+1) 972-766-6900"}],"address":[{"use":"billing","type":"postal","line":["P.O. Box 660044"],"city":"Dallas","state":"TX","postalCode":"75266-0044","country":"USA"}]},"request":{"method":"PUT","url":"Organization/13ccd7af-8707-4ff4-8ff1-98dcfd65886d"}},{"fullUrl":"https://madie.cms.gov/MeasureReport/b78db2e6-bad7-4af7-a3cf-d5d2139bd5cb","resource":{"resourceType":"MeasureReport","id":"b78db2e6-bad7-4af7-a3cf-d5d2139bd5cb","meta":{"profile":["http://hl7.org/fhir/us/cqfmeasures/StructureDefinition/test-case-cqfm"]},"contained":[{"resourceType":"Parameters","id":"1a6041f0-09f5-4f4b-913b-1f856cf82b3f-parameters","parameter":[{"name":"subject","valueString":"2a976bc2-493b-421f-842e-36d31463f261"}]}],"extension":[{"url":"http://hl7.org/fhir/StructureDefinition/cqf-inputParameters","valueReference":{"reference":"#1a6041f0-09f5-4f4b-913b-1f856cf82b3f-parameters"}},{"url":"http://hl7.org/fhir/us/cqfmeasures/StructureDefinition/cqfm-testCaseDescription","valueMarkdown":"Age 18 the first 30 minutes of the first day of the year and first day of the MP. "}],"modifierExtension":[{"url":"http://hl7.org/fhir/us/cqfmeasures/StructureDefinition/cqfm-isTestCase","valueBoolean":true}],"status":"complete","type":"individual","measure":"https://madie.cms.gov/Measure/CMS69FHIRPCSBMIScreenAndFollowUp","period":{"start":"2026-01-01","end":"2026-12-31"},"group":[{"id":"Group_1","population":[{"id":"InitialPopulation_1","code":{"coding":[{"system":"http://terminology.hl7.org/CodeSystem/measure-population","code":"initial-population","display":"Initial Population"}]},"count":1},{"id":"Denominator_1","code":{"coding":[{"system":"http://terminology.hl7.org/CodeSystem/measure-population","code":"denominator","display":"Denominator"}]},"count":1},{"id":"DenominatorExclusion_1","code":{"coding":[{"system":"http://terminology.hl7.org/CodeSystem/measure-population","code":"denominator-exclusion","display":"Denominator Exclusion"}]},"count":0},{"id":"Numerator_1","code":{"coding":[{"system":"http://terminology.hl7.org/CodeSystem/measure-population","code":"numerator","display":"Numerator"}]},"count":0},{"id":"DenominatorException_1","code":{"coding":[{"system":"http://terminology.hl7.org/CodeSystem/measure-population","code":"denominator-exception","display":"Denominator Exception"}]},"count":0}],"measureScore":{"value":1.0}}],"evaluatedResource":[{"reference":"Patient/2a976bc2-493b-421f-842e-36d31463f261"},{"reference":"Encounter/03660c50-c46e-4530-ae2d-e17263e2c18e"},{"reference":"Coverage/0e949a92-ffb8-408b-a8ad-7b0d92753156"},{"reference":"Organization/13ccd7af-8707-4ff4-8ff1-98dcfd65886d"}]},"request":{"method":"PUT","url":"MeasureReport/b78db2e6-bad7-4af7-a3cf-d5d2139bd5cb"}}]},"request":{"method":"PUT","url":"Bundle/62aa507fc4be4c506d4a533a"}},{"resource":{"resourceType":"Coverage","id":"0e949a92-ffb8-408b-a8ad-7b0d92753156","meta":{"profile":["http://hl7.org/fhir/us/qicore/StructureDefinition/qicore-coverage"]},"status":"active","beneficiary":{"reference":"Patient/2a976bc2-493b-421f-842e-36d31463f261"},"payor":[{"reference":"Organization/13ccd7af-8707-4ff4-8ff1-98dcfd65886d"}]},"request":{"method":"PUT","url":"Coverage/0e949a92-ffb8-408b-a8ad-7b0d92753156"}},{"resource":{"resourceType":"Encounter","id":"03660c50-c46e-4530-ae2d-e17263e2c18e","meta":{"profile":["http://hl7.org/fhir/us/qicore/StructureDefinition/qicore-encounter"]},"status":"finished","class":{"system":"http://terminology.hl7.org/CodeSystem/v3-ActCode","code":"AMB","display":"ambulatory"},"type":[{"coding":[{"system":"http://snomed.info/sct","version":"2022-03","code":"10197000","display":"Psychiatric interview and evaluation (procedure)","userSelected":true}]}],"subject":{"reference":"Patient/2a976bc2-493b-421f-842e-36d31463f261"},"period":{"start":"2026-01-01T00:00:00.000+00:00","end":"2026-01-01T00:30:00.000+00:00"}},"request":{"method":"PUT","url":"Encounter/03660c50-c46e-4530-ae2d-e17263e2c18e"}},{"resource":{"resourceType":"MeasureReport","id":"b78db2e6-bad7-4af7-a3cf-d5d2139bd5cb","meta":{"profile":["http://hl7.org/fhir/us/cqfmeasures/StructureDefinition/test-case-cqfm"]},"contained":[{"resourceType":"Parameters","id":"1a6041f0-09f5-4f4b-913b-1f856cf82b3f-parameters","parameter":[{"name":"subject","valueString":"2a976bc2-493b-421f-842e-36d31463f261"}]}],"extension":[{"url":"http://hl7.org/fhir/StructureDefinition/cqf-inputParameters","valueReference":{"reference":"#1a6041f0-09f5-4f4b-913b-1f856cf82b3f-parameters"}},{"url":"http://hl7.org/fhir/us/cqfmeasures/StructureDefinition/cqfm-testCaseDescription","valueMarkdown":"Age 18 the first 30 minutes of the first day of the year and first day of the MP. "}],"modifierExtension":[{"url":"http://hl7.org/fhir/us/cqfmeasures/StructureDefinition/cqfm-isTestCase","valueBoolean":true}],"status":"complete","type":"individual","measure":"https://madie.cms.gov/Measure/CMS69FHIRPCSBMIScreenAndFollowUp","period":{"start":"2026-01-01","end":"2026-12-31"},"group":[{"id":"Group_1","population":[{"id":"InitialPopulation_1","code":{"coding":[{"system":"http://terminology.hl7.org/CodeSystem/measure-population","code":"initial-population","display":"Initial Population"}]},"count":1},{"id":"Denominator_1","code":{"coding":[{"system":"http://terminology.hl7.org/CodeSystem/measure-population","code":"denominator","display":"Denominator"}]},"count":1},{"id":"DenominatorExclusion_1","code":{"coding":[{"system":"http://terminology.hl7.org/CodeSystem/measure-population","code":"denominator-exclusion","display":"Denominator Exclusion"}]},"count":0},{"id":"Numerator_1","code":{"coding":[{"system":"http://terminology.hl7.org/CodeSystem/measure-population","code":"numerator","display":"Numerator"}]},"count":0},{"id":"DenominatorException_1","code":{"coding":[{"system":"http://terminology.hl7.org/CodeSystem/measure-population","code":"denominator-exception","display":"Denominator Exception"}]},"count":0}],"measureScore":{"value":1.0}}],"evaluatedResource":[{"reference":"Patient/2a976bc2-493b-421f-842e-36d31463f261"},{"reference":"Encounter/03660c50-c46e-4530-ae2d-e17263e2c18e"},{"reference":"Coverage/0e949a92-ffb8-408b-a8ad-7b0d92753156"},{"reference":"Organization/13ccd7af-8707-4ff4-8ff1-98dcfd65886d"}]},"request":{"method":"PUT","url":"MeasureReport/b78db2e6-bad7-4af7-a3cf-d5d2139bd5cb"}},{"resource":{"resourceType":"Organization","id":"13ccd7af-8707-4ff4-8ff1-98dcfd65886d","meta":{"profile":["http://hl7.org/fhir/us/qicore/StructureDefinition/qicore-organization"]},"identifier":[{"use":"temp","system":"urn:oid:2.16.840.1.113883.4.4","value":"21-3259825"}],"active":true,"type":[{"coding":[{"system":"http://terminology.hl7.org/CodeSystem/organization-type","code":"pay","display":"Payer"}]}],"name":"Blue Cross Blue Shield of Texas","telecom":[{"system":"phone","value":"(+1) 972-766-6900"}],"address":[{"use":"billing","type":"postal","line":["P.O. Box 660044"],"city":"Dallas","state":"TX","postalCode":"75266-0044","country":"USA"}]},"request":{"method":"PUT","url":"Organization/13ccd7af-8707-4ff4-8ff1-98dcfd65886d"}},{"resource":{"resourceType":"Patient","id":"2a976bc2-493b-421f-842e-36d31463f261","meta":{"profile":["http://hl7.org/fhir/us/qicore/StructureDefinition/qicore-patient"]},"extension":[{"url":"http://hl7.org/fhir/us/core/StructureDefinition/us-core-race","extension":[{"url":"ombCategory","valueCoding":{"system":"urn:oid:2.16.840.1.113883.6.238","code":"1002-5","display":"American Indian or Alaska Native","userSelected":true}},{"url":"text","valueString":"American Indian or Alaska Native"}]},{"url":"http://hl7.org/fhir/us/core/StructureDefinition/us-core-ethnicity","extension":[{"url":"ombCategory","valueCoding":{"system":"urn:oid:2.16.840.1.113883.6.238","code":"2186-5","display":"Not Hispanic or Latino","userSelected":true}},{"url":"text","valueString":"Not Hispanic or Latino"}]}],"identifier":[{"type":{"coding":[{"system":"http://terminology.hl7.org/CodeSystem/v2-0203","code":"MR"}]},"system":"https://bonnie-fhir.healthit.gov/","value":"62aa507fc4be4c506d4a533a"}],"name":[{"family":"DENOMPass","given":["Patient18DayOfEncounter"]}],"gender":"male","birthDate":"2005-01-01"},"request":{"method":"PUT","url":"Patient/2a976bc2-493b-421f-842e-36d31463f261"}}]}