{"resourceType":"Bundle","id":"tests-1c607e84-c7c2-4dae-bf63-a75d7a9cfd38-bundle","type":"transaction","entry":[{"resource":{"resourceType":"Bundle","id":"62fbef57bf5132f90ee35d41","type":"transaction","entry":[{"fullUrl":"https://madie.cms.gov/Patient/1c607e84-c7c2-4dae-bf63-a75d7a9cfd38","resource":{"resourceType":"Patient","id":"1c607e84-c7c2-4dae-bf63-a75d7a9cfd38","meta":{"profile":["http://hl7.org/fhir/us/qicore/StructureDefinition/qicore-patient"]},"extension":[{"url":"http://hl7.org/fhir/us/core/StructureDefinition/us-core-race","extension":[{"url":"ombCategory","valueCoding":{"system":"urn:oid:2.16.840.1.113883.6.238","code":"2106-3","display":"White","userSelected":true}},{"url":"text","valueString":"White"}]},{"url":"http://hl7.org/fhir/us/core/StructureDefinition/us-core-ethnicity","extension":[{"url":"ombCategory","valueCoding":{"system":"urn:oid:2.16.840.1.113883.6.238","code":"2186-5","display":"Not Hispanic or Latino","userSelected":true}},{"url":"text","valueString":"Not Hispanic or Latino"}]}],"identifier":[{"type":{"coding":[{"system":"http://terminology.hl7.org/CodeSystem/v2-0203","code":"MR"}]},"system":"https://bonnie-fhir.healthit.gov/","value":"62fbef57bf5132f90ee35d41"}],"name":[{"family":"NUMERFail","given":["ObeseDxEndsBeforeIntervention"]}],"gender":"unknown","birthDate":"1957-11-07"},"request":{"method":"PUT","url":"Patient/1c607e84-c7c2-4dae-bf63-a75d7a9cfd38"}},{"fullUrl":"https://madie.cms.gov/Encounter/743fc3f4-5d95-4098-9dd5-95b9a8e2dc1c","resource":{"resourceType":"Encounter","id":"743fc3f4-5d95-4098-9dd5-95b9a8e2dc1c","meta":{"profile":["http://hl7.org/fhir/us/qicore/StructureDefinition/qicore-encounter"]},"status":"finished","class":{"system":"http://terminology.hl7.org/CodeSystem/v3-ActCode","code":"AMB","display":"ambulatory"},"type":[{"coding":[{"system":"http://snomed.info/sct","version":"2022-03","code":"10197000","display":"Psychiatric interview and evaluation (procedure)","userSelected":true}]}],"subject":{"reference":"Patient/1c607e84-c7c2-4dae-bf63-a75d7a9cfd38"},"period":{"start":"2026-12-31T23:30:00.000+00:00","end":"2026-12-31T23:59:00.000+00:00"}},"request":{"method":"PUT","url":"Encounter/743fc3f4-5d95-4098-9dd5-95b9a8e2dc1c"}},{"fullUrl":"https://madie.cms.gov/Observation/3e177c56-26d5-4fc3-8241-71b3fdf786f4","resource":{"resourceType":"Observation","id":"3e177c56-26d5-4fc3-8241-71b3fdf786f4","meta":{"profile":["http://hl7.org/fhir/us/core/StructureDefinition/us-core-bmi"]},"status":"final","category":[{"coding":[{"system":"http://terminology.hl7.org/CodeSystem/observation-category","code":"vital-signs","display":"Vital Signs"}]}],"code":{"coding":[{"system":"http://loinc.org","code":"39156-5","display":"Body mass index (BMI) [Ratio]","userSelected":true}]},"subject":{"reference":"Patient/1c607e84-c7c2-4dae-bf63-a75d7a9cfd38"},"effectiveDateTime":"2026-12-30T08:05:00.000+00:00","valueQuantity":{"value":30,"unit":"kg/m2","system":"http://unitsofmeasure.org","code":"kg/m2"}},"request":{"method":"PUT","url":"Observation/3e177c56-26d5-4fc3-8241-71b3fdf786f4"}},{"fullUrl":"https://madie.cms.gov/ServiceRequest/d47938b5-ce38-4ad7-a838-b74223190af3","resource":{"resourceType":"ServiceRequest","id":"d47938b5-ce38-4ad7-a838-b74223190af3","meta":{"profile":["http://hl7.org/fhir/us/qicore/StructureDefinition/qicore-servicerequest"]},"extension":[{"url":"http://hl7.org/fhir/us/qicore/StructureDefinition/qicore-recorded","valueDateTime":"2026-12-30T23:58:00.000+00:00"}],"status":"completed","intent":"order","code":{"coding":[{"system":"http://snomed.info/sct","version":"2022-03","code":"182922004","display":"Dietary regime (regime/therapy)","userSelected":true}]},"subject":{"reference":"Patient/1c607e84-c7c2-4dae-bf63-a75d7a9cfd38"},"authoredOn":"2024-12-31T08:00:00.000+00:00"},"request":{"method":"PUT","url":"ServiceRequest/d47938b5-ce38-4ad7-a838-b74223190af3"}},{"fullUrl":"https://madie.cms.gov/Condition/6eb74789-f186-478f-a535-dc92634c4849","resource":{"resourceType":"Condition","id":"6eb74789-f186-478f-a535-dc92634c4849","meta":{"profile":["http://hl7.org/fhir/us/qicore/StructureDefinition/qicore-condition-problems-health-concerns"]},"clinicalStatus":{"coding":[{"system":"http://terminology.hl7.org/CodeSystem/condition-clinical","code":"resolved","display":"Resolved","userSelected":true}]},"category":[{"coding":[{"system":"http://terminology.hl7.org/CodeSystem/condition-category","code":"problem-list-item","display":"Problem List Item"},{"system":"http://snomed.info/sct","code":"439401001","display":"Diagnosis"}]}],"code":{"coding":[{"system":"http://snomed.info/sct","version":"2022-03","code":"162863004","display":"Body mass index 25-29 - overweight (finding)","userSelected":true}]},"subject":{"reference":"Patient/1c607e84-c7c2-4dae-bf63-a75d7a9cfd38"},"onsetDateTime":"2023-12-29T23:59:00.000+00:00","abatementDateTime":"2026-12-29T23:59:00.000+00:00"},"request":{"method":"PUT","url":"Condition/6eb74789-f186-478f-a535-dc92634c4849"}},{"fullUrl":"https://madie.cms.gov/Coverage/114e9633-f4d8-4412-9e8b-30ac831bf6fc","resource":{"resourceType":"Coverage","id":"114e9633-f4d8-4412-9e8b-30ac831bf6fc","meta":{"profile":["http://hl7.org/fhir/us/qicore/StructureDefinition/qicore-coverage"]},"status":"active","beneficiary":{"reference":"Patient/1c607e84-c7c2-4dae-bf63-a75d7a9cfd38"},"payor":[{"reference":"Organization/e72321e4-ef5a-41c9-a6d3-ae15783f82bf"}]},"request":{"method":"PUT","url":"Coverage/114e9633-f4d8-4412-9e8b-30ac831bf6fc"}},{"fullUrl":"https://madie.cms.gov/Organization/e72321e4-ef5a-41c9-a6d3-ae15783f82bf","resource":{"resourceType":"Organization","id":"e72321e4-ef5a-41c9-a6d3-ae15783f82bf","meta":{"profile":["http://hl7.org/fhir/us/qicore/StructureDefinition/qicore-organization"]},"identifier":[{"use":"temp","system":"urn:oid:2.16.840.1.113883.4.4","value":"21-3259825"}],"active":true,"type":[{"coding":[{"system":"http://terminology.hl7.org/CodeSystem/organization-type","code":"pay","display":"Payer"}]}],"name":"Blue Cross Blue Shield of Texas","telecom":[{"system":"phone","value":"(+1) 972-766-6900"}],"address":[{"use":"billing","type":"postal","line":["P.O. Box 660044"],"city":"Dallas","state":"TX","postalCode":"75266-0044","country":"USA"}]},"request":{"method":"PUT","url":"Organization/e72321e4-ef5a-41c9-a6d3-ae15783f82bf"}},{"fullUrl":"https://madie.cms.gov/MeasureReport/e9546c16-0bd5-4d4f-8bab-22f362b7d298","resource":{"resourceType":"MeasureReport","id":"e9546c16-0bd5-4d4f-8bab-22f362b7d298","meta":{"profile":["http://hl7.org/fhir/us/cqfmeasures/StructureDefinition/test-case-cqfm"]},"contained":[{"resourceType":"Parameters","id":"b29fe67d-539f-4bc4-849b-e8e8405ff416-parameters","parameter":[{"name":"subject","valueString":"1c607e84-c7c2-4dae-bf63-a75d7a9cfd38"}]}],"extension":[{"url":"http://hl7.org/fhir/StructureDefinition/cqf-inputParameters","valueReference":{"reference":"#b29fe67d-539f-4bc4-849b-e8e8405ff416-parameters"}},{"url":"http://hl7.org/fhir/us/cqfmeasures/StructureDefinition/cqfm-testCaseDescription","valueMarkdown":"Enc last day of MP @23:30-23:59, BMI 30 kg/m2 during enc, Obese dx 7/25/23, inactive 12/30, intervention after dx inactive, expected to fail the numer\n"}],"modifierExtension":[{"url":"http://hl7.org/fhir/us/cqfmeasures/StructureDefinition/cqfm-isTestCase","valueBoolean":true}],"status":"complete","type":"individual","measure":"https://madie.cms.gov/Measure/CMS69FHIRPCSBMIScreenAndFollowUp","period":{"start":"2026-01-01","end":"2026-12-31"},"group":[{"id":"Group_1","population":[{"id":"InitialPopulation_1","code":{"coding":[{"system":"http://terminology.hl7.org/CodeSystem/measure-population","code":"initial-population","display":"Initial Population"}]},"count":1},{"id":"Denominator_1","code":{"coding":[{"system":"http://terminology.hl7.org/CodeSystem/measure-population","code":"denominator","display":"Denominator"}]},"count":1},{"id":"DenominatorExclusion_1","code":{"coding":[{"system":"http://terminology.hl7.org/CodeSystem/measure-population","code":"denominator-exclusion","display":"Denominator Exclusion"}]},"count":0},{"id":"Numerator_1","code":{"coding":[{"system":"http://terminology.hl7.org/CodeSystem/measure-population","code":"numerator","display":"Numerator"}]},"count":0},{"id":"DenominatorException_1","code":{"coding":[{"system":"http://terminology.hl7.org/CodeSystem/measure-population","code":"denominator-exception","display":"Denominator Exception"}]},"count":0}],"measureScore":{"value":1}}],"evaluatedResource":[{"reference":"Patient/1c607e84-c7c2-4dae-bf63-a75d7a9cfd38"},{"reference":"Encounter/743fc3f4-5d95-4098-9dd5-95b9a8e2dc1c"},{"reference":"Observation/3e177c56-26d5-4fc3-8241-71b3fdf786f4"},{"reference":"ServiceRequest/d47938b5-ce38-4ad7-a838-b74223190af3"},{"reference":"Condition/6eb74789-f186-478f-a535-dc92634c4849"},{"reference":"Coverage/114e9633-f4d8-4412-9e8b-30ac831bf6fc"},{"reference":"Organization/e72321e4-ef5a-41c9-a6d3-ae15783f82bf"}]},"request":{"method":"PUT","url":"MeasureReport/e9546c16-0bd5-4d4f-8bab-22f362b7d298"}}]},"request":{"method":"PUT","url":"Bundle/62fbef57bf5132f90ee35d41"}},{"resource":{"resourceType":"Condition","id":"6eb74789-f186-478f-a535-dc92634c4849","meta":{"profile":["http://hl7.org/fhir/us/qicore/StructureDefinition/qicore-condition-problems-health-concerns"]},"clinicalStatus":{"coding":[{"system":"http://terminology.hl7.org/CodeSystem/condition-clinical","code":"resolved","display":"Resolved","userSelected":true}]},"category":[{"coding":[{"system":"http://terminology.hl7.org/CodeSystem/condition-category","code":"problem-list-item","display":"Problem List Item"},{"system":"http://snomed.info/sct","code":"439401001","display":"Diagnosis"}]}],"code":{"coding":[{"system":"http://snomed.info/sct","version":"2022-03","code":"162863004","display":"Body mass index 25-29 - overweight (finding)","userSelected":true}]},"subject":{"reference":"Patient/1c607e84-c7c2-4dae-bf63-a75d7a9cfd38"},"onsetDateTime":"2023-12-29T23:59:00.000+00:00","abatementDateTime":"2026-12-29T23:59:00.000+00:00"},"request":{"method":"PUT","url":"Condition/6eb74789-f186-478f-a535-dc92634c4849"}},{"resource":{"resourceType":"Coverage","id":"114e9633-f4d8-4412-9e8b-30ac831bf6fc","meta":{"profile":["http://hl7.org/fhir/us/qicore/StructureDefinition/qicore-coverage"]},"status":"active","beneficiary":{"reference":"Patient/1c607e84-c7c2-4dae-bf63-a75d7a9cfd38"},"payor":[{"reference":"Organization/e72321e4-ef5a-41c9-a6d3-ae15783f82bf"}]},"request":{"method":"PUT","url":"Coverage/114e9633-f4d8-4412-9e8b-30ac831bf6fc"}},{"resource":{"resourceType":"Encounter","id":"743fc3f4-5d95-4098-9dd5-95b9a8e2dc1c","meta":{"profile":["http://hl7.org/fhir/us/qicore/StructureDefinition/qicore-encounter"]},"status":"finished","class":{"system":"http://terminology.hl7.org/CodeSystem/v3-ActCode","code":"AMB","display":"ambulatory"},"type":[{"coding":[{"system":"http://snomed.info/sct","version":"2022-03","code":"10197000","display":"Psychiatric interview and evaluation (procedure)","userSelected":true}]}],"subject":{"reference":"Patient/1c607e84-c7c2-4dae-bf63-a75d7a9cfd38"},"period":{"start":"2026-12-31T23:30:00.000+00:00","end":"2026-12-31T23:59:00.000+00:00"}},"request":{"method":"PUT","url":"Encounter/743fc3f4-5d95-4098-9dd5-95b9a8e2dc1c"}},{"resource":{"resourceType":"MeasureReport","id":"e9546c16-0bd5-4d4f-8bab-22f362b7d298","meta":{"profile":["http://hl7.org/fhir/us/cqfmeasures/StructureDefinition/test-case-cqfm"]},"contained":[{"resourceType":"Parameters","id":"b29fe67d-539f-4bc4-849b-e8e8405ff416-parameters","parameter":[{"name":"subject","valueString":"1c607e84-c7c2-4dae-bf63-a75d7a9cfd38"}]}],"extension":[{"url":"http://hl7.org/fhir/StructureDefinition/cqf-inputParameters","valueReference":{"reference":"#b29fe67d-539f-4bc4-849b-e8e8405ff416-parameters"}},{"url":"http://hl7.org/fhir/us/cqfmeasures/StructureDefinition/cqfm-testCaseDescription","valueMarkdown":"Enc last day of MP @23:30-23:59, BMI 30 kg/m2 during enc, Obese dx 7/25/23, inactive 12/30, intervention after dx inactive, expected to fail the numer\n"}],"modifierExtension":[{"url":"http://hl7.org/fhir/us/cqfmeasures/StructureDefinition/cqfm-isTestCase","valueBoolean":true}],"status":"complete","type":"individual","measure":"https://madie.cms.gov/Measure/CMS69FHIRPCSBMIScreenAndFollowUp","period":{"start":"2026-01-01","end":"2026-12-31"},"group":[{"id":"Group_1","population":[{"id":"InitialPopulation_1","code":{"coding":[{"system":"http://terminology.hl7.org/CodeSystem/measure-population","code":"initial-population","display":"Initial Population"}]},"count":1},{"id":"Denominator_1","code":{"coding":[{"system":"http://terminology.hl7.org/CodeSystem/measure-population","code":"denominator","display":"Denominator"}]},"count":1},{"id":"DenominatorExclusion_1","code":{"coding":[{"system":"http://terminology.hl7.org/CodeSystem/measure-population","code":"denominator-exclusion","display":"Denominator Exclusion"}]},"count":0},{"id":"Numerator_1","code":{"coding":[{"system":"http://terminology.hl7.org/CodeSystem/measure-population","code":"numerator","display":"Numerator"}]},"count":0},{"id":"DenominatorException_1","code":{"coding":[{"system":"http://terminology.hl7.org/CodeSystem/measure-population","code":"denominator-exception","display":"Denominator Exception"}]},"count":0}],"measureScore":{"value":1}}],"evaluatedResource":[{"reference":"Patient/1c607e84-c7c2-4dae-bf63-a75d7a9cfd38"},{"reference":"Encounter/743fc3f4-5d95-4098-9dd5-95b9a8e2dc1c"},{"reference":"Observation/3e177c56-26d5-4fc3-8241-71b3fdf786f4"},{"reference":"ServiceRequest/d47938b5-ce38-4ad7-a838-b74223190af3"},{"reference":"Condition/6eb74789-f186-478f-a535-dc92634c4849"},{"reference":"Coverage/114e9633-f4d8-4412-9e8b-30ac831bf6fc"},{"reference":"Organization/e72321e4-ef5a-41c9-a6d3-ae15783f82bf"}]},"request":{"method":"PUT","url":"MeasureReport/e9546c16-0bd5-4d4f-8bab-22f362b7d298"}},{"resource":{"resourceType":"Observation","id":"3e177c56-26d5-4fc3-8241-71b3fdf786f4","meta":{"profile":["http://hl7.org/fhir/us/core/StructureDefinition/us-core-bmi"]},"status":"final","category":[{"coding":[{"system":"http://terminology.hl7.org/CodeSystem/observation-category","code":"vital-signs","display":"Vital Signs"}]}],"code":{"coding":[{"system":"http://loinc.org","code":"39156-5","display":"Body mass index (BMI) [Ratio]","userSelected":true}]},"subject":{"reference":"Patient/1c607e84-c7c2-4dae-bf63-a75d7a9cfd38"},"effectiveDateTime":"2026-12-30T08:05:00.000+00:00","valueQuantity":{"value":30,"unit":"kg/m2","system":"http://unitsofmeasure.org","code":"kg/m2"}},"request":{"method":"PUT","url":"Observation/3e177c56-26d5-4fc3-8241-71b3fdf786f4"}},{"resource":{"resourceType":"Organization","id":"e72321e4-ef5a-41c9-a6d3-ae15783f82bf","meta":{"profile":["http://hl7.org/fhir/us/qicore/StructureDefinition/qicore-organization"]},"identifier":[{"use":"temp","system":"urn:oid:2.16.840.1.113883.4.4","value":"21-3259825"}],"active":true,"type":[{"coding":[{"system":"http://terminology.hl7.org/CodeSystem/organization-type","code":"pay","display":"Payer"}]}],"name":"Blue Cross Blue Shield of Texas","telecom":[{"system":"phone","value":"(+1) 972-766-6900"}],"address":[{"use":"billing","type":"postal","line":["P.O. Box 660044"],"city":"Dallas","state":"TX","postalCode":"75266-0044","country":"USA"}]},"request":{"method":"PUT","url":"Organization/e72321e4-ef5a-41c9-a6d3-ae15783f82bf"}},{"resource":{"resourceType":"Patient","id":"1c607e84-c7c2-4dae-bf63-a75d7a9cfd38","meta":{"profile":["http://hl7.org/fhir/us/qicore/StructureDefinition/qicore-patient"]},"extension":[{"url":"http://hl7.org/fhir/us/core/StructureDefinition/us-core-race","extension":[{"url":"ombCategory","valueCoding":{"system":"urn:oid:2.16.840.1.113883.6.238","code":"2106-3","display":"White","userSelected":true}},{"url":"text","valueString":"White"}]},{"url":"http://hl7.org/fhir/us/core/StructureDefinition/us-core-ethnicity","extension":[{"url":"ombCategory","valueCoding":{"system":"urn:oid:2.16.840.1.113883.6.238","code":"2186-5","display":"Not Hispanic or Latino","userSelected":true}},{"url":"text","valueString":"Not Hispanic or Latino"}]}],"identifier":[{"type":{"coding":[{"system":"http://terminology.hl7.org/CodeSystem/v2-0203","code":"MR"}]},"system":"https://bonnie-fhir.healthit.gov/","value":"62fbef57bf5132f90ee35d41"}],"name":[{"family":"NUMERFail","given":["ObeseDxEndsBeforeIntervention"]}],"gender":"unknown","birthDate":"1957-11-07"},"request":{"method":"PUT","url":"Patient/1c607e84-c7c2-4dae-bf63-a75d7a9cfd38"}},{"resource":{"resourceType":"ServiceRequest","id":"d47938b5-ce38-4ad7-a838-b74223190af3","meta":{"profile":["http://hl7.org/fhir/us/qicore/StructureDefinition/qicore-servicerequest"]},"extension":[{"url":"http://hl7.org/fhir/us/qicore/StructureDefinition/qicore-recorded","valueDateTime":"2026-12-30T23:58:00.000+00:00"}],"status":"completed","intent":"order","code":{"coding":[{"system":"http://snomed.info/sct","version":"2022-03","code":"182922004","display":"Dietary regime (regime/therapy)","userSelected":true}]},"subject":{"reference":"Patient/1c607e84-c7c2-4dae-bf63-a75d7a9cfd38"},"authoredOn":"2024-12-31T08:00:00.000+00:00"},"request":{"method":"PUT","url":"ServiceRequest/d47938b5-ce38-4ad7-a838-b74223190af3"}}]}