{"resourceType":"Bundle","id":"tests-6d26d364-a06c-49e6-84df-280ec6b7a8a3-bundle","type":"transaction","entry":[{"resource":{"resourceType":"Observation","id":"056bf2e2-98b3-4157-ba3e-a17f397655b9","meta":{"profile":["http://hl7.org/fhir/us/qicore/StructureDefinition/qicore-simple-observation"]},"status":"amended","category":[{"coding":[{"system":"http://terminology.hl7.org/CodeSystem/observation-category","code":"procedure","display":"Procedure"}]}],"code":{"coding":[{"system":"http://loinc.org","code":"39156-5","display":"Body mass index (BMI) [Ratio]","userSelected":true}]},"subject":{"reference":"Patient/6d26d364-a06c-49e6-84df-280ec6b7a8a3"},"effectiveDateTime":"2026-01-01T08:05:00.000+00:00","valueQuantity":{"value":30.0,"unit":"kg/m2"}},"request":{"method":"PUT","url":"Observation/056bf2e2-98b3-4157-ba3e-a17f397655b9"}},{"resource":{"resourceType":"Organization","id":"4db225c1-5cf2-4fd3-ac50-0d3f20b29dc8","meta":{"profile":["http://hl7.org/fhir/us/qicore/StructureDefinition/qicore-organization"]},"identifier":[{"use":"temp","system":"urn:oid:2.16.840.1.113883.4.4","value":"21-3259825"}],"active":true,"type":[{"coding":[{"system":"http://terminology.hl7.org/CodeSystem/organization-type","code":"pay","display":"Payer"}]}],"name":"Blue Cross Blue Shield of Texas","telecom":[{"system":"phone","value":"(+1) 972-766-6900"}],"address":[{"use":"billing","type":"postal","line":["P.O. Box 660044"],"city":"Dallas","state":"TX","postalCode":"75266-0044","country":"USA"}]},"request":{"method":"PUT","url":"Organization/4db225c1-5cf2-4fd3-ac50-0d3f20b29dc8"}},{"resource":{"resourceType":"Patient","id":"6d26d364-a06c-49e6-84df-280ec6b7a8a3","meta":{"profile":["http://hl7.org/fhir/us/qicore/StructureDefinition/qicore-patient"]},"extension":[{"url":"http://hl7.org/fhir/us/core/StructureDefinition/us-core-race","extension":[{"url":"ombCategory","valueCoding":{"system":"urn:oid:2.16.840.1.113883.6.238","code":"2106-3","display":"White","userSelected":true}},{"url":"text","valueString":"White"}]},{"url":"http://hl7.org/fhir/us/core/StructureDefinition/us-core-ethnicity","extension":[{"url":"ombCategory","valueCoding":{"system":"urn:oid:2.16.840.1.113883.6.238","code":"2186-5","display":"Not Hispanic or Latino","userSelected":true}},{"url":"text","valueString":"Not Hispanic or Latino"}]}],"identifier":[{"type":{"coding":[{"system":"http://terminology.hl7.org/CodeSystem/v2-0203","code":"MR"}]},"system":"https://bonnie-fhir.healthit.gov/","value":"62df29820056b6e23ec675a7"}],"name":[{"family":"DENEXCEPPass","given":["MedicalReasonNoReferralHighBMI"]}],"gender":"unknown","birthDate":"1957-11-07"},"request":{"method":"PUT","url":"Patient/6d26d364-a06c-49e6-84df-280ec6b7a8a3"}},{"resource":{"resourceType":"MeasureReport","id":"ae201d2d-c47d-4a56-996d-475fc46cdeee","meta":{"profile":["http://hl7.org/fhir/us/cqfmeasures/StructureDefinition/test-case-cqfm"]},"contained":[{"resourceType":"Parameters","id":"18041798-5ea5-4fd9-8edb-4066d1ca717e-parameters","parameter":[{"name":"subject","valueString":"6d26d364-a06c-49e6-84df-280ec6b7a8a3"}]}],"extension":[{"url":"http://hl7.org/fhir/StructureDefinition/cqf-inputParameters","valueReference":{"reference":"#18041798-5ea5-4fd9-8edb-4066d1ca717e-parameters"}},{"url":"http://hl7.org/fhir/us/cqfmeasures/StructureDefinition/cqfm-testCaseDescription","valueMarkdown":"Enc first day of MP,  BMI high @ 30 kg/m2  and has a medical reason for not providing a referral"}],"modifierExtension":[{"url":"http://hl7.org/fhir/us/cqfmeasures/StructureDefinition/cqfm-isTestCase","valueBoolean":true}],"status":"complete","type":"individual","measure":"https://madie.cms.gov/Measure/CMS69FHIRPCSBMIScreenAndFollowUp","period":{"start":"2026-01-01","end":"2026-12-31"},"group":[{"id":"Group_1","population":[{"id":"InitialPopulation_1","code":{"coding":[{"system":"http://terminology.hl7.org/CodeSystem/measure-population","code":"initial-population","display":"Initial Population"}]},"count":1},{"id":"Denominator_1","code":{"coding":[{"system":"http://terminology.hl7.org/CodeSystem/measure-population","code":"denominator","display":"Denominator"}]},"count":1},{"id":"DenominatorExclusion_1","code":{"coding":[{"system":"http://terminology.hl7.org/CodeSystem/measure-population","code":"denominator-exclusion","display":"Denominator Exclusion"}]},"count":0},{"id":"Numerator_1","code":{"coding":[{"system":"http://terminology.hl7.org/CodeSystem/measure-population","code":"numerator","display":"Numerator"}]},"count":0},{"id":"DenominatorException_1","code":{"coding":[{"system":"http://terminology.hl7.org/CodeSystem/measure-population","code":"denominator-exception","display":"Denominator Exception"}]},"count":1}],"measureScore":{"value":1.0}}],"evaluatedResource":[{"reference":"Patient/6d26d364-a06c-49e6-84df-280ec6b7a8a3"},{"reference":"Encounter/aede7bed-d9d3-4a9b-af4a-4253c27763d3"},{"reference":"Observation/056bf2e2-98b3-4157-ba3e-a17f397655b9"},{"reference":"ServiceRequest/9e2deffa-a639-45ff-8ade-d2fcca92fadc"},{"reference":"Coverage/442caab2-7e87-4c09-a483-fdadf48c7540"},{"reference":"Organization/4db225c1-5cf2-4fd3-ac50-0d3f20b29dc8"},{"reference":"Practitioner/2c36d045-26c4-4395-9b97-a574c8f8809c"}]},"request":{"method":"PUT","url":"MeasureReport/ae201d2d-c47d-4a56-996d-475fc46cdeee"}},{"resource":{"resourceType":"Practitioner","id":"2c36d045-26c4-4395-9b97-a574c8f8809c","meta":{"profile":["http://hl7.org/fhir/us/qicore/StructureDefinition/qicore-practitioner"]},"identifier":[{"system":"http://hl7.org/fhir/sid/us-npi","value":"123456"}],"name":[{"family":"Evil","prefix":["Dr"]}]},"request":{"method":"PUT","url":"Practitioner/2c36d045-26c4-4395-9b97-a574c8f8809c"}},{"resource":{"resourceType":"Encounter","id":"aede7bed-d9d3-4a9b-af4a-4253c27763d3","meta":{"profile":["http://hl7.org/fhir/us/qicore/StructureDefinition/qicore-encounter"]},"status":"finished","class":{"system":"http://terminology.hl7.org/CodeSystem/v3-ActCode","code":"AMB","display":"ambulatory"},"type":[{"coding":[{"system":"http://snomed.info/sct","version":"2022-03","code":"10197000","display":"Psychiatric interview and evaluation (procedure)","userSelected":true}]}],"subject":{"reference":"Patient/6d26d364-a06c-49e6-84df-280ec6b7a8a3"},"period":{"start":"2026-01-01T08:00:00.000+00:00","end":"2026-01-01T08:15:00.000+00:00"}},"request":{"method":"PUT","url":"Encounter/aede7bed-d9d3-4a9b-af4a-4253c27763d3"}},{"resource":{"resourceType":"ServiceRequest","id":"9e2deffa-a639-45ff-8ade-d2fcca92fadc","meta":{"profile":["http://hl7.org/fhir/us/qicore/StructureDefinition/qicore-servicenotrequested"]},"extension":[{"url":"http://hl7.org/fhir/us/qicore/StructureDefinition/qicore-doNotPerformReason","valueCodeableConcept":{"coding":[{"system":"http://snomed.info/sct","code":"183932001","display":"Procedure contraindicated (situation)","userSelected":true}]}}],"status":"completed","intent":"order","doNotPerform":true,"code":{"coding":[{"system":"http://snomed.info/sct","version":"2022-03","code":"183515008","display":"Referral to physician (procedure)","userSelected":true}]},"subject":{"reference":"Patient/6d26d364-a06c-49e6-84df-280ec6b7a8a3"},"authoredOn":"2026-01-01T08:05:00.000+00:00"},"request":{"method":"PUT","url":"ServiceRequest/9e2deffa-a639-45ff-8ade-d2fcca92fadc"}},{"resource":{"resourceType":"Bundle","id":"62df29820056b6e23ec675a7","type":"transaction","entry":[{"fullUrl":"https://madie.cms.gov/Patient/6d26d364-a06c-49e6-84df-280ec6b7a8a3","resource":{"resourceType":"Patient","id":"6d26d364-a06c-49e6-84df-280ec6b7a8a3","meta":{"profile":["http://hl7.org/fhir/us/qicore/StructureDefinition/qicore-patient"]},"extension":[{"url":"http://hl7.org/fhir/us/core/StructureDefinition/us-core-race","extension":[{"url":"ombCategory","valueCoding":{"system":"urn:oid:2.16.840.1.113883.6.238","code":"2106-3","display":"White","userSelected":true}},{"url":"text","valueString":"White"}]},{"url":"http://hl7.org/fhir/us/core/StructureDefinition/us-core-ethnicity","extension":[{"url":"ombCategory","valueCoding":{"system":"urn:oid:2.16.840.1.113883.6.238","code":"2186-5","display":"Not Hispanic or Latino","userSelected":true}},{"url":"text","valueString":"Not Hispanic or Latino"}]}],"identifier":[{"type":{"coding":[{"system":"http://terminology.hl7.org/CodeSystem/v2-0203","code":"MR"}]},"system":"https://bonnie-fhir.healthit.gov/","value":"62df29820056b6e23ec675a7"}],"name":[{"family":"DENEXCEPPass","given":["MedicalReasonNoReferralHighBMI"]}],"gender":"unknown","birthDate":"1957-11-07"},"request":{"method":"PUT","url":"Patient/6d26d364-a06c-49e6-84df-280ec6b7a8a3"}},{"fullUrl":"https://madie.cms.gov/Encounter/aede7bed-d9d3-4a9b-af4a-4253c27763d3","resource":{"resourceType":"Encounter","id":"aede7bed-d9d3-4a9b-af4a-4253c27763d3","meta":{"profile":["http://hl7.org/fhir/us/qicore/StructureDefinition/qicore-encounter"]},"status":"finished","class":{"system":"http://terminology.hl7.org/CodeSystem/v3-ActCode","code":"AMB","display":"ambulatory"},"type":[{"coding":[{"system":"http://snomed.info/sct","version":"2022-03","code":"10197000","display":"Psychiatric interview and evaluation (procedure)","userSelected":true}]}],"subject":{"reference":"Patient/6d26d364-a06c-49e6-84df-280ec6b7a8a3"},"period":{"start":"2026-01-01T08:00:00.000+00:00","end":"2026-01-01T08:15:00.000+00:00"}},"request":{"method":"PUT","url":"Encounter/aede7bed-d9d3-4a9b-af4a-4253c27763d3"}},{"fullUrl":"https://madie.cms.gov/Observation/056bf2e2-98b3-4157-ba3e-a17f397655b9","resource":{"resourceType":"Observation","id":"056bf2e2-98b3-4157-ba3e-a17f397655b9","meta":{"profile":["http://hl7.org/fhir/us/qicore/StructureDefinition/qicore-simple-observation"]},"status":"amended","category":[{"coding":[{"system":"http://terminology.hl7.org/CodeSystem/observation-category","code":"procedure","display":"Procedure"}]}],"code":{"coding":[{"system":"http://loinc.org","code":"39156-5","display":"Body mass index (BMI) [Ratio]","userSelected":true}]},"subject":{"reference":"Patient/6d26d364-a06c-49e6-84df-280ec6b7a8a3"},"effectiveDateTime":"2026-01-01T08:05:00.000+00:00","valueQuantity":{"value":30.0,"unit":"kg/m2"}},"request":{"method":"PUT","url":"Observation/056bf2e2-98b3-4157-ba3e-a17f397655b9"}},{"fullUrl":"https://madie.cms.gov/ServiceRequest/9e2deffa-a639-45ff-8ade-d2fcca92fadc","resource":{"resourceType":"ServiceRequest","id":"9e2deffa-a639-45ff-8ade-d2fcca92fadc","meta":{"profile":["http://hl7.org/fhir/us/qicore/StructureDefinition/qicore-servicenotrequested"]},"extension":[{"url":"http://hl7.org/fhir/us/qicore/StructureDefinition/qicore-doNotPerformReason","valueCodeableConcept":{"coding":[{"system":"http://snomed.info/sct","code":"183932001","display":"Procedure contraindicated (situation)","userSelected":true}]}}],"status":"completed","intent":"order","doNotPerform":true,"code":{"coding":[{"system":"http://snomed.info/sct","version":"2022-03","code":"183515008","display":"Referral to physician (procedure)","userSelected":true}]},"subject":{"reference":"Patient/6d26d364-a06c-49e6-84df-280ec6b7a8a3"},"authoredOn":"2026-01-01T08:05:00.000+00:00"},"request":{"method":"PUT","url":"ServiceRequest/9e2deffa-a639-45ff-8ade-d2fcca92fadc"}},{"fullUrl":"https://madie.cms.gov/Coverage/442caab2-7e87-4c09-a483-fdadf48c7540","resource":{"resourceType":"Coverage","id":"442caab2-7e87-4c09-a483-fdadf48c7540","meta":{"profile":["http://hl7.org/fhir/us/qicore/StructureDefinition/qicore-coverage"]},"status":"active","beneficiary":{"reference":"Patient/6d26d364-a06c-49e6-84df-280ec6b7a8a3"},"payor":[{"reference":"Organization/4db225c1-5cf2-4fd3-ac50-0d3f20b29dc8"}]},"request":{"method":"PUT","url":"Coverage/442caab2-7e87-4c09-a483-fdadf48c7540"}},{"fullUrl":"https://madie.cms.gov/Organization/4db225c1-5cf2-4fd3-ac50-0d3f20b29dc8","resource":{"resourceType":"Organization","id":"4db225c1-5cf2-4fd3-ac50-0d3f20b29dc8","meta":{"profile":["http://hl7.org/fhir/us/qicore/StructureDefinition/qicore-organization"]},"identifier":[{"use":"temp","system":"urn:oid:2.16.840.1.113883.4.4","value":"21-3259825"}],"active":true,"type":[{"coding":[{"system":"http://terminology.hl7.org/CodeSystem/organization-type","code":"pay","display":"Payer"}]}],"name":"Blue Cross Blue Shield of Texas","telecom":[{"system":"phone","value":"(+1) 972-766-6900"}],"address":[{"use":"billing","type":"postal","line":["P.O. Box 660044"],"city":"Dallas","state":"TX","postalCode":"75266-0044","country":"USA"}]},"request":{"method":"PUT","url":"Organization/4db225c1-5cf2-4fd3-ac50-0d3f20b29dc8"}},{"fullUrl":"https://madie.cms.gov/Practitioner/2c36d045-26c4-4395-9b97-a574c8f8809c","resource":{"resourceType":"Practitioner","id":"2c36d045-26c4-4395-9b97-a574c8f8809c","meta":{"profile":["http://hl7.org/fhir/us/qicore/StructureDefinition/qicore-practitioner"]},"identifier":[{"system":"http://hl7.org/fhir/sid/us-npi","value":"123456"}],"name":[{"family":"Evil","prefix":["Dr"]}]},"request":{"method":"PUT","url":"Practitioner/2c36d045-26c4-4395-9b97-a574c8f8809c"}},{"fullUrl":"https://madie.cms.gov/MeasureReport/ae201d2d-c47d-4a56-996d-475fc46cdeee","resource":{"resourceType":"MeasureReport","id":"ae201d2d-c47d-4a56-996d-475fc46cdeee","meta":{"profile":["http://hl7.org/fhir/us/cqfmeasures/StructureDefinition/test-case-cqfm"]},"contained":[{"resourceType":"Parameters","id":"18041798-5ea5-4fd9-8edb-4066d1ca717e-parameters","parameter":[{"name":"subject","valueString":"6d26d364-a06c-49e6-84df-280ec6b7a8a3"}]}],"extension":[{"url":"http://hl7.org/fhir/StructureDefinition/cqf-inputParameters","valueReference":{"reference":"#18041798-5ea5-4fd9-8edb-4066d1ca717e-parameters"}},{"url":"http://hl7.org/fhir/us/cqfmeasures/StructureDefinition/cqfm-testCaseDescription","valueMarkdown":"Enc first day of MP,  BMI high @ 30 kg/m2  and has a medical reason for not providing a referral"}],"modifierExtension":[{"url":"http://hl7.org/fhir/us/cqfmeasures/StructureDefinition/cqfm-isTestCase","valueBoolean":true}],"status":"complete","type":"individual","measure":"https://madie.cms.gov/Measure/CMS69FHIRPCSBMIScreenAndFollowUp","period":{"start":"2026-01-01","end":"2026-12-31"},"group":[{"id":"Group_1","population":[{"id":"InitialPopulation_1","code":{"coding":[{"system":"http://terminology.hl7.org/CodeSystem/measure-population","code":"initial-population","display":"Initial Population"}]},"count":1},{"id":"Denominator_1","code":{"coding":[{"system":"http://terminology.hl7.org/CodeSystem/measure-population","code":"denominator","display":"Denominator"}]},"count":1},{"id":"DenominatorExclusion_1","code":{"coding":[{"system":"http://terminology.hl7.org/CodeSystem/measure-population","code":"denominator-exclusion","display":"Denominator Exclusion"}]},"count":0},{"id":"Numerator_1","code":{"coding":[{"system":"http://terminology.hl7.org/CodeSystem/measure-population","code":"numerator","display":"Numerator"}]},"count":0},{"id":"DenominatorException_1","code":{"coding":[{"system":"http://terminology.hl7.org/CodeSystem/measure-population","code":"denominator-exception","display":"Denominator Exception"}]},"count":1}],"measureScore":{"value":1.0}}],"evaluatedResource":[{"reference":"Patient/6d26d364-a06c-49e6-84df-280ec6b7a8a3"},{"reference":"Encounter/aede7bed-d9d3-4a9b-af4a-4253c27763d3"},{"reference":"Observation/056bf2e2-98b3-4157-ba3e-a17f397655b9"},{"reference":"ServiceRequest/9e2deffa-a639-45ff-8ade-d2fcca92fadc"},{"reference":"Coverage/442caab2-7e87-4c09-a483-fdadf48c7540"},{"reference":"Organization/4db225c1-5cf2-4fd3-ac50-0d3f20b29dc8"},{"reference":"Practitioner/2c36d045-26c4-4395-9b97-a574c8f8809c"}]},"request":{"method":"PUT","url":"MeasureReport/ae201d2d-c47d-4a56-996d-475fc46cdeee"}}]},"request":{"method":"PUT","url":"Bundle/62df29820056b6e23ec675a7"}},{"resource":{"resourceType":"Coverage","id":"442caab2-7e87-4c09-a483-fdadf48c7540","meta":{"profile":["http://hl7.org/fhir/us/qicore/StructureDefinition/qicore-coverage"]},"status":"active","beneficiary":{"reference":"Patient/6d26d364-a06c-49e6-84df-280ec6b7a8a3"},"payor":[{"reference":"Organization/4db225c1-5cf2-4fd3-ac50-0d3f20b29dc8"}]},"request":{"method":"PUT","url":"Coverage/442caab2-7e87-4c09-a483-fdadf48c7540"}}]}