{"resourceType":"Bundle","id":"tests-a327cf96-81c4-46ff-9619-6fd9981bb90c-bundle","type":"transaction","entry":[{"fullUrl":"Organization/db16261b-fb0c-4fe0-b594-3d5dd9cbf5cb","resource":{"resourceType":"Organization","id":"db16261b-fb0c-4fe0-b594-3d5dd9cbf5cb","meta":{"profile":["http://hl7.org/fhir/us/qicore/StructureDefinition/qicore-organization"]},"identifier":[{"use":"temp","system":"urn:oid:2.16.840.1.113883.4.4","value":"21-3259825"}],"active":true,"type":[{"coding":[{"system":"http://terminology.hl7.org/CodeSystem/organization-type","code":"pay","display":"Payer"}]}],"name":"Blue Cross Blue Shield of Texas","telecom":[{"system":"phone","value":"(+1) 972-766-6900"}],"address":[{"use":"billing","type":"postal","line":["P.O. Box 660044"],"city":"Dallas","state":"TX","postalCode":"75266-0044","country":"USA"}]},"request":{"method":"PUT","url":"Organization/db16261b-fb0c-4fe0-b594-3d5dd9cbf5cb"}},{"fullUrl":"Encounter/1eefdb66-68e1-4ac3-8866-19f186e432a3","resource":{"resourceType":"Encounter","id":"1eefdb66-68e1-4ac3-8866-19f186e432a3","meta":{"profile":["http://hl7.org/fhir/us/qicore/StructureDefinition/qicore-encounter"]},"status":"finished","class":{"system":"http://terminology.hl7.org/CodeSystem/v3-ActCode","code":"AMB","display":"ambulatory"},"type":[{"coding":[{"system":"http://snomed.info/sct","version":"2022-03","code":"10197000","display":"Psychiatric interview and evaluation (procedure)","userSelected":true}]}],"subject":{"reference":"Patient/a327cf96-81c4-46ff-9619-6fd9981bb90c"},"period":{"start":"2026-06-15T08:00:00.000+00:00","end":"2026-06-15T08:15:00.000+00:00"}},"request":{"method":"PUT","url":"Encounter/1eefdb66-68e1-4ac3-8866-19f186e432a3"}},{"fullUrl":"ServiceRequest/8f1d4a1e-2d09-4f69-9fc1-89f7d5b0852c","resource":{"resourceType":"ServiceRequest","id":"8f1d4a1e-2d09-4f69-9fc1-89f7d5b0852c","meta":{"profile":["http://hl7.org/fhir/us/qicore/StructureDefinition/qicore-servicerequest"]},"extension":[{"url":"http://qicore-qicore-doNotPerformReason","valueCodeableConcept":{"coding":[{"system":"http://snomed.info/sct","code":"183932001","display":"Procedure contraindicated (situation)","userSelected":true}]}}],"status":"completed","intent":"order","doNotPerform":true,"code":{"coding":[{"system":"http://snomed.info/sct","version":"2022-03","code":"182922004","display":"Dietary regime (regime/therapy)","userSelected":true}]},"subject":{"reference":"Patient/a327cf96-81c4-46ff-9619-6fd9981bb90c"},"authoredOn":"2026-06-15T08:00:00.000+00:00"},"request":{"method":"PUT","url":"ServiceRequest/8f1d4a1e-2d09-4f69-9fc1-89f7d5b0852c"}},{"fullUrl":"Coverage/36102643-19cc-4d7a-b463-bf8444f4b51d","resource":{"resourceType":"Coverage","id":"36102643-19cc-4d7a-b463-bf8444f4b51d","meta":{"profile":["http://hl7.org/fhir/us/qicore/StructureDefinition/qicore-coverage"]},"status":"active","beneficiary":{"reference":"Patient/a327cf96-81c4-46ff-9619-6fd9981bb90c"},"payor":[{"reference":"Organization/db16261b-fb0c-4fe0-b594-3d5dd9cbf5cb"}]},"request":{"method":"PUT","url":"Coverage/36102643-19cc-4d7a-b463-bf8444f4b51d"}},{"fullUrl":"Practitioner/c706e257-d03e-420f-9b10-48f7394a0e0e","resource":{"resourceType":"Practitioner","id":"c706e257-d03e-420f-9b10-48f7394a0e0e","meta":{"profile":["http://hl7.org/fhir/us/qicore/StructureDefinition/qicore-practitioner"]},"identifier":[{"system":"http://hl7.org/fhir/sid/us-npi","value":"123456"}],"name":[{"family":"Evil","prefix":["Dr"]}]},"request":{"method":"PUT","url":"Practitioner/c706e257-d03e-420f-9b10-48f7394a0e0e"}},{"fullUrl":"Observation/e762f45f-d00f-4014-be6f-bbb5d2651b9f","resource":{"resourceType":"Observation","id":"e762f45f-d00f-4014-be6f-bbb5d2651b9f","meta":{"profile":["http://hl7.org/fhir/us/qicore/StructureDefinition/qicore-observationcancelled"]},"extension":[{"url":"http://hl7.org/fhir/us/qicore/StructureDefinition/qicore-notDoneReason","valueCodeableConcept":{"coding":[{"system":"http://snomed.info/sct","code":"183932001","display":"Procedure contraindicated (situation)","userSelected":true}]}}],"modifierExtension":[{"url":"http://hl7.org/fhir/us/qicore/StructureDefinition/qicore-notDone","valueBoolean":true}],"status":"cancelled","category":[{"coding":[{"system":"http://terminology.hl7.org/CodeSystem/observation-category","code":"procedure","display":"Procedure"}]}],"code":{"coding":[{"system":"http://loinc.org","code":"39156-5","display":"Body mass index (BMI) [Ratio]","userSelected":true}]},"subject":{"reference":"Patient/a327cf96-81c4-46ff-9619-6fd9981bb90c"},"effectiveDateTime":"2026-06-15T08:05:00.000+00:00","issued":"2026-06-15T08:05:00.000+00:00"},"request":{"method":"PUT","url":"Observation/e762f45f-d00f-4014-be6f-bbb5d2651b9f"}},{"fullUrl":"Patient/a327cf96-81c4-46ff-9619-6fd9981bb90c","resource":{"resourceType":"Patient","id":"a327cf96-81c4-46ff-9619-6fd9981bb90c","meta":{"profile":["http://hl7.org/fhir/us/qicore/StructureDefinition/qicore-patient"]},"extension":[{"url":"http://hl7.org/fhir/us/core/StructureDefinition/us-core-race","extension":[{"url":"ombCategory","valueCoding":{"system":"urn:oid:2.16.840.1.113883.6.238","code":"2106-3","display":"White","userSelected":true}},{"url":"text","valueString":"White"}]},{"url":"http://hl7.org/fhir/us/core/StructureDefinition/us-core-ethnicity","extension":[{"url":"ombCategory","valueCoding":{"system":"urn:oid:2.16.840.1.113883.6.238","code":"2186-5","display":"Not Hispanic or Latino","userSelected":true}},{"url":"text","valueString":"Not Hispanic or Latino"}]}],"identifier":[{"type":{"coding":[{"system":"http://terminology.hl7.org/CodeSystem/v2-0203","code":"MR"}]},"system":"https://bonnie-fhir.healthit.gov/","value":"62ab5d9131fa0a130d9331db"}],"name":[{"family":"DENEXCEPPass","given":["MedicalReasonNotPerformed"]}],"gender":"unknown","birthDate":"1957-11-07"},"request":{"method":"PUT","url":"Patient/a327cf96-81c4-46ff-9619-6fd9981bb90c"}},{"fullUrl":"Bundle/62ab5d9131fa0a130d9331db","resource":{"resourceType":"Bundle","id":"62ab5d9131fa0a130d9331db","type":"transaction","entry":[{"fullUrl":"https://madie.cms.gov/Patient/a327cf96-81c4-46ff-9619-6fd9981bb90c","resource":{"resourceType":"Patient","id":"a327cf96-81c4-46ff-9619-6fd9981bb90c","meta":{"profile":["http://hl7.org/fhir/us/qicore/StructureDefinition/qicore-patient"]},"extension":[{"url":"http://hl7.org/fhir/us/core/StructureDefinition/us-core-race","extension":[{"url":"ombCategory","valueCoding":{"system":"urn:oid:2.16.840.1.113883.6.238","code":"2106-3","display":"White","userSelected":true}},{"url":"text","valueString":"White"}]},{"url":"http://hl7.org/fhir/us/core/StructureDefinition/us-core-ethnicity","extension":[{"url":"ombCategory","valueCoding":{"system":"urn:oid:2.16.840.1.113883.6.238","code":"2186-5","display":"Not Hispanic or Latino","userSelected":true}},{"url":"text","valueString":"Not Hispanic or Latino"}]}],"identifier":[{"type":{"coding":[{"system":"http://terminology.hl7.org/CodeSystem/v2-0203","code":"MR"}]},"system":"https://bonnie-fhir.healthit.gov/","value":"62ab5d9131fa0a130d9331db"}],"name":[{"family":"DENEXCEPPass","given":["MedicalReasonNotPerformed"]}],"gender":"unknown","birthDate":"1957-11-07"},"request":{"method":"PUT","url":"Patient/a327cf96-81c4-46ff-9619-6fd9981bb90c"}},{"fullUrl":"https://madie.cms.gov/Encounter/1eefdb66-68e1-4ac3-8866-19f186e432a3","resource":{"resourceType":"Encounter","id":"1eefdb66-68e1-4ac3-8866-19f186e432a3","meta":{"profile":["http://hl7.org/fhir/us/qicore/StructureDefinition/qicore-encounter"]},"status":"finished","class":{"system":"http://terminology.hl7.org/CodeSystem/v3-ActCode","code":"AMB","display":"ambulatory"},"type":[{"coding":[{"system":"http://snomed.info/sct","version":"2022-03","code":"10197000","display":"Psychiatric interview and evaluation (procedure)","userSelected":true}]}],"subject":{"reference":"Patient/a327cf96-81c4-46ff-9619-6fd9981bb90c"},"period":{"start":"2026-06-15T08:00:00.000+00:00","end":"2026-06-15T08:15:00.000+00:00"}},"request":{"method":"PUT","url":"Encounter/1eefdb66-68e1-4ac3-8866-19f186e432a3"}},{"fullUrl":"https://madie.cms.gov/Observation/e762f45f-d00f-4014-be6f-bbb5d2651b9f","resource":{"resourceType":"Observation","id":"e762f45f-d00f-4014-be6f-bbb5d2651b9f","meta":{"profile":["http://hl7.org/fhir/us/qicore/StructureDefinition/qicore-observationcancelled"]},"extension":[{"url":"http://hl7.org/fhir/us/qicore/StructureDefinition/qicore-notDoneReason","valueCodeableConcept":{"coding":[{"system":"http://snomed.info/sct","code":"183932001","display":"Procedure contraindicated (situation)","userSelected":true}]}}],"modifierExtension":[{"url":"http://hl7.org/fhir/us/qicore/StructureDefinition/qicore-notDone","valueBoolean":true}],"status":"cancelled","category":[{"coding":[{"system":"http://terminology.hl7.org/CodeSystem/observation-category","code":"procedure","display":"Procedure"}]}],"code":{"coding":[{"system":"http://loinc.org","code":"39156-5","display":"Body mass index (BMI) [Ratio]","userSelected":true}]},"subject":{"reference":"Patient/a327cf96-81c4-46ff-9619-6fd9981bb90c"},"effectiveDateTime":"2026-06-15T08:05:00.000+00:00","issued":"2026-06-15T08:05:00.000+00:00"},"request":{"method":"PUT","url":"Observation/e762f45f-d00f-4014-be6f-bbb5d2651b9f"}},{"fullUrl":"https://madie.cms.gov/ServiceRequest/8f1d4a1e-2d09-4f69-9fc1-89f7d5b0852c","resource":{"resourceType":"ServiceRequest","id":"8f1d4a1e-2d09-4f69-9fc1-89f7d5b0852c","meta":{"profile":["http://hl7.org/fhir/us/qicore/StructureDefinition/qicore-servicerequest"]},"extension":[{"url":"http://qicore-qicore-doNotPerformReason","valueCodeableConcept":{"coding":[{"system":"http://snomed.info/sct","code":"183932001","display":"Procedure contraindicated (situation)","userSelected":true}]}}],"status":"completed","intent":"order","doNotPerform":true,"code":{"coding":[{"system":"http://snomed.info/sct","version":"2022-03","code":"182922004","display":"Dietary regime (regime/therapy)","userSelected":true}]},"subject":{"reference":"Patient/a327cf96-81c4-46ff-9619-6fd9981bb90c"},"authoredOn":"2026-06-15T08:00:00.000+00:00"},"request":{"method":"PUT","url":"ServiceRequest/8f1d4a1e-2d09-4f69-9fc1-89f7d5b0852c"}},{"fullUrl":"https://madie.cms.gov/Coverage/36102643-19cc-4d7a-b463-bf8444f4b51d","resource":{"resourceType":"Coverage","id":"36102643-19cc-4d7a-b463-bf8444f4b51d","meta":{"profile":["http://hl7.org/fhir/us/qicore/StructureDefinition/qicore-coverage"]},"status":"active","beneficiary":{"reference":"Patient/a327cf96-81c4-46ff-9619-6fd9981bb90c"},"payor":[{"reference":"Organization/db16261b-fb0c-4fe0-b594-3d5dd9cbf5cb"}]},"request":{"method":"PUT","url":"Coverage/36102643-19cc-4d7a-b463-bf8444f4b51d"}},{"fullUrl":"https://madie.cms.gov/Organization/db16261b-fb0c-4fe0-b594-3d5dd9cbf5cb","resource":{"resourceType":"Organization","id":"db16261b-fb0c-4fe0-b594-3d5dd9cbf5cb","meta":{"profile":["http://hl7.org/fhir/us/qicore/StructureDefinition/qicore-organization"]},"identifier":[{"use":"temp","system":"urn:oid:2.16.840.1.113883.4.4","value":"21-3259825"}],"active":true,"type":[{"coding":[{"system":"http://terminology.hl7.org/CodeSystem/organization-type","code":"pay","display":"Payer"}]}],"name":"Blue Cross Blue Shield of Texas","telecom":[{"system":"phone","value":"(+1) 972-766-6900"}],"address":[{"use":"billing","type":"postal","line":["P.O. Box 660044"],"city":"Dallas","state":"TX","postalCode":"75266-0044","country":"USA"}]},"request":{"method":"PUT","url":"Organization/db16261b-fb0c-4fe0-b594-3d5dd9cbf5cb"}},{"fullUrl":"https://madie.cms.gov/Practitioner/c706e257-d03e-420f-9b10-48f7394a0e0e","resource":{"resourceType":"Practitioner","id":"c706e257-d03e-420f-9b10-48f7394a0e0e","meta":{"profile":["http://hl7.org/fhir/us/qicore/StructureDefinition/qicore-practitioner"]},"identifier":[{"system":"http://hl7.org/fhir/sid/us-npi","value":"123456"}],"name":[{"family":"Evil","prefix":["Dr"]}]},"request":{"method":"PUT","url":"Practitioner/c706e257-d03e-420f-9b10-48f7394a0e0e"}},{"fullUrl":"https://madie.cms.gov/MeasureReport/8ff39d16-c537-4347-8ad9-968a1db36ad9","resource":{"resourceType":"MeasureReport","id":"8ff39d16-c537-4347-8ad9-968a1db36ad9","meta":{"profile":["http://hl7.org/fhir/us/cqfmeasures/StructureDefinition/test-case-cqfm"]},"contained":[{"resourceType":"Parameters","id":"a3c65590-94bc-48f0-8ee6-6bcabac33e85-parameters","parameter":[{"name":"subject","valueString":"a327cf96-81c4-46ff-9619-6fd9981bb90c"}]}],"extension":[{"url":"http://hl7.org/fhir/StructureDefinition/cqf-inputParameters","valueReference":{"reference":"#a3c65590-94bc-48f0-8ee6-6bcabac33e85-parameters"}},{"url":"http://hl7.org/fhir/us/cqfmeasures/StructureDefinition/cqfm-testCaseDescription","valueMarkdown":"Enc during MP. BMI not done due to medical Reason - \"Procedure contraindicated (situation)\", expected to pass denexcep"}],"modifierExtension":[{"url":"http://hl7.org/fhir/us/cqfmeasures/StructureDefinition/cqfm-isTestCase","valueBoolean":true}],"status":"complete","type":"individual","measure":"https://madie.cms.gov/Measure/CMS69FHIRPCSBMIScreenAndFollowUp","period":{"start":"2026-01-01","end":"2026-12-31"},"group":[{"id":"Group_1","population":[{"id":"InitialPopulation_1","code":{"coding":[{"system":"http://terminology.hl7.org/CodeSystem/measure-population","code":"initial-population","display":"Initial Population"}]},"count":1},{"id":"Denominator_1","code":{"coding":[{"system":"http://terminology.hl7.org/CodeSystem/measure-population","code":"denominator","display":"Denominator"}]},"count":1},{"id":"DenominatorExclusion_1","code":{"coding":[{"system":"http://terminology.hl7.org/CodeSystem/measure-population","code":"denominator-exclusion","display":"Denominator Exclusion"}]},"count":0},{"id":"Numerator_1","code":{"coding":[{"system":"http://terminology.hl7.org/CodeSystem/measure-population","code":"numerator","display":"Numerator"}]},"count":0},{"id":"DenominatorException_1","code":{"coding":[{"system":"http://terminology.hl7.org/CodeSystem/measure-population","code":"denominator-exception","display":"Denominator Exception"}]},"count":1}],"measureScore":{"value":1.0}}],"evaluatedResource":[{"reference":"Patient/a327cf96-81c4-46ff-9619-6fd9981bb90c"},{"reference":"Encounter/1eefdb66-68e1-4ac3-8866-19f186e432a3"},{"reference":"Observation/e762f45f-d00f-4014-be6f-bbb5d2651b9f"},{"reference":"ServiceRequest/8f1d4a1e-2d09-4f69-9fc1-89f7d5b0852c"},{"reference":"Coverage/36102643-19cc-4d7a-b463-bf8444f4b51d"},{"reference":"Organization/db16261b-fb0c-4fe0-b594-3d5dd9cbf5cb"},{"reference":"Practitioner/c706e257-d03e-420f-9b10-48f7394a0e0e"}]},"request":{"method":"PUT","url":"MeasureReport/8ff39d16-c537-4347-8ad9-968a1db36ad9"}}]},"request":{"method":"PUT","url":"Bundle/62ab5d9131fa0a130d9331db"}},{"fullUrl":"MeasureReport/8ff39d16-c537-4347-8ad9-968a1db36ad9","resource":{"resourceType":"MeasureReport","id":"8ff39d16-c537-4347-8ad9-968a1db36ad9","meta":{"profile":["http://hl7.org/fhir/us/cqfmeasures/StructureDefinition/test-case-cqfm"]},"contained":[{"resourceType":"Parameters","id":"a3c65590-94bc-48f0-8ee6-6bcabac33e85-parameters","parameter":[{"name":"subject","valueString":"a327cf96-81c4-46ff-9619-6fd9981bb90c"}]}],"extension":[{"url":"http://hl7.org/fhir/StructureDefinition/cqf-inputParameters","valueReference":{"reference":"#a3c65590-94bc-48f0-8ee6-6bcabac33e85-parameters"}},{"url":"http://hl7.org/fhir/us/cqfmeasures/StructureDefinition/cqfm-testCaseDescription","valueMarkdown":"Enc during MP. BMI not done due to medical Reason - \"Procedure contraindicated (situation)\", expected to pass denexcep"}],"modifierExtension":[{"url":"http://hl7.org/fhir/us/cqfmeasures/StructureDefinition/cqfm-isTestCase","valueBoolean":true}],"status":"complete","type":"individual","measure":"https://madie.cms.gov/Measure/CMS69FHIRPCSBMIScreenAndFollowUp","period":{"start":"2026-01-01","end":"2026-12-31"},"group":[{"id":"Group_1","population":[{"id":"InitialPopulation_1","code":{"coding":[{"system":"http://terminology.hl7.org/CodeSystem/measure-population","code":"initial-population","display":"Initial Population"}]},"count":1},{"id":"Denominator_1","code":{"coding":[{"system":"http://terminology.hl7.org/CodeSystem/measure-population","code":"denominator","display":"Denominator"}]},"count":1},{"id":"DenominatorExclusion_1","code":{"coding":[{"system":"http://terminology.hl7.org/CodeSystem/measure-population","code":"denominator-exclusion","display":"Denominator Exclusion"}]},"count":0},{"id":"Numerator_1","code":{"coding":[{"system":"http://terminology.hl7.org/CodeSystem/measure-population","code":"numerator","display":"Numerator"}]},"count":0},{"id":"DenominatorException_1","code":{"coding":[{"system":"http://terminology.hl7.org/CodeSystem/measure-population","code":"denominator-exception","display":"Denominator Exception"}]},"count":1}],"measureScore":{"value":1.0}}],"evaluatedResource":[{"reference":"Patient/a327cf96-81c4-46ff-9619-6fd9981bb90c"},{"reference":"Encounter/1eefdb66-68e1-4ac3-8866-19f186e432a3"},{"reference":"Observation/e762f45f-d00f-4014-be6f-bbb5d2651b9f"},{"reference":"ServiceRequest/8f1d4a1e-2d09-4f69-9fc1-89f7d5b0852c"},{"reference":"Coverage/36102643-19cc-4d7a-b463-bf8444f4b51d"},{"reference":"Organization/db16261b-fb0c-4fe0-b594-3d5dd9cbf5cb"},{"reference":"Practitioner/c706e257-d03e-420f-9b10-48f7394a0e0e"}]},"request":{"method":"PUT","url":"MeasureReport/8ff39d16-c537-4347-8ad9-968a1db36ad9"}}]}