{"resourceType":"Bundle","id":"tests-8e130410-9710-45f3-ac56-e69dee0755d9-bundle","type":"transaction","entry":[{"resource":{"resourceType":"MeasureReport","id":"c58d2db2-d74b-45ff-982d-93ee27d3db97","meta":{"profile":["http://hl7.org/fhir/us/cqfmeasures/StructureDefinition/test-case-cqfm"]},"contained":[{"resourceType":"Parameters","id":"f2a2af75-7986-497a-a0d0-242aef2be7b3-parameters","parameter":[{"name":"subject","valueString":"8e130410-9710-45f3-ac56-e69dee0755d9"}]}],"extension":[{"url":"http://hl7.org/fhir/StructureDefinition/cqf-inputParameters","valueReference":{"reference":"#f2a2af75-7986-497a-a0d0-242aef2be7b3-parameters"}},{"url":"http://hl7.org/fhir/us/cqfmeasures/StructureDefinition/cqfm-testCaseDescription","valueMarkdown":"Amb Enc. last day of MP, last few minutes of the day  2330 - 2359 during MP, age 20, "}],"modifierExtension":[{"url":"http://hl7.org/fhir/us/cqfmeasures/StructureDefinition/cqfm-isTestCase","valueBoolean":true}],"status":"complete","type":"individual","measure":"https://madie.cms.gov/Measure/CMS69FHIRPCSBMIScreenAndFollowUp","period":{"start":"2026-01-01","end":"2026-12-31"},"group":[{"id":"Group_1","population":[{"id":"InitialPopulation_1","code":{"coding":[{"system":"http://terminology.hl7.org/CodeSystem/measure-population","code":"initial-population","display":"Initial Population"}]},"count":1},{"id":"Denominator_1","code":{"coding":[{"system":"http://terminology.hl7.org/CodeSystem/measure-population","code":"denominator","display":"Denominator"}]},"count":1},{"id":"DenominatorExclusion_1","code":{"coding":[{"system":"http://terminology.hl7.org/CodeSystem/measure-population","code":"denominator-exclusion","display":"Denominator Exclusion"}]},"count":0},{"id":"Numerator_1","code":{"coding":[{"system":"http://terminology.hl7.org/CodeSystem/measure-population","code":"numerator","display":"Numerator"}]},"count":0},{"id":"DenominatorException_1","code":{"coding":[{"system":"http://terminology.hl7.org/CodeSystem/measure-population","code":"denominator-exception","display":"Denominator Exception"}]},"count":0}],"measureScore":{"value":1.0}}],"evaluatedResource":[{"reference":"Patient/8e130410-9710-45f3-ac56-e69dee0755d9"},{"reference":"Encounter/0dda2e7b-c1ec-4ae6-80bd-51873997e68a"},{"reference":"Coverage/d3f4e669-2382-4c2f-b22c-21f9ffc18269"},{"reference":"Organization/88bb2041-82e2-4a75-9936-cd5736212c06"}]},"request":{"method":"PUT","url":"MeasureReport/c58d2db2-d74b-45ff-982d-93ee27d3db97"}},{"resource":{"resourceType":"Patient","id":"8e130410-9710-45f3-ac56-e69dee0755d9","meta":{"profile":["http://hl7.org/fhir/us/qicore/StructureDefinition/qicore-patient"]},"extension":[{"url":"http://hl7.org/fhir/us/core/StructureDefinition/us-core-race","extension":[{"url":"ombCategory","valueCoding":{"system":"urn:oid:2.16.840.1.113883.6.238","code":"1002-5","display":"American Indian or Alaska Native","userSelected":true}},{"url":"text","valueString":"American Indian or Alaska Native"}]},{"url":"http://hl7.org/fhir/us/core/StructureDefinition/us-core-ethnicity","extension":[{"url":"ombCategory","valueCoding":{"system":"urn:oid:2.16.840.1.113883.6.238","code":"2186-5","display":"Not Hispanic or Latino","userSelected":true}},{"url":"text","valueString":"Not Hispanic or Latino"}]}],"identifier":[{"type":{"coding":[{"system":"http://terminology.hl7.org/CodeSystem/v2-0203","code":"MR"}]},"system":"https://bonnie-fhir.healthit.gov/","value":"62aa507fc4be4c506d4a533a"}],"name":[{"family":"DENOMPass","given":["Patient18LastDayOfEncounter"]}],"gender":"male","birthDate":"2005-06-15"},"request":{"method":"PUT","url":"Patient/8e130410-9710-45f3-ac56-e69dee0755d9"}},{"resource":{"resourceType":"Encounter","id":"0dda2e7b-c1ec-4ae6-80bd-51873997e68a","meta":{"profile":["http://hl7.org/fhir/us/qicore/StructureDefinition/qicore-encounter"]},"status":"finished","class":{"system":"http://terminology.hl7.org/CodeSystem/v3-ActCode","code":"AMB","display":"ambulatory"},"type":[{"coding":[{"system":"http://snomed.info/sct","version":"2022-03","code":"10197000","display":"Psychiatric interview and evaluation (procedure)","userSelected":true}]}],"subject":{"reference":"Patient/8e130410-9710-45f3-ac56-e69dee0755d9"},"period":{"start":"2026-12-31T23:30:00.000+00:00","end":"2026-12-31T23:59:00.000+00:00"}},"request":{"method":"PUT","url":"Encounter/0dda2e7b-c1ec-4ae6-80bd-51873997e68a"}},{"resource":{"resourceType":"Organization","id":"88bb2041-82e2-4a75-9936-cd5736212c06","meta":{"profile":["http://hl7.org/fhir/us/qicore/StructureDefinition/qicore-organization"]},"identifier":[{"use":"temp","system":"urn:oid:2.16.840.1.113883.4.4","value":"21-3259825"}],"active":true,"type":[{"coding":[{"system":"http://terminology.hl7.org/CodeSystem/organization-type","code":"pay","display":"Payer"}]}],"name":"Blue Cross Blue Shield of Texas","telecom":[{"system":"phone","value":"(+1) 972-766-6900"}],"address":[{"use":"billing","type":"postal","line":["P.O. Box 660044"],"city":"Dallas","state":"TX","postalCode":"75266-0044","country":"USA"}]},"request":{"method":"PUT","url":"Organization/88bb2041-82e2-4a75-9936-cd5736212c06"}},{"resource":{"resourceType":"Bundle","id":"62aa507fc4be4c506d4a533a","type":"transaction","entry":[{"fullUrl":"https://madie.cms.gov/Patient/8e130410-9710-45f3-ac56-e69dee0755d9","resource":{"resourceType":"Patient","id":"8e130410-9710-45f3-ac56-e69dee0755d9","meta":{"profile":["http://hl7.org/fhir/us/qicore/StructureDefinition/qicore-patient"]},"extension":[{"url":"http://hl7.org/fhir/us/core/StructureDefinition/us-core-race","extension":[{"url":"ombCategory","valueCoding":{"system":"urn:oid:2.16.840.1.113883.6.238","code":"1002-5","display":"American Indian or Alaska Native","userSelected":true}},{"url":"text","valueString":"American Indian or Alaska Native"}]},{"url":"http://hl7.org/fhir/us/core/StructureDefinition/us-core-ethnicity","extension":[{"url":"ombCategory","valueCoding":{"system":"urn:oid:2.16.840.1.113883.6.238","code":"2186-5","display":"Not Hispanic or Latino","userSelected":true}},{"url":"text","valueString":"Not Hispanic or Latino"}]}],"identifier":[{"type":{"coding":[{"system":"http://terminology.hl7.org/CodeSystem/v2-0203","code":"MR"}]},"system":"https://bonnie-fhir.healthit.gov/","value":"62aa507fc4be4c506d4a533a"}],"name":[{"family":"DENOMPass","given":["Patient18LastDayOfEncounter"]}],"gender":"male","birthDate":"2005-06-15"},"request":{"method":"PUT","url":"Patient/8e130410-9710-45f3-ac56-e69dee0755d9"}},{"fullUrl":"https://madie.cms.gov/Encounter/0dda2e7b-c1ec-4ae6-80bd-51873997e68a","resource":{"resourceType":"Encounter","id":"0dda2e7b-c1ec-4ae6-80bd-51873997e68a","meta":{"profile":["http://hl7.org/fhir/us/qicore/StructureDefinition/qicore-encounter"]},"status":"finished","class":{"system":"http://terminology.hl7.org/CodeSystem/v3-ActCode","code":"AMB","display":"ambulatory"},"type":[{"coding":[{"system":"http://snomed.info/sct","version":"2022-03","code":"10197000","display":"Psychiatric interview and evaluation (procedure)","userSelected":true}]}],"subject":{"reference":"Patient/8e130410-9710-45f3-ac56-e69dee0755d9"},"period":{"start":"2026-12-31T23:30:00.000+00:00","end":"2026-12-31T23:59:00.000+00:00"}},"request":{"method":"PUT","url":"Encounter/0dda2e7b-c1ec-4ae6-80bd-51873997e68a"}},{"fullUrl":"https://madie.cms.gov/Coverage/d3f4e669-2382-4c2f-b22c-21f9ffc18269","resource":{"resourceType":"Coverage","id":"d3f4e669-2382-4c2f-b22c-21f9ffc18269","meta":{"profile":["http://hl7.org/fhir/us/qicore/StructureDefinition/qicore-coverage"]},"status":"active","beneficiary":{"reference":"Patient/8e130410-9710-45f3-ac56-e69dee0755d9"},"payor":[{"reference":"Organization/88bb2041-82e2-4a75-9936-cd5736212c06"}]},"request":{"method":"PUT","url":"Coverage/d3f4e669-2382-4c2f-b22c-21f9ffc18269"}},{"fullUrl":"https://madie.cms.gov/Organization/88bb2041-82e2-4a75-9936-cd5736212c06","resource":{"resourceType":"Organization","id":"88bb2041-82e2-4a75-9936-cd5736212c06","meta":{"profile":["http://hl7.org/fhir/us/qicore/StructureDefinition/qicore-organization"]},"identifier":[{"use":"temp","system":"urn:oid:2.16.840.1.113883.4.4","value":"21-3259825"}],"active":true,"type":[{"coding":[{"system":"http://terminology.hl7.org/CodeSystem/organization-type","code":"pay","display":"Payer"}]}],"name":"Blue Cross Blue Shield of Texas","telecom":[{"system":"phone","value":"(+1) 972-766-6900"}],"address":[{"use":"billing","type":"postal","line":["P.O. Box 660044"],"city":"Dallas","state":"TX","postalCode":"75266-0044","country":"USA"}]},"request":{"method":"PUT","url":"Organization/88bb2041-82e2-4a75-9936-cd5736212c06"}},{"fullUrl":"https://madie.cms.gov/MeasureReport/c58d2db2-d74b-45ff-982d-93ee27d3db97","resource":{"resourceType":"MeasureReport","id":"c58d2db2-d74b-45ff-982d-93ee27d3db97","meta":{"profile":["http://hl7.org/fhir/us/cqfmeasures/StructureDefinition/test-case-cqfm"]},"contained":[{"resourceType":"Parameters","id":"f2a2af75-7986-497a-a0d0-242aef2be7b3-parameters","parameter":[{"name":"subject","valueString":"8e130410-9710-45f3-ac56-e69dee0755d9"}]}],"extension":[{"url":"http://hl7.org/fhir/StructureDefinition/cqf-inputParameters","valueReference":{"reference":"#f2a2af75-7986-497a-a0d0-242aef2be7b3-parameters"}},{"url":"http://hl7.org/fhir/us/cqfmeasures/StructureDefinition/cqfm-testCaseDescription","valueMarkdown":"Amb Enc. last day of MP, last few minutes of the day  2330 - 2359 during MP, age 20, "}],"modifierExtension":[{"url":"http://hl7.org/fhir/us/cqfmeasures/StructureDefinition/cqfm-isTestCase","valueBoolean":true}],"status":"complete","type":"individual","measure":"https://madie.cms.gov/Measure/CMS69FHIRPCSBMIScreenAndFollowUp","period":{"start":"2026-01-01","end":"2026-12-31"},"group":[{"id":"Group_1","population":[{"id":"InitialPopulation_1","code":{"coding":[{"system":"http://terminology.hl7.org/CodeSystem/measure-population","code":"initial-population","display":"Initial Population"}]},"count":1},{"id":"Denominator_1","code":{"coding":[{"system":"http://terminology.hl7.org/CodeSystem/measure-population","code":"denominator","display":"Denominator"}]},"count":1},{"id":"DenominatorExclusion_1","code":{"coding":[{"system":"http://terminology.hl7.org/CodeSystem/measure-population","code":"denominator-exclusion","display":"Denominator Exclusion"}]},"count":0},{"id":"Numerator_1","code":{"coding":[{"system":"http://terminology.hl7.org/CodeSystem/measure-population","code":"numerator","display":"Numerator"}]},"count":0},{"id":"DenominatorException_1","code":{"coding":[{"system":"http://terminology.hl7.org/CodeSystem/measure-population","code":"denominator-exception","display":"Denominator Exception"}]},"count":0}],"measureScore":{"value":1.0}}],"evaluatedResource":[{"reference":"Patient/8e130410-9710-45f3-ac56-e69dee0755d9"},{"reference":"Encounter/0dda2e7b-c1ec-4ae6-80bd-51873997e68a"},{"reference":"Coverage/d3f4e669-2382-4c2f-b22c-21f9ffc18269"},{"reference":"Organization/88bb2041-82e2-4a75-9936-cd5736212c06"}]},"request":{"method":"PUT","url":"MeasureReport/c58d2db2-d74b-45ff-982d-93ee27d3db97"}}]},"request":{"method":"PUT","url":"Bundle/62aa507fc4be4c506d4a533a"}},{"resource":{"resourceType":"Coverage","id":"d3f4e669-2382-4c2f-b22c-21f9ffc18269","meta":{"profile":["http://hl7.org/fhir/us/qicore/StructureDefinition/qicore-coverage"]},"status":"active","beneficiary":{"reference":"Patient/8e130410-9710-45f3-ac56-e69dee0755d9"},"payor":[{"reference":"Organization/88bb2041-82e2-4a75-9936-cd5736212c06"}]},"request":{"method":"PUT","url":"Coverage/d3f4e669-2382-4c2f-b22c-21f9ffc18269"}}]}