{"resourceType":"Bundle","id":"tests-5d48c3b8-93e9-4e29-8c20-a002761d9e24-bundle","type":"transaction","entry":[{"resource":{"resourceType":"Bundle","id":"62aa5328c4be4c506d4a533c","type":"transaction","entry":[{"fullUrl":"https://madie.cms.gov/Patient/5d48c3b8-93e9-4e29-8c20-a002761d9e24","resource":{"resourceType":"Patient","id":"5d48c3b8-93e9-4e29-8c20-a002761d9e24","meta":{"profile":["http://hl7.org/fhir/us/qicore/StructureDefinition/qicore-patient"]},"extension":[{"url":"http://hl7.org/fhir/us/core/StructureDefinition/us-core-race","extension":[{"url":"ombCategory","valueCoding":{"system":"urn:oid:2.16.840.1.113883.6.238","code":"2028-9","display":"Asian","userSelected":true}},{"url":"text","valueString":"Asian"}]},{"url":"http://hl7.org/fhir/us/core/StructureDefinition/us-core-ethnicity","extension":[{"url":"ombCategory","valueCoding":{"system":"urn:oid:2.16.840.1.113883.6.238","code":"2186-5","display":"Not Hispanic or Latino","userSelected":true}},{"url":"text","valueString":"Not Hispanic or Latino"}]}],"identifier":[{"type":{"coding":[{"system":"http://terminology.hl7.org/CodeSystem/v2-0203","code":"MR"}]},"system":"https://bonnie-fhir.healthit.gov/","value":"62aa5328c4be4c506d4a533c"}],"name":[{"family":"DENEXPass","given":["Pregnant"]}],"gender":"female","birthDate":"2001-01-01"},"request":{"method":"PUT","url":"Patient/5d48c3b8-93e9-4e29-8c20-a002761d9e24"}},{"fullUrl":"https://madie.cms.gov/Encounter/a2f941ba-4693-4bc5-89f9-855f9c3eb451","resource":{"resourceType":"Encounter","id":"a2f941ba-4693-4bc5-89f9-855f9c3eb451","meta":{"profile":["http://hl7.org/fhir/us/qicore/StructureDefinition/qicore-encounter"]},"status":"finished","class":{"system":"http://terminology.hl7.org/CodeSystem/v3-ActCode","code":"AMB","display":"ambulatory"},"type":[{"coding":[{"system":"http://snomed.info/sct","version":"2022-03","code":"10197000","display":"Psychiatric interview and evaluation (procedure)","userSelected":true}]}],"subject":{"reference":"Patient/5d48c3b8-93e9-4e29-8c20-a002761d9e24"},"period":{"start":"2026-01-01T00:00:00.000+00:00","end":"2026-01-01T00:30:00.000+00:00"}},"request":{"method":"PUT","url":"Encounter/a2f941ba-4693-4bc5-89f9-855f9c3eb451"}},{"fullUrl":"https://madie.cms.gov/Condition/7016a7e3-65f8-4f39-87c3-3d5d4fc73bc5","resource":{"resourceType":"Condition","id":"7016a7e3-65f8-4f39-87c3-3d5d4fc73bc5","meta":{"profile":["http://hl7.org/fhir/us/qicore/StructureDefinition/qicore-condition-problems-health-concerns"]},"clinicalStatus":{"coding":[{"system":"http://terminology.hl7.org/CodeSystem/condition-clinical","code":"active","display":"active","userSelected":true}]},"category":[{"coding":[{"system":"http://terminology.hl7.org/CodeSystem/condition-category","code":"problem-list-item","display":"Problem List Item"},{"system":"http://snomed.info/sct","code":"441874000","display":"Diagnosis"}]}],"code":{"coding":[{"system":"http://snomed.info/sct","version":"2022-03","code":"441874000","display":"Seen by palliative care service (finding)","userSelected":true}]},"subject":{"reference":"Patient/5d48c3b8-93e9-4e29-8c20-a002761d9e24"},"onsetDateTime":"2026-01-01T00:30:00.000+00:00"},"request":{"method":"PUT","url":"Condition/7016a7e3-65f8-4f39-87c3-3d5d4fc73bc5"}},{"fullUrl":"https://madie.cms.gov/Coverage/ef7779e8-f8cd-446b-9720-9c60dbce50ed","resource":{"resourceType":"Coverage","id":"ef7779e8-f8cd-446b-9720-9c60dbce50ed","meta":{"profile":["http://hl7.org/fhir/us/qicore/StructureDefinition/qicore-coverage"]},"status":"active","beneficiary":{"reference":"Patient/5d48c3b8-93e9-4e29-8c20-a002761d9e24"},"payor":[{"reference":"Organization/a04878af-55ab-4e8e-a138-f576ee964599"}]},"request":{"method":"PUT","url":"Coverage/ef7779e8-f8cd-446b-9720-9c60dbce50ed"}},{"fullUrl":"https://madie.cms.gov/Organization/a04878af-55ab-4e8e-a138-f576ee964599","resource":{"resourceType":"Organization","id":"a04878af-55ab-4e8e-a138-f576ee964599","meta":{"profile":["http://hl7.org/fhir/us/qicore/StructureDefinition/qicore-organization"]},"identifier":[{"use":"temp","system":"urn:oid:2.16.840.1.113883.4.4","value":"21-3259825"}],"active":true,"type":[{"coding":[{"system":"http://terminology.hl7.org/CodeSystem/organization-type","code":"pay","display":"Payer"}]}],"name":"Blue Cross Blue Shield of Texas","telecom":[{"system":"phone","value":"(+1) 972-766-6900"}],"address":[{"use":"billing","type":"postal","line":["P.O. Box 660044"],"city":"Dallas","state":"TX","postalCode":"75266-0044","country":"USA"}]},"request":{"method":"PUT","url":"Organization/a04878af-55ab-4e8e-a138-f576ee964599"}},{"fullUrl":"https://madie.cms.gov/MeasureReport/dc4d2fb6-7056-4885-8fdb-ba9c8b764cbb","resource":{"resourceType":"MeasureReport","id":"dc4d2fb6-7056-4885-8fdb-ba9c8b764cbb","meta":{"profile":["http://hl7.org/fhir/us/cqfmeasures/StructureDefinition/test-case-cqfm"]},"contained":[{"resourceType":"Parameters","id":"1b498d97-2189-431e-b5d4-2c758344f34e-parameters","parameter":[{"name":"subject","valueString":"5d48c3b8-93e9-4e29-8c20-a002761d9e24"}]}],"extension":[{"url":"http://hl7.org/fhir/StructureDefinition/cqf-inputParameters","valueReference":{"reference":"#1b498d97-2189-431e-b5d4-2c758344f34e-parameters"}},{"url":"http://hl7.org/fhir/us/cqfmeasures/StructureDefinition/cqfm-testCaseDescription","valueMarkdown":"Enc first day of MP. palliative care dx "}],"modifierExtension":[{"url":"http://hl7.org/fhir/us/cqfmeasures/StructureDefinition/cqfm-isTestCase","valueBoolean":true}],"status":"complete","type":"individual","measure":"https://madie.cms.gov/Measure/CMS69FHIRPCSBMIScreenAndFollowUp","period":{"start":"2026-01-01","end":"2026-12-31"},"group":[{"id":"Group_1","population":[{"id":"InitialPopulation_1","code":{"coding":[{"system":"http://terminology.hl7.org/CodeSystem/measure-population","code":"initial-population","display":"Initial Population"}]},"count":1},{"id":"Denominator_1","code":{"coding":[{"system":"http://terminology.hl7.org/CodeSystem/measure-population","code":"denominator","display":"Denominator"}]},"count":1},{"id":"DenominatorExclusion_1","code":{"coding":[{"system":"http://terminology.hl7.org/CodeSystem/measure-population","code":"denominator-exclusion","display":"Denominator Exclusion"}]},"count":1},{"id":"Numerator_1","code":{"coding":[{"system":"http://terminology.hl7.org/CodeSystem/measure-population","code":"numerator","display":"Numerator"}]},"count":0},{"id":"DenominatorException_1","code":{"coding":[{"system":"http://terminology.hl7.org/CodeSystem/measure-population","code":"denominator-exception","display":"Denominator Exception"}]},"count":0}],"measureScore":{"value":1.0}}],"evaluatedResource":[{"reference":"Patient/5d48c3b8-93e9-4e29-8c20-a002761d9e24"},{"reference":"Encounter/a2f941ba-4693-4bc5-89f9-855f9c3eb451"},{"reference":"Condition/7016a7e3-65f8-4f39-87c3-3d5d4fc73bc5"},{"reference":"Coverage/ef7779e8-f8cd-446b-9720-9c60dbce50ed"},{"reference":"Organization/a04878af-55ab-4e8e-a138-f576ee964599"}]},"request":{"method":"PUT","url":"MeasureReport/dc4d2fb6-7056-4885-8fdb-ba9c8b764cbb"}}]},"request":{"method":"PUT","url":"Bundle/62aa5328c4be4c506d4a533c"}},{"resource":{"resourceType":"Condition","id":"7016a7e3-65f8-4f39-87c3-3d5d4fc73bc5","meta":{"profile":["http://hl7.org/fhir/us/qicore/StructureDefinition/qicore-condition-problems-health-concerns"]},"clinicalStatus":{"coding":[{"system":"http://terminology.hl7.org/CodeSystem/condition-clinical","code":"active","display":"active","userSelected":true}]},"category":[{"coding":[{"system":"http://terminology.hl7.org/CodeSystem/condition-category","code":"problem-list-item","display":"Problem List Item"},{"system":"http://snomed.info/sct","code":"441874000","display":"Diagnosis"}]}],"code":{"coding":[{"system":"http://snomed.info/sct","version":"2022-03","code":"441874000","display":"Seen by palliative care service (finding)","userSelected":true}]},"subject":{"reference":"Patient/5d48c3b8-93e9-4e29-8c20-a002761d9e24"},"onsetDateTime":"2026-01-01T00:30:00.000+00:00"},"request":{"method":"PUT","url":"Condition/7016a7e3-65f8-4f39-87c3-3d5d4fc73bc5"}},{"resource":{"resourceType":"Coverage","id":"ef7779e8-f8cd-446b-9720-9c60dbce50ed","meta":{"profile":["http://hl7.org/fhir/us/qicore/StructureDefinition/qicore-coverage"]},"status":"active","beneficiary":{"reference":"Patient/5d48c3b8-93e9-4e29-8c20-a002761d9e24"},"payor":[{"reference":"Organization/a04878af-55ab-4e8e-a138-f576ee964599"}]},"request":{"method":"PUT","url":"Coverage/ef7779e8-f8cd-446b-9720-9c60dbce50ed"}},{"resource":{"resourceType":"Encounter","id":"a2f941ba-4693-4bc5-89f9-855f9c3eb451","meta":{"profile":["http://hl7.org/fhir/us/qicore/StructureDefinition/qicore-encounter"]},"status":"finished","class":{"system":"http://terminology.hl7.org/CodeSystem/v3-ActCode","code":"AMB","display":"ambulatory"},"type":[{"coding":[{"system":"http://snomed.info/sct","version":"2022-03","code":"10197000","display":"Psychiatric interview and evaluation (procedure)","userSelected":true}]}],"subject":{"reference":"Patient/5d48c3b8-93e9-4e29-8c20-a002761d9e24"},"period":{"start":"2026-01-01T00:00:00.000+00:00","end":"2026-01-01T00:30:00.000+00:00"}},"request":{"method":"PUT","url":"Encounter/a2f941ba-4693-4bc5-89f9-855f9c3eb451"}},{"resource":{"resourceType":"MeasureReport","id":"dc4d2fb6-7056-4885-8fdb-ba9c8b764cbb","meta":{"profile":["http://hl7.org/fhir/us/cqfmeasures/StructureDefinition/test-case-cqfm"]},"contained":[{"resourceType":"Parameters","id":"1b498d97-2189-431e-b5d4-2c758344f34e-parameters","parameter":[{"name":"subject","valueString":"5d48c3b8-93e9-4e29-8c20-a002761d9e24"}]}],"extension":[{"url":"http://hl7.org/fhir/StructureDefinition/cqf-inputParameters","valueReference":{"reference":"#1b498d97-2189-431e-b5d4-2c758344f34e-parameters"}},{"url":"http://hl7.org/fhir/us/cqfmeasures/StructureDefinition/cqfm-testCaseDescription","valueMarkdown":"Enc first day of MP. palliative care dx "}],"modifierExtension":[{"url":"http://hl7.org/fhir/us/cqfmeasures/StructureDefinition/cqfm-isTestCase","valueBoolean":true}],"status":"complete","type":"individual","measure":"https://madie.cms.gov/Measure/CMS69FHIRPCSBMIScreenAndFollowUp","period":{"start":"2026-01-01","end":"2026-12-31"},"group":[{"id":"Group_1","population":[{"id":"InitialPopulation_1","code":{"coding":[{"system":"http://terminology.hl7.org/CodeSystem/measure-population","code":"initial-population","display":"Initial Population"}]},"count":1},{"id":"Denominator_1","code":{"coding":[{"system":"http://terminology.hl7.org/CodeSystem/measure-population","code":"denominator","display":"Denominator"}]},"count":1},{"id":"DenominatorExclusion_1","code":{"coding":[{"system":"http://terminology.hl7.org/CodeSystem/measure-population","code":"denominator-exclusion","display":"Denominator Exclusion"}]},"count":1},{"id":"Numerator_1","code":{"coding":[{"system":"http://terminology.hl7.org/CodeSystem/measure-population","code":"numerator","display":"Numerator"}]},"count":0},{"id":"DenominatorException_1","code":{"coding":[{"system":"http://terminology.hl7.org/CodeSystem/measure-population","code":"denominator-exception","display":"Denominator Exception"}]},"count":0}],"measureScore":{"value":1.0}}],"evaluatedResource":[{"reference":"Patient/5d48c3b8-93e9-4e29-8c20-a002761d9e24"},{"reference":"Encounter/a2f941ba-4693-4bc5-89f9-855f9c3eb451"},{"reference":"Condition/7016a7e3-65f8-4f39-87c3-3d5d4fc73bc5"},{"reference":"Coverage/ef7779e8-f8cd-446b-9720-9c60dbce50ed"},{"reference":"Organization/a04878af-55ab-4e8e-a138-f576ee964599"}]},"request":{"method":"PUT","url":"MeasureReport/dc4d2fb6-7056-4885-8fdb-ba9c8b764cbb"}},{"resource":{"resourceType":"Organization","id":"a04878af-55ab-4e8e-a138-f576ee964599","meta":{"profile":["http://hl7.org/fhir/us/qicore/StructureDefinition/qicore-organization"]},"identifier":[{"use":"temp","system":"urn:oid:2.16.840.1.113883.4.4","value":"21-3259825"}],"active":true,"type":[{"coding":[{"system":"http://terminology.hl7.org/CodeSystem/organization-type","code":"pay","display":"Payer"}]}],"name":"Blue Cross Blue Shield of Texas","telecom":[{"system":"phone","value":"(+1) 972-766-6900"}],"address":[{"use":"billing","type":"postal","line":["P.O. Box 660044"],"city":"Dallas","state":"TX","postalCode":"75266-0044","country":"USA"}]},"request":{"method":"PUT","url":"Organization/a04878af-55ab-4e8e-a138-f576ee964599"}},{"resource":{"resourceType":"Patient","id":"5d48c3b8-93e9-4e29-8c20-a002761d9e24","meta":{"profile":["http://hl7.org/fhir/us/qicore/StructureDefinition/qicore-patient"]},"extension":[{"url":"http://hl7.org/fhir/us/core/StructureDefinition/us-core-race","extension":[{"url":"ombCategory","valueCoding":{"system":"urn:oid:2.16.840.1.113883.6.238","code":"2028-9","display":"Asian","userSelected":true}},{"url":"text","valueString":"Asian"}]},{"url":"http://hl7.org/fhir/us/core/StructureDefinition/us-core-ethnicity","extension":[{"url":"ombCategory","valueCoding":{"system":"urn:oid:2.16.840.1.113883.6.238","code":"2186-5","display":"Not Hispanic or Latino","userSelected":true}},{"url":"text","valueString":"Not Hispanic or Latino"}]}],"identifier":[{"type":{"coding":[{"system":"http://terminology.hl7.org/CodeSystem/v2-0203","code":"MR"}]},"system":"https://bonnie-fhir.healthit.gov/","value":"62aa5328c4be4c506d4a533c"}],"name":[{"family":"DENEXPass","given":["Pregnant"]}],"gender":"female","birthDate":"2001-01-01"},"request":{"method":"PUT","url":"Patient/5d48c3b8-93e9-4e29-8c20-a002761d9e24"}}]}