{"resourceType":"Bundle","id":"tests-80a53697-3fdb-4721-87aa-64462a6708dd-bundle","type":"transaction","entry":[{"resource":{"resourceType":"Bundle","id":"62aa5328c4be4c506d4a533c","type":"transaction","entry":[{"fullUrl":"https://madie.cms.gov/Patient/80a53697-3fdb-4721-87aa-64462a6708dd","resource":{"resourceType":"Patient","id":"80a53697-3fdb-4721-87aa-64462a6708dd","meta":{"profile":["http://hl7.org/fhir/us/qicore/StructureDefinition/qicore-patient"]},"extension":[{"url":"http://hl7.org/fhir/us/core/StructureDefinition/us-core-race","extension":[{"url":"ombCategory","valueCoding":{"system":"urn:oid:2.16.840.1.113883.6.238","code":"2028-9","display":"Asian","userSelected":true}},{"url":"text","valueString":"Asian"}]},{"url":"http://hl7.org/fhir/us/core/StructureDefinition/us-core-ethnicity","extension":[{"url":"ombCategory","valueCoding":{"system":"urn:oid:2.16.840.1.113883.6.238","code":"2186-5","display":"Not Hispanic or Latino","userSelected":true}},{"url":"text","valueString":"Not Hispanic or Latino"}]}],"identifier":[{"type":{"coding":[{"system":"http://terminology.hl7.org/CodeSystem/v2-0203","code":"MR"}]},"system":"https://bonnie-fhir.healthit.gov/","value":"62aa5328c4be4c506d4a533c"}],"name":[{"family":"DENEXPass","given":["PregnancyOnset1YearAgo"]}],"gender":"female","birthDate":"2001-01-01"},"request":{"method":"PUT","url":"Patient/80a53697-3fdb-4721-87aa-64462a6708dd"}},{"fullUrl":"https://madie.cms.gov/Encounter/64bf9093-2537-45c5-82fb-0cfd4de436b6","resource":{"resourceType":"Encounter","id":"64bf9093-2537-45c5-82fb-0cfd4de436b6","meta":{"profile":["http://hl7.org/fhir/us/qicore/StructureDefinition/qicore-encounter"]},"status":"finished","class":{"system":"http://terminology.hl7.org/CodeSystem/v3-ActCode","code":"AMB","display":"ambulatory"},"type":[{"coding":[{"system":"http://snomed.info/sct","version":"2022-03","code":"10197000","display":"Psychiatric interview and evaluation (procedure)","userSelected":true}]}],"subject":{"reference":"Patient/80a53697-3fdb-4721-87aa-64462a6708dd"},"period":{"start":"2026-01-01T00:00:00.000+00:00","end":"2026-01-01T00:30:00.000+00:00"}},"request":{"method":"PUT","url":"Encounter/64bf9093-2537-45c5-82fb-0cfd4de436b6"}},{"fullUrl":"https://madie.cms.gov/Condition/a683bcfb-e984-43fe-aaef-eae04b616540","resource":{"resourceType":"Condition","id":"a683bcfb-e984-43fe-aaef-eae04b616540","meta":{"profile":["http://hl7.org/fhir/us/qicore/StructureDefinition/qicore-condition-problems-health-concerns"]},"clinicalStatus":{"coding":[{"system":"http://terminology.hl7.org/CodeSystem/condition-clinical","code":"active","display":"active","userSelected":true}]},"category":[{"coding":[{"system":"http://terminology.hl7.org/CodeSystem/condition-category","code":"problem-list-item","display":"Problem List Item"},{"system":"http://snomed.info/sct","code":"439401001","display":"Diagnosis"}]}],"code":{"coding":[{"system":"http://snomed.info/sct","version":"2022-03","code":"10231000132102","display":"In-vitro fertilization pregnancy (finding)","userSelected":true}]},"subject":{"reference":"Patient/80a53697-3fdb-4721-87aa-64462a6708dd"},"onsetDateTime":"2024-01-01T00:30:00.000+00:00"},"request":{"method":"PUT","url":"Condition/a683bcfb-e984-43fe-aaef-eae04b616540"}},{"fullUrl":"https://madie.cms.gov/Coverage/91b1bd4e-5a23-4503-ad40-68c511017312","resource":{"resourceType":"Coverage","id":"91b1bd4e-5a23-4503-ad40-68c511017312","meta":{"profile":["http://hl7.org/fhir/us/qicore/StructureDefinition/qicore-coverage"]},"status":"active","beneficiary":{"reference":"Patient/80a53697-3fdb-4721-87aa-64462a6708dd"},"payor":[{"reference":"Organization/822e0f91-629c-4ee4-be74-c2ed23f6f5c3"}]},"request":{"method":"PUT","url":"Coverage/91b1bd4e-5a23-4503-ad40-68c511017312"}},{"fullUrl":"https://madie.cms.gov/Organization/822e0f91-629c-4ee4-be74-c2ed23f6f5c3","resource":{"resourceType":"Organization","id":"822e0f91-629c-4ee4-be74-c2ed23f6f5c3","meta":{"profile":["http://hl7.org/fhir/us/qicore/StructureDefinition/qicore-organization"]},"identifier":[{"use":"temp","system":"urn:oid:2.16.840.1.113883.4.4","value":"21-3259825"}],"active":true,"type":[{"coding":[{"system":"http://terminology.hl7.org/CodeSystem/organization-type","code":"pay","display":"Payer"}]}],"name":"Blue Cross Blue Shield of Texas","telecom":[{"system":"phone","value":"(+1) 972-766-6900"}],"address":[{"use":"billing","type":"postal","line":["P.O. Box 660044"],"city":"Dallas","state":"TX","postalCode":"75266-0044","country":"USA"}]},"request":{"method":"PUT","url":"Organization/822e0f91-629c-4ee4-be74-c2ed23f6f5c3"}},{"fullUrl":"https://madie.cms.gov/MeasureReport/1639fb61-2377-415d-9447-5b42b58cef45","resource":{"resourceType":"MeasureReport","id":"1639fb61-2377-415d-9447-5b42b58cef45","meta":{"profile":["http://hl7.org/fhir/us/cqfmeasures/StructureDefinition/test-case-cqfm"]},"contained":[{"resourceType":"Parameters","id":"babb844d-9233-49ec-8491-b4b3853809a7-parameters","parameter":[{"name":"subject","valueString":"80a53697-3fdb-4721-87aa-64462a6708dd"}]}],"extension":[{"url":"http://hl7.org/fhir/StructureDefinition/cqf-inputParameters","valueReference":{"reference":"#babb844d-9233-49ec-8491-b4b3853809a7-parameters"}},{"url":"http://hl7.org/fhir/us/cqfmeasures/StructureDefinition/cqfm-testCaseDescription","valueMarkdown":"Enc first day of MP, Pregnancy onset 1/1/ of prior year, 12 months later no abatement date added to chart, Test calculates as still pregnant.  "}],"modifierExtension":[{"url":"http://hl7.org/fhir/us/cqfmeasures/StructureDefinition/cqfm-isTestCase","valueBoolean":true}],"status":"complete","type":"individual","measure":"https://madie.cms.gov/Measure/CMS69FHIRPCSBMIScreenAndFollowUp","period":{"start":"2026-01-01","end":"2026-12-31"},"group":[{"id":"Group_1","population":[{"id":"InitialPopulation_1","code":{"coding":[{"system":"http://terminology.hl7.org/CodeSystem/measure-population","code":"initial-population","display":"Initial Population"}]},"count":1},{"id":"Denominator_1","code":{"coding":[{"system":"http://terminology.hl7.org/CodeSystem/measure-population","code":"denominator","display":"Denominator"}]},"count":1},{"id":"DenominatorExclusion_1","code":{"coding":[{"system":"http://terminology.hl7.org/CodeSystem/measure-population","code":"denominator-exclusion","display":"Denominator Exclusion"}]},"count":1},{"id":"Numerator_1","code":{"coding":[{"system":"http://terminology.hl7.org/CodeSystem/measure-population","code":"numerator","display":"Numerator"}]},"count":0},{"id":"DenominatorException_1","code":{"coding":[{"system":"http://terminology.hl7.org/CodeSystem/measure-population","code":"denominator-exception","display":"Denominator Exception"}]},"count":0}],"measureScore":{"value":1.0}}],"evaluatedResource":[{"reference":"Patient/80a53697-3fdb-4721-87aa-64462a6708dd"},{"reference":"Encounter/64bf9093-2537-45c5-82fb-0cfd4de436b6"},{"reference":"Condition/a683bcfb-e984-43fe-aaef-eae04b616540"},{"reference":"Coverage/91b1bd4e-5a23-4503-ad40-68c511017312"},{"reference":"Organization/822e0f91-629c-4ee4-be74-c2ed23f6f5c3"}]},"request":{"method":"PUT","url":"MeasureReport/1639fb61-2377-415d-9447-5b42b58cef45"}}]},"request":{"method":"PUT","url":"Bundle/62aa5328c4be4c506d4a533c"}},{"resource":{"resourceType":"Condition","id":"a683bcfb-e984-43fe-aaef-eae04b616540","meta":{"profile":["http://hl7.org/fhir/us/qicore/StructureDefinition/qicore-condition-problems-health-concerns"]},"clinicalStatus":{"coding":[{"system":"http://terminology.hl7.org/CodeSystem/condition-clinical","code":"active","display":"active","userSelected":true}]},"category":[{"coding":[{"system":"http://terminology.hl7.org/CodeSystem/condition-category","code":"problem-list-item","display":"Problem List Item"},{"system":"http://snomed.info/sct","code":"439401001","display":"Diagnosis"}]}],"code":{"coding":[{"system":"http://snomed.info/sct","version":"2022-03","code":"10231000132102","display":"In-vitro fertilization pregnancy (finding)","userSelected":true}]},"subject":{"reference":"Patient/80a53697-3fdb-4721-87aa-64462a6708dd"},"onsetDateTime":"2024-01-01T00:30:00.000+00:00"},"request":{"method":"PUT","url":"Condition/a683bcfb-e984-43fe-aaef-eae04b616540"}},{"resource":{"resourceType":"Coverage","id":"91b1bd4e-5a23-4503-ad40-68c511017312","meta":{"profile":["http://hl7.org/fhir/us/qicore/StructureDefinition/qicore-coverage"]},"status":"active","beneficiary":{"reference":"Patient/80a53697-3fdb-4721-87aa-64462a6708dd"},"payor":[{"reference":"Organization/822e0f91-629c-4ee4-be74-c2ed23f6f5c3"}]},"request":{"method":"PUT","url":"Coverage/91b1bd4e-5a23-4503-ad40-68c511017312"}},{"resource":{"resourceType":"Encounter","id":"64bf9093-2537-45c5-82fb-0cfd4de436b6","meta":{"profile":["http://hl7.org/fhir/us/qicore/StructureDefinition/qicore-encounter"]},"status":"finished","class":{"system":"http://terminology.hl7.org/CodeSystem/v3-ActCode","code":"AMB","display":"ambulatory"},"type":[{"coding":[{"system":"http://snomed.info/sct","version":"2022-03","code":"10197000","display":"Psychiatric interview and evaluation (procedure)","userSelected":true}]}],"subject":{"reference":"Patient/80a53697-3fdb-4721-87aa-64462a6708dd"},"period":{"start":"2026-01-01T00:00:00.000+00:00","end":"2026-01-01T00:30:00.000+00:00"}},"request":{"method":"PUT","url":"Encounter/64bf9093-2537-45c5-82fb-0cfd4de436b6"}},{"resource":{"resourceType":"MeasureReport","id":"1639fb61-2377-415d-9447-5b42b58cef45","meta":{"profile":["http://hl7.org/fhir/us/cqfmeasures/StructureDefinition/test-case-cqfm"]},"contained":[{"resourceType":"Parameters","id":"babb844d-9233-49ec-8491-b4b3853809a7-parameters","parameter":[{"name":"subject","valueString":"80a53697-3fdb-4721-87aa-64462a6708dd"}]}],"extension":[{"url":"http://hl7.org/fhir/StructureDefinition/cqf-inputParameters","valueReference":{"reference":"#babb844d-9233-49ec-8491-b4b3853809a7-parameters"}},{"url":"http://hl7.org/fhir/us/cqfmeasures/StructureDefinition/cqfm-testCaseDescription","valueMarkdown":"Enc first day of MP, Pregnancy onset 1/1/ of prior year, 12 months later no abatement date added to chart, Test calculates as still pregnant.  "}],"modifierExtension":[{"url":"http://hl7.org/fhir/us/cqfmeasures/StructureDefinition/cqfm-isTestCase","valueBoolean":true}],"status":"complete","type":"individual","measure":"https://madie.cms.gov/Measure/CMS69FHIRPCSBMIScreenAndFollowUp","period":{"start":"2026-01-01","end":"2026-12-31"},"group":[{"id":"Group_1","population":[{"id":"InitialPopulation_1","code":{"coding":[{"system":"http://terminology.hl7.org/CodeSystem/measure-population","code":"initial-population","display":"Initial Population"}]},"count":1},{"id":"Denominator_1","code":{"coding":[{"system":"http://terminology.hl7.org/CodeSystem/measure-population","code":"denominator","display":"Denominator"}]},"count":1},{"id":"DenominatorExclusion_1","code":{"coding":[{"system":"http://terminology.hl7.org/CodeSystem/measure-population","code":"denominator-exclusion","display":"Denominator Exclusion"}]},"count":1},{"id":"Numerator_1","code":{"coding":[{"system":"http://terminology.hl7.org/CodeSystem/measure-population","code":"numerator","display":"Numerator"}]},"count":0},{"id":"DenominatorException_1","code":{"coding":[{"system":"http://terminology.hl7.org/CodeSystem/measure-population","code":"denominator-exception","display":"Denominator Exception"}]},"count":0}],"measureScore":{"value":1.0}}],"evaluatedResource":[{"reference":"Patient/80a53697-3fdb-4721-87aa-64462a6708dd"},{"reference":"Encounter/64bf9093-2537-45c5-82fb-0cfd4de436b6"},{"reference":"Condition/a683bcfb-e984-43fe-aaef-eae04b616540"},{"reference":"Coverage/91b1bd4e-5a23-4503-ad40-68c511017312"},{"reference":"Organization/822e0f91-629c-4ee4-be74-c2ed23f6f5c3"}]},"request":{"method":"PUT","url":"MeasureReport/1639fb61-2377-415d-9447-5b42b58cef45"}},{"resource":{"resourceType":"Organization","id":"822e0f91-629c-4ee4-be74-c2ed23f6f5c3","meta":{"profile":["http://hl7.org/fhir/us/qicore/StructureDefinition/qicore-organization"]},"identifier":[{"use":"temp","system":"urn:oid:2.16.840.1.113883.4.4","value":"21-3259825"}],"active":true,"type":[{"coding":[{"system":"http://terminology.hl7.org/CodeSystem/organization-type","code":"pay","display":"Payer"}]}],"name":"Blue Cross Blue Shield of Texas","telecom":[{"system":"phone","value":"(+1) 972-766-6900"}],"address":[{"use":"billing","type":"postal","line":["P.O. Box 660044"],"city":"Dallas","state":"TX","postalCode":"75266-0044","country":"USA"}]},"request":{"method":"PUT","url":"Organization/822e0f91-629c-4ee4-be74-c2ed23f6f5c3"}},{"resource":{"resourceType":"Patient","id":"80a53697-3fdb-4721-87aa-64462a6708dd","meta":{"profile":["http://hl7.org/fhir/us/qicore/StructureDefinition/qicore-patient"]},"extension":[{"url":"http://hl7.org/fhir/us/core/StructureDefinition/us-core-race","extension":[{"url":"ombCategory","valueCoding":{"system":"urn:oid:2.16.840.1.113883.6.238","code":"2028-9","display":"Asian","userSelected":true}},{"url":"text","valueString":"Asian"}]},{"url":"http://hl7.org/fhir/us/core/StructureDefinition/us-core-ethnicity","extension":[{"url":"ombCategory","valueCoding":{"system":"urn:oid:2.16.840.1.113883.6.238","code":"2186-5","display":"Not Hispanic or Latino","userSelected":true}},{"url":"text","valueString":"Not Hispanic or Latino"}]}],"identifier":[{"type":{"coding":[{"system":"http://terminology.hl7.org/CodeSystem/v2-0203","code":"MR"}]},"system":"https://bonnie-fhir.healthit.gov/","value":"62aa5328c4be4c506d4a533c"}],"name":[{"family":"DENEXPass","given":["PregnancyOnset1YearAgo"]}],"gender":"female","birthDate":"2001-01-01"},"request":{"method":"PUT","url":"Patient/80a53697-3fdb-4721-87aa-64462a6708dd"}}]}