{"resourceType":"Bundle","id":"tests-6f0c3642-5efc-4923-ac24-9f5e9d1831d6-bundle","type":"transaction","entry":[{"resource":{"resourceType":"Bundle","id":"62fbe4dbbf5132f90ee35d37","type":"transaction","entry":[{"fullUrl":"https://madie.cms.gov/Patient/6f0c3642-5efc-4923-ac24-9f5e9d1831d6","resource":{"resourceType":"Patient","id":"6f0c3642-5efc-4923-ac24-9f5e9d1831d6","meta":{"profile":["http://hl7.org/fhir/us/qicore/StructureDefinition/qicore-patient"]},"extension":[{"url":"http://hl7.org/fhir/us/core/StructureDefinition/us-core-race","extension":[{"url":"ombCategory","valueCoding":{"system":"urn:oid:2.16.840.1.113883.6.238","code":"2054-5","display":"Black or African American","userSelected":true}},{"url":"text","valueString":"Black or African American"}]},{"url":"http://hl7.org/fhir/us/core/StructureDefinition/us-core-ethnicity","extension":[{"url":"ombCategory","valueCoding":{"system":"urn:oid:2.16.840.1.113883.6.238","code":"2186-5","display":"Not Hispanic or Latino","userSelected":true}},{"url":"text","valueString":"Not Hispanic or Latino"}]}],"identifier":[{"type":{"coding":[{"system":"http://terminology.hl7.org/CodeSystem/v2-0203","code":"MR"}]},"system":"https://bonnie-fhir.healthit.gov/","value":"62fbe4dbbf5132f90ee35d37"}],"name":[{"family":"DENEXFail","given":["DischargeToHospiceFacilityAfterMP"]}],"gender":"male","birthDate":"1946-10-15"},"request":{"method":"PUT","url":"Patient/6f0c3642-5efc-4923-ac24-9f5e9d1831d6"}},{"fullUrl":"https://madie.cms.gov/Encounter/a4eb4973-8ad2-4533-9e77-ef77c64e4f1c","resource":{"resourceType":"Encounter","id":"a4eb4973-8ad2-4533-9e77-ef77c64e4f1c","meta":{"profile":["http://hl7.org/fhir/us/qicore/StructureDefinition/qicore-encounter"]},"status":"finished","class":{"system":"http://terminology.hl7.org/CodeSystem/v3-ActCode","code":"AMB","display":"ambulatory"},"type":[{"coding":[{"system":"http://snomed.info/sct","version":"2022-03","code":"10197000","display":"Psychiatric interview and evaluation (procedure)","userSelected":true}]}],"subject":{"reference":"Patient/6f0c3642-5efc-4923-ac24-9f5e9d1831d6"},"period":{"start":"2026-01-01T00:00:00.000+00:00","end":"2026-01-01T00:30:00.000+00:00"}},"request":{"method":"PUT","url":"Encounter/a4eb4973-8ad2-4533-9e77-ef77c64e4f1c"}},{"fullUrl":"https://madie.cms.gov/Observation/ccd03fe2-89f6-4563-9cf1-5ae8999a990a","resource":{"resourceType":"Observation","id":"ccd03fe2-89f6-4563-9cf1-5ae8999a990a","meta":{"profile":["http://hl7.org/fhir/us/core/StructureDefinition/us-core-bmi"]},"status":"final","category":[{"coding":[{"system":"http://terminology.hl7.org/CodeSystem/observation-category","code":"vital-signs","display":"Vital Signs"}]}],"code":{"coding":[{"system":"http://loinc.org","code":"39156-5","display":"Body mass index (BMI) [Ratio]","userSelected":true}]},"subject":{"reference":"Patient/6f0c3642-5efc-4923-ac24-9f5e9d1831d6"},"effectiveDateTime":"2026-01-01T00:30:00.000+00:00","valueQuantity":{"value":25,"unit":"kg/m2","system":"http://unitsofmeasure.org","code":"kg/m2"}},"request":{"method":"PUT","url":"Observation/ccd03fe2-89f6-4563-9cf1-5ae8999a990a"}},{"fullUrl":"https://madie.cms.gov/Procedure/16607995-4ae4-4413-b905-30cbae9ca89e","resource":{"resourceType":"Procedure","id":"16607995-4ae4-4413-b905-30cbae9ca89e","meta":{"profile":["http://hl7.org/fhir/us/qicore/StructureDefinition/qicore-procedure"]},"extension":[{"url":"http://hl7.org/fhir/us/qicore/StructureDefinition/qicore-recorded","valueDateTime":"2026-01-01T00:30:00.000+00:00"}],"status":"completed","code":{"coding":[{"system":"http://snomed.info/sct","version":"2022-03","code":"182922004","display":"Dietary regime (regime/therapy)","userSelected":true}]},"subject":{"reference":"Patient/6f0c3642-5efc-4923-ac24-9f5e9d1831d6"},"performedDateTime":"2026-01-01T00:30:00.000+00:00","reasonCode":[{"coding":[{"system":"http://hl7.org/fhir/sid/icd-10-cm","code":"E66.01","display":"Morbid (severe) obesity due to excess calories","userSelected":true}]}]},"request":{"method":"PUT","url":"Procedure/16607995-4ae4-4413-b905-30cbae9ca89e"}},{"fullUrl":"https://madie.cms.gov/Encounter/281bf9a4-72b1-4a08-be0e-efad2be86aa5","resource":{"resourceType":"Encounter","id":"281bf9a4-72b1-4a08-be0e-efad2be86aa5","meta":{"profile":["http://hl7.org/fhir/us/qicore/StructureDefinition/qicore-encounter"]},"status":"finished","class":{"system":"http://terminology.hl7.org/CodeSystem/v3-ActCode","code":"AMB","display":"ambulatory"},"type":[{"coding":[{"system":"http://snomed.info/sct","version":"2022-03","code":"183452005","display":"Emergency hospital admission (procedure)","userSelected":true}]}],"subject":{"reference":"Patient/6f0c3642-5efc-4923-ac24-9f5e9d1831d6"},"period":{"start":"2026-02-26T08:00:00.000+00:00","end":"2026-03-01T08:15:00.000+00:00"},"hospitalization":{"dischargeDisposition":{"coding":[{"system":"http://snomed.info/sct","code":"428361000124107","display":"Discharge to home for hospice care (procedure)","userSelected":true}]}}},"request":{"method":"PUT","url":"Encounter/281bf9a4-72b1-4a08-be0e-efad2be86aa5"}},{"fullUrl":"https://madie.cms.gov/Coverage/11ce276d-b16b-477b-9902-11a4947907b9","resource":{"resourceType":"Coverage","id":"11ce276d-b16b-477b-9902-11a4947907b9","meta":{"profile":["http://hl7.org/fhir/us/qicore/StructureDefinition/qicore-coverage"]},"status":"active","beneficiary":{"reference":"Patient/6f0c3642-5efc-4923-ac24-9f5e9d1831d6"},"payor":[{"reference":"Organization/710daa73-ec08-427a-916f-097a10152c55"}]},"request":{"method":"PUT","url":"Coverage/11ce276d-b16b-477b-9902-11a4947907b9"}},{"fullUrl":"https://madie.cms.gov/Organization/710daa73-ec08-427a-916f-097a10152c55","resource":{"resourceType":"Organization","id":"710daa73-ec08-427a-916f-097a10152c55","meta":{"profile":["http://hl7.org/fhir/us/qicore/StructureDefinition/qicore-organization"]},"identifier":[{"use":"temp","system":"urn:oid:2.16.840.1.113883.4.4","value":"21-3259825"}],"active":true,"type":[{"coding":[{"system":"http://terminology.hl7.org/CodeSystem/organization-type","code":"pay","display":"Payer"}]}],"name":"Blue Cross Blue Shield of Texas","telecom":[{"system":"phone","value":"(+1) 972-766-6900"}],"address":[{"use":"billing","type":"postal","line":["P.O. Box 660044"],"city":"Dallas","state":"TX","postalCode":"75266-0044","country":"USA"}]},"request":{"method":"PUT","url":"Organization/710daa73-ec08-427a-916f-097a10152c55"}},{"fullUrl":"https://madie.cms.gov/MeasureReport/b2ba5f56-3c76-4445-854b-7aaf47d513ba","resource":{"resourceType":"MeasureReport","id":"b2ba5f56-3c76-4445-854b-7aaf47d513ba","meta":{"profile":["http://hl7.org/fhir/us/cqfmeasures/StructureDefinition/test-case-cqfm"]},"contained":[{"resourceType":"Parameters","id":"81a2d485-089f-4c9f-be34-2d6df968920e-parameters","parameter":[{"name":"subject","valueString":"6f0c3642-5efc-4923-ac24-9f5e9d1831d6"}]}],"extension":[{"url":"http://hl7.org/fhir/StructureDefinition/cqf-inputParameters","valueReference":{"reference":"#81a2d485-089f-4c9f-be34-2d6df968920e-parameters"}},{"url":"http://hl7.org/fhir/us/cqfmeasures/StructureDefinition/cqfm-testCaseDescription","valueMarkdown":"Adult, had amb enc first day of MP, has BMI high at 25 kg/m2, was discharge to hospice during MP"}],"modifierExtension":[{"url":"http://hl7.org/fhir/us/cqfmeasures/StructureDefinition/cqfm-isTestCase","valueBoolean":true}],"status":"complete","type":"individual","measure":"https://madie.cms.gov/Measure/CMS69FHIRPCSBMIScreenAndFollowUp","period":{"start":"2026-01-01","end":"2026-12-31"},"group":[{"id":"Group_1","population":[{"id":"InitialPopulation_1","code":{"coding":[{"system":"http://terminology.hl7.org/CodeSystem/measure-population","code":"initial-population","display":"Initial Population"}]},"count":1},{"id":"Denominator_1","code":{"coding":[{"system":"http://terminology.hl7.org/CodeSystem/measure-population","code":"denominator","display":"Denominator"}]},"count":1},{"id":"DenominatorExclusion_1","code":{"coding":[{"system":"http://terminology.hl7.org/CodeSystem/measure-population","code":"denominator-exclusion","display":"Denominator Exclusion"}]},"count":1},{"id":"Numerator_1","code":{"coding":[{"system":"http://terminology.hl7.org/CodeSystem/measure-population","code":"numerator","display":"Numerator"}]},"count":0},{"id":"DenominatorException_1","code":{"coding":[{"system":"http://terminology.hl7.org/CodeSystem/measure-population","code":"denominator-exception","display":"Denominator Exception"}]},"count":0}],"measureScore":{"value":1}}],"evaluatedResource":[{"reference":"Patient/6f0c3642-5efc-4923-ac24-9f5e9d1831d6"},{"reference":"Encounter/a4eb4973-8ad2-4533-9e77-ef77c64e4f1c"},{"reference":"Observation/ccd03fe2-89f6-4563-9cf1-5ae8999a990a"},{"reference":"Procedure/16607995-4ae4-4413-b905-30cbae9ca89e"},{"reference":"Encounter/281bf9a4-72b1-4a08-be0e-efad2be86aa5"},{"reference":"Coverage/11ce276d-b16b-477b-9902-11a4947907b9"},{"reference":"Organization/710daa73-ec08-427a-916f-097a10152c55"}]},"request":{"method":"PUT","url":"MeasureReport/b2ba5f56-3c76-4445-854b-7aaf47d513ba"}}]},"request":{"method":"PUT","url":"Bundle/62fbe4dbbf5132f90ee35d37"}},{"resource":{"resourceType":"Coverage","id":"11ce276d-b16b-477b-9902-11a4947907b9","meta":{"profile":["http://hl7.org/fhir/us/qicore/StructureDefinition/qicore-coverage"]},"status":"active","beneficiary":{"reference":"Patient/6f0c3642-5efc-4923-ac24-9f5e9d1831d6"},"payor":[{"reference":"Organization/710daa73-ec08-427a-916f-097a10152c55"}]},"request":{"method":"PUT","url":"Coverage/11ce276d-b16b-477b-9902-11a4947907b9"}},{"resource":{"resourceType":"Encounter","id":"281bf9a4-72b1-4a08-be0e-efad2be86aa5","meta":{"profile":["http://hl7.org/fhir/us/qicore/StructureDefinition/qicore-encounter"]},"status":"finished","class":{"system":"http://terminology.hl7.org/CodeSystem/v3-ActCode","code":"AMB","display":"ambulatory"},"type":[{"coding":[{"system":"http://snomed.info/sct","version":"2022-03","code":"183452005","display":"Emergency hospital admission (procedure)","userSelected":true}]}],"subject":{"reference":"Patient/6f0c3642-5efc-4923-ac24-9f5e9d1831d6"},"period":{"start":"2026-02-26T08:00:00.000+00:00","end":"2026-03-01T08:15:00.000+00:00"},"hospitalization":{"dischargeDisposition":{"coding":[{"system":"http://snomed.info/sct","code":"428361000124107","display":"Discharge to home for hospice care (procedure)","userSelected":true}]}}},"request":{"method":"PUT","url":"Encounter/281bf9a4-72b1-4a08-be0e-efad2be86aa5"}},{"resource":{"resourceType":"Encounter","id":"a4eb4973-8ad2-4533-9e77-ef77c64e4f1c","meta":{"profile":["http://hl7.org/fhir/us/qicore/StructureDefinition/qicore-encounter"]},"status":"finished","class":{"system":"http://terminology.hl7.org/CodeSystem/v3-ActCode","code":"AMB","display":"ambulatory"},"type":[{"coding":[{"system":"http://snomed.info/sct","version":"2022-03","code":"10197000","display":"Psychiatric interview and evaluation (procedure)","userSelected":true}]}],"subject":{"reference":"Patient/6f0c3642-5efc-4923-ac24-9f5e9d1831d6"},"period":{"start":"2026-01-01T00:00:00.000+00:00","end":"2026-01-01T00:30:00.000+00:00"}},"request":{"method":"PUT","url":"Encounter/a4eb4973-8ad2-4533-9e77-ef77c64e4f1c"}},{"resource":{"resourceType":"MeasureReport","id":"b2ba5f56-3c76-4445-854b-7aaf47d513ba","meta":{"profile":["http://hl7.org/fhir/us/cqfmeasures/StructureDefinition/test-case-cqfm"]},"contained":[{"resourceType":"Parameters","id":"81a2d485-089f-4c9f-be34-2d6df968920e-parameters","parameter":[{"name":"subject","valueString":"6f0c3642-5efc-4923-ac24-9f5e9d1831d6"}]}],"extension":[{"url":"http://hl7.org/fhir/StructureDefinition/cqf-inputParameters","valueReference":{"reference":"#81a2d485-089f-4c9f-be34-2d6df968920e-parameters"}},{"url":"http://hl7.org/fhir/us/cqfmeasures/StructureDefinition/cqfm-testCaseDescription","valueMarkdown":"Adult, had amb enc first day of MP, has BMI high at 25 kg/m2, was discharge to hospice during MP"}],"modifierExtension":[{"url":"http://hl7.org/fhir/us/cqfmeasures/StructureDefinition/cqfm-isTestCase","valueBoolean":true}],"status":"complete","type":"individual","measure":"https://madie.cms.gov/Measure/CMS69FHIRPCSBMIScreenAndFollowUp","period":{"start":"2026-01-01","end":"2026-12-31"},"group":[{"id":"Group_1","population":[{"id":"InitialPopulation_1","code":{"coding":[{"system":"http://terminology.hl7.org/CodeSystem/measure-population","code":"initial-population","display":"Initial Population"}]},"count":1},{"id":"Denominator_1","code":{"coding":[{"system":"http://terminology.hl7.org/CodeSystem/measure-population","code":"denominator","display":"Denominator"}]},"count":1},{"id":"DenominatorExclusion_1","code":{"coding":[{"system":"http://terminology.hl7.org/CodeSystem/measure-population","code":"denominator-exclusion","display":"Denominator Exclusion"}]},"count":1},{"id":"Numerator_1","code":{"coding":[{"system":"http://terminology.hl7.org/CodeSystem/measure-population","code":"numerator","display":"Numerator"}]},"count":0},{"id":"DenominatorException_1","code":{"coding":[{"system":"http://terminology.hl7.org/CodeSystem/measure-population","code":"denominator-exception","display":"Denominator Exception"}]},"count":0}],"measureScore":{"value":1}}],"evaluatedResource":[{"reference":"Patient/6f0c3642-5efc-4923-ac24-9f5e9d1831d6"},{"reference":"Encounter/a4eb4973-8ad2-4533-9e77-ef77c64e4f1c"},{"reference":"Observation/ccd03fe2-89f6-4563-9cf1-5ae8999a990a"},{"reference":"Procedure/16607995-4ae4-4413-b905-30cbae9ca89e"},{"reference":"Encounter/281bf9a4-72b1-4a08-be0e-efad2be86aa5"},{"reference":"Coverage/11ce276d-b16b-477b-9902-11a4947907b9"},{"reference":"Organization/710daa73-ec08-427a-916f-097a10152c55"}]},"request":{"method":"PUT","url":"MeasureReport/b2ba5f56-3c76-4445-854b-7aaf47d513ba"}},{"resource":{"resourceType":"Observation","id":"ccd03fe2-89f6-4563-9cf1-5ae8999a990a","meta":{"profile":["http://hl7.org/fhir/us/core/StructureDefinition/us-core-bmi"]},"status":"final","category":[{"coding":[{"system":"http://terminology.hl7.org/CodeSystem/observation-category","code":"vital-signs","display":"Vital Signs"}]}],"code":{"coding":[{"system":"http://loinc.org","code":"39156-5","display":"Body mass index (BMI) [Ratio]","userSelected":true}]},"subject":{"reference":"Patient/6f0c3642-5efc-4923-ac24-9f5e9d1831d6"},"effectiveDateTime":"2026-01-01T00:30:00.000+00:00","valueQuantity":{"value":25,"unit":"kg/m2","system":"http://unitsofmeasure.org","code":"kg/m2"}},"request":{"method":"PUT","url":"Observation/ccd03fe2-89f6-4563-9cf1-5ae8999a990a"}},{"resource":{"resourceType":"Organization","id":"710daa73-ec08-427a-916f-097a10152c55","meta":{"profile":["http://hl7.org/fhir/us/qicore/StructureDefinition/qicore-organization"]},"identifier":[{"use":"temp","system":"urn:oid:2.16.840.1.113883.4.4","value":"21-3259825"}],"active":true,"type":[{"coding":[{"system":"http://terminology.hl7.org/CodeSystem/organization-type","code":"pay","display":"Payer"}]}],"name":"Blue Cross Blue Shield of Texas","telecom":[{"system":"phone","value":"(+1) 972-766-6900"}],"address":[{"use":"billing","type":"postal","line":["P.O. Box 660044"],"city":"Dallas","state":"TX","postalCode":"75266-0044","country":"USA"}]},"request":{"method":"PUT","url":"Organization/710daa73-ec08-427a-916f-097a10152c55"}},{"resource":{"resourceType":"Patient","id":"6f0c3642-5efc-4923-ac24-9f5e9d1831d6","meta":{"profile":["http://hl7.org/fhir/us/qicore/StructureDefinition/qicore-patient"]},"extension":[{"url":"http://hl7.org/fhir/us/core/StructureDefinition/us-core-race","extension":[{"url":"ombCategory","valueCoding":{"system":"urn:oid:2.16.840.1.113883.6.238","code":"2054-5","display":"Black or African American","userSelected":true}},{"url":"text","valueString":"Black or African American"}]},{"url":"http://hl7.org/fhir/us/core/StructureDefinition/us-core-ethnicity","extension":[{"url":"ombCategory","valueCoding":{"system":"urn:oid:2.16.840.1.113883.6.238","code":"2186-5","display":"Not Hispanic or Latino","userSelected":true}},{"url":"text","valueString":"Not Hispanic or Latino"}]}],"identifier":[{"type":{"coding":[{"system":"http://terminology.hl7.org/CodeSystem/v2-0203","code":"MR"}]},"system":"https://bonnie-fhir.healthit.gov/","value":"62fbe4dbbf5132f90ee35d37"}],"name":[{"family":"DENEXFail","given":["DischargeToHospiceFacilityAfterMP"]}],"gender":"male","birthDate":"1946-10-15"},"request":{"method":"PUT","url":"Patient/6f0c3642-5efc-4923-ac24-9f5e9d1831d6"}},{"resource":{"resourceType":"Procedure","id":"16607995-4ae4-4413-b905-30cbae9ca89e","meta":{"profile":["http://hl7.org/fhir/us/qicore/StructureDefinition/qicore-procedure"]},"extension":[{"url":"http://hl7.org/fhir/us/qicore/StructureDefinition/qicore-recorded","valueDateTime":"2026-01-01T00:30:00.000+00:00"}],"status":"completed","code":{"coding":[{"system":"http://snomed.info/sct","version":"2022-03","code":"182922004","display":"Dietary regime (regime/therapy)","userSelected":true}]},"subject":{"reference":"Patient/6f0c3642-5efc-4923-ac24-9f5e9d1831d6"},"performedDateTime":"2026-01-01T00:30:00.000+00:00","reasonCode":[{"coding":[{"system":"http://hl7.org/fhir/sid/icd-10-cm","code":"E66.01","display":"Morbid (severe) obesity due to excess calories","userSelected":true}]}]},"request":{"method":"PUT","url":"Procedure/16607995-4ae4-4413-b905-30cbae9ca89e"}}]}