{"resourceType":"Bundle","id":"tests-0278fdf0-f067-46e8-aeb1-fb96dff3c947-bundle","type":"transaction","entry":[{"resource":{"resourceType":"Bundle","id":"62d061a9f924c8924458d151","type":"transaction","entry":[{"fullUrl":"https://madie.cms.gov/Patient/0278fdf0-f067-46e8-aeb1-fb96dff3c947","resource":{"resourceType":"Patient","id":"0278fdf0-f067-46e8-aeb1-fb96dff3c947","meta":{"profile":["http://hl7.org/fhir/us/qicore/StructureDefinition/qicore-patient"]},"extension":[{"url":"http://hl7.org/fhir/us/core/StructureDefinition/us-core-race","extension":[{"url":"ombCategory","valueCoding":{"system":"urn:oid:2.16.840.1.113883.6.238","code":"2054-5","display":"Black or African American","userSelected":true}},{"url":"text","valueString":"Black or African American"}]},{"url":"http://hl7.org/fhir/us/core/StructureDefinition/us-core-ethnicity","extension":[{"url":"ombCategory","valueCoding":{"system":"urn:oid:2.16.840.1.113883.6.238","code":"2135-2","display":"Hispanic or Latino","userSelected":true}},{"url":"text","valueString":"Hispanic or Latino"}]},{"url":"http://hl7.org/fhir/us/core/StructureDefinition/us-core-sex","valueCode":"248153007"}],"identifier":[{"type":{"coding":[{"system":"http://terminology.hl7.org/CodeSystem/v2-0203","code":"MR"}]},"system":"https://bonnie-fhir.healthit.gov/","value":"62d061a9f924c8924458d151"}],"name":[{"family":"DENEXCEPPass","given":["HTN130DeclinedNonPharm"]}],"gender":"male","birthDate":"2006-01-31"},"request":{"method":"PUT","url":"Patient/0278fdf0-f067-46e8-aeb1-fb96dff3c947"}},{"fullUrl":"https://madie.cms.gov/Encounter/8bfc081f-8b61-40b6-8afd-63a8edf4650b","resource":{"resourceType":"Encounter","id":"8bfc081f-8b61-40b6-8afd-63a8edf4650b","meta":{"profile":["http://hl7.org/fhir/us/qicore/StructureDefinition/qicore-encounter"]},"status":"finished","class":{"system":"http://terminology.hl7.org/CodeSystem/v3-ActCode","code":"AMB","display":"ambulatory"},"type":[{"coding":[{"system":"http://snomed.info/sct","version":"2022-03","code":"185465003","display":"Weekend visit (procedure)","userSelected":true}]}],"subject":{"reference":"Patient/0278fdf0-f067-46e8-aeb1-fb96dff3c947"},"period":{"start":"2026-01-01T08:00:00.000+00:00","end":"2026-01-01T08:30:00.000+00:00"}},"request":{"method":"PUT","url":"Encounter/8bfc081f-8b61-40b6-8afd-63a8edf4650b"}},{"fullUrl":"https://madie.cms.gov/Observation/000bf07b-5b21-44da-9959-b31e3f254c03","resource":{"resourceType":"Observation","id":"000bf07b-5b21-44da-9959-b31e3f254c03","meta":{"profile":["http://hl7.org/fhir/StructureDefinition/bp"]},"status":"final","category":[{"coding":[{"system":"http://terminology.hl7.org/CodeSystem/observation-category","code":"vital-signs","display":"Vital Signs"}],"text":"Vital Signs"}],"code":{"coding":[{"system":"http://loinc.org","code":"85354-9","display":"Blood pressure panel"}]},"subject":{"reference":"Patient/0278fdf0-f067-46e8-aeb1-fb96dff3c947"},"effectiveDateTime":"2026-01-01T08:29:00.000Z","component":[{"code":{"coding":[{"system":"http://loinc.org","code":"8480-6","display":"Systolic blood pressure"}]},"valueQuantity":{"value":130,"unit":"mmHg","system":"http://unitsofmeasure.org","code":"mm[Hg]"}},{"code":{"coding":[{"system":"http://loinc.org","code":"8462-4","display":"Diastolic blood pressure"}]},"valueQuantity":{"value":79,"unit":"mmHg","system":"http://unitsofmeasure.org","code":"mm[Hg]"}}]},"request":{"method":"PUT","url":"Observation/000bf07b-5b21-44da-9959-b31e3f254c03"}},{"fullUrl":"https://madie.cms.gov/ServiceRequest/f78ce1cf-4c21-466b-abfd-917a039cdd38","resource":{"resourceType":"ServiceRequest","id":"f78ce1cf-4c21-466b-abfd-917a039cdd38","meta":{"profile":["http://hl7.org/fhir/us/qicore/StructureDefinition/qicore-servicenotrequested"]},"extension":[{"url":"http://hl7.org/fhir/us/qicore/StructureDefinition/qicore-doNotPerformReason","valueCodeableConcept":{"coding":[{"system":"http://snomed.info/sct","code":"407563006","display":"Treatment not tolerated (situation)","userSelected":true}]}}],"status":"completed","intent":"order","doNotPerform":true,"code":{"coding":[{"system":"http://snomed.info/sct","version":"2022-03","code":"386292004","display":"Exercise promotion: stretching (procedure)","userSelected":true}]},"subject":{"reference":"Patient/0278fdf0-f067-46e8-aeb1-fb96dff3c947"},"authoredOn":"2026-01-01T08:01:00.000+00:00"},"request":{"method":"PUT","url":"ServiceRequest/f78ce1cf-4c21-466b-abfd-917a039cdd38"}},{"fullUrl":"https://madie.cms.gov/Coverage/8b67a7df-82ff-4bc8-a510-7701b7a6ddd7","resource":{"resourceType":"Coverage","id":"8b67a7df-82ff-4bc8-a510-7701b7a6ddd7","meta":{"profile":["http://hl7.org/fhir/us/qicore/StructureDefinition/qicore-coverage"]},"status":"active","beneficiary":{"reference":"Patient/0278fdf0-f067-46e8-aeb1-fb96dff3c947"},"payor":[{"reference":"Organization/9ee6819b-e95a-4997-aa59-e10a03348d79"}]},"request":{"method":"PUT","url":"Coverage/8b67a7df-82ff-4bc8-a510-7701b7a6ddd7"}},{"fullUrl":"https://madie.cms.gov/Organization/9ee6819b-e95a-4997-aa59-e10a03348d79","resource":{"resourceType":"Organization","id":"9ee6819b-e95a-4997-aa59-e10a03348d79","meta":{"profile":["http://hl7.org/fhir/us/qicore/StructureDefinition/qicore-organization"]},"identifier":[{"use":"temp","system":"urn:oid:2.16.840.1.113883.4.4","value":"21-3259825"}],"active":true,"type":[{"coding":[{"system":"http://terminology.hl7.org/CodeSystem/organization-type","code":"pay","display":"Payer"}]}],"name":"Blue Cross Blue Shield of Texas","telecom":[{"system":"phone","value":"(+1) 972-766-6900"}],"address":[{"use":"billing","type":"postal","line":["P.O. Box 660044"],"city":"Dallas","state":"TX","postalCode":"75266-0044","country":"USA"}]},"request":{"method":"PUT","url":"Organization/9ee6819b-e95a-4997-aa59-e10a03348d79"}},{"fullUrl":"https://madie.cms.gov/Practitioner/60ea7fa0-8902-4503-b4f6-8dae13f808f7","resource":{"resourceType":"Practitioner","id":"60ea7fa0-8902-4503-b4f6-8dae13f808f7","meta":{"profile":["http://hl7.org/fhir/us/qicore/StructureDefinition/qicore-practitioner"]},"identifier":[{"system":"http://hl7.org/fhir/sid/us-npi","value":"123456"}],"name":[{"family":"Evil","prefix":["Dr"]}]},"request":{"method":"PUT","url":"Practitioner/60ea7fa0-8902-4503-b4f6-8dae13f808f7"}},{"fullUrl":"https://madie.cms.gov/MeasureReport/b602bf59-2b4b-45bc-a8c4-5a0733a2db85","resource":{"resourceType":"MeasureReport","id":"b602bf59-2b4b-45bc-a8c4-5a0733a2db85","meta":{"profile":["http://hl7.org/fhir/us/cqfmeasures/StructureDefinition/test-case-cqfm"]},"contained":[{"resourceType":"Parameters","id":"7590c5e2-f1a1-4612-851d-0a7257f4f57a-parameters","parameter":[{"name":"subject","valueString":"0278fdf0-f067-46e8-aeb1-fb96dff3c947"}]}],"extension":[{"url":"http://hl7.org/fhir/StructureDefinition/cqf-inputParameters","valueReference":{"reference":"#7590c5e2-f1a1-4612-851d-0a7257f4f57a-parameters"}},{"url":"http://hl7.org/fhir/us/cqfmeasures/StructureDefinition/cqfm-testCaseDescription","valueMarkdown":"Enc. 01/01 0800-0830 during MP, age 20, BP 130/79 at 0829, declined recommendation to exercise."}],"modifierExtension":[{"url":"http://hl7.org/fhir/us/cqfmeasures/StructureDefinition/cqfm-isTestCase","valueBoolean":true}],"status":"complete","type":"individual","measure":"https://madie.cms.gov/Measure/CMS69FHIRPCSBMIScreenAndFollowUp","period":{"start":"2026-01-01","end":"2026-12-31"},"group":[{"id":"Group_1","population":[{"id":"InitialPopulation_1","code":{"coding":[{"system":"http://terminology.hl7.org/CodeSystem/measure-population","code":"initial-population","display":"Initial Population"}]},"count":1},{"id":"Denominator_1","code":{"coding":[{"system":"http://terminology.hl7.org/CodeSystem/measure-population","code":"denominator","display":"Denominator"}]},"count":1},{"id":"DenominatorExclusion_1","code":{"coding":[{"system":"http://terminology.hl7.org/CodeSystem/measure-population","code":"denominator-exclusion","display":"Denominator Exclusion"}]},"count":0},{"id":"Numerator_1","code":{"coding":[{"system":"http://terminology.hl7.org/CodeSystem/measure-population","code":"numerator","display":"Numerator"}]},"count":0},{"id":"DenominatorException_1","code":{"coding":[{"system":"http://terminology.hl7.org/CodeSystem/measure-population","code":"denominator-exception","display":"Denominator Exception"}]},"count":1}],"measureScore":{"value":1}}],"evaluatedResource":[{"reference":"Patient/0278fdf0-f067-46e8-aeb1-fb96dff3c947"},{"reference":"Encounter/8bfc081f-8b61-40b6-8afd-63a8edf4650b"},{"reference":"Observation/000bf07b-5b21-44da-9959-b31e3f254c03"},{"reference":"ServiceRequest/f78ce1cf-4c21-466b-abfd-917a039cdd38"},{"reference":"Coverage/8b67a7df-82ff-4bc8-a510-7701b7a6ddd7"},{"reference":"Organization/9ee6819b-e95a-4997-aa59-e10a03348d79"},{"reference":"Practitioner/60ea7fa0-8902-4503-b4f6-8dae13f808f7"}]},"request":{"method":"PUT","url":"MeasureReport/b602bf59-2b4b-45bc-a8c4-5a0733a2db85"}}]},"request":{"method":"PUT","url":"Bundle/62d061a9f924c8924458d151"}},{"resource":{"resourceType":"Coverage","id":"8b67a7df-82ff-4bc8-a510-7701b7a6ddd7","meta":{"profile":["http://hl7.org/fhir/us/qicore/StructureDefinition/qicore-coverage"]},"status":"active","beneficiary":{"reference":"Patient/0278fdf0-f067-46e8-aeb1-fb96dff3c947"},"payor":[{"reference":"Organization/9ee6819b-e95a-4997-aa59-e10a03348d79"}]},"request":{"method":"PUT","url":"Coverage/8b67a7df-82ff-4bc8-a510-7701b7a6ddd7"}},{"resource":{"resourceType":"Encounter","id":"8bfc081f-8b61-40b6-8afd-63a8edf4650b","meta":{"profile":["http://hl7.org/fhir/us/qicore/StructureDefinition/qicore-encounter"]},"status":"finished","class":{"system":"http://terminology.hl7.org/CodeSystem/v3-ActCode","code":"AMB","display":"ambulatory"},"type":[{"coding":[{"system":"http://snomed.info/sct","version":"2022-03","code":"185465003","display":"Weekend visit (procedure)","userSelected":true}]}],"subject":{"reference":"Patient/0278fdf0-f067-46e8-aeb1-fb96dff3c947"},"period":{"start":"2026-01-01T08:00:00.000+00:00","end":"2026-01-01T08:30:00.000+00:00"}},"request":{"method":"PUT","url":"Encounter/8bfc081f-8b61-40b6-8afd-63a8edf4650b"}},{"resource":{"resourceType":"MeasureReport","id":"b602bf59-2b4b-45bc-a8c4-5a0733a2db85","meta":{"profile":["http://hl7.org/fhir/us/cqfmeasures/StructureDefinition/test-case-cqfm"]},"contained":[{"resourceType":"Parameters","id":"7590c5e2-f1a1-4612-851d-0a7257f4f57a-parameters","parameter":[{"name":"subject","valueString":"0278fdf0-f067-46e8-aeb1-fb96dff3c947"}]}],"extension":[{"url":"http://hl7.org/fhir/StructureDefinition/cqf-inputParameters","valueReference":{"reference":"#7590c5e2-f1a1-4612-851d-0a7257f4f57a-parameters"}},{"url":"http://hl7.org/fhir/us/cqfmeasures/StructureDefinition/cqfm-testCaseDescription","valueMarkdown":"Enc. 01/01 0800-0830 during MP, age 20, BP 130/79 at 0829, declined recommendation to exercise."}],"modifierExtension":[{"url":"http://hl7.org/fhir/us/cqfmeasures/StructureDefinition/cqfm-isTestCase","valueBoolean":true}],"status":"complete","type":"individual","measure":"https://madie.cms.gov/Measure/CMS69FHIRPCSBMIScreenAndFollowUp","period":{"start":"2026-01-01","end":"2026-12-31"},"group":[{"id":"Group_1","population":[{"id":"InitialPopulation_1","code":{"coding":[{"system":"http://terminology.hl7.org/CodeSystem/measure-population","code":"initial-population","display":"Initial Population"}]},"count":1},{"id":"Denominator_1","code":{"coding":[{"system":"http://terminology.hl7.org/CodeSystem/measure-population","code":"denominator","display":"Denominator"}]},"count":1},{"id":"DenominatorExclusion_1","code":{"coding":[{"system":"http://terminology.hl7.org/CodeSystem/measure-population","code":"denominator-exclusion","display":"Denominator Exclusion"}]},"count":0},{"id":"Numerator_1","code":{"coding":[{"system":"http://terminology.hl7.org/CodeSystem/measure-population","code":"numerator","display":"Numerator"}]},"count":0},{"id":"DenominatorException_1","code":{"coding":[{"system":"http://terminology.hl7.org/CodeSystem/measure-population","code":"denominator-exception","display":"Denominator Exception"}]},"count":1}],"measureScore":{"value":1}}],"evaluatedResource":[{"reference":"Patient/0278fdf0-f067-46e8-aeb1-fb96dff3c947"},{"reference":"Encounter/8bfc081f-8b61-40b6-8afd-63a8edf4650b"},{"reference":"Observation/000bf07b-5b21-44da-9959-b31e3f254c03"},{"reference":"ServiceRequest/f78ce1cf-4c21-466b-abfd-917a039cdd38"},{"reference":"Coverage/8b67a7df-82ff-4bc8-a510-7701b7a6ddd7"},{"reference":"Organization/9ee6819b-e95a-4997-aa59-e10a03348d79"},{"reference":"Practitioner/60ea7fa0-8902-4503-b4f6-8dae13f808f7"}]},"request":{"method":"PUT","url":"MeasureReport/b602bf59-2b4b-45bc-a8c4-5a0733a2db85"}},{"resource":{"resourceType":"Observation","id":"000bf07b-5b21-44da-9959-b31e3f254c03","meta":{"profile":["http://hl7.org/fhir/StructureDefinition/bp"]},"status":"final","category":[{"coding":[{"system":"http://terminology.hl7.org/CodeSystem/observation-category","code":"vital-signs","display":"Vital Signs"}],"text":"Vital Signs"}],"code":{"coding":[{"system":"http://loinc.org","code":"85354-9","display":"Blood pressure panel"}]},"subject":{"reference":"Patient/0278fdf0-f067-46e8-aeb1-fb96dff3c947"},"effectiveDateTime":"2026-01-01T08:29:00.000Z","component":[{"code":{"coding":[{"system":"http://loinc.org","code":"8480-6","display":"Systolic blood pressure"}]},"valueQuantity":{"value":130,"unit":"mmHg","system":"http://unitsofmeasure.org","code":"mm[Hg]"}},{"code":{"coding":[{"system":"http://loinc.org","code":"8462-4","display":"Diastolic blood pressure"}]},"valueQuantity":{"value":79,"unit":"mmHg","system":"http://unitsofmeasure.org","code":"mm[Hg]"}}]},"request":{"method":"PUT","url":"Observation/000bf07b-5b21-44da-9959-b31e3f254c03"}},{"resource":{"resourceType":"Organization","id":"9ee6819b-e95a-4997-aa59-e10a03348d79","meta":{"profile":["http://hl7.org/fhir/us/qicore/StructureDefinition/qicore-organization"]},"identifier":[{"use":"temp","system":"urn:oid:2.16.840.1.113883.4.4","value":"21-3259825"}],"active":true,"type":[{"coding":[{"system":"http://terminology.hl7.org/CodeSystem/organization-type","code":"pay","display":"Payer"}]}],"name":"Blue Cross Blue Shield of Texas","telecom":[{"system":"phone","value":"(+1) 972-766-6900"}],"address":[{"use":"billing","type":"postal","line":["P.O. Box 660044"],"city":"Dallas","state":"TX","postalCode":"75266-0044","country":"USA"}]},"request":{"method":"PUT","url":"Organization/9ee6819b-e95a-4997-aa59-e10a03348d79"}},{"resource":{"resourceType":"Patient","id":"0278fdf0-f067-46e8-aeb1-fb96dff3c947","meta":{"profile":["http://hl7.org/fhir/us/qicore/StructureDefinition/qicore-patient"]},"extension":[{"url":"http://hl7.org/fhir/us/core/StructureDefinition/us-core-race","extension":[{"url":"ombCategory","valueCoding":{"system":"urn:oid:2.16.840.1.113883.6.238","code":"2054-5","display":"Black or African American","userSelected":true}},{"url":"text","valueString":"Black or African American"}]},{"url":"http://hl7.org/fhir/us/core/StructureDefinition/us-core-ethnicity","extension":[{"url":"ombCategory","valueCoding":{"system":"urn:oid:2.16.840.1.113883.6.238","code":"2135-2","display":"Hispanic or Latino","userSelected":true}},{"url":"text","valueString":"Hispanic or Latino"}]},{"url":"http://hl7.org/fhir/us/core/StructureDefinition/us-core-sex","valueCode":"248153007"}],"identifier":[{"type":{"coding":[{"system":"http://terminology.hl7.org/CodeSystem/v2-0203","code":"MR"}]},"system":"https://bonnie-fhir.healthit.gov/","value":"62d061a9f924c8924458d151"}],"name":[{"family":"DENEXCEPPass","given":["HTN130DeclinedNonPharm"]}],"gender":"male","birthDate":"2006-01-31"},"request":{"method":"PUT","url":"Patient/0278fdf0-f067-46e8-aeb1-fb96dff3c947"}},{"resource":{"resourceType":"Practitioner","id":"60ea7fa0-8902-4503-b4f6-8dae13f808f7","meta":{"profile":["http://hl7.org/fhir/us/qicore/StructureDefinition/qicore-practitioner"]},"identifier":[{"system":"http://hl7.org/fhir/sid/us-npi","value":"123456"}],"name":[{"family":"Evil","prefix":["Dr"]}]},"request":{"method":"PUT","url":"Practitioner/60ea7fa0-8902-4503-b4f6-8dae13f808f7"}},{"resource":{"resourceType":"ServiceRequest","id":"f78ce1cf-4c21-466b-abfd-917a039cdd38","meta":{"profile":["http://hl7.org/fhir/us/qicore/StructureDefinition/qicore-servicenotrequested"]},"extension":[{"url":"http://hl7.org/fhir/us/qicore/StructureDefinition/qicore-doNotPerformReason","valueCodeableConcept":{"coding":[{"system":"http://snomed.info/sct","code":"407563006","display":"Treatment not tolerated (situation)","userSelected":true}]}}],"status":"completed","intent":"order","doNotPerform":true,"code":{"coding":[{"system":"http://snomed.info/sct","version":"2022-03","code":"386292004","display":"Exercise promotion: stretching (procedure)","userSelected":true}]},"subject":{"reference":"Patient/0278fdf0-f067-46e8-aeb1-fb96dff3c947"},"authoredOn":"2026-01-01T08:01:00.000+00:00"},"request":{"method":"PUT","url":"ServiceRequest/f78ce1cf-4c21-466b-abfd-917a039cdd38"}}]}