{"resourceType":"Bundle","id":"tests-d3054ffa-e17b-4611-b7e0-4523fb0f9e1d-bundle","type":"transaction","entry":[{"fullUrl":"MeasureReport/5673f034-d47c-43b8-9c81-94595be123ad","resource":{"resourceType":"MeasureReport","id":"5673f034-d47c-43b8-9c81-94595be123ad","meta":{"profile":["http://hl7.org/fhir/us/cqfmeasures/StructureDefinition/test-case-cqfm"]},"contained":[{"resourceType":"Parameters","id":"fc45fc80-43d7-4770-b1ef-15797f4d642a-parameters","parameter":[{"name":"subject","valueString":"d3054ffa-e17b-4611-b7e0-4523fb0f9e1d"}]}],"extension":[{"url":"http://hl7.org/fhir/StructureDefinition/cqf-inputParameters","valueReference":{"reference":"#fc45fc80-43d7-4770-b1ef-15797f4d642a-parameters"}},{"url":"http://hl7.org/fhir/us/cqfmeasures/StructureDefinition/cqfm-testCaseDescription","valueMarkdown":"Enc last day of MP as well as BMI which results 16 kg/m2, dx underweight onset 1/2023 now \"inactive\" 7/24/2024, dietary order 7/25/2024, expected to fail numer d/t intervention after the fact."}],"modifierExtension":[{"url":"http://hl7.org/fhir/us/cqfmeasures/StructureDefinition/cqfm-isTestCase","valueBoolean":true}],"status":"complete","type":"individual","measure":"https://madie.cms.gov/Measure/CMS69FHIRPCSBMIScreenAndFollowUp","period":{"start":"2026-01-01","end":"2026-12-31"},"group":[{"id":"Group_1","population":[{"id":"InitialPopulation_1","code":{"coding":[{"system":"http://terminology.hl7.org/CodeSystem/measure-population","code":"initial-population","display":"Initial Population"}]},"count":1},{"id":"Denominator_1","code":{"coding":[{"system":"http://terminology.hl7.org/CodeSystem/measure-population","code":"denominator","display":"Denominator"}]},"count":1},{"id":"DenominatorExclusion_1","code":{"coding":[{"system":"http://terminology.hl7.org/CodeSystem/measure-population","code":"denominator-exclusion","display":"Denominator Exclusion"}]},"count":0},{"id":"Numerator_1","code":{"coding":[{"system":"http://terminology.hl7.org/CodeSystem/measure-population","code":"numerator","display":"Numerator"}]},"count":0},{"id":"DenominatorException_1","code":{"coding":[{"system":"http://terminology.hl7.org/CodeSystem/measure-population","code":"denominator-exception","display":"Denominator Exception"}]},"count":0}],"measureScore":{"value":1.0}}],"evaluatedResource":[{"reference":"Patient/d3054ffa-e17b-4611-b7e0-4523fb0f9e1d"},{"reference":"Encounter/4c77740f-3be4-4ab3-ae32-d05fa04eca94"},{"reference":"Observation/99400e95-d948-44f7-9e4d-002b9f5fe5c5"},{"reference":"Condition/29743e0c-9748-49ac-adf2-4c63eb921a8a"},{"reference":"ServiceRequest/cc705ca9-5753-4aa8-b8ee-a053a5e05d56"},{"reference":"Coverage/3ff96048-562d-4ea2-8bf5-de1bef037521"},{"reference":"Organization/11c6473d-c2d0-4e56-b66a-d31aeddcaded"}]},"request":{"method":"PUT","url":"MeasureReport/5673f034-d47c-43b8-9c81-94595be123ad"}},{"fullUrl":"Bundle/62df233e0056b6e23ec6759e","resource":{"resourceType":"Bundle","id":"62df233e0056b6e23ec6759e","type":"transaction","entry":[{"fullUrl":"https://madie.cms.gov/Patient/d3054ffa-e17b-4611-b7e0-4523fb0f9e1d","resource":{"resourceType":"Patient","id":"d3054ffa-e17b-4611-b7e0-4523fb0f9e1d","meta":{"profile":["http://hl7.org/fhir/us/qicore/StructureDefinition/qicore-patient"]},"extension":[{"url":"http://hl7.org/fhir/us/core/StructureDefinition/us-core-race","extension":[{"url":"ombCategory","valueCoding":{"system":"urn:oid:2.16.840.1.113883.6.238","code":"2106-3","display":"White","userSelected":true}},{"url":"text","valueString":"White"}]},{"url":"http://hl7.org/fhir/us/core/StructureDefinition/us-core-ethnicity","extension":[{"url":"ombCategory","valueCoding":{"system":"urn:oid:2.16.840.1.113883.6.238","code":"2186-5","display":"Not Hispanic or Latino","userSelected":true}},{"url":"text","valueString":"Not Hispanic or Latino"}]}],"identifier":[{"type":{"coding":[{"system":"http://terminology.hl7.org/CodeSystem/v2-0203","code":"MR"}]},"system":"https://bonnie-fhir.healthit.gov/","value":"62df233e0056b6e23ec6759e"}],"name":[{"family":"NUMERFail","given":["LowBMIAndInterventionOrderedFollowUpConditionEndsB4InterventionOrder"]}],"gender":"unknown","birthDate":"1957-11-07"},"request":{"method":"PUT","url":"Patient/d3054ffa-e17b-4611-b7e0-4523fb0f9e1d"}},{"fullUrl":"https://madie.cms.gov/Encounter/4c77740f-3be4-4ab3-ae32-d05fa04eca94","resource":{"resourceType":"Encounter","id":"4c77740f-3be4-4ab3-ae32-d05fa04eca94","meta":{"profile":["http://hl7.org/fhir/us/qicore/StructureDefinition/qicore-encounter"]},"status":"finished","class":{"system":"http://terminology.hl7.org/CodeSystem/v3-ActCode","code":"AMB","display":"ambulatory"},"type":[{"coding":[{"system":"http://snomed.info/sct","version":"2022-03","code":"10197000","display":"Psychiatric interview and evaluation (procedure)","userSelected":true}]}],"subject":{"reference":"Patient/d3054ffa-e17b-4611-b7e0-4523fb0f9e1d"},"period":{"start":"2026-12-31T23:30:00.000+00:00","end":"2026-12-31T23:59:00.000+00:00"}},"request":{"method":"PUT","url":"Encounter/4c77740f-3be4-4ab3-ae32-d05fa04eca94"}},{"fullUrl":"https://madie.cms.gov/Observation/99400e95-d948-44f7-9e4d-002b9f5fe5c5","resource":{"resourceType":"Observation","id":"99400e95-d948-44f7-9e4d-002b9f5fe5c5","meta":{"profile":["http://hl7.org/fhir/us/core/StructureDefinition/us-core-bmi"]},"status":"amended","category":[{"coding":[{"system":"http://terminology.hl7.org/CodeSystem/observation-category","code":"vital-signs","display":"Vital Signs"}]}],"code":{"coding":[{"system":"http://loinc.org","code":"39156-5","display":"Body mass index (BMI) [Ratio]","userSelected":true}]},"subject":{"reference":"Patient/d3054ffa-e17b-4611-b7e0-4523fb0f9e1d"},"effectiveDateTime":"2026-12-31T23:59:00.000+00:00","valueQuantity":{"value":17,"unit":"kg/m2","system":"http://unitsofmeasure.org","code":"kg/m2"}},"request":{"method":"PUT","url":"Observation/99400e95-d948-44f7-9e4d-002b9f5fe5c5"}},{"fullUrl":"https://madie.cms.gov/Condition/29743e0c-9748-49ac-adf2-4c63eb921a8a","resource":{"resourceType":"Condition","id":"29743e0c-9748-49ac-adf2-4c63eb921a8a","meta":{"profile":["http://hl7.org/fhir/us/qicore/StructureDefinition/qicore-condition-problems-health-concerns"]},"clinicalStatus":{"coding":[{"system":"http://terminology.hl7.org/CodeSystem/condition-clinical","code":"inactive","display":"active","userSelected":true}]},"category":[{"coding":[{"system":"http://terminology.hl7.org/CodeSystem/condition-category","code":"problem-list-item","display":"Problem List Item"},{"system":"http://snomed.info/sct","code":"439401001","display":"Diagnosis"}]}],"code":{"coding":[{"system":"http://snomed.info/sct","version":"2022-03","code":"248342006","display":"Underweight (finding)","userSelected":true}]},"subject":{"reference":"Patient/d3054ffa-e17b-4611-b7e0-4523fb0f9e1d"},"abatementPeriod":{"start":"2024-01-01T08:00:00.000+00:00","end":"2025-07-24T08:15:00.000+00:00"}},"request":{"method":"PUT","url":"Condition/29743e0c-9748-49ac-adf2-4c63eb921a8a"}},{"fullUrl":"https://madie.cms.gov/ServiceRequest/cc705ca9-5753-4aa8-b8ee-a053a5e05d56","resource":{"resourceType":"ServiceRequest","id":"cc705ca9-5753-4aa8-b8ee-a053a5e05d56","meta":{"profile":["http://hl7.org/fhir/us/qicore/StructureDefinition/qicore-servicerequest"]},"status":"active","intent":"order","code":{"coding":[{"system":"http://snomed.info/sct","version":"2022-03","code":"182922004","display":"Dietary regime (regime/therapy)","userSelected":true}]},"subject":{"reference":"Patient/d3054ffa-e17b-4611-b7e0-4523fb0f9e1d"},"authoredOn":"2025-07-25T08:00:00.000+00:00"},"request":{"method":"PUT","url":"ServiceRequest/cc705ca9-5753-4aa8-b8ee-a053a5e05d56"}},{"fullUrl":"https://madie.cms.gov/Coverage/3ff96048-562d-4ea2-8bf5-de1bef037521","resource":{"resourceType":"Coverage","id":"3ff96048-562d-4ea2-8bf5-de1bef037521","meta":{"profile":["http://hl7.org/fhir/us/qicore/StructureDefinition/qicore-coverage"]},"status":"active","beneficiary":{"reference":"Patient/d3054ffa-e17b-4611-b7e0-4523fb0f9e1d"},"payor":[{"reference":"Organization/11c6473d-c2d0-4e56-b66a-d31aeddcaded"}]},"request":{"method":"PUT","url":"Coverage/3ff96048-562d-4ea2-8bf5-de1bef037521"}},{"fullUrl":"https://madie.cms.gov/Organization/11c6473d-c2d0-4e56-b66a-d31aeddcaded","resource":{"resourceType":"Organization","id":"11c6473d-c2d0-4e56-b66a-d31aeddcaded","meta":{"profile":["http://hl7.org/fhir/us/qicore/StructureDefinition/qicore-organization"]},"identifier":[{"use":"temp","system":"urn:oid:2.16.840.1.113883.4.4","value":"21-3259825"}],"active":true,"type":[{"coding":[{"system":"http://terminology.hl7.org/CodeSystem/organization-type","code":"pay","display":"Payer"}]}],"name":"Blue Cross Blue Shield of Texas","telecom":[{"system":"phone","value":"(+1) 972-766-6900"}],"address":[{"use":"billing","type":"postal","line":["P.O. Box 660044"],"city":"Dallas","state":"TX","postalCode":"75266-0044","country":"USA"}]},"request":{"method":"PUT","url":"Organization/11c6473d-c2d0-4e56-b66a-d31aeddcaded"}},{"fullUrl":"https://madie.cms.gov/MeasureReport/5673f034-d47c-43b8-9c81-94595be123ad","resource":{"resourceType":"MeasureReport","id":"5673f034-d47c-43b8-9c81-94595be123ad","meta":{"profile":["http://hl7.org/fhir/us/cqfmeasures/StructureDefinition/test-case-cqfm"]},"contained":[{"resourceType":"Parameters","id":"fc45fc80-43d7-4770-b1ef-15797f4d642a-parameters","parameter":[{"name":"subject","valueString":"d3054ffa-e17b-4611-b7e0-4523fb0f9e1d"}]}],"extension":[{"url":"http://hl7.org/fhir/StructureDefinition/cqf-inputParameters","valueReference":{"reference":"#fc45fc80-43d7-4770-b1ef-15797f4d642a-parameters"}},{"url":"http://hl7.org/fhir/us/cqfmeasures/StructureDefinition/cqfm-testCaseDescription","valueMarkdown":"Enc last day of MP as well as BMI which results 16 kg/m2, dx underweight onset 1/2023 now \"inactive\" 7/24/2024, dietary order 7/25/2024, expected to fail numer d/t intervention after the fact."}],"modifierExtension":[{"url":"http://hl7.org/fhir/us/cqfmeasures/StructureDefinition/cqfm-isTestCase","valueBoolean":true}],"status":"complete","type":"individual","measure":"https://madie.cms.gov/Measure/CMS69FHIRPCSBMIScreenAndFollowUp","period":{"start":"2026-01-01","end":"2026-12-31"},"group":[{"id":"Group_1","population":[{"id":"InitialPopulation_1","code":{"coding":[{"system":"http://terminology.hl7.org/CodeSystem/measure-population","code":"initial-population","display":"Initial Population"}]},"count":1},{"id":"Denominator_1","code":{"coding":[{"system":"http://terminology.hl7.org/CodeSystem/measure-population","code":"denominator","display":"Denominator"}]},"count":1},{"id":"DenominatorExclusion_1","code":{"coding":[{"system":"http://terminology.hl7.org/CodeSystem/measure-population","code":"denominator-exclusion","display":"Denominator Exclusion"}]},"count":0},{"id":"Numerator_1","code":{"coding":[{"system":"http://terminology.hl7.org/CodeSystem/measure-population","code":"numerator","display":"Numerator"}]},"count":0},{"id":"DenominatorException_1","code":{"coding":[{"system":"http://terminology.hl7.org/CodeSystem/measure-population","code":"denominator-exception","display":"Denominator Exception"}]},"count":0}],"measureScore":{"value":1.0}}],"evaluatedResource":[{"reference":"Patient/d3054ffa-e17b-4611-b7e0-4523fb0f9e1d"},{"reference":"Encounter/4c77740f-3be4-4ab3-ae32-d05fa04eca94"},{"reference":"Observation/99400e95-d948-44f7-9e4d-002b9f5fe5c5"},{"reference":"Condition/29743e0c-9748-49ac-adf2-4c63eb921a8a"},{"reference":"ServiceRequest/cc705ca9-5753-4aa8-b8ee-a053a5e05d56"},{"reference":"Coverage/3ff96048-562d-4ea2-8bf5-de1bef037521"},{"reference":"Organization/11c6473d-c2d0-4e56-b66a-d31aeddcaded"}]},"request":{"method":"PUT","url":"MeasureReport/5673f034-d47c-43b8-9c81-94595be123ad"}}]},"request":{"method":"PUT","url":"Bundle/62df233e0056b6e23ec6759e"}},{"fullUrl":"Coverage/3ff96048-562d-4ea2-8bf5-de1bef037521","resource":{"resourceType":"Coverage","id":"3ff96048-562d-4ea2-8bf5-de1bef037521","meta":{"profile":["http://hl7.org/fhir/us/qicore/StructureDefinition/qicore-coverage"]},"status":"active","beneficiary":{"reference":"Patient/d3054ffa-e17b-4611-b7e0-4523fb0f9e1d"},"payor":[{"reference":"Organization/11c6473d-c2d0-4e56-b66a-d31aeddcaded"}]},"request":{"method":"PUT","url":"Coverage/3ff96048-562d-4ea2-8bf5-de1bef037521"}},{"fullUrl":"Patient/d3054ffa-e17b-4611-b7e0-4523fb0f9e1d","resource":{"resourceType":"Patient","id":"d3054ffa-e17b-4611-b7e0-4523fb0f9e1d","meta":{"profile":["http://hl7.org/fhir/us/qicore/StructureDefinition/qicore-patient"]},"extension":[{"url":"http://hl7.org/fhir/us/core/StructureDefinition/us-core-race","extension":[{"url":"ombCategory","valueCoding":{"system":"urn:oid:2.16.840.1.113883.6.238","code":"2106-3","display":"White","userSelected":true}},{"url":"text","valueString":"White"}]},{"url":"http://hl7.org/fhir/us/core/StructureDefinition/us-core-ethnicity","extension":[{"url":"ombCategory","valueCoding":{"system":"urn:oid:2.16.840.1.113883.6.238","code":"2186-5","display":"Not Hispanic or Latino","userSelected":true}},{"url":"text","valueString":"Not Hispanic or Latino"}]}],"identifier":[{"type":{"coding":[{"system":"http://terminology.hl7.org/CodeSystem/v2-0203","code":"MR"}]},"system":"https://bonnie-fhir.healthit.gov/","value":"62df233e0056b6e23ec6759e"}],"name":[{"family":"NUMERFail","given":["LowBMIAndInterventionOrderedFollowUpConditionEndsB4InterventionOrder"]}],"gender":"unknown","birthDate":"1957-11-07"},"request":{"method":"PUT","url":"Patient/d3054ffa-e17b-4611-b7e0-4523fb0f9e1d"}},{"fullUrl":"Condition/29743e0c-9748-49ac-adf2-4c63eb921a8a","resource":{"resourceType":"Condition","id":"29743e0c-9748-49ac-adf2-4c63eb921a8a","meta":{"profile":["http://hl7.org/fhir/us/qicore/StructureDefinition/qicore-condition-problems-health-concerns"]},"clinicalStatus":{"coding":[{"system":"http://terminology.hl7.org/CodeSystem/condition-clinical","code":"inactive","display":"active","userSelected":true}]},"category":[{"coding":[{"system":"http://terminology.hl7.org/CodeSystem/condition-category","code":"problem-list-item","display":"Problem List Item"},{"system":"http://snomed.info/sct","code":"439401001","display":"Diagnosis"}]}],"code":{"coding":[{"system":"http://snomed.info/sct","version":"2022-03","code":"248342006","display":"Underweight (finding)","userSelected":true}]},"subject":{"reference":"Patient/d3054ffa-e17b-4611-b7e0-4523fb0f9e1d"},"abatementPeriod":{"start":"2024-01-01T08:00:00.000+00:00","end":"2025-07-24T08:15:00.000+00:00"}},"request":{"method":"PUT","url":"Condition/29743e0c-9748-49ac-adf2-4c63eb921a8a"}},{"fullUrl":"ServiceRequest/cc705ca9-5753-4aa8-b8ee-a053a5e05d56","resource":{"resourceType":"ServiceRequest","id":"cc705ca9-5753-4aa8-b8ee-a053a5e05d56","meta":{"profile":["http://hl7.org/fhir/us/qicore/StructureDefinition/qicore-servicerequest"]},"status":"active","intent":"order","code":{"coding":[{"system":"http://snomed.info/sct","version":"2022-03","code":"182922004","display":"Dietary regime (regime/therapy)","userSelected":true}]},"subject":{"reference":"Patient/d3054ffa-e17b-4611-b7e0-4523fb0f9e1d"},"authoredOn":"2025-07-25T08:00:00.000+00:00"},"request":{"method":"PUT","url":"ServiceRequest/cc705ca9-5753-4aa8-b8ee-a053a5e05d56"}},{"fullUrl":"Encounter/4c77740f-3be4-4ab3-ae32-d05fa04eca94","resource":{"resourceType":"Encounter","id":"4c77740f-3be4-4ab3-ae32-d05fa04eca94","meta":{"profile":["http://hl7.org/fhir/us/qicore/StructureDefinition/qicore-encounter"]},"status":"finished","class":{"system":"http://terminology.hl7.org/CodeSystem/v3-ActCode","code":"AMB","display":"ambulatory"},"type":[{"coding":[{"system":"http://snomed.info/sct","version":"2022-03","code":"10197000","display":"Psychiatric interview and evaluation (procedure)","userSelected":true}]}],"subject":{"reference":"Patient/d3054ffa-e17b-4611-b7e0-4523fb0f9e1d"},"period":{"start":"2026-12-31T23:30:00.000+00:00","end":"2026-12-31T23:59:00.000+00:00"}},"request":{"method":"PUT","url":"Encounter/4c77740f-3be4-4ab3-ae32-d05fa04eca94"}},{"fullUrl":"Organization/11c6473d-c2d0-4e56-b66a-d31aeddcaded","resource":{"resourceType":"Organization","id":"11c6473d-c2d0-4e56-b66a-d31aeddcaded","meta":{"profile":["http://hl7.org/fhir/us/qicore/StructureDefinition/qicore-organization"]},"identifier":[{"use":"temp","system":"urn:oid:2.16.840.1.113883.4.4","value":"21-3259825"}],"active":true,"type":[{"coding":[{"system":"http://terminology.hl7.org/CodeSystem/organization-type","code":"pay","display":"Payer"}]}],"name":"Blue Cross Blue Shield of Texas","telecom":[{"system":"phone","value":"(+1) 972-766-6900"}],"address":[{"use":"billing","type":"postal","line":["P.O. Box 660044"],"city":"Dallas","state":"TX","postalCode":"75266-0044","country":"USA"}]},"request":{"method":"PUT","url":"Organization/11c6473d-c2d0-4e56-b66a-d31aeddcaded"}},{"fullUrl":"Observation/99400e95-d948-44f7-9e4d-002b9f5fe5c5","resource":{"resourceType":"Observation","id":"99400e95-d948-44f7-9e4d-002b9f5fe5c5","meta":{"profile":["http://hl7.org/fhir/us/core/StructureDefinition/us-core-bmi"]},"status":"amended","category":[{"coding":[{"system":"http://terminology.hl7.org/CodeSystem/observation-category","code":"vital-signs","display":"Vital Signs"}]}],"code":{"coding":[{"system":"http://loinc.org","code":"39156-5","display":"Body mass index (BMI) [Ratio]","userSelected":true}]},"subject":{"reference":"Patient/d3054ffa-e17b-4611-b7e0-4523fb0f9e1d"},"effectiveDateTime":"2026-12-31T23:59:00.000+00:00","valueQuantity":{"value":17,"unit":"kg/m2","system":"http://unitsofmeasure.org","code":"kg/m2"}},"request":{"method":"PUT","url":"Observation/99400e95-d948-44f7-9e4d-002b9f5fe5c5"}}]}