{"resourceType":"Bundle","id":"tests-1ba2fc33-1a1b-416b-bb3c-79ba5d0d3359-bundle","type":"transaction","entry":[{"fullUrl":"Coverage/688c1426-f99c-4db1-97e3-f84af01b2be1","resource":{"resourceType":"Coverage","id":"688c1426-f99c-4db1-97e3-f84af01b2be1","meta":{"profile":["http://hl7.org/fhir/us/qicore/StructureDefinition/qicore-coverage"]},"status":"active","beneficiary":{"reference":"Patient/1ba2fc33-1a1b-416b-bb3c-79ba5d0d3359"},"payor":[{"reference":"Organization/d9a8b42d-84fe-4f22-8f8c-3d69423e5d62"}]},"request":{"method":"PUT","url":"Coverage/688c1426-f99c-4db1-97e3-f84af01b2be1"}},{"fullUrl":"ServiceRequest/1141b657-4a73-4263-85f9-8bf0cceab4b9","resource":{"resourceType":"ServiceRequest","id":"1141b657-4a73-4263-85f9-8bf0cceab4b9","meta":{"profile":["http://hl7.org/fhir/us/qicore/StructureDefinition/qicore-servicerequest"]},"status":"active","intent":"order","code":{"coding":[{"system":"http://snomed.info/sct","version":"2022-03","code":"182922004","display":"Dietary regime (regime/therapy)","userSelected":true}]},"subject":{"reference":"Patient/1ba2fc33-1a1b-416b-bb3c-79ba5d0d3359"},"authoredOn":"2026-01-01T00:30:00.000+00:00"},"request":{"method":"PUT","url":"ServiceRequest/1141b657-4a73-4263-85f9-8bf0cceab4b9"}},{"fullUrl":"Patient/1ba2fc33-1a1b-416b-bb3c-79ba5d0d3359","resource":{"resourceType":"Patient","id":"1ba2fc33-1a1b-416b-bb3c-79ba5d0d3359","meta":{"profile":["http://hl7.org/fhir/us/qicore/StructureDefinition/qicore-patient"]},"extension":[{"url":"http://hl7.org/fhir/us/core/StructureDefinition/us-core-race","extension":[{"url":"ombCategory","valueCoding":{"system":"urn:oid:2.16.840.1.113883.6.238","code":"2106-3","display":"White","userSelected":true}},{"url":"text","valueString":"White"}]},{"url":"http://hl7.org/fhir/us/core/StructureDefinition/us-core-ethnicity","extension":[{"url":"ombCategory","valueCoding":{"system":"urn:oid:2.16.840.1.113883.6.238","code":"2186-5","display":"Not Hispanic or Latino","userSelected":true}},{"url":"text","valueString":"Not Hispanic or Latino"}]}],"identifier":[{"type":{"coding":[{"system":"http://terminology.hl7.org/CodeSystem/v2-0203","code":"MR"}]},"system":"https://bonnie-fhir.healthit.gov/","value":"62df1ffb0056b6e23ec6759d"}],"name":[{"family":"NUMERFail","given":["HighBMIAndInterventionOrderedFollowUpConditionEndsB4InterventionOrder"]}],"gender":"unknown","birthDate":"1957-11-07"},"request":{"method":"PUT","url":"Patient/1ba2fc33-1a1b-416b-bb3c-79ba5d0d3359"}},{"fullUrl":"Observation/caace2f5-1463-4af1-976d-4fcbd90d7a93","resource":{"resourceType":"Observation","id":"caace2f5-1463-4af1-976d-4fcbd90d7a93","meta":{"profile":["http://hl7.org/fhir/us/core/StructureDefinition/us-core-bmi"]},"status":"final","category":[{"coding":[{"system":"http://terminology.hl7.org/CodeSystem/observation-category","code":"vital-signs","display":"Vital Signs"}]}],"code":{"coding":[{"system":"http://loinc.org","code":"39156-5","display":"Body mass index (BMI) [Ratio]","userSelected":true}]},"subject":{"reference":"Patient/1ba2fc33-1a1b-416b-bb3c-79ba5d0d3359"},"effectiveDateTime":"2026-01-01T08:05:00.000+00:00","valueQuantity":{"value":17,"unit":"kg/m2","system":"http://unitsofmeasure.org","code":"kg/m2"}},"request":{"method":"PUT","url":"Observation/caace2f5-1463-4af1-976d-4fcbd90d7a93"}},{"fullUrl":"Bundle/62df1ffb0056b6e23ec6759d","resource":{"resourceType":"Bundle","id":"62df1ffb0056b6e23ec6759d","type":"transaction","entry":[{"fullUrl":"https://madie.cms.gov/Patient/1ba2fc33-1a1b-416b-bb3c-79ba5d0d3359","resource":{"resourceType":"Patient","id":"1ba2fc33-1a1b-416b-bb3c-79ba5d0d3359","meta":{"profile":["http://hl7.org/fhir/us/qicore/StructureDefinition/qicore-patient"]},"extension":[{"url":"http://hl7.org/fhir/us/core/StructureDefinition/us-core-race","extension":[{"url":"ombCategory","valueCoding":{"system":"urn:oid:2.16.840.1.113883.6.238","code":"2106-3","display":"White","userSelected":true}},{"url":"text","valueString":"White"}]},{"url":"http://hl7.org/fhir/us/core/StructureDefinition/us-core-ethnicity","extension":[{"url":"ombCategory","valueCoding":{"system":"urn:oid:2.16.840.1.113883.6.238","code":"2186-5","display":"Not Hispanic or Latino","userSelected":true}},{"url":"text","valueString":"Not Hispanic or Latino"}]}],"identifier":[{"type":{"coding":[{"system":"http://terminology.hl7.org/CodeSystem/v2-0203","code":"MR"}]},"system":"https://bonnie-fhir.healthit.gov/","value":"62df1ffb0056b6e23ec6759d"}],"name":[{"family":"NUMERFail","given":["HighBMIAndInterventionOrderedFollowUpConditionEndsB4InterventionOrder"]}],"gender":"unknown","birthDate":"1957-11-07"},"request":{"method":"PUT","url":"Patient/1ba2fc33-1a1b-416b-bb3c-79ba5d0d3359"}},{"fullUrl":"https://madie.cms.gov/Encounter/436677ab-f90c-4372-be9c-a93462e56e21","resource":{"resourceType":"Encounter","id":"436677ab-f90c-4372-be9c-a93462e56e21","meta":{"profile":["http://hl7.org/fhir/us/qicore/StructureDefinition/qicore-encounter"]},"status":"finished","class":{"system":"http://terminology.hl7.org/CodeSystem/v3-ActCode","code":"AMB","display":"ambulatory"},"type":[{"coding":[{"system":"http://snomed.info/sct","version":"2022-03","code":"10197000","display":"Psychiatric interview and evaluation (procedure)","userSelected":true}]}],"subject":{"reference":"Patient/1ba2fc33-1a1b-416b-bb3c-79ba5d0d3359"},"period":{"start":"2026-01-01T00:00:00.000+00:00","end":"2026-01-01T00:30:00.000+00:00"}},"request":{"method":"PUT","url":"Encounter/436677ab-f90c-4372-be9c-a93462e56e21"}},{"fullUrl":"https://madie.cms.gov/Observation/caace2f5-1463-4af1-976d-4fcbd90d7a93","resource":{"resourceType":"Observation","id":"caace2f5-1463-4af1-976d-4fcbd90d7a93","meta":{"profile":["http://hl7.org/fhir/us/core/StructureDefinition/us-core-bmi"]},"status":"final","category":[{"coding":[{"system":"http://terminology.hl7.org/CodeSystem/observation-category","code":"vital-signs","display":"Vital Signs"}]}],"code":{"coding":[{"system":"http://loinc.org","code":"39156-5","display":"Body mass index (BMI) [Ratio]","userSelected":true}]},"subject":{"reference":"Patient/1ba2fc33-1a1b-416b-bb3c-79ba5d0d3359"},"effectiveDateTime":"2026-01-01T08:05:00.000+00:00","valueQuantity":{"value":17,"unit":"kg/m2","system":"http://unitsofmeasure.org","code":"kg/m2"}},"request":{"method":"PUT","url":"Observation/caace2f5-1463-4af1-976d-4fcbd90d7a93"}},{"fullUrl":"https://madie.cms.gov/Condition/67e47b57-c670-4f05-bedb-9c5e66edeee7","resource":{"resourceType":"Condition","id":"67e47b57-c670-4f05-bedb-9c5e66edeee7","meta":{"profile":["http://hl7.org/fhir/us/qicore/StructureDefinition/qicore-condition-encounter-diagnosis"]},"clinicalStatus":{"coding":[{"system":"http://terminology.hl7.org/CodeSystem/condition-clinical","code":"inactive","display":"inactive","userSelected":true}]},"category":[{"coding":[{"system":"http://terminology.hl7.org/CodeSystem/condition-category","code":"encounter-diagnosis","display":"Encounter Diagnosis"},{"system":"http://snomed.info/sct","code":"439401001","display":"Diagnosis"}]}],"code":{"coding":[{"system":"http://snomed.info/sct","version":"2022-03","code":"162863004","display":"Body mass index 25-29 - overweight (finding)","userSelected":true}]},"subject":{"reference":"Patient/1ba2fc33-1a1b-416b-bb3c-79ba5d0d3359"},"onsetDateTime":"2025-01-01T08:00:00.000+00:00","abatementDateTime":"2026-12-31T11:59:00.000+00:00"},"request":{"method":"PUT","url":"Condition/67e47b57-c670-4f05-bedb-9c5e66edeee7"}},{"fullUrl":"https://madie.cms.gov/ServiceRequest/1141b657-4a73-4263-85f9-8bf0cceab4b9","resource":{"resourceType":"ServiceRequest","id":"1141b657-4a73-4263-85f9-8bf0cceab4b9","meta":{"profile":["http://hl7.org/fhir/us/qicore/StructureDefinition/qicore-servicerequest"]},"status":"active","intent":"order","code":{"coding":[{"system":"http://snomed.info/sct","version":"2022-03","code":"182922004","display":"Dietary regime (regime/therapy)","userSelected":true}]},"subject":{"reference":"Patient/1ba2fc33-1a1b-416b-bb3c-79ba5d0d3359"},"authoredOn":"2026-01-01T00:30:00.000+00:00"},"request":{"method":"PUT","url":"ServiceRequest/1141b657-4a73-4263-85f9-8bf0cceab4b9"}},{"fullUrl":"https://madie.cms.gov/Coverage/688c1426-f99c-4db1-97e3-f84af01b2be1","resource":{"resourceType":"Coverage","id":"688c1426-f99c-4db1-97e3-f84af01b2be1","meta":{"profile":["http://hl7.org/fhir/us/qicore/StructureDefinition/qicore-coverage"]},"status":"active","beneficiary":{"reference":"Patient/1ba2fc33-1a1b-416b-bb3c-79ba5d0d3359"},"payor":[{"reference":"Organization/d9a8b42d-84fe-4f22-8f8c-3d69423e5d62"}]},"request":{"method":"PUT","url":"Coverage/688c1426-f99c-4db1-97e3-f84af01b2be1"}},{"fullUrl":"https://madie.cms.gov/Organization/d9a8b42d-84fe-4f22-8f8c-3d69423e5d62","resource":{"resourceType":"Organization","id":"d9a8b42d-84fe-4f22-8f8c-3d69423e5d62","meta":{"profile":["http://hl7.org/fhir/us/qicore/StructureDefinition/qicore-organization"]},"identifier":[{"use":"temp","system":"urn:oid:2.16.840.1.113883.4.4","value":"21-3259825"}],"active":true,"type":[{"coding":[{"system":"http://terminology.hl7.org/CodeSystem/organization-type","code":"pay","display":"Payer"}]}],"name":"Blue Cross Blue Shield of Texas","telecom":[{"system":"phone","value":"(+1) 972-766-6900"}],"address":[{"use":"billing","type":"postal","line":["P.O. Box 660044"],"city":"Dallas","state":"TX","postalCode":"75266-0044","country":"USA"}]},"request":{"method":"PUT","url":"Organization/d9a8b42d-84fe-4f22-8f8c-3d69423e5d62"}},{"fullUrl":"https://madie.cms.gov/MeasureReport/7035c6e6-2854-4686-832c-b370d57ad961","resource":{"resourceType":"MeasureReport","id":"7035c6e6-2854-4686-832c-b370d57ad961","meta":{"profile":["http://hl7.org/fhir/us/cqfmeasures/StructureDefinition/test-case-cqfm"]},"contained":[{"resourceType":"Parameters","id":"a384590b-2b9d-4f03-9928-f22e8ed8b96a-parameters","parameter":[{"name":"subject","valueString":"1ba2fc33-1a1b-416b-bb3c-79ba5d0d3359"}]}],"extension":[{"url":"http://hl7.org/fhir/StructureDefinition/cqf-inputParameters","valueReference":{"reference":"#a384590b-2b9d-4f03-9928-f22e8ed8b96a-parameters"}},{"url":"http://hl7.org/fhir/us/cqfmeasures/StructureDefinition/cqfm-testCaseDescription","valueMarkdown":"High BMI with intervention ordered - f/u for above nl BMI, condition overweight. Fails because condition dateTime ends before intervention order "}],"modifierExtension":[{"url":"http://hl7.org/fhir/us/cqfmeasures/StructureDefinition/cqfm-isTestCase","valueBoolean":true}],"status":"complete","type":"individual","measure":"https://madie.cms.gov/Measure/CMS69FHIRPCSBMIScreenAndFollowUp","period":{"start":"2026-01-01","end":"2026-12-31"},"group":[{"id":"Group_1","population":[{"id":"InitialPopulation_1","code":{"coding":[{"system":"http://terminology.hl7.org/CodeSystem/measure-population","code":"initial-population","display":"Initial Population"}]},"count":1},{"id":"Denominator_1","code":{"coding":[{"system":"http://terminology.hl7.org/CodeSystem/measure-population","code":"denominator","display":"Denominator"}]},"count":1},{"id":"DenominatorExclusion_1","code":{"coding":[{"system":"http://terminology.hl7.org/CodeSystem/measure-population","code":"denominator-exclusion","display":"Denominator Exclusion"}]},"count":0},{"id":"Numerator_1","code":{"coding":[{"system":"http://terminology.hl7.org/CodeSystem/measure-population","code":"numerator","display":"Numerator"}]},"count":0},{"id":"DenominatorException_1","code":{"coding":[{"system":"http://terminology.hl7.org/CodeSystem/measure-population","code":"denominator-exception","display":"Denominator Exception"}]},"count":0}],"measureScore":{"value":1.0}}],"evaluatedResource":[{"reference":"Patient/1ba2fc33-1a1b-416b-bb3c-79ba5d0d3359"},{"reference":"Encounter/436677ab-f90c-4372-be9c-a93462e56e21"},{"reference":"Observation/caace2f5-1463-4af1-976d-4fcbd90d7a93"},{"reference":"Condition/67e47b57-c670-4f05-bedb-9c5e66edeee7"},{"reference":"ServiceRequest/1141b657-4a73-4263-85f9-8bf0cceab4b9"},{"reference":"Coverage/688c1426-f99c-4db1-97e3-f84af01b2be1"},{"reference":"Organization/d9a8b42d-84fe-4f22-8f8c-3d69423e5d62"}]},"request":{"method":"PUT","url":"MeasureReport/7035c6e6-2854-4686-832c-b370d57ad961"}}]},"request":{"method":"PUT","url":"Bundle/62df1ffb0056b6e23ec6759d"}},{"fullUrl":"MeasureReport/7035c6e6-2854-4686-832c-b370d57ad961","resource":{"resourceType":"MeasureReport","id":"7035c6e6-2854-4686-832c-b370d57ad961","meta":{"profile":["http://hl7.org/fhir/us/cqfmeasures/StructureDefinition/test-case-cqfm"]},"contained":[{"resourceType":"Parameters","id":"a384590b-2b9d-4f03-9928-f22e8ed8b96a-parameters","parameter":[{"name":"subject","valueString":"1ba2fc33-1a1b-416b-bb3c-79ba5d0d3359"}]}],"extension":[{"url":"http://hl7.org/fhir/StructureDefinition/cqf-inputParameters","valueReference":{"reference":"#a384590b-2b9d-4f03-9928-f22e8ed8b96a-parameters"}},{"url":"http://hl7.org/fhir/us/cqfmeasures/StructureDefinition/cqfm-testCaseDescription","valueMarkdown":"High BMI with intervention ordered - f/u for above nl BMI, condition overweight. Fails because condition dateTime ends before intervention order "}],"modifierExtension":[{"url":"http://hl7.org/fhir/us/cqfmeasures/StructureDefinition/cqfm-isTestCase","valueBoolean":true}],"status":"complete","type":"individual","measure":"https://madie.cms.gov/Measure/CMS69FHIRPCSBMIScreenAndFollowUp","period":{"start":"2026-01-01","end":"2026-12-31"},"group":[{"id":"Group_1","population":[{"id":"InitialPopulation_1","code":{"coding":[{"system":"http://terminology.hl7.org/CodeSystem/measure-population","code":"initial-population","display":"Initial Population"}]},"count":1},{"id":"Denominator_1","code":{"coding":[{"system":"http://terminology.hl7.org/CodeSystem/measure-population","code":"denominator","display":"Denominator"}]},"count":1},{"id":"DenominatorExclusion_1","code":{"coding":[{"system":"http://terminology.hl7.org/CodeSystem/measure-population","code":"denominator-exclusion","display":"Denominator Exclusion"}]},"count":0},{"id":"Numerator_1","code":{"coding":[{"system":"http://terminology.hl7.org/CodeSystem/measure-population","code":"numerator","display":"Numerator"}]},"count":0},{"id":"DenominatorException_1","code":{"coding":[{"system":"http://terminology.hl7.org/CodeSystem/measure-population","code":"denominator-exception","display":"Denominator Exception"}]},"count":0}],"measureScore":{"value":1.0}}],"evaluatedResource":[{"reference":"Patient/1ba2fc33-1a1b-416b-bb3c-79ba5d0d3359"},{"reference":"Encounter/436677ab-f90c-4372-be9c-a93462e56e21"},{"reference":"Observation/caace2f5-1463-4af1-976d-4fcbd90d7a93"},{"reference":"Condition/67e47b57-c670-4f05-bedb-9c5e66edeee7"},{"reference":"ServiceRequest/1141b657-4a73-4263-85f9-8bf0cceab4b9"},{"reference":"Coverage/688c1426-f99c-4db1-97e3-f84af01b2be1"},{"reference":"Organization/d9a8b42d-84fe-4f22-8f8c-3d69423e5d62"}]},"request":{"method":"PUT","url":"MeasureReport/7035c6e6-2854-4686-832c-b370d57ad961"}},{"fullUrl":"Condition/67e47b57-c670-4f05-bedb-9c5e66edeee7","resource":{"resourceType":"Condition","id":"67e47b57-c670-4f05-bedb-9c5e66edeee7","meta":{"profile":["http://hl7.org/fhir/us/qicore/StructureDefinition/qicore-condition-encounter-diagnosis"]},"clinicalStatus":{"coding":[{"system":"http://terminology.hl7.org/CodeSystem/condition-clinical","code":"inactive","display":"inactive","userSelected":true}]},"category":[{"coding":[{"system":"http://terminology.hl7.org/CodeSystem/condition-category","code":"encounter-diagnosis","display":"Encounter Diagnosis"},{"system":"http://snomed.info/sct","code":"439401001","display":"Diagnosis"}]}],"code":{"coding":[{"system":"http://snomed.info/sct","version":"2022-03","code":"162863004","display":"Body mass index 25-29 - overweight (finding)","userSelected":true}]},"subject":{"reference":"Patient/1ba2fc33-1a1b-416b-bb3c-79ba5d0d3359"},"onsetDateTime":"2025-01-01T08:00:00.000+00:00","abatementDateTime":"2026-12-31T11:59:00.000+00:00"},"request":{"method":"PUT","url":"Condition/67e47b57-c670-4f05-bedb-9c5e66edeee7"}},{"fullUrl":"Organization/d9a8b42d-84fe-4f22-8f8c-3d69423e5d62","resource":{"resourceType":"Organization","id":"d9a8b42d-84fe-4f22-8f8c-3d69423e5d62","meta":{"profile":["http://hl7.org/fhir/us/qicore/StructureDefinition/qicore-organization"]},"identifier":[{"use":"temp","system":"urn:oid:2.16.840.1.113883.4.4","value":"21-3259825"}],"active":true,"type":[{"coding":[{"system":"http://terminology.hl7.org/CodeSystem/organization-type","code":"pay","display":"Payer"}]}],"name":"Blue Cross Blue Shield of Texas","telecom":[{"system":"phone","value":"(+1) 972-766-6900"}],"address":[{"use":"billing","type":"postal","line":["P.O. Box 660044"],"city":"Dallas","state":"TX","postalCode":"75266-0044","country":"USA"}]},"request":{"method":"PUT","url":"Organization/d9a8b42d-84fe-4f22-8f8c-3d69423e5d62"}},{"fullUrl":"Encounter/436677ab-f90c-4372-be9c-a93462e56e21","resource":{"resourceType":"Encounter","id":"436677ab-f90c-4372-be9c-a93462e56e21","meta":{"profile":["http://hl7.org/fhir/us/qicore/StructureDefinition/qicore-encounter"]},"status":"finished","class":{"system":"http://terminology.hl7.org/CodeSystem/v3-ActCode","code":"AMB","display":"ambulatory"},"type":[{"coding":[{"system":"http://snomed.info/sct","version":"2022-03","code":"10197000","display":"Psychiatric interview and evaluation (procedure)","userSelected":true}]}],"subject":{"reference":"Patient/1ba2fc33-1a1b-416b-bb3c-79ba5d0d3359"},"period":{"start":"2026-01-01T00:00:00.000+00:00","end":"2026-01-01T00:30:00.000+00:00"}},"request":{"method":"PUT","url":"Encounter/436677ab-f90c-4372-be9c-a93462e56e21"}}]}