{"resourceType":"Bundle","id":"tests-30561eea-67f0-487c-aff4-a2dea36cb0f9-bundle","type":"transaction","entry":[{"resource":{"resourceType":"Bundle","id":"62d95b63f0347d1abcae6c07","type":"transaction","entry":[{"fullUrl":"https://madie.cms.gov/Patient/30561eea-67f0-487c-aff4-a2dea36cb0f9","resource":{"resourceType":"Patient","id":"30561eea-67f0-487c-aff4-a2dea36cb0f9","meta":{"profile":["http://hl7.org/fhir/us/qicore/StructureDefinition/qicore-patient"]},"extension":[{"url":"http://hl7.org/fhir/us/core/StructureDefinition/us-core-race","extension":[{"url":"ombCategory","valueCoding":{"system":"urn:oid:2.16.840.1.113883.6.238","code":"1002-5","display":"American Indian or Alaska Native","userSelected":true}},{"url":"text","valueString":"American Indian or Alaska Native"}]},{"url":"http://hl7.org/fhir/us/core/StructureDefinition/us-core-ethnicity","extension":[{"url":"ombCategory","valueCoding":{"system":"urn:oid:2.16.840.1.113883.6.238","code":"2135-2","display":"Hispanic or Latino","userSelected":true}},{"url":"text","valueString":"Hispanic or Latino"}]}],"identifier":[{"type":{"coding":[{"system":"http://terminology.hl7.org/CodeSystem/v2-0203","code":"MR"}]},"system":"https://bonnie-fhir.healthit.gov/","value":"62d95b63f0347d1abcae6c07"}],"name":[{"family":"IPFail","given":["EncounterOneDayAfterMP"]}],"gender":"unknown","birthDate":"2004-12-31"},"request":{"method":"PUT","url":"Patient/30561eea-67f0-487c-aff4-a2dea36cb0f9"}},{"fullUrl":"https://madie.cms.gov/Encounter/ad1346f4-a72b-48ec-a906-4c1f58fae823","resource":{"resourceType":"Encounter","id":"ad1346f4-a72b-48ec-a906-4c1f58fae823","meta":{"profile":["http://hl7.org/fhir/us/qicore/StructureDefinition/qicore-encounter"]},"status":"finished","class":{"system":"http://terminology.hl7.org/CodeSystem/v3-ActCode","code":"AMB","display":"Ambulatory","userSelected":true},"type":[{"coding":[{"system":"http://snomed.info/sct","version":"2022-03","code":"103705002","display":"Patient status observation (procedure)","userSelected":true}]}],"subject":{"reference":"Patient/30561eea-67f0-487c-aff4-a2dea36cb0f9"},"period":{"start":"2026-01-01T08:00:00.000+00:00","end":"2026-01-01T08:30:00.000+00:00"}},"request":{"method":"PUT","url":"Encounter/ad1346f4-a72b-48ec-a906-4c1f58fae823"}},{"fullUrl":"https://madie.cms.gov/Coverage/0b586184-7f57-46b4-9413-69d50c22a96c","resource":{"resourceType":"Coverage","id":"0b586184-7f57-46b4-9413-69d50c22a96c","meta":{"profile":["http://hl7.org/fhir/us/qicore/StructureDefinition/qicore-coverage"]},"status":"active","beneficiary":{"reference":"Patient/30561eea-67f0-487c-aff4-a2dea36cb0f9"},"payor":[{"reference":"Organization/be4925c8-f333-416a-b441-4e25c78eb1da"}]},"request":{"method":"PUT","url":"Coverage/0b586184-7f57-46b4-9413-69d50c22a96c"}},{"fullUrl":"https://madie.cms.gov/Organization/be4925c8-f333-416a-b441-4e25c78eb1da","resource":{"resourceType":"Organization","id":"be4925c8-f333-416a-b441-4e25c78eb1da","meta":{"profile":["http://hl7.org/fhir/us/qicore/StructureDefinition/qicore-organization"]},"identifier":[{"use":"temp","system":"urn:oid:2.16.840.1.113883.4.4","value":"21-3259825"}],"active":true,"type":[{"coding":[{"system":"http://terminology.hl7.org/CodeSystem/organization-type","code":"pay","display":"Payer"}]}],"name":"Blue Cross Blue Shield of Texas","telecom":[{"system":"phone","value":"(+1) 972-766-6900"}],"address":[{"use":"billing","type":"postal","line":["P.O. Box 660044"],"city":"Dallas","state":"TX","postalCode":"75266-0044","country":"USA"}]},"request":{"method":"PUT","url":"Organization/be4925c8-f333-416a-b441-4e25c78eb1da"}},{"fullUrl":"https://madie.cms.gov/Practitioner/5fd42d5e-e88a-4627-b6cf-697497ae5b5a","resource":{"resourceType":"Practitioner","id":"5fd42d5e-e88a-4627-b6cf-697497ae5b5a","meta":{"profile":["http://hl7.org/fhir/us/qicore/StructureDefinition/qicore-practitioner"]},"identifier":[{"system":"http://hl7.org/fhir/sid/us-npi","value":"123456"}],"name":[{"family":"Evil","prefix":["Dr"]}]},"request":{"method":"PUT","url":"Practitioner/5fd42d5e-e88a-4627-b6cf-697497ae5b5a"}},{"fullUrl":"https://madie.cms.gov/MeasureReport/2d1d26de-c2cc-4d03-a57b-3d9dd5566297","resource":{"resourceType":"MeasureReport","id":"2d1d26de-c2cc-4d03-a57b-3d9dd5566297","meta":{"profile":["http://hl7.org/fhir/us/cqfmeasures/StructureDefinition/test-case-cqfm"]},"contained":[{"resourceType":"Parameters","id":"410b8d81-f456-426a-add7-8784215e05c6-parameters","parameter":[{"name":"subject","valueString":"30561eea-67f0-487c-aff4-a2dea36cb0f9"}]}],"extension":[{"url":"http://hl7.org/fhir/StructureDefinition/cqf-inputParameters","valueReference":{"reference":"#410b8d81-f456-426a-add7-8784215e05c6-parameters"}},{"url":"http://hl7.org/fhir/us/cqfmeasures/StructureDefinition/cqfm-testCaseDescription","valueMarkdown":"Encounter One Day After MP."}],"modifierExtension":[{"url":"http://hl7.org/fhir/us/cqfmeasures/StructureDefinition/cqfm-isTestCase","valueBoolean":true}],"status":"complete","type":"individual","measure":"https://madie.cms.gov/Measure/CMS69FHIRPCSBMIScreenAndFollowUp","period":{"start":"2026-01-01","end":"2026-12-31"},"group":[{"id":"Group_1","population":[{"id":"InitialPopulation_1","code":{"coding":[{"system":"http://terminology.hl7.org/CodeSystem/measure-population","code":"initial-population","display":"Initial Population"}]},"count":0},{"id":"Denominator_1","code":{"coding":[{"system":"http://terminology.hl7.org/CodeSystem/measure-population","code":"denominator","display":"Denominator"}]},"count":0},{"id":"DenominatorExclusion_1","code":{"coding":[{"system":"http://terminology.hl7.org/CodeSystem/measure-population","code":"denominator-exclusion","display":"Denominator Exclusion"}]},"count":0},{"id":"Numerator_1","code":{"coding":[{"system":"http://terminology.hl7.org/CodeSystem/measure-population","code":"numerator","display":"Numerator"}]},"count":0},{"id":"DenominatorException_1","code":{"coding":[{"system":"http://terminology.hl7.org/CodeSystem/measure-population","code":"denominator-exception","display":"Denominator Exception"}]},"count":0}],"measureScore":{"value":1}}],"evaluatedResource":[{"reference":"Patient/30561eea-67f0-487c-aff4-a2dea36cb0f9"},{"reference":"Encounter/ad1346f4-a72b-48ec-a906-4c1f58fae823"},{"reference":"Coverage/0b586184-7f57-46b4-9413-69d50c22a96c"},{"reference":"Organization/be4925c8-f333-416a-b441-4e25c78eb1da"},{"reference":"Practitioner/5fd42d5e-e88a-4627-b6cf-697497ae5b5a"}]},"request":{"method":"PUT","url":"MeasureReport/2d1d26de-c2cc-4d03-a57b-3d9dd5566297"}}]},"request":{"method":"PUT","url":"Bundle/62d95b63f0347d1abcae6c07"}},{"resource":{"resourceType":"Coverage","id":"0b586184-7f57-46b4-9413-69d50c22a96c","meta":{"profile":["http://hl7.org/fhir/us/qicore/StructureDefinition/qicore-coverage"]},"status":"active","beneficiary":{"reference":"Patient/30561eea-67f0-487c-aff4-a2dea36cb0f9"},"payor":[{"reference":"Organization/be4925c8-f333-416a-b441-4e25c78eb1da"}]},"request":{"method":"PUT","url":"Coverage/0b586184-7f57-46b4-9413-69d50c22a96c"}},{"resource":{"resourceType":"Encounter","id":"ad1346f4-a72b-48ec-a906-4c1f58fae823","meta":{"profile":["http://hl7.org/fhir/us/qicore/StructureDefinition/qicore-encounter"]},"status":"finished","class":{"system":"http://terminology.hl7.org/CodeSystem/v3-ActCode","code":"AMB","display":"Ambulatory","userSelected":true},"type":[{"coding":[{"system":"http://snomed.info/sct","version":"2022-03","code":"103705002","display":"Patient status observation (procedure)","userSelected":true}]}],"subject":{"reference":"Patient/30561eea-67f0-487c-aff4-a2dea36cb0f9"},"period":{"start":"2026-01-01T08:00:00.000+00:00","end":"2026-01-01T08:30:00.000+00:00"}},"request":{"method":"PUT","url":"Encounter/ad1346f4-a72b-48ec-a906-4c1f58fae823"}},{"resource":{"resourceType":"MeasureReport","id":"2d1d26de-c2cc-4d03-a57b-3d9dd5566297","meta":{"profile":["http://hl7.org/fhir/us/cqfmeasures/StructureDefinition/test-case-cqfm"]},"contained":[{"resourceType":"Parameters","id":"410b8d81-f456-426a-add7-8784215e05c6-parameters","parameter":[{"name":"subject","valueString":"30561eea-67f0-487c-aff4-a2dea36cb0f9"}]}],"extension":[{"url":"http://hl7.org/fhir/StructureDefinition/cqf-inputParameters","valueReference":{"reference":"#410b8d81-f456-426a-add7-8784215e05c6-parameters"}},{"url":"http://hl7.org/fhir/us/cqfmeasures/StructureDefinition/cqfm-testCaseDescription","valueMarkdown":"Encounter One Day After MP."}],"modifierExtension":[{"url":"http://hl7.org/fhir/us/cqfmeasures/StructureDefinition/cqfm-isTestCase","valueBoolean":true}],"status":"complete","type":"individual","measure":"https://madie.cms.gov/Measure/CMS69FHIRPCSBMIScreenAndFollowUp","period":{"start":"2026-01-01","end":"2026-12-31"},"group":[{"id":"Group_1","population":[{"id":"InitialPopulation_1","code":{"coding":[{"system":"http://terminology.hl7.org/CodeSystem/measure-population","code":"initial-population","display":"Initial Population"}]},"count":0},{"id":"Denominator_1","code":{"coding":[{"system":"http://terminology.hl7.org/CodeSystem/measure-population","code":"denominator","display":"Denominator"}]},"count":0},{"id":"DenominatorExclusion_1","code":{"coding":[{"system":"http://terminology.hl7.org/CodeSystem/measure-population","code":"denominator-exclusion","display":"Denominator Exclusion"}]},"count":0},{"id":"Numerator_1","code":{"coding":[{"system":"http://terminology.hl7.org/CodeSystem/measure-population","code":"numerator","display":"Numerator"}]},"count":0},{"id":"DenominatorException_1","code":{"coding":[{"system":"http://terminology.hl7.org/CodeSystem/measure-population","code":"denominator-exception","display":"Denominator Exception"}]},"count":0}],"measureScore":{"value":1}}],"evaluatedResource":[{"reference":"Patient/30561eea-67f0-487c-aff4-a2dea36cb0f9"},{"reference":"Encounter/ad1346f4-a72b-48ec-a906-4c1f58fae823"},{"reference":"Coverage/0b586184-7f57-46b4-9413-69d50c22a96c"},{"reference":"Organization/be4925c8-f333-416a-b441-4e25c78eb1da"},{"reference":"Practitioner/5fd42d5e-e88a-4627-b6cf-697497ae5b5a"}]},"request":{"method":"PUT","url":"MeasureReport/2d1d26de-c2cc-4d03-a57b-3d9dd5566297"}},{"resource":{"resourceType":"Organization","id":"be4925c8-f333-416a-b441-4e25c78eb1da","meta":{"profile":["http://hl7.org/fhir/us/qicore/StructureDefinition/qicore-organization"]},"identifier":[{"use":"temp","system":"urn:oid:2.16.840.1.113883.4.4","value":"21-3259825"}],"active":true,"type":[{"coding":[{"system":"http://terminology.hl7.org/CodeSystem/organization-type","code":"pay","display":"Payer"}]}],"name":"Blue Cross Blue Shield of Texas","telecom":[{"system":"phone","value":"(+1) 972-766-6900"}],"address":[{"use":"billing","type":"postal","line":["P.O. Box 660044"],"city":"Dallas","state":"TX","postalCode":"75266-0044","country":"USA"}]},"request":{"method":"PUT","url":"Organization/be4925c8-f333-416a-b441-4e25c78eb1da"}},{"resource":{"resourceType":"Patient","id":"30561eea-67f0-487c-aff4-a2dea36cb0f9","meta":{"profile":["http://hl7.org/fhir/us/qicore/StructureDefinition/qicore-patient"]},"extension":[{"url":"http://hl7.org/fhir/us/core/StructureDefinition/us-core-race","extension":[{"url":"ombCategory","valueCoding":{"system":"urn:oid:2.16.840.1.113883.6.238","code":"1002-5","display":"American Indian or Alaska Native","userSelected":true}},{"url":"text","valueString":"American Indian or Alaska Native"}]},{"url":"http://hl7.org/fhir/us/core/StructureDefinition/us-core-ethnicity","extension":[{"url":"ombCategory","valueCoding":{"system":"urn:oid:2.16.840.1.113883.6.238","code":"2135-2","display":"Hispanic or Latino","userSelected":true}},{"url":"text","valueString":"Hispanic or Latino"}]}],"identifier":[{"type":{"coding":[{"system":"http://terminology.hl7.org/CodeSystem/v2-0203","code":"MR"}]},"system":"https://bonnie-fhir.healthit.gov/","value":"62d95b63f0347d1abcae6c07"}],"name":[{"family":"IPFail","given":["EncounterOneDayAfterMP"]}],"gender":"unknown","birthDate":"2004-12-31"},"request":{"method":"PUT","url":"Patient/30561eea-67f0-487c-aff4-a2dea36cb0f9"}},{"resource":{"resourceType":"Practitioner","id":"5fd42d5e-e88a-4627-b6cf-697497ae5b5a","meta":{"profile":["http://hl7.org/fhir/us/qicore/StructureDefinition/qicore-practitioner"]},"identifier":[{"system":"http://hl7.org/fhir/sid/us-npi","value":"123456"}],"name":[{"family":"Evil","prefix":["Dr"]}]},"request":{"method":"PUT","url":"Practitioner/5fd42d5e-e88a-4627-b6cf-697497ae5b5a"}}]}