{"resourceType":"Bundle","id":"tests-823e94a5-e1a7-4d2a-b289-3133f0b1772c-bundle","type":"transaction","entry":[{"resource":{"resourceType":"Bundle","id":"62aa59ddc4be4c506d4a5342","type":"transaction","entry":[{"fullUrl":"https://madie.cms.gov/Patient/823e94a5-e1a7-4d2a-b289-3133f0b1772c","resource":{"resourceType":"Patient","id":"823e94a5-e1a7-4d2a-b289-3133f0b1772c","meta":{"profile":["http://hl7.org/fhir/us/qicore/StructureDefinition/qicore-patient"]},"extension":[{"url":"http://hl7.org/fhir/us/core/StructureDefinition/us-core-race","extension":[{"url":"ombCategory","valueCoding":{"system":"urn:oid:2.16.840.1.113883.6.238","code":"1002-5","display":"American Indian or Alaska Native","userSelected":true}},{"url":"text","valueString":"American Indian or Alaska Native"}]},{"url":"http://hl7.org/fhir/us/core/StructureDefinition/us-core-ethnicity","extension":[{"url":"ombCategory","valueCoding":{"system":"urn:oid:2.16.840.1.113883.6.238","code":"2186-5","display":"Not Hispanic or Latino","userSelected":true}},{"url":"text","valueString":"Not Hispanic or Latino"}]}],"identifier":[{"type":{"coding":[{"system":"http://terminology.hl7.org/CodeSystem/v2-0203","code":"MR"}]},"system":"https://bonnie-fhir.healthit.gov/","value":"62aa59ddc4be4c506d4a5342"}],"name":[{"family":"IPPFail","given":["VirtualEncounter"]}],"gender":"male","birthDate":"2006-06-15"},"request":{"method":"PUT","url":"Patient/823e94a5-e1a7-4d2a-b289-3133f0b1772c"}},{"fullUrl":"https://madie.cms.gov/Encounter/4794386f-76ed-47c9-87d5-2130c7dd26d9","resource":{"resourceType":"Encounter","id":"4794386f-76ed-47c9-87d5-2130c7dd26d9","status":"finished","class":{"system":"http://terminology.hl7.org/CodeSystem/v3-ActCode","code":"VR","display":"virtual","userSelected":true},"type":[{"coding":[{"system":"http://snomed.info/sct","version":"2022-03","code":"10197000","display":"Psychiatric interview and evaluation (procedure)","userSelected":true}]}],"subject":{"reference":"Patient/823e94a5-e1a7-4d2a-b289-3133f0b1772c"},"period":{"start":"2026-01-01T00:00:00.000+00:00","end":"2026-01-01T00:30:00.000+00:00"}},"request":{"method":"PUT","url":"Encounter/4794386f-76ed-47c9-87d5-2130c7dd26d9"}},{"fullUrl":"https://madie.cms.gov/Coverage/b42873ef-9eea-49e4-88ac-ac79e35f9084","resource":{"resourceType":"Coverage","id":"b42873ef-9eea-49e4-88ac-ac79e35f9084","meta":{"profile":["http://hl7.org/fhir/us/qicore/StructureDefinition/qicore-coverage"]},"status":"active","beneficiary":{"reference":"Patient/823e94a5-e1a7-4d2a-b289-3133f0b1772c"},"payor":[{"reference":"Organization/5bbd4c3c-294b-4d43-8a69-bac509c44994"}]},"request":{"method":"PUT","url":"Coverage/b42873ef-9eea-49e4-88ac-ac79e35f9084"}},{"fullUrl":"https://madie.cms.gov/Organization/5bbd4c3c-294b-4d43-8a69-bac509c44994","resource":{"resourceType":"Organization","id":"5bbd4c3c-294b-4d43-8a69-bac509c44994","meta":{"profile":["http://hl7.org/fhir/us/qicore/StructureDefinition/qicore-organization"]},"identifier":[{"use":"temp","system":"urn:oid:2.16.840.1.113883.4.4","value":"21-3259825"}],"active":true,"type":[{"coding":[{"system":"http://terminology.hl7.org/CodeSystem/organization-type","code":"pay","display":"Payer"}]}],"name":"Blue Cross Blue Shield of Texas","telecom":[{"system":"phone","value":"(+1) 972-766-6900"}],"address":[{"use":"billing","type":"postal","line":["P.O. Box 660044"],"city":"Dallas","state":"TX","postalCode":"75266-0044","country":"USA"}]},"request":{"method":"PUT","url":"Organization/5bbd4c3c-294b-4d43-8a69-bac509c44994"}},{"fullUrl":"https://madie.cms.gov/MeasureReport/5a5d94ad-7143-4056-a3f7-f6968e97d00b","resource":{"resourceType":"MeasureReport","id":"5a5d94ad-7143-4056-a3f7-f6968e97d00b","meta":{"profile":["http://hl7.org/fhir/us/cqfmeasures/StructureDefinition/test-case-cqfm"]},"contained":[{"resourceType":"Parameters","id":"33cdd9f9-0a01-49fe-8bbb-6e033a52ce2d-parameters","parameter":[{"name":"subject","valueString":"823e94a5-e1a7-4d2a-b289-3133f0b1772c"}]}],"extension":[{"url":"http://hl7.org/fhir/StructureDefinition/cqf-inputParameters","valueReference":{"reference":"#33cdd9f9-0a01-49fe-8bbb-6e033a52ce2d-parameters"}},{"url":"http://hl7.org/fhir/us/cqfmeasures/StructureDefinition/cqfm-testCaseDescription","valueMarkdown":"Virtual visit  first day of the year, first 30 minutes of the year- are not included- fails Initial population criteria "}],"modifierExtension":[{"url":"http://hl7.org/fhir/us/cqfmeasures/StructureDefinition/cqfm-isTestCase","valueBoolean":true}],"status":"complete","type":"individual","measure":"https://madie.cms.gov/Measure/CMS69FHIRPCSBMIScreenAndFollowUp","period":{"start":"2026-01-01","end":"2026-12-31"},"group":[{"id":"Group_1","population":[{"id":"InitialPopulation_1","code":{"coding":[{"system":"http://terminology.hl7.org/CodeSystem/measure-population","code":"initial-population","display":"Initial Population"}]},"count":0},{"id":"Denominator_1","code":{"coding":[{"system":"http://terminology.hl7.org/CodeSystem/measure-population","code":"denominator","display":"Denominator"}]},"count":0},{"id":"DenominatorExclusion_1","code":{"coding":[{"system":"http://terminology.hl7.org/CodeSystem/measure-population","code":"denominator-exclusion","display":"Denominator Exclusion"}]},"count":0},{"id":"Numerator_1","code":{"coding":[{"system":"http://terminology.hl7.org/CodeSystem/measure-population","code":"numerator","display":"Numerator"}]},"count":0},{"id":"DenominatorException_1","code":{"coding":[{"system":"http://terminology.hl7.org/CodeSystem/measure-population","code":"denominator-exception","display":"Denominator Exception"}]},"count":0}],"measureScore":{"value":1}}],"evaluatedResource":[{"reference":"Patient/823e94a5-e1a7-4d2a-b289-3133f0b1772c"},{"reference":"Encounter/4794386f-76ed-47c9-87d5-2130c7dd26d9"},{"reference":"Coverage/b42873ef-9eea-49e4-88ac-ac79e35f9084"},{"reference":"Organization/5bbd4c3c-294b-4d43-8a69-bac509c44994"}]},"request":{"method":"PUT","url":"MeasureReport/5a5d94ad-7143-4056-a3f7-f6968e97d00b"}}]},"request":{"method":"PUT","url":"Bundle/62aa59ddc4be4c506d4a5342"}},{"resource":{"resourceType":"Coverage","id":"b42873ef-9eea-49e4-88ac-ac79e35f9084","meta":{"profile":["http://hl7.org/fhir/us/qicore/StructureDefinition/qicore-coverage"]},"status":"active","beneficiary":{"reference":"Patient/823e94a5-e1a7-4d2a-b289-3133f0b1772c"},"payor":[{"reference":"Organization/5bbd4c3c-294b-4d43-8a69-bac509c44994"}]},"request":{"method":"PUT","url":"Coverage/b42873ef-9eea-49e4-88ac-ac79e35f9084"}},{"resource":{"resourceType":"Encounter","id":"4794386f-76ed-47c9-87d5-2130c7dd26d9","status":"finished","class":{"system":"http://terminology.hl7.org/CodeSystem/v3-ActCode","code":"VR","display":"virtual","userSelected":true},"type":[{"coding":[{"system":"http://snomed.info/sct","version":"2022-03","code":"10197000","display":"Psychiatric interview and evaluation (procedure)","userSelected":true}]}],"subject":{"reference":"Patient/823e94a5-e1a7-4d2a-b289-3133f0b1772c"},"period":{"start":"2026-01-01T00:00:00.000+00:00","end":"2026-01-01T00:30:00.000+00:00"}},"request":{"method":"PUT","url":"Encounter/4794386f-76ed-47c9-87d5-2130c7dd26d9"}},{"resource":{"resourceType":"MeasureReport","id":"5a5d94ad-7143-4056-a3f7-f6968e97d00b","meta":{"profile":["http://hl7.org/fhir/us/cqfmeasures/StructureDefinition/test-case-cqfm"]},"contained":[{"resourceType":"Parameters","id":"33cdd9f9-0a01-49fe-8bbb-6e033a52ce2d-parameters","parameter":[{"name":"subject","valueString":"823e94a5-e1a7-4d2a-b289-3133f0b1772c"}]}],"extension":[{"url":"http://hl7.org/fhir/StructureDefinition/cqf-inputParameters","valueReference":{"reference":"#33cdd9f9-0a01-49fe-8bbb-6e033a52ce2d-parameters"}},{"url":"http://hl7.org/fhir/us/cqfmeasures/StructureDefinition/cqfm-testCaseDescription","valueMarkdown":"Virtual visit  first day of the year, first 30 minutes of the year- are not included- fails Initial population criteria "}],"modifierExtension":[{"url":"http://hl7.org/fhir/us/cqfmeasures/StructureDefinition/cqfm-isTestCase","valueBoolean":true}],"status":"complete","type":"individual","measure":"https://madie.cms.gov/Measure/CMS69FHIRPCSBMIScreenAndFollowUp","period":{"start":"2026-01-01","end":"2026-12-31"},"group":[{"id":"Group_1","population":[{"id":"InitialPopulation_1","code":{"coding":[{"system":"http://terminology.hl7.org/CodeSystem/measure-population","code":"initial-population","display":"Initial Population"}]},"count":0},{"id":"Denominator_1","code":{"coding":[{"system":"http://terminology.hl7.org/CodeSystem/measure-population","code":"denominator","display":"Denominator"}]},"count":0},{"id":"DenominatorExclusion_1","code":{"coding":[{"system":"http://terminology.hl7.org/CodeSystem/measure-population","code":"denominator-exclusion","display":"Denominator Exclusion"}]},"count":0},{"id":"Numerator_1","code":{"coding":[{"system":"http://terminology.hl7.org/CodeSystem/measure-population","code":"numerator","display":"Numerator"}]},"count":0},{"id":"DenominatorException_1","code":{"coding":[{"system":"http://terminology.hl7.org/CodeSystem/measure-population","code":"denominator-exception","display":"Denominator Exception"}]},"count":0}],"measureScore":{"value":1}}],"evaluatedResource":[{"reference":"Patient/823e94a5-e1a7-4d2a-b289-3133f0b1772c"},{"reference":"Encounter/4794386f-76ed-47c9-87d5-2130c7dd26d9"},{"reference":"Coverage/b42873ef-9eea-49e4-88ac-ac79e35f9084"},{"reference":"Organization/5bbd4c3c-294b-4d43-8a69-bac509c44994"}]},"request":{"method":"PUT","url":"MeasureReport/5a5d94ad-7143-4056-a3f7-f6968e97d00b"}},{"resource":{"resourceType":"Organization","id":"5bbd4c3c-294b-4d43-8a69-bac509c44994","meta":{"profile":["http://hl7.org/fhir/us/qicore/StructureDefinition/qicore-organization"]},"identifier":[{"use":"temp","system":"urn:oid:2.16.840.1.113883.4.4","value":"21-3259825"}],"active":true,"type":[{"coding":[{"system":"http://terminology.hl7.org/CodeSystem/organization-type","code":"pay","display":"Payer"}]}],"name":"Blue Cross Blue Shield of Texas","telecom":[{"system":"phone","value":"(+1) 972-766-6900"}],"address":[{"use":"billing","type":"postal","line":["P.O. Box 660044"],"city":"Dallas","state":"TX","postalCode":"75266-0044","country":"USA"}]},"request":{"method":"PUT","url":"Organization/5bbd4c3c-294b-4d43-8a69-bac509c44994"}},{"resource":{"resourceType":"Patient","id":"823e94a5-e1a7-4d2a-b289-3133f0b1772c","meta":{"profile":["http://hl7.org/fhir/us/qicore/StructureDefinition/qicore-patient"]},"extension":[{"url":"http://hl7.org/fhir/us/core/StructureDefinition/us-core-race","extension":[{"url":"ombCategory","valueCoding":{"system":"urn:oid:2.16.840.1.113883.6.238","code":"1002-5","display":"American Indian or Alaska Native","userSelected":true}},{"url":"text","valueString":"American Indian or Alaska Native"}]},{"url":"http://hl7.org/fhir/us/core/StructureDefinition/us-core-ethnicity","extension":[{"url":"ombCategory","valueCoding":{"system":"urn:oid:2.16.840.1.113883.6.238","code":"2186-5","display":"Not Hispanic or Latino","userSelected":true}},{"url":"text","valueString":"Not Hispanic or Latino"}]}],"identifier":[{"type":{"coding":[{"system":"http://terminology.hl7.org/CodeSystem/v2-0203","code":"MR"}]},"system":"https://bonnie-fhir.healthit.gov/","value":"62aa59ddc4be4c506d4a5342"}],"name":[{"family":"IPPFail","given":["VirtualEncounter"]}],"gender":"male","birthDate":"2006-06-15"},"request":{"method":"PUT","url":"Patient/823e94a5-e1a7-4d2a-b289-3133f0b1772c"}}]}