{
  "resourceType": "Bundle",
  "id": "630307be0968f80122477542",
  "type": "transaction",
  "entry": [ {
    "fullUrl": "https://madie.cms.gov/Patient/72a7c508-6ab5-444d-b306-686793360c8c",
    "resource": {
      "resourceType": "Patient",
      "id": "72a7c508-6ab5-444d-b306-686793360c8c",
      "meta": {
        "profile": [ "http://hl7.org/fhir/us/qicore/StructureDefinition/qicore-patient" ]
      },
      "extension": [ {
        "url": "http://hl7.org/fhir/us/core/StructureDefinition/us-core-race",
        "extension": [ {
          "url": "ombCategory",
          "valueCoding": {
            "system": "urn:oid:2.16.840.1.113883.6.238",
            "code": "2106-3",
            "display": "White"
          }
        }, {
          "url": "text",
          "valueString": "White"
        } ]
      }, {
        "url": "http://hl7.org/fhir/us/core/StructureDefinition/us-core-ethnicity",
        "extension": [ {
          "url": "ombCategory",
          "valueCoding": {
            "system": "urn:oid:2.16.840.1.113883.6.238",
            "code": "2186-5",
            "display": "Not Hispanic or Latino"
          }
        }, {
          "url": "text",
          "valueString": "Not Hispanic or Latino"
        } ]
      } ],
      "identifier": [ {
        "type": {
          "coding": [ {
            "system": "http://terminology.hl7.org/CodeSystem/v2-0203",
            "code": "MR"
          } ]
        },
        "system": "https://bonnie-fhir.healthit.gov/",
        "value": "630307be0968f80122477542"
      } ],
      "name": [ {
        "family": "IPPPopStrat2Fail",
        "given": [ "PHQ9Lessthan9" ]
      } ],
      "gender": "female",
      "birthDate": "1988-01-01"
    },
    "request": {
      "method": "PUT",
      "url": "Patient/72a7c508-6ab5-444d-b306-686793360c8c"
    }
  }, {
    "fullUrl": "https://madie.cms.gov/Encounter/dbfdbc37-d8ff-4655-9152-9817f151cdc6",
    "resource": {
      "resourceType": "Encounter",
      "id": "dbfdbc37-d8ff-4655-9152-9817f151cdc6",
      "meta": {
        "profile": [ "http://hl7.org/fhir/us/qicore/StructureDefinition/qicore-encounter" ]
      },
      "status": "finished",
      "class": {
        "system": "http://terminology.hl7.org/CodeSystem/v3-ActCode",
        "code": "AMB",
        "display": "ambulatory"
      },
      "type": [ {
        "coding": [ {
          "system": "http://www.ama-assn.org/go/cpt",
          "version": "2024",
          "code": "90791"
        } ]
      } ],
      "subject": {
        "reference": "Patient/72a7c508-6ab5-444d-b306-686793360c8c"
      },
      "period": {
        "start": "2025-02-25T14:30:00+00:00",
        "end": "2025-02-25T14:50:00+00:00"
      },
      "length": {
        "value": 0,
        "unit": "days"
      }
    },
    "request": {
      "method": "PUT",
      "url": "Encounter/dbfdbc37-d8ff-4655-9152-9817f151cdc6"
    }
  }, {
    "fullUrl": "https://madie.cms.gov/Observation/d7f0e3d6-efc0-40c5-994f-1ab34990cc42",
    "resource": {
      "resourceType": "Observation",
      "id": "d7f0e3d6-efc0-40c5-994f-1ab34990cc42",
      "meta": {
        "profile": [ "http://hl7.org/fhir/us/qicore/StructureDefinition/qicore-observation-screening-assessment" ]
      },
      "status": "final",
      "category": [ {
        "coding": [ {
          "system": "http://terminology.hl7.org/CodeSystem/observation-category",
          "code": "survey",
          "display": "Survey"
        } ]
      } ],
      "code": {
        "coding": [ {
          "system": "http://loinc.org",
          "version": "2.76",
          "code": "44261-6"
        } ]
      },
      "subject": {
        "reference": "Patient/72a7c508-6ab5-444d-b306-686793360c8c"
      },
      "effectiveDateTime": "2025-02-25T14:35:00+00:00",
      "valueInteger": 8
    },
    "request": {
      "method": "PUT",
      "url": "Observation/d7f0e3d6-efc0-40c5-994f-1ab34990cc42"
    }
  }, {
    "fullUrl": "https://madie.cms.gov/Observation/9c414be7-ccdd-4237-9d4f-95b5a5bce347",
    "resource": {
      "resourceType": "Observation",
      "id": "9c414be7-ccdd-4237-9d4f-95b5a5bce347",
      "meta": {
        "profile": [ "http://hl7.org/fhir/us/qicore/StructureDefinition/qicore-observation-screening-assessment" ]
      },
      "status": "final",
      "category": [ {
        "coding": [ {
          "system": "http://terminology.hl7.org/CodeSystem/observation-category",
          "code": "survey",
          "display": "Survey"
        } ]
      } ],
      "code": {
        "coding": [ {
          "system": "http://loinc.org",
          "version": "2.76",
          "code": "44261-6"
        } ]
      },
      "subject": {
        "reference": "Patient/72a7c508-6ab5-444d-b306-686793360c8c"
      },
      "effectiveDateTime": "2026-02-19T14:30:00+00:00",
      "valueInteger": 4
    },
    "request": {
      "method": "PUT",
      "url": "Observation/9c414be7-ccdd-4237-9d4f-95b5a5bce347"
    }
  }, {
    "fullUrl": "https://madie.cms.gov/Condition/c576bc83-4c55-4958-9e62-c4322b830106",
    "resource": {
      "resourceType": "Condition",
      "id": "c576bc83-4c55-4958-9e62-c4322b830106",
      "meta": {
        "profile": [ "http://hl7.org/fhir/us/qicore/StructureDefinition/qicore-condition-problems-health-concerns" ]
      },
      "clinicalStatus": {
        "coding": [ {
          "system": "http://terminology.hl7.org/CodeSystem/condition-clinical",
          "code": "active",
          "display": "active"
        } ]
      },
      "verificationStatus": {
        "coding": [ {
          "system": "http://terminology.hl7.org/CodeSystem/condition-ver-status",
          "code": "confirmed"
        } ]
      },
      "category": [ {
        "coding": [ {
          "system": "http://terminology.hl7.org/CodeSystem/condition-category",
          "code": "problem-list-item",
          "display": "Problem List Item"
        } ]
      } ],
      "code": {
        "coding": [ {
          "system": "http://hl7.org/fhir/sid/icd-10-cm",
          "version": "2024",
          "code": "F32.9"
        } ]
      },
      "subject": {
        "reference": "Patient/72a7c508-6ab5-444d-b306-686793360c8c"
      },
      "onsetDateTime": "2025-02-25T14:35:00+00:00"
    },
    "request": {
      "method": "PUT",
      "url": "Condition/c576bc83-4c55-4958-9e62-c4322b830106"
    }
  }, {
    "fullUrl": "https://madie.cms.gov/Encounter/74aa888b-87ae-4684-a991-f4dfbd35458b",
    "resource": {
      "resourceType": "Encounter",
      "id": "74aa888b-87ae-4684-a991-f4dfbd35458b",
      "meta": {
        "profile": [ "http://hl7.org/fhir/us/qicore/StructureDefinition/qicore-encounter" ]
      },
      "status": "finished",
      "class": {
        "system": "http://terminology.hl7.org/CodeSystem/v3-ActCode",
        "code": "HH",
        "display": "home health"
      },
      "type": [ {
        "coding": [ {
          "system": "http://snomed.info/sct",
          "version": "http://snomed.info/sct/731000124108/version/20240301",
          "code": "305284002"
        } ]
      } ],
      "subject": {
        "reference": "Patient/72a7c508-6ab5-444d-b306-686793360c8c"
      },
      "period": {
        "start": "2025-12-31T08:00:00+00:00",
        "end": "2026-01-01T12:00:00+00:00"
      },
      "length": {
        "value": 0,
        "unit": "days"
      }
    },
    "request": {
      "method": "PUT",
      "url": "Encounter/74aa888b-87ae-4684-a991-f4dfbd35458b"
    }
  }, {
    "fullUrl": "https://madie.cms.gov/MeasureReport/87fe5898-f198-42ac-b61b-18cb31d7648b",
    "resource": {
      "resourceType": "MeasureReport",
      "id": "87fe5898-f198-42ac-b61b-18cb31d7648b",
      "meta": {
        "profile": [ "http://hl7.org/fhir/us/cqfmeasures/StructureDefinition/test-case-cqfm" ]
      },
      "contained": [ {
        "resourceType": "Parameters",
        "id": "8a1394dc-b30f-46b6-aee8-aceb4ef5bcec-parameters",
        "parameter": [ {
          "name": "subject",
          "valueString": "72a7c508-6ab5-444d-b306-686793360c8c"
        } ]
      } ],
      "extension": [ {
        "url": "http://hl7.org/fhir/StructureDefinition/cqf-inputParameters",
        "valueReference": {
          "reference": "#8a1394dc-b30f-46b6-aee8-aceb4ef5bcec-parameters"
        }
      }, {
        "url": "http://hl7.org/fhir/us/cqfmeasures/StructureDefinition/cqfm-testCaseDescription",
        "valueMarkdown": "Patient is 36 and has Major Major Depressive Dx during denom ID period. Patient has PHQ-9 score below 9 during denom ID period. Patient should not be in initial population. "
      } ],
      "modifierExtension": [ {
        "url": "http://hl7.org/fhir/us/cqfmeasures/StructureDefinition/cqfm-isTestCase",
        "valueBoolean": true
      } ],
      "status": "complete",
      "type": "individual",
      "measure": "https://madie.cms.gov/Measure/CMS159FHIRDepressionRemissionatTwelveMonths",
      "period": {
        "start": "2026-01-01",
        "end": "2026-12-31"
      },
      "group": [ {
        "id": "Group_1",
        "population": [ {
          "id": "InitialPopulation_1",
          "code": {
            "coding": [ {
              "system": "http://terminology.hl7.org/CodeSystem/measure-population",
              "code": "initial-population",
              "display": "Initial Population"
            } ]
          },
          "count": 0
        }, {
          "id": "Denominator_1",
          "code": {
            "coding": [ {
              "system": "http://terminology.hl7.org/CodeSystem/measure-population",
              "code": "denominator",
              "display": "Denominator"
            } ]
          },
          "count": 0
        }, {
          "id": "DenominatorExclusion_1",
          "code": {
            "coding": [ {
              "system": "http://terminology.hl7.org/CodeSystem/measure-population",
              "code": "denominator-exclusion",
              "display": "Denominator Exclusion"
            } ]
          },
          "count": 0
        }, {
          "id": "Numerator_1",
          "code": {
            "coding": [ {
              "system": "http://terminology.hl7.org/CodeSystem/measure-population",
              "code": "numerator",
              "display": "Numerator"
            } ]
          },
          "count": 0
        } ],
        "measureScore": {
          "value": 1.0
        }
      } ],
      "evaluatedResource": [ {
        "reference": "Patient/72a7c508-6ab5-444d-b306-686793360c8c"
      }, {
        "reference": "Encounter/dbfdbc37-d8ff-4655-9152-9817f151cdc6"
      }, {
        "reference": "Observation/d7f0e3d6-efc0-40c5-994f-1ab34990cc42"
      }, {
        "reference": "Observation/9c414be7-ccdd-4237-9d4f-95b5a5bce347"
      }, {
        "reference": "Condition/c576bc83-4c55-4958-9e62-c4322b830106"
      }, {
        "reference": "Encounter/74aa888b-87ae-4684-a991-f4dfbd35458b"
      } ]
    },
    "request": {
      "method": "PUT",
      "url": "MeasureReport/87fe5898-f198-42ac-b61b-18cb31d7648b"
    }
  } ]
}