{"resourceType":"Bundle","id":"tests-1f5b2ed3-23d6-4ffc-be6b-852117f506be-bundle","type":"transaction","entry":[{"resource":{"resourceType":"Encounter","id":"78592f49-2ed7-4bb6-9f3c-5cef7a85778c","meta":{"profile":["http://hl7.org/fhir/us/qicore/StructureDefinition/qicore-encounter"]},"status":"finished","class":{"system":"http://terminology.hl7.org/CodeSystem/v3-ActCode","code":"IMP","display":"inpatient encounter"},"type":[{"coding":[{"system":"http://snomed.info/sct","code":"183452005"}]}],"subject":{"reference":"Patient/1f5b2ed3-23d6-4ffc-be6b-852117f506be"},"period":{"start":"2026-02-08T08:00:00Z","end":"2026-02-10T08:15:00.000+00:00"},"length":{"value":2,"unit":"days"},"reasonReference":[{"reference":"Condition/9fbb75c4-12ac-445e-85ff-ea7530e2e530"}]},"request":{"method":"PUT","url":"Encounter/78592f49-2ed7-4bb6-9f3c-5cef7a85778c"}},{"resource":{"resourceType":"Practitioner","id":"2ec84e99-f8c6-489f-ba55-a6092d242dd7","meta":{"profile":["http://hl7.org/fhir/us/qicore/StructureDefinition/qicore-practitioner"]},"identifier":[{"system":"http://hl7.org/fhir/sid/us-npi","value":"9999999896"}],"name":[{"family":"Evil","prefix":["Dr"]}]},"request":{"method":"PUT","url":"Practitioner/2ec84e99-f8c6-489f-ba55-a6092d242dd7"}},{"resource":{"resourceType":"Condition","id":"9fbb75c4-12ac-445e-85ff-ea7530e2e530","meta":{"profile":["http://hl7.org/fhir/us/qicore/StructureDefinition/qicore-condition-encounter-diagnosis"]},"clinicalStatus":{"coding":[{"system":"http://terminology.hl7.org/CodeSystem/condition-clinical","code":"active"}]},"verificationStatus":{"coding":[{"system":"http://terminology.hl7.org/CodeSystem/condition-ver-status","code":"confirmed"}]},"category":[{"coding":[{"system":"http://terminology.hl7.org/CodeSystem/condition-category","code":"encounter-diagnosis","display":"Encounter Diagnosis"}]}],"code":{"coding":[{"system":"http://snomed.info/sct","version":"2021-09","code":"120041000119109","display":"Atrial fibrillation with rapid ventricular response (disorder)","userSelected":true}]},"subject":{"reference":"Patient/1f5b2ed3-23d6-4ffc-be6b-852117f506be"},"encounter":{"reference":"Encounter/78592f49-2ed7-4bb6-9f3c-5cef7a85778c"},"onsetDateTime":"2012-05-24T00:00:00Z","recordedDate":"2026-10-13T08:00:00Z"},"request":{"method":"PUT","url":"Condition/9fbb75c4-12ac-445e-85ff-ea7530e2e530"}},{"resource":{"resourceType":"Coverage","id":"0c33bd24-2ed2-4cf6-93f4-40622b4f2413","meta":{"profile":["http://hl7.org/fhir/us/qicore/StructureDefinition/qicore-coverage"]},"status":"active","subscriberId":"523435","beneficiary":{"reference":"Patient/162a5913-9989-42f2-8d6a-ae460e245e4c"},"relationship":{"coding":[{"system":"http://terminology.hl7.org/CodeSystem/subscriber-relationship","code":"self"}]},"payor":[{"reference":"Organization/7c37c6ba-296b-43c9-948a-d7487852afb0"}]},"request":{"method":"PUT","url":"Coverage/0c33bd24-2ed2-4cf6-93f4-40622b4f2413"}},{"resource":{"resourceType":"Condition","id":"38b3fed5-2850-4615-ac89-f836ece25001","meta":{"profile":["http://hl7.org/fhir/us/qicore/StructureDefinition/qicore-condition-problems-health-concerns"]},"clinicalStatus":{"coding":[{"system":"http://terminology.hl7.org/CodeSystem/condition-clinical","code":"active"}]},"verificationStatus":{"coding":[{"system":"http://terminology.hl7.org/CodeSystem/condition-ver-status","code":"confirmed"}]},"category":[{"coding":[{"system":"http://terminology.hl7.org/CodeSystem/condition-category","code":"encounter-diagnosis","display":"Encounter Diagnosis"}]}],"code":{"coding":[{"system":"http://snomed.info/sct","version":"2021-09","code":"111297002","display":"Nonparalytic stroke (disorder)","userSelected":true}]},"subject":{"reference":"Patient/1f5b2ed3-23d6-4ffc-be6b-852117f506be"},"recordedDate":"2026-10-13T08:00:00Z"},"request":{"method":"PUT","url":"Condition/38b3fed5-2850-4615-ac89-f836ece25001"}},{"resource":{"resourceType":"Bundle","id":"633c9d030968f8012250fc6d","type":"transaction","entry":[{"fullUrl":"https://madie.cms.gov/Patient/1f5b2ed3-23d6-4ffc-be6b-852117f506be","resource":{"resourceType":"Patient","id":"1f5b2ed3-23d6-4ffc-be6b-852117f506be","meta":{"profile":["http://hl7.org/fhir/us/qicore/StructureDefinition/qicore-patient"]},"text":{"status":"generated","div":"<div xmlns=\"http://www.w3.org/1999/xhtml\"><div class=\"hapiHeaderText\">EncPrinDx=IschStk_EncDx=Afib/flutter <b>DENOMPASS </b></div><table class=\"hapiPropertyTable\"><tbody><tr><td>Identifier</td><td>bfd807e1d1993084d1164432ce591a06</td></tr><tr><td>Date of birth</td><td><span>01 December 1960</span></td></tr></tbody></table></div>"},"extension":[{"url":"http://hl7.org/fhir/us/core/StructureDefinition/us-core-race","extension":[{"url":"ombCategory","valueCoding":{"system":"urn:oid:2.16.840.1.113883.6.238","code":"1002-5","display":"American Indian or Alaska Native","userSelected":true}},{"url":"text","valueString":"American Indian or Alaska Native"}]},{"url":"http://hl7.org/fhir/us/core/StructureDefinition/us-core-ethnicity","extension":[{"url":"ombCategory","valueCoding":{"system":"urn:oid:2.16.840.1.113883.6.238","code":"2135-2","display":"Hispanic or Latino","userSelected":true}},{"url":"text","valueString":"Hispanic or Latino"}]}],"identifier":[{"type":{"coding":[{"system":"http://terminology.hl7.org/CodeSystem/v2-0203","code":"MR"}]},"system":"https://bonnie-fhir.healthit.gov/","value":"633c9d030968f8012250fc6d"}],"active":true,"name":[{"use":"usual","family":"DENOMPass","given":["EncPrinDx=IschStk_EncDx=Afib/flutter"]}],"gender":"male","birthDate":"1961-12-01"},"request":{"method":"PUT","url":"Patient/1f5b2ed3-23d6-4ffc-be6b-852117f506be"}},{"fullUrl":"https://madie.cms.gov/Encounter/78592f49-2ed7-4bb6-9f3c-5cef7a85778c","resource":{"resourceType":"Encounter","id":"78592f49-2ed7-4bb6-9f3c-5cef7a85778c","meta":{"profile":["http://hl7.org/fhir/us/qicore/StructureDefinition/qicore-encounter"]},"status":"finished","class":{"system":"http://terminology.hl7.org/CodeSystem/v3-ActCode","code":"IMP","display":"inpatient encounter"},"type":[{"coding":[{"system":"http://snomed.info/sct","code":"183452005"}]}],"subject":{"reference":"Patient/1f5b2ed3-23d6-4ffc-be6b-852117f506be"},"period":{"start":"2026-02-08T08:00:00Z","end":"2026-02-10T08:15:00.000+00:00"},"length":{"value":2,"unit":"days"},"reasonReference":[{"reference":"Condition/9fbb75c4-12ac-445e-85ff-ea7530e2e530"}]},"request":{"method":"PUT","url":"Encounter/78592f49-2ed7-4bb6-9f3c-5cef7a85778c"}},{"fullUrl":"https://madie.cms.gov/claim/5ca62962b8484628b8de1ec5","resource":{"resourceType":"Claim","id":"5ca62962b8484628b8de1ec5","meta":{"profile":["http://hl7.org/fhir/us/qicore/StructureDefinition/qicore-claim"]},"status":"active","type":{"coding":[{"system":"http://terminology.hl7.org/CodeSystem/claim-type","code":"institutional"}]},"use":"claim","patient":{"reference":"Patient/d170a0a8-b5ad-4303-b6df-e304dd5f92ad"},"created":"2026-12-01","provider":{"reference":"Practitioner/2ec84e99-f8c6-489f-ba55-a6092d242dd7"},"priority":{"coding":[{"system":"http://terminology.hl7.org/CodeSystem/processpriority","code":"normal"}]},"diagnosis":[{"sequence":1,"diagnosisCodeableConcept":{"coding":[{"system":"http://hl7.org/fhir/sid/icd-10-cm","code":"I63.00"}]},"type":[{"coding":[{"system":"http://terminology.hl7.org/CodeSystem/ex-diagnosistype","code":"principal"}]}]}],"insurance":[{"sequence":1,"focal":true,"coverage":{"reference":"Coverage/5fa041661c76ba66d9959367"}}],"item":[{"sequence":1,"diagnosisSequence":[1],"productOrService":{"coding":[{"system":"http://terminology.hl7.org/CodeSystem/ex-USCLS","code":"99555"}]},"encounter":[{"reference":"Encounter/78592f49-2ed7-4bb6-9f3c-5cef7a85778c"}]}]},"request":{"method":"PUT","url":"Claim/5ca62962b8484628b8de1ec5"}},{"fullUrl":"https://madie.cms.gov/Coverage/0c33bd24-2ed2-4cf6-93f4-40622b4f2413","resource":{"resourceType":"Coverage","id":"0c33bd24-2ed2-4cf6-93f4-40622b4f2413","meta":{"profile":["http://hl7.org/fhir/us/qicore/StructureDefinition/qicore-coverage"]},"status":"active","subscriberId":"523435","beneficiary":{"reference":"Patient/162a5913-9989-42f2-8d6a-ae460e245e4c"},"relationship":{"coding":[{"system":"http://terminology.hl7.org/CodeSystem/subscriber-relationship","code":"self"}]},"payor":[{"reference":"Organization/7c37c6ba-296b-43c9-948a-d7487852afb0"}]},"request":{"method":"PUT","url":"Coverage/0c33bd24-2ed2-4cf6-93f4-40622b4f2413"}},{"fullUrl":"https://madie.cms.gov/Condition/38b3fed5-2850-4615-ac89-f836ece25001","resource":{"resourceType":"Condition","id":"38b3fed5-2850-4615-ac89-f836ece25001","meta":{"profile":["http://hl7.org/fhir/us/qicore/StructureDefinition/qicore-condition-problems-health-concerns"]},"clinicalStatus":{"coding":[{"system":"http://terminology.hl7.org/CodeSystem/condition-clinical","code":"active"}]},"verificationStatus":{"coding":[{"system":"http://terminology.hl7.org/CodeSystem/condition-ver-status","code":"confirmed"}]},"category":[{"coding":[{"system":"http://terminology.hl7.org/CodeSystem/condition-category","code":"encounter-diagnosis","display":"Encounter Diagnosis"}]}],"code":{"coding":[{"system":"http://snomed.info/sct","version":"2021-09","code":"111297002","display":"Nonparalytic stroke (disorder)","userSelected":true}]},"subject":{"reference":"Patient/1f5b2ed3-23d6-4ffc-be6b-852117f506be"},"recordedDate":"2026-10-13T08:00:00Z"},"request":{"method":"PUT","url":"Condition/38b3fed5-2850-4615-ac89-f836ece25001"}},{"fullUrl":"https://madie.cms.gov/Condition/9fbb75c4-12ac-445e-85ff-ea7530e2e530","resource":{"resourceType":"Condition","id":"9fbb75c4-12ac-445e-85ff-ea7530e2e530","meta":{"profile":["http://hl7.org/fhir/us/qicore/StructureDefinition/qicore-condition-encounter-diagnosis"]},"clinicalStatus":{"coding":[{"system":"http://terminology.hl7.org/CodeSystem/condition-clinical","code":"active"}]},"verificationStatus":{"coding":[{"system":"http://terminology.hl7.org/CodeSystem/condition-ver-status","code":"confirmed"}]},"category":[{"coding":[{"system":"http://terminology.hl7.org/CodeSystem/condition-category","code":"encounter-diagnosis","display":"Encounter Diagnosis"}]}],"code":{"coding":[{"system":"http://snomed.info/sct","version":"2021-09","code":"120041000119109","display":"Atrial fibrillation with rapid ventricular response (disorder)","userSelected":true}]},"subject":{"reference":"Patient/1f5b2ed3-23d6-4ffc-be6b-852117f506be"},"encounter":{"reference":"Encounter/78592f49-2ed7-4bb6-9f3c-5cef7a85778c"},"onsetDateTime":"2012-05-24T00:00:00Z","recordedDate":"2026-10-13T08:00:00Z"},"request":{"method":"PUT","url":"Condition/9fbb75c4-12ac-445e-85ff-ea7530e2e530"}},{"fullUrl":"https://madie.cms.gov/Organization/7c37c6ba-296b-43c9-948a-d7487852afb0","resource":{"resourceType":"Organization","id":"7c37c6ba-296b-43c9-948a-d7487852afb0","meta":{"profile":["http://hl7.org/fhir/us/qicore/StructureDefinition/qicore-organization"]},"identifier":[{"use":"temp","system":"urn:oid:2.16.840.1.113883.4.4","value":"21-3259825"}],"active":true,"type":[{"coding":[{"system":"http://terminology.hl7.org/CodeSystem/organization-type","code":"pay","display":"Payer"}]}],"name":"Blue Cross Blue Shield of Texas","telecom":[{"system":"phone","value":"(+1) 972-766-6900"}],"address":[{"use":"billing","type":"postal","line":["P.O. Box 660044"],"city":"Dallas","state":"TX","postalCode":"75266-0044","country":"USA"}]},"request":{"method":"PUT","url":"Organization/7c37c6ba-296b-43c9-948a-d7487852afb0"}},{"fullUrl":"https://madie.cms.gov/Practitioner/2ec84e99-f8c6-489f-ba55-a6092d242dd7","resource":{"resourceType":"Practitioner","id":"2ec84e99-f8c6-489f-ba55-a6092d242dd7","meta":{"profile":["http://hl7.org/fhir/us/qicore/StructureDefinition/qicore-practitioner"]},"identifier":[{"system":"http://hl7.org/fhir/sid/us-npi","value":"9999999896"}],"name":[{"family":"Evil","prefix":["Dr"]}]},"request":{"method":"PUT","url":"Practitioner/2ec84e99-f8c6-489f-ba55-a6092d242dd7"}},{"fullUrl":"https://madie.cms.gov/MeasureReport/45433c11-d856-4510-b003-71066ba8d064","resource":{"resourceType":"MeasureReport","id":"45433c11-d856-4510-b003-71066ba8d064","meta":{"profile":["http://hl7.org/fhir/us/cqfmeasures/StructureDefinition/test-case-cqfm"]},"contained":[{"resourceType":"Parameters","id":"7e80ea9f-b508-4d6e-905e-8d32ab26ad05-parameters","parameter":[{"name":"subject","valueString":"1f5b2ed3-23d6-4ffc-be6b-852117f506be"}]}],"extension":[{"url":"http://hl7.org/fhir/StructureDefinition/cqf-inputParameters","valueReference":{"reference":"#7e80ea9f-b508-4d6e-905e-8d32ab26ad05-parameters"}},{"url":"http://hl7.org/fhir/us/cqfmeasures/StructureDefinition/cqfm-testCaseDescription","valueMarkdown":"\"Encounter Principal diagnosis = Ischemic stroke,\nEncounter Dx = Atrial fib/flutter.  testing encounter diagnosis as an attribute \"\n"}],"modifierExtension":[{"url":"http://hl7.org/fhir/us/cqfmeasures/StructureDefinition/cqfm-isTestCase","valueBoolean":true}],"status":"complete","type":"individual","measure":"https://madie.cms.gov/Measure/CMS71FHIRSTKAnticoagAFFlutter","period":{"start":"2026-01-01","end":"2026-12-31"},"group":[{"id":"Group_1","population":[{"id":"InitialPopulation_1","code":{"coding":[{"system":"http://terminology.hl7.org/CodeSystem/measure-population","code":"initial-population","display":"Initial Population"}]},"count":1},{"id":"Denominator_1","code":{"coding":[{"system":"http://terminology.hl7.org/CodeSystem/measure-population","code":"denominator","display":"Denominator"}]},"count":1},{"id":"DenominatorExclusion_1","code":{"coding":[{"system":"http://terminology.hl7.org/CodeSystem/measure-population","code":"denominator-exclusion","display":"Denominator Exclusion"}]},"count":0},{"id":"Numerator_1","code":{"coding":[{"system":"http://terminology.hl7.org/CodeSystem/measure-population","code":"numerator","display":"Numerator"}]},"count":0},{"id":"DenominatorException_1","code":{"coding":[{"system":"http://terminology.hl7.org/CodeSystem/measure-population","code":"denominator-exception","display":"Denominator Exception"}]},"count":0}],"measureScore":{"value":0.0}}],"evaluatedResource":[{"reference":"Patient/1f5b2ed3-23d6-4ffc-be6b-852117f506be"},{"reference":"Encounter/78592f49-2ed7-4bb6-9f3c-5cef7a85778c"},{"reference":"Claim/5ca62962b8484628b8de1ec5"},{"reference":"Coverage/0c33bd24-2ed2-4cf6-93f4-40622b4f2413"},{"reference":"Condition/38b3fed5-2850-4615-ac89-f836ece25001"},{"reference":"Condition/9fbb75c4-12ac-445e-85ff-ea7530e2e530"},{"reference":"Organization/7c37c6ba-296b-43c9-948a-d7487852afb0"},{"reference":"Practitioner/2ec84e99-f8c6-489f-ba55-a6092d242dd7"}]},"request":{"method":"PUT","url":"MeasureReport/45433c11-d856-4510-b003-71066ba8d064"}}]},"request":{"method":"PUT","url":"Bundle/633c9d030968f8012250fc6d"}},{"resource":{"resourceType":"Organization","id":"7c37c6ba-296b-43c9-948a-d7487852afb0","meta":{"profile":["http://hl7.org/fhir/us/qicore/StructureDefinition/qicore-organization"]},"identifier":[{"use":"temp","system":"urn:oid:2.16.840.1.113883.4.4","value":"21-3259825"}],"active":true,"type":[{"coding":[{"system":"http://terminology.hl7.org/CodeSystem/organization-type","code":"pay","display":"Payer"}]}],"name":"Blue Cross Blue Shield of Texas","telecom":[{"system":"phone","value":"(+1) 972-766-6900"}],"address":[{"use":"billing","type":"postal","line":["P.O. Box 660044"],"city":"Dallas","state":"TX","postalCode":"75266-0044","country":"USA"}]},"request":{"method":"PUT","url":"Organization/7c37c6ba-296b-43c9-948a-d7487852afb0"}},{"resource":{"resourceType":"Patient","id":"1f5b2ed3-23d6-4ffc-be6b-852117f506be","meta":{"profile":["http://hl7.org/fhir/us/qicore/StructureDefinition/qicore-patient"]},"text":{"status":"generated","div":"<div xmlns=\"http://www.w3.org/1999/xhtml\"><div class=\"hapiHeaderText\">EncPrinDx=IschStk_EncDx=Afib/flutter <b>DENOMPASS </b></div><table class=\"hapiPropertyTable\"><tbody><tr><td>Identifier</td><td>bfd807e1d1993084d1164432ce591a06</td></tr><tr><td>Date of birth</td><td><span>01 December 1960</span></td></tr></tbody></table></div>"},"extension":[{"url":"http://hl7.org/fhir/us/core/StructureDefinition/us-core-race","extension":[{"url":"ombCategory","valueCoding":{"system":"urn:oid:2.16.840.1.113883.6.238","code":"1002-5","display":"American Indian or Alaska Native","userSelected":true}},{"url":"text","valueString":"American Indian or Alaska Native"}]},{"url":"http://hl7.org/fhir/us/core/StructureDefinition/us-core-ethnicity","extension":[{"url":"ombCategory","valueCoding":{"system":"urn:oid:2.16.840.1.113883.6.238","code":"2135-2","display":"Hispanic or Latino","userSelected":true}},{"url":"text","valueString":"Hispanic or Latino"}]}],"identifier":[{"type":{"coding":[{"system":"http://terminology.hl7.org/CodeSystem/v2-0203","code":"MR"}]},"system":"https://bonnie-fhir.healthit.gov/","value":"633c9d030968f8012250fc6d"}],"active":true,"name":[{"use":"usual","family":"DENOMPass","given":["EncPrinDx=IschStk_EncDx=Afib/flutter"]}],"gender":"male","birthDate":"1961-12-01"},"request":{"method":"PUT","url":"Patient/1f5b2ed3-23d6-4ffc-be6b-852117f506be"}},{"resource":{"resourceType":"MeasureReport","id":"45433c11-d856-4510-b003-71066ba8d064","meta":{"profile":["http://hl7.org/fhir/us/cqfmeasures/StructureDefinition/test-case-cqfm"]},"contained":[{"resourceType":"Parameters","id":"7e80ea9f-b508-4d6e-905e-8d32ab26ad05-parameters","parameter":[{"name":"subject","valueString":"1f5b2ed3-23d6-4ffc-be6b-852117f506be"}]}],"extension":[{"url":"http://hl7.org/fhir/StructureDefinition/cqf-inputParameters","valueReference":{"reference":"#7e80ea9f-b508-4d6e-905e-8d32ab26ad05-parameters"}},{"url":"http://hl7.org/fhir/us/cqfmeasures/StructureDefinition/cqfm-testCaseDescription","valueMarkdown":"\"Encounter Principal diagnosis = Ischemic stroke,\nEncounter Dx = Atrial fib/flutter.  testing encounter diagnosis as an attribute \"\n"}],"modifierExtension":[{"url":"http://hl7.org/fhir/us/cqfmeasures/StructureDefinition/cqfm-isTestCase","valueBoolean":true}],"status":"complete","type":"individual","measure":"https://madie.cms.gov/Measure/CMS71FHIRSTKAnticoagAFFlutter","period":{"start":"2026-01-01","end":"2026-12-31"},"group":[{"id":"Group_1","population":[{"id":"InitialPopulation_1","code":{"coding":[{"system":"http://terminology.hl7.org/CodeSystem/measure-population","code":"initial-population","display":"Initial Population"}]},"count":1},{"id":"Denominator_1","code":{"coding":[{"system":"http://terminology.hl7.org/CodeSystem/measure-population","code":"denominator","display":"Denominator"}]},"count":1},{"id":"DenominatorExclusion_1","code":{"coding":[{"system":"http://terminology.hl7.org/CodeSystem/measure-population","code":"denominator-exclusion","display":"Denominator Exclusion"}]},"count":0},{"id":"Numerator_1","code":{"coding":[{"system":"http://terminology.hl7.org/CodeSystem/measure-population","code":"numerator","display":"Numerator"}]},"count":0},{"id":"DenominatorException_1","code":{"coding":[{"system":"http://terminology.hl7.org/CodeSystem/measure-population","code":"denominator-exception","display":"Denominator Exception"}]},"count":0}],"measureScore":{"value":0.0}}],"evaluatedResource":[{"reference":"Patient/1f5b2ed3-23d6-4ffc-be6b-852117f506be"},{"reference":"Encounter/78592f49-2ed7-4bb6-9f3c-5cef7a85778c"},{"reference":"Claim/5ca62962b8484628b8de1ec5"},{"reference":"Coverage/0c33bd24-2ed2-4cf6-93f4-40622b4f2413"},{"reference":"Condition/38b3fed5-2850-4615-ac89-f836ece25001"},{"reference":"Condition/9fbb75c4-12ac-445e-85ff-ea7530e2e530"},{"reference":"Organization/7c37c6ba-296b-43c9-948a-d7487852afb0"},{"reference":"Practitioner/2ec84e99-f8c6-489f-ba55-a6092d242dd7"}]},"request":{"method":"PUT","url":"MeasureReport/45433c11-d856-4510-b003-71066ba8d064"}},{"resource":{"resourceType":"Claim","id":"5ca62962b8484628b8de1ec5","meta":{"profile":["http://hl7.org/fhir/us/qicore/StructureDefinition/qicore-claim"]},"status":"active","type":{"coding":[{"system":"http://terminology.hl7.org/CodeSystem/claim-type","code":"institutional"}]},"use":"claim","patient":{"reference":"Patient/d170a0a8-b5ad-4303-b6df-e304dd5f92ad"},"created":"2026-12-01","provider":{"reference":"Practitioner/2ec84e99-f8c6-489f-ba55-a6092d242dd7"},"priority":{"coding":[{"system":"http://terminology.hl7.org/CodeSystem/processpriority","code":"normal"}]},"diagnosis":[{"sequence":1,"diagnosisCodeableConcept":{"coding":[{"system":"http://hl7.org/fhir/sid/icd-10-cm","code":"I63.00"}]},"type":[{"coding":[{"system":"http://terminology.hl7.org/CodeSystem/ex-diagnosistype","code":"principal"}]}]}],"insurance":[{"sequence":1,"focal":true,"coverage":{"reference":"Coverage/5fa041661c76ba66d9959367"}}],"item":[{"sequence":1,"diagnosisSequence":[1],"productOrService":{"coding":[{"system":"http://terminology.hl7.org/CodeSystem/ex-USCLS","code":"99555"}]},"encounter":[{"reference":"Encounter/78592f49-2ed7-4bb6-9f3c-5cef7a85778c"}]}]},"request":{"method":"PUT","url":"Claim/5ca62962b8484628b8de1ec5"}}]}