{"resourceType":"Bundle","id":"tests-56ae006d-ab1b-428d-8614-2ccd5d962650-bundle","type":"transaction","entry":[{"resource":{"resourceType":"MedicationRequest","id":"fd42f756-e01d-4440-8267-db4de45fad58","meta":{"profile":["http://hl7.org/fhir/us/qicore/StructureDefinition/qicore-medicationrequest"]},"status":"active","intent":"order","category":[{"coding":[{"system":"http://terminology.hl7.org/CodeSystem/medicationrequest-category","code":"community","display":"Community","userSelected":true}]}],"medicationCodeableConcept":{"coding":[{"system":"http://www.nlm.nih.gov/research/umls/rxnorm","code":"308351"}]},"subject":{"reference":"Patient/56ae006d-ab1b-428d-8614-2ccd5d962650"},"authoredOn":"2026-11-20T08:00:00Z","requester":{"reference":"Practitioner/example"}},"request":{"method":"PUT","url":"MedicationRequest/fd42f756-e01d-4440-8267-db4de45fad58"}},{"resource":{"resourceType":"Bundle","id":"633c9d030968f8012250fc93","type":"transaction","entry":[{"fullUrl":"https://madie.cms.gov/Patient/56ae006d-ab1b-428d-8614-2ccd5d962650","resource":{"resourceType":"Patient","id":"56ae006d-ab1b-428d-8614-2ccd5d962650","meta":{"profile":["http://hl7.org/fhir/us/qicore/StructureDefinition/qicore-patient"]},"text":{"status":"generated","div":"<div xmlns=\"http://www.w3.org/1999/xhtml\"><div class=\"hapiHeaderText\">MedDCAnticoaStartTmEQEncAdmTm <b>NUMERPASS </b></div><table class=\"hapiPropertyTable\"><tbody><tr><td>Identifier</td><td>31fcea6cd6f0c1c8b9c40622729fede7</td></tr><tr><td>Date of birth</td><td><span>23 May 1954</span></td></tr></tbody></table></div>"},"extension":[{"url":"http://hl7.org/fhir/us/core/StructureDefinition/us-core-race","extension":[{"url":"ombCategory","valueCoding":{"system":"urn:oid:2.16.840.1.113883.6.238","code":"1002-5","display":"American Indian or Alaska Native","userSelected":true}},{"url":"text","valueString":"American Indian or Alaska Native"}]},{"url":"http://hl7.org/fhir/us/core/StructureDefinition/us-core-ethnicity","extension":[{"url":"ombCategory","valueCoding":{"system":"urn:oid:2.16.840.1.113883.6.238","code":"2135-2","display":"Hispanic or Latino","userSelected":true}},{"url":"text","valueString":"Hispanic or Latino"}]},{"url":"http://hl7.org/fhir/us/core/StructureDefinition/us-core-sex","valueCode":"248153007"}],"identifier":[{"type":{"coding":[{"system":"http://terminology.hl7.org/CodeSystem/v2-0203","code":"MR"}]},"system":"https://bonnie-fhir.healthit.gov/","value":"633c9d030968f8012250fc93"}],"active":true,"name":[{"use":"usual","family":"NUMERPass","given":["DCANTIcoagHXofABlat"]}],"gender":"female","birthDate":"1955-05-23"},"request":{"method":"PUT","url":"Patient/56ae006d-ab1b-428d-8614-2ccd5d962650"}},{"fullUrl":"https://madie.cms.gov/Condition/39b7be1c-ded1-4641-a2a2-8a5fd81b302f","resource":{"resourceType":"Condition","id":"39b7be1c-ded1-4641-a2a2-8a5fd81b302f","meta":{"profile":["http://hl7.org/fhir/us/qicore/StructureDefinition/qicore-condition-problems-health-concerns"]},"verificationStatus":{"coding":[{"system":"http://terminology.hl7.org/CodeSystem/condition-ver-status","code":"confirmed"}]},"category":[{"coding":[{"system":"http://terminology.hl7.org/CodeSystem/condition-category","code":"encounter-diagnosis","display":"Encounter Diagnosis"}]}],"code":{"coding":[{"system":"http://snomed.info/sct","code":"429508000"}]},"subject":{"reference":"Patient/56ae006d-ab1b-428d-8614-2ccd5d962650"},"onsetDateTime":"2026-11-18T06:00:00Z"},"request":{"method":"PUT","url":"Condition/39b7be1c-ded1-4641-a2a2-8a5fd81b302f"}},{"fullUrl":"https://madie.cms.gov/Encounter/284e82a0-eccc-4f27-9e71-01e4abd310c5","resource":{"resourceType":"Encounter","id":"284e82a0-eccc-4f27-9e71-01e4abd310c5","meta":{"profile":["http://hl7.org/fhir/us/qicore/StructureDefinition/qicore-encounter"]},"status":"finished","class":{"system":"http://terminology.hl7.org/CodeSystem/v3-ActCode","code":"IMP","display":"inpatient encounter"},"type":[{"coding":[{"system":"http://snomed.info/sct","code":"32485007"}]}],"subject":{"reference":"Patient/56ae006d-ab1b-428d-8614-2ccd5d962650"},"period":{"start":"2026-11-20T08:00:00Z","end":"2026-11-24T08:15:00.000+00:00"},"length":{"value":4,"unit":"days"},"reasonReference":[{"reference":"Condition/39b7be1c-ded1-4641-a2a2-8a5fd81b302f"}]},"request":{"method":"PUT","url":"Encounter/284e82a0-eccc-4f27-9e71-01e4abd310c5"}},{"fullUrl":"https://madie.cms.gov/MedicationRequest/fd42f756-e01d-4440-8267-db4de45fad58","resource":{"resourceType":"MedicationRequest","id":"fd42f756-e01d-4440-8267-db4de45fad58","meta":{"profile":["http://hl7.org/fhir/us/qicore/StructureDefinition/qicore-medicationrequest"]},"status":"active","intent":"order","category":[{"coding":[{"system":"http://terminology.hl7.org/CodeSystem/medicationrequest-category","code":"community","display":"Community","userSelected":true}]}],"medicationCodeableConcept":{"coding":[{"system":"http://www.nlm.nih.gov/research/umls/rxnorm","code":"308351"}]},"subject":{"reference":"Patient/56ae006d-ab1b-428d-8614-2ccd5d962650"},"authoredOn":"2026-11-20T08:00:00Z","requester":{"reference":"Practitioner/example"}},"request":{"method":"PUT","url":"MedicationRequest/fd42f756-e01d-4440-8267-db4de45fad58"}},{"fullUrl":"https://madie.cms.gov/Coverage/81da1cc4-f062-40f3-82a0-0a1e731a9146","resource":{"resourceType":"Coverage","id":"81da1cc4-f062-40f3-82a0-0a1e731a9146","meta":{"profile":["http://hl7.org/fhir/us/qicore/StructureDefinition/qicore-coverage"]},"status":"active","subscriberId":"523435","beneficiary":{"reference":"Patient/162a5913-9989-42f2-8d6a-ae460e245e4c"},"relationship":{"coding":[{"system":"http://terminology.hl7.org/CodeSystem/subscriber-relationship","code":"self"}]},"payor":[{"reference":"Organization/abcc41ac-98c4-41fe-8be2-e14d9c45157a"}]},"request":{"method":"PUT","url":"Coverage/81da1cc4-f062-40f3-82a0-0a1e731a9146"}},{"fullUrl":"https://madie.cms.gov/Condition/d6829084-5170-4036-bc28-c9fc492ff7c8","resource":{"resourceType":"Condition","id":"d6829084-5170-4036-bc28-c9fc492ff7c8","meta":{"profile":["http://hl7.org/fhir/us/qicore/StructureDefinition/qicore-condition-problems-health-concerns"]},"clinicalStatus":{"coding":[{"system":"http://terminology.hl7.org/CodeSystem/condition-clinical","code":"active"}]},"verificationStatus":{"coding":[{"system":"http://terminology.hl7.org/CodeSystem/condition-ver-status","code":"confirmed"}]},"category":[{"coding":[{"system":"http://terminology.hl7.org/CodeSystem/condition-category","code":"encounter-diagnosis","display":"Encounter Diagnosis"}]}],"code":{"coding":[{"system":"http://snomed.info/sct","version":"2021-09","code":"111297002","display":"Nonparalytic stroke (disorder)","userSelected":true}]},"subject":{"reference":"Patient/56ae006d-ab1b-428d-8614-2ccd5d962650"},"recordedDate":"2026-10-13T08:00:00Z"},"request":{"method":"PUT","url":"Condition/d6829084-5170-4036-bc28-c9fc492ff7c8"}},{"fullUrl":"https://madie.cms.gov/claim/5ca62962b8484628b8de1ec5","resource":{"resourceType":"Claim","id":"5ca62962b8484628b8de1ec5","meta":{"profile":["http://hl7.org/fhir/us/qicore/StructureDefinition/qicore-claim"]},"status":"active","type":{"coding":[{"system":"http://terminology.hl7.org/CodeSystem/claim-type","code":"institutional"}]},"use":"claim","patient":{"reference":"Patient/d170a0a8-b5ad-4303-b6df-e304dd5f92ad"},"created":"2026-12-01","provider":{"reference":"Practitioner/13388abc-38f5-48e7-80aa-721455ff1224"},"priority":{"coding":[{"system":"http://terminology.hl7.org/CodeSystem/processpriority","code":"normal"}]},"diagnosis":[{"sequence":1,"diagnosisCodeableConcept":{"coding":[{"system":"http://hl7.org/fhir/sid/icd-10-cm","code":"I63.00"}]},"type":[{"coding":[{"system":"http://terminology.hl7.org/CodeSystem/ex-diagnosistype","code":"principal"}]}]}],"insurance":[{"sequence":1,"focal":true,"coverage":{"reference":"Coverage/5fa041661c76ba66d9959367"}}],"item":[{"sequence":1,"diagnosisSequence":[1],"productOrService":{"coding":[{"system":"http://terminology.hl7.org/CodeSystem/ex-USCLS","code":"99555"}]},"encounter":[{"reference":"Encounter/284e82a0-eccc-4f27-9e71-01e4abd310c5"}]}]},"request":{"method":"PUT","url":"Claim/5ca62962b8484628b8de1ec5"}},{"fullUrl":"https://madie.cms.gov/Organization/abcc41ac-98c4-41fe-8be2-e14d9c45157a","resource":{"resourceType":"Organization","id":"abcc41ac-98c4-41fe-8be2-e14d9c45157a","meta":{"profile":["http://hl7.org/fhir/us/qicore/StructureDefinition/qicore-organization"]},"identifier":[{"use":"temp","system":"urn:oid:2.16.840.1.113883.4.4","value":"21-3259825"}],"active":true,"type":[{"coding":[{"system":"http://terminology.hl7.org/CodeSystem/organization-type","code":"pay","display":"Payer"}]}],"name":"Blue Cross Blue Shield of Texas","telecom":[{"system":"phone","value":"(+1) 972-766-6900"}],"address":[{"use":"billing","type":"postal","line":["P.O. Box 660044"],"city":"Dallas","state":"TX","postalCode":"75266-0044","country":"USA"}]},"request":{"method":"PUT","url":"Organization/abcc41ac-98c4-41fe-8be2-e14d9c45157a"}},{"fullUrl":"https://madie.cms.gov/Practitioner/13388abc-38f5-48e7-80aa-721455ff1224","resource":{"resourceType":"Practitioner","id":"13388abc-38f5-48e7-80aa-721455ff1224","meta":{"profile":["http://hl7.org/fhir/us/qicore/StructureDefinition/qicore-practitioner"]},"identifier":[{"system":"http://hl7.org/fhir/sid/us-npi","value":"9999999896"}],"name":[{"family":"Evil","prefix":["Dr"]}]},"request":{"method":"PUT","url":"Practitioner/13388abc-38f5-48e7-80aa-721455ff1224"}},{"fullUrl":"https://madie.cms.gov/MeasureReport/bf0e46f3-73d0-4c1b-912a-485ef4d30e7f","resource":{"resourceType":"MeasureReport","id":"bf0e46f3-73d0-4c1b-912a-485ef4d30e7f","meta":{"profile":["http://hl7.org/fhir/us/cqfmeasures/StructureDefinition/test-case-cqfm"]},"contained":[{"resourceType":"Parameters","id":"75668569-2f86-4c5e-a918-4d70aa219059-parameters","parameter":[{"name":"subject","valueString":"56ae006d-ab1b-428d-8614-2ccd5d962650"}]}],"extension":[{"url":"http://hl7.org/fhir/StructureDefinition/cqf-inputParameters","valueReference":{"reference":"#75668569-2f86-4c5e-a918-4d70aa219059-parameters"}},{"url":"http://hl7.org/fhir/us/cqfmeasures/StructureDefinition/cqfm-testCaseDescription","valueMarkdown":"Patient DC on Anticoagulant has a History of Atrial Ablation as confirmed"}],"modifierExtension":[{"url":"http://hl7.org/fhir/us/cqfmeasures/StructureDefinition/cqfm-isTestCase","valueBoolean":true}],"status":"complete","type":"individual","measure":"https://madie.cms.gov/Measure/CMS71FHIRSTKAnticoagAFFlutter","period":{"start":"2026-01-01","end":"2026-12-31"},"group":[{"id":"Group_1","population":[{"id":"InitialPopulation_1","code":{"coding":[{"system":"http://terminology.hl7.org/CodeSystem/measure-population","code":"initial-population","display":"Initial Population"}]},"count":1},{"id":"Denominator_1","code":{"coding":[{"system":"http://terminology.hl7.org/CodeSystem/measure-population","code":"denominator","display":"Denominator"}]},"count":1},{"id":"DenominatorExclusion_1","code":{"coding":[{"system":"http://terminology.hl7.org/CodeSystem/measure-population","code":"denominator-exclusion","display":"Denominator Exclusion"}]},"count":0},{"id":"Numerator_1","code":{"coding":[{"system":"http://terminology.hl7.org/CodeSystem/measure-population","code":"numerator","display":"Numerator"}]},"count":1},{"id":"DenominatorException_1","code":{"coding":[{"system":"http://terminology.hl7.org/CodeSystem/measure-population","code":"denominator-exception","display":"Denominator Exception"}]},"count":0}],"measureScore":{"value":0.0}}],"evaluatedResource":[{"reference":"Patient/56ae006d-ab1b-428d-8614-2ccd5d962650"},{"reference":"Condition/39b7be1c-ded1-4641-a2a2-8a5fd81b302f"},{"reference":"Encounter/284e82a0-eccc-4f27-9e71-01e4abd310c5"},{"reference":"MedicationRequest/fd42f756-e01d-4440-8267-db4de45fad58"},{"reference":"Coverage/81da1cc4-f062-40f3-82a0-0a1e731a9146"},{"reference":"Condition/d6829084-5170-4036-bc28-c9fc492ff7c8"},{"reference":"Claim/5ca62962b8484628b8de1ec5"},{"reference":"Organization/abcc41ac-98c4-41fe-8be2-e14d9c45157a"},{"reference":"Practitioner/13388abc-38f5-48e7-80aa-721455ff1224"}]},"request":{"method":"PUT","url":"MeasureReport/bf0e46f3-73d0-4c1b-912a-485ef4d30e7f"}}]},"request":{"method":"PUT","url":"Bundle/633c9d030968f8012250fc93"}},{"resource":{"resourceType":"Encounter","id":"284e82a0-eccc-4f27-9e71-01e4abd310c5","meta":{"profile":["http://hl7.org/fhir/us/qicore/StructureDefinition/qicore-encounter"]},"status":"finished","class":{"system":"http://terminology.hl7.org/CodeSystem/v3-ActCode","code":"IMP","display":"inpatient encounter"},"type":[{"coding":[{"system":"http://snomed.info/sct","code":"32485007"}]}],"subject":{"reference":"Patient/56ae006d-ab1b-428d-8614-2ccd5d962650"},"period":{"start":"2026-11-20T08:00:00Z","end":"2026-11-24T08:15:00.000+00:00"},"length":{"value":4,"unit":"days"},"reasonReference":[{"reference":"Condition/39b7be1c-ded1-4641-a2a2-8a5fd81b302f"}]},"request":{"method":"PUT","url":"Encounter/284e82a0-eccc-4f27-9e71-01e4abd310c5"}},{"resource":{"resourceType":"MeasureReport","id":"bf0e46f3-73d0-4c1b-912a-485ef4d30e7f","meta":{"profile":["http://hl7.org/fhir/us/cqfmeasures/StructureDefinition/test-case-cqfm"]},"contained":[{"resourceType":"Parameters","id":"75668569-2f86-4c5e-a918-4d70aa219059-parameters","parameter":[{"name":"subject","valueString":"56ae006d-ab1b-428d-8614-2ccd5d962650"}]}],"extension":[{"url":"http://hl7.org/fhir/StructureDefinition/cqf-inputParameters","valueReference":{"reference":"#75668569-2f86-4c5e-a918-4d70aa219059-parameters"}},{"url":"http://hl7.org/fhir/us/cqfmeasures/StructureDefinition/cqfm-testCaseDescription","valueMarkdown":"Patient DC on Anticoagulant has a History of Atrial Ablation as confirmed"}],"modifierExtension":[{"url":"http://hl7.org/fhir/us/cqfmeasures/StructureDefinition/cqfm-isTestCase","valueBoolean":true}],"status":"complete","type":"individual","measure":"https://madie.cms.gov/Measure/CMS71FHIRSTKAnticoagAFFlutter","period":{"start":"2026-01-01","end":"2026-12-31"},"group":[{"id":"Group_1","population":[{"id":"InitialPopulation_1","code":{"coding":[{"system":"http://terminology.hl7.org/CodeSystem/measure-population","code":"initial-population","display":"Initial Population"}]},"count":1},{"id":"Denominator_1","code":{"coding":[{"system":"http://terminology.hl7.org/CodeSystem/measure-population","code":"denominator","display":"Denominator"}]},"count":1},{"id":"DenominatorExclusion_1","code":{"coding":[{"system":"http://terminology.hl7.org/CodeSystem/measure-population","code":"denominator-exclusion","display":"Denominator Exclusion"}]},"count":0},{"id":"Numerator_1","code":{"coding":[{"system":"http://terminology.hl7.org/CodeSystem/measure-population","code":"numerator","display":"Numerator"}]},"count":1},{"id":"DenominatorException_1","code":{"coding":[{"system":"http://terminology.hl7.org/CodeSystem/measure-population","code":"denominator-exception","display":"Denominator Exception"}]},"count":0}],"measureScore":{"value":0.0}}],"evaluatedResource":[{"reference":"Patient/56ae006d-ab1b-428d-8614-2ccd5d962650"},{"reference":"Condition/39b7be1c-ded1-4641-a2a2-8a5fd81b302f"},{"reference":"Encounter/284e82a0-eccc-4f27-9e71-01e4abd310c5"},{"reference":"MedicationRequest/fd42f756-e01d-4440-8267-db4de45fad58"},{"reference":"Coverage/81da1cc4-f062-40f3-82a0-0a1e731a9146"},{"reference":"Condition/d6829084-5170-4036-bc28-c9fc492ff7c8"},{"reference":"Claim/5ca62962b8484628b8de1ec5"},{"reference":"Organization/abcc41ac-98c4-41fe-8be2-e14d9c45157a"},{"reference":"Practitioner/13388abc-38f5-48e7-80aa-721455ff1224"}]},"request":{"method":"PUT","url":"MeasureReport/bf0e46f3-73d0-4c1b-912a-485ef4d30e7f"}},{"resource":{"resourceType":"Coverage","id":"81da1cc4-f062-40f3-82a0-0a1e731a9146","meta":{"profile":["http://hl7.org/fhir/us/qicore/StructureDefinition/qicore-coverage"]},"status":"active","subscriberId":"523435","beneficiary":{"reference":"Patient/162a5913-9989-42f2-8d6a-ae460e245e4c"},"relationship":{"coding":[{"system":"http://terminology.hl7.org/CodeSystem/subscriber-relationship","code":"self"}]},"payor":[{"reference":"Organization/abcc41ac-98c4-41fe-8be2-e14d9c45157a"}]},"request":{"method":"PUT","url":"Coverage/81da1cc4-f062-40f3-82a0-0a1e731a9146"}},{"resource":{"resourceType":"Organization","id":"abcc41ac-98c4-41fe-8be2-e14d9c45157a","meta":{"profile":["http://hl7.org/fhir/us/qicore/StructureDefinition/qicore-organization"]},"identifier":[{"use":"temp","system":"urn:oid:2.16.840.1.113883.4.4","value":"21-3259825"}],"active":true,"type":[{"coding":[{"system":"http://terminology.hl7.org/CodeSystem/organization-type","code":"pay","display":"Payer"}]}],"name":"Blue Cross Blue Shield of Texas","telecom":[{"system":"phone","value":"(+1) 972-766-6900"}],"address":[{"use":"billing","type":"postal","line":["P.O. Box 660044"],"city":"Dallas","state":"TX","postalCode":"75266-0044","country":"USA"}]},"request":{"method":"PUT","url":"Organization/abcc41ac-98c4-41fe-8be2-e14d9c45157a"}},{"resource":{"resourceType":"Condition","id":"39b7be1c-ded1-4641-a2a2-8a5fd81b302f","meta":{"profile":["http://hl7.org/fhir/us/qicore/StructureDefinition/qicore-condition-problems-health-concerns"]},"verificationStatus":{"coding":[{"system":"http://terminology.hl7.org/CodeSystem/condition-ver-status","code":"confirmed"}]},"category":[{"coding":[{"system":"http://terminology.hl7.org/CodeSystem/condition-category","code":"encounter-diagnosis","display":"Encounter Diagnosis"}]}],"code":{"coding":[{"system":"http://snomed.info/sct","code":"429508000"}]},"subject":{"reference":"Patient/56ae006d-ab1b-428d-8614-2ccd5d962650"},"onsetDateTime":"2026-11-18T06:00:00Z"},"request":{"method":"PUT","url":"Condition/39b7be1c-ded1-4641-a2a2-8a5fd81b302f"}},{"resource":{"resourceType":"Patient","id":"56ae006d-ab1b-428d-8614-2ccd5d962650","meta":{"profile":["http://hl7.org/fhir/us/qicore/StructureDefinition/qicore-patient"]},"text":{"status":"generated","div":"<div xmlns=\"http://www.w3.org/1999/xhtml\"><div class=\"hapiHeaderText\">MedDCAnticoaStartTmEQEncAdmTm <b>NUMERPASS </b></div><table class=\"hapiPropertyTable\"><tbody><tr><td>Identifier</td><td>31fcea6cd6f0c1c8b9c40622729fede7</td></tr><tr><td>Date of birth</td><td><span>23 May 1954</span></td></tr></tbody></table></div>"},"extension":[{"url":"http://hl7.org/fhir/us/core/StructureDefinition/us-core-race","extension":[{"url":"ombCategory","valueCoding":{"system":"urn:oid:2.16.840.1.113883.6.238","code":"1002-5","display":"American Indian or Alaska Native","userSelected":true}},{"url":"text","valueString":"American Indian or Alaska Native"}]},{"url":"http://hl7.org/fhir/us/core/StructureDefinition/us-core-ethnicity","extension":[{"url":"ombCategory","valueCoding":{"system":"urn:oid:2.16.840.1.113883.6.238","code":"2135-2","display":"Hispanic or Latino","userSelected":true}},{"url":"text","valueString":"Hispanic or Latino"}]},{"url":"http://hl7.org/fhir/us/core/StructureDefinition/us-core-sex","valueCode":"248153007"}],"identifier":[{"type":{"coding":[{"system":"http://terminology.hl7.org/CodeSystem/v2-0203","code":"MR"}]},"system":"https://bonnie-fhir.healthit.gov/","value":"633c9d030968f8012250fc93"}],"active":true,"name":[{"use":"usual","family":"NUMERPass","given":["DCANTIcoagHXofABlat"]}],"gender":"female","birthDate":"1955-05-23"},"request":{"method":"PUT","url":"Patient/56ae006d-ab1b-428d-8614-2ccd5d962650"}},{"resource":{"resourceType":"Condition","id":"d6829084-5170-4036-bc28-c9fc492ff7c8","meta":{"profile":["http://hl7.org/fhir/us/qicore/StructureDefinition/qicore-condition-problems-health-concerns"]},"clinicalStatus":{"coding":[{"system":"http://terminology.hl7.org/CodeSystem/condition-clinical","code":"active"}]},"verificationStatus":{"coding":[{"system":"http://terminology.hl7.org/CodeSystem/condition-ver-status","code":"confirmed"}]},"category":[{"coding":[{"system":"http://terminology.hl7.org/CodeSystem/condition-category","code":"encounter-diagnosis","display":"Encounter Diagnosis"}]}],"code":{"coding":[{"system":"http://snomed.info/sct","version":"2021-09","code":"111297002","display":"Nonparalytic stroke (disorder)","userSelected":true}]},"subject":{"reference":"Patient/56ae006d-ab1b-428d-8614-2ccd5d962650"},"recordedDate":"2026-10-13T08:00:00Z"},"request":{"method":"PUT","url":"Condition/d6829084-5170-4036-bc28-c9fc492ff7c8"}},{"resource":{"resourceType":"Claim","id":"5ca62962b8484628b8de1ec5","meta":{"profile":["http://hl7.org/fhir/us/qicore/StructureDefinition/qicore-claim"]},"status":"active","type":{"coding":[{"system":"http://terminology.hl7.org/CodeSystem/claim-type","code":"institutional"}]},"use":"claim","patient":{"reference":"Patient/d170a0a8-b5ad-4303-b6df-e304dd5f92ad"},"created":"2026-12-01","provider":{"reference":"Practitioner/13388abc-38f5-48e7-80aa-721455ff1224"},"priority":{"coding":[{"system":"http://terminology.hl7.org/CodeSystem/processpriority","code":"normal"}]},"diagnosis":[{"sequence":1,"diagnosisCodeableConcept":{"coding":[{"system":"http://hl7.org/fhir/sid/icd-10-cm","code":"I63.00"}]},"type":[{"coding":[{"system":"http://terminology.hl7.org/CodeSystem/ex-diagnosistype","code":"principal"}]}]}],"insurance":[{"sequence":1,"focal":true,"coverage":{"reference":"Coverage/5fa041661c76ba66d9959367"}}],"item":[{"sequence":1,"diagnosisSequence":[1],"productOrService":{"coding":[{"system":"http://terminology.hl7.org/CodeSystem/ex-USCLS","code":"99555"}]},"encounter":[{"reference":"Encounter/284e82a0-eccc-4f27-9e71-01e4abd310c5"}]}]},"request":{"method":"PUT","url":"Claim/5ca62962b8484628b8de1ec5"}},{"resource":{"resourceType":"Practitioner","id":"13388abc-38f5-48e7-80aa-721455ff1224","meta":{"profile":["http://hl7.org/fhir/us/qicore/StructureDefinition/qicore-practitioner"]},"identifier":[{"system":"http://hl7.org/fhir/sid/us-npi","value":"9999999896"}],"name":[{"family":"Evil","prefix":["Dr"]}]},"request":{"method":"PUT","url":"Practitioner/13388abc-38f5-48e7-80aa-721455ff1224"}}]}