{"resourceType":"Bundle","id":"tests-24ffee3e-9b5b-491e-8490-006d306e5f8a-bundle","type":"transaction","entry":[{"resource":{"resourceType":"Patient","id":"24ffee3e-9b5b-491e-8490-006d306e5f8a","meta":{"profile":["http://hl7.org/fhir/us/qicore/StructureDefinition/qicore-patient"]},"text":{"status":"generated","div":"<div xmlns=\"http://www.w3.org/1999/xhtml\"><div class=\"hapiHeaderText\">EncEndsB4MP <b>IPPFAIL </b></div><table class=\"hapiPropertyTable\"><tbody><tr><td>Identifier</td><td>c151187f98af848f2ba9485fb72e98d1</td></tr><tr><td>Date of birth</td><td><span>01 December 1960</span></td></tr></tbody></table></div>"},"extension":[{"url":"http://hl7.org/fhir/us/core/StructureDefinition/us-core-race","extension":[{"url":"ombCategory","valueCoding":{"system":"urn:oid:2.16.840.1.113883.6.238","code":"1002-5","display":"American Indian or Alaska Native","userSelected":true}},{"url":"text","valueString":"American Indian or Alaska Native"}]},{"url":"http://hl7.org/fhir/us/core/StructureDefinition/us-core-ethnicity","extension":[{"url":"ombCategory","valueCoding":{"system":"urn:oid:2.16.840.1.113883.6.238","code":"2135-2","display":"Hispanic or Latino","userSelected":true}},{"url":"text","valueString":"Hispanic or Latino"}]}],"identifier":[{"type":{"coding":[{"system":"http://terminology.hl7.org/CodeSystem/v2-0203","code":"MR"}]},"system":"https://bonnie-fhir.healthit.gov/","value":"633c9d030968f8012250fc76"}],"active":true,"name":[{"use":"usual","family":"IPPFail","given":["EncEndsB4MP"]}],"gender":"male","birthDate":"1961-12-01"},"request":{"method":"PUT","url":"Patient/24ffee3e-9b5b-491e-8490-006d306e5f8a"}},{"resource":{"resourceType":"Condition","id":"41df64f4-dd9d-4c8e-bb40-cde225398ec0","meta":{"profile":["http://hl7.org/fhir/us/qicore/StructureDefinition/qicore-condition-problems-health-concerns"]},"clinicalStatus":{"coding":[{"system":"http://terminology.hl7.org/CodeSystem/condition-clinical","code":"active"}]},"verificationStatus":{"coding":[{"system":"http://terminology.hl7.org/CodeSystem/condition-ver-status","code":"confirmed"}]},"category":[{"coding":[{"system":"http://terminology.hl7.org/CodeSystem/condition-category","code":"encounter-diagnosis","display":"Encounter Diagnosis"}]}],"code":{"coding":[{"system":"http://snomed.info/sct","version":"2021-09","code":"111297002","display":"Nonparalytic stroke (disorder)","userSelected":true}]},"subject":{"reference":"Patient/24ffee3e-9b5b-491e-8490-006d306e5f8a"},"recordedDate":"2026-10-13T08:00:00Z"},"request":{"method":"PUT","url":"Condition/41df64f4-dd9d-4c8e-bb40-cde225398ec0"}},{"resource":{"resourceType":"Coverage","id":"f01e65cf-151e-4a89-9bf3-465dff18602a","meta":{"profile":["http://hl7.org/fhir/us/qicore/StructureDefinition/qicore-coverage"]},"status":"active","subscriberId":"523435","beneficiary":{"reference":"Patient/162a5913-9989-42f2-8d6a-ae460e245e4c"},"relationship":{"coding":[{"system":"http://terminology.hl7.org/CodeSystem/subscriber-relationship","code":"self"}]},"payor":[{"reference":"Organization/e5dcd963-4e93-4598-aba2-2a6c700bce26"}]},"request":{"method":"PUT","url":"Coverage/f01e65cf-151e-4a89-9bf3-465dff18602a"}},{"resource":{"resourceType":"Encounter","id":"ff0badb7-f5fb-419d-9d1e-ccdf1de51180","meta":{"profile":["http://hl7.org/fhir/us/qicore/StructureDefinition/qicore-encounter"]},"status":"finished","class":{"system":"http://terminology.hl7.org/CodeSystem/v3-ActCode","code":"IMP","display":"inpatient encounter"},"type":[{"coding":[{"system":"http://snomed.info/sct","code":"32485007"}]}],"subject":{"reference":"Patient/24ffee3e-9b5b-491e-8490-006d306e5f8a"},"period":{"start":"2012-12-01T08:00:00Z","end":"2012-12-31T23:59:00.000+00:00"},"length":{"value":30,"unit":"days"},"reasonReference":[{"reference":"Condition/41df64f4-dd9d-4c8e-bb40-cde225398ec0"}]},"request":{"method":"PUT","url":"Encounter/ff0badb7-f5fb-419d-9d1e-ccdf1de51180"}},{"resource":{"resourceType":"MeasureReport","id":"aa5c7ebd-6330-4ed8-a86a-41a9df6599d6","meta":{"profile":["http://hl7.org/fhir/us/cqfmeasures/StructureDefinition/test-case-cqfm"]},"contained":[{"resourceType":"Parameters","id":"347a7f35-e30e-48af-a514-f2be21e21a9c-parameters","parameter":[{"name":"subject","valueString":"24ffee3e-9b5b-491e-8490-006d306e5f8a"}]}],"extension":[{"url":"http://hl7.org/fhir/StructureDefinition/cqf-inputParameters","valueReference":{"reference":"#347a7f35-e30e-48af-a514-f2be21e21a9c-parameters"}},{"url":"http://hl7.org/fhir/us/cqfmeasures/StructureDefinition/cqfm-testCaseDescription","valueMarkdown":"Principal diagnosis = ischemic stroke, age GE 18, encounter ends before MP\n"}],"modifierExtension":[{"url":"http://hl7.org/fhir/us/cqfmeasures/StructureDefinition/cqfm-isTestCase","valueBoolean":true}],"status":"complete","type":"individual","measure":"https://madie.cms.gov/Measure/CMS71FHIRSTKAnticoagAFFlutter","period":{"start":"2026-01-01","end":"2026-12-31"},"group":[{"id":"Group_1","population":[{"id":"InitialPopulation_1","code":{"coding":[{"system":"http://terminology.hl7.org/CodeSystem/measure-population","code":"initial-population","display":"Initial Population"}]},"count":0},{"id":"Denominator_1","code":{"coding":[{"system":"http://terminology.hl7.org/CodeSystem/measure-population","code":"denominator","display":"Denominator"}]},"count":0},{"id":"DenominatorExclusion_1","code":{"coding":[{"system":"http://terminology.hl7.org/CodeSystem/measure-population","code":"denominator-exclusion","display":"Denominator Exclusion"}]},"count":0},{"id":"Numerator_1","code":{"coding":[{"system":"http://terminology.hl7.org/CodeSystem/measure-population","code":"numerator","display":"Numerator"}]},"count":0},{"id":"DenominatorException_1","code":{"coding":[{"system":"http://terminology.hl7.org/CodeSystem/measure-population","code":"denominator-exception","display":"Denominator Exception"}]},"count":0}],"measureScore":{"value":0.0}}],"evaluatedResource":[{"reference":"Patient/24ffee3e-9b5b-491e-8490-006d306e5f8a"},{"reference":"Encounter/ff0badb7-f5fb-419d-9d1e-ccdf1de51180"},{"reference":"Coverage/f01e65cf-151e-4a89-9bf3-465dff18602a"},{"reference":"Condition/41df64f4-dd9d-4c8e-bb40-cde225398ec0"},{"reference":"Claim/5ca62962b8484628b8de1ec5"},{"reference":"Organization/e5dcd963-4e93-4598-aba2-2a6c700bce26"},{"reference":"Practitioner/bb7c6293-1d47-4677-a119-dfce117223a3"}]},"request":{"method":"PUT","url":"MeasureReport/aa5c7ebd-6330-4ed8-a86a-41a9df6599d6"}},{"resource":{"resourceType":"Bundle","id":"633c9d030968f8012250fc76","type":"transaction","entry":[{"fullUrl":"https://madie.cms.gov/Patient/24ffee3e-9b5b-491e-8490-006d306e5f8a","resource":{"resourceType":"Patient","id":"24ffee3e-9b5b-491e-8490-006d306e5f8a","meta":{"profile":["http://hl7.org/fhir/us/qicore/StructureDefinition/qicore-patient"]},"text":{"status":"generated","div":"<div xmlns=\"http://www.w3.org/1999/xhtml\"><div class=\"hapiHeaderText\">EncEndsB4MP <b>IPPFAIL </b></div><table class=\"hapiPropertyTable\"><tbody><tr><td>Identifier</td><td>c151187f98af848f2ba9485fb72e98d1</td></tr><tr><td>Date of birth</td><td><span>01 December 1960</span></td></tr></tbody></table></div>"},"extension":[{"url":"http://hl7.org/fhir/us/core/StructureDefinition/us-core-race","extension":[{"url":"ombCategory","valueCoding":{"system":"urn:oid:2.16.840.1.113883.6.238","code":"1002-5","display":"American Indian or Alaska Native","userSelected":true}},{"url":"text","valueString":"American Indian or Alaska Native"}]},{"url":"http://hl7.org/fhir/us/core/StructureDefinition/us-core-ethnicity","extension":[{"url":"ombCategory","valueCoding":{"system":"urn:oid:2.16.840.1.113883.6.238","code":"2135-2","display":"Hispanic or Latino","userSelected":true}},{"url":"text","valueString":"Hispanic or Latino"}]}],"identifier":[{"type":{"coding":[{"system":"http://terminology.hl7.org/CodeSystem/v2-0203","code":"MR"}]},"system":"https://bonnie-fhir.healthit.gov/","value":"633c9d030968f8012250fc76"}],"active":true,"name":[{"use":"usual","family":"IPPFail","given":["EncEndsB4MP"]}],"gender":"male","birthDate":"1961-12-01"},"request":{"method":"PUT","url":"Patient/24ffee3e-9b5b-491e-8490-006d306e5f8a"}},{"fullUrl":"https://madie.cms.gov/Encounter/ff0badb7-f5fb-419d-9d1e-ccdf1de51180","resource":{"resourceType":"Encounter","id":"ff0badb7-f5fb-419d-9d1e-ccdf1de51180","meta":{"profile":["http://hl7.org/fhir/us/qicore/StructureDefinition/qicore-encounter"]},"status":"finished","class":{"system":"http://terminology.hl7.org/CodeSystem/v3-ActCode","code":"IMP","display":"inpatient encounter"},"type":[{"coding":[{"system":"http://snomed.info/sct","code":"32485007"}]}],"subject":{"reference":"Patient/24ffee3e-9b5b-491e-8490-006d306e5f8a"},"period":{"start":"2012-12-01T08:00:00Z","end":"2012-12-31T23:59:00.000+00:00"},"length":{"value":30,"unit":"days"},"reasonReference":[{"reference":"Condition/41df64f4-dd9d-4c8e-bb40-cde225398ec0"}]},"request":{"method":"PUT","url":"Encounter/ff0badb7-f5fb-419d-9d1e-ccdf1de51180"}},{"fullUrl":"https://madie.cms.gov/Coverage/f01e65cf-151e-4a89-9bf3-465dff18602a","resource":{"resourceType":"Coverage","id":"f01e65cf-151e-4a89-9bf3-465dff18602a","meta":{"profile":["http://hl7.org/fhir/us/qicore/StructureDefinition/qicore-coverage"]},"status":"active","subscriberId":"523435","beneficiary":{"reference":"Patient/162a5913-9989-42f2-8d6a-ae460e245e4c"},"relationship":{"coding":[{"system":"http://terminology.hl7.org/CodeSystem/subscriber-relationship","code":"self"}]},"payor":[{"reference":"Organization/e5dcd963-4e93-4598-aba2-2a6c700bce26"}]},"request":{"method":"PUT","url":"Coverage/f01e65cf-151e-4a89-9bf3-465dff18602a"}},{"fullUrl":"https://madie.cms.gov/Condition/41df64f4-dd9d-4c8e-bb40-cde225398ec0","resource":{"resourceType":"Condition","id":"41df64f4-dd9d-4c8e-bb40-cde225398ec0","meta":{"profile":["http://hl7.org/fhir/us/qicore/StructureDefinition/qicore-condition-problems-health-concerns"]},"clinicalStatus":{"coding":[{"system":"http://terminology.hl7.org/CodeSystem/condition-clinical","code":"active"}]},"verificationStatus":{"coding":[{"system":"http://terminology.hl7.org/CodeSystem/condition-ver-status","code":"confirmed"}]},"category":[{"coding":[{"system":"http://terminology.hl7.org/CodeSystem/condition-category","code":"encounter-diagnosis","display":"Encounter Diagnosis"}]}],"code":{"coding":[{"system":"http://snomed.info/sct","version":"2021-09","code":"111297002","display":"Nonparalytic stroke (disorder)","userSelected":true}]},"subject":{"reference":"Patient/24ffee3e-9b5b-491e-8490-006d306e5f8a"},"recordedDate":"2026-10-13T08:00:00Z"},"request":{"method":"PUT","url":"Condition/41df64f4-dd9d-4c8e-bb40-cde225398ec0"}},{"fullUrl":"https://madie.cms.gov/claim/5ca62962b8484628b8de1ec5","resource":{"resourceType":"Claim","id":"5ca62962b8484628b8de1ec5","meta":{"profile":["http://hl7.org/fhir/us/qicore/StructureDefinition/qicore-claim"]},"status":"active","type":{"coding":[{"system":"http://terminology.hl7.org/CodeSystem/claim-type","code":"institutional"}]},"use":"claim","patient":{"reference":"Patient/d170a0a8-b5ad-4303-b6df-e304dd5f92ad"},"created":"2026-12-01","provider":{"reference":"Practitioner/bb7c6293-1d47-4677-a119-dfce117223a3"},"priority":{"coding":[{"system":"http://terminology.hl7.org/CodeSystem/processpriority","code":"normal"}]},"diagnosis":[{"sequence":1,"diagnosisCodeableConcept":{"coding":[{"system":"http://hl7.org/fhir/sid/icd-10-cm","code":"I63.00"}]},"type":[{"coding":[{"system":"http://terminology.hl7.org/CodeSystem/ex-diagnosistype","code":"principal"}]}]}],"insurance":[{"sequence":1,"focal":true,"coverage":{"reference":"Coverage/5fa041661c76ba66d9959367"}}],"item":[{"sequence":1,"diagnosisSequence":[1],"productOrService":{"coding":[{"system":"http://terminology.hl7.org/CodeSystem/ex-USCLS","code":"99555"}]},"encounter":[{"reference":"Encounter/ff0badb7-f5fb-419d-9d1e-ccdf1de51180"}]}]},"request":{"method":"PUT","url":"Claim/5ca62962b8484628b8de1ec5"}},{"fullUrl":"https://madie.cms.gov/Organization/e5dcd963-4e93-4598-aba2-2a6c700bce26","resource":{"resourceType":"Organization","id":"e5dcd963-4e93-4598-aba2-2a6c700bce26","meta":{"profile":["http://hl7.org/fhir/us/qicore/StructureDefinition/qicore-organization"]},"identifier":[{"use":"temp","system":"urn:oid:2.16.840.1.113883.4.4","value":"21-3259825"}],"active":true,"type":[{"coding":[{"system":"http://terminology.hl7.org/CodeSystem/organization-type","code":"pay","display":"Payer"}]}],"name":"Blue Cross Blue Shield of Texas","telecom":[{"system":"phone","value":"(+1) 972-766-6900"}],"address":[{"use":"billing","type":"postal","line":["P.O. Box 660044"],"city":"Dallas","state":"TX","postalCode":"75266-0044","country":"USA"}]},"request":{"method":"PUT","url":"Organization/e5dcd963-4e93-4598-aba2-2a6c700bce26"}},{"fullUrl":"https://madie.cms.gov/Practitioner/bb7c6293-1d47-4677-a119-dfce117223a3","resource":{"resourceType":"Practitioner","id":"bb7c6293-1d47-4677-a119-dfce117223a3","meta":{"profile":["http://hl7.org/fhir/us/qicore/StructureDefinition/qicore-practitioner"]},"identifier":[{"system":"http://hl7.org/fhir/sid/us-npi","value":"9999999896"}],"name":[{"family":"Evil","prefix":["Dr"]}]},"request":{"method":"PUT","url":"Practitioner/bb7c6293-1d47-4677-a119-dfce117223a3"}},{"fullUrl":"https://madie.cms.gov/MeasureReport/aa5c7ebd-6330-4ed8-a86a-41a9df6599d6","resource":{"resourceType":"MeasureReport","id":"aa5c7ebd-6330-4ed8-a86a-41a9df6599d6","meta":{"profile":["http://hl7.org/fhir/us/cqfmeasures/StructureDefinition/test-case-cqfm"]},"contained":[{"resourceType":"Parameters","id":"347a7f35-e30e-48af-a514-f2be21e21a9c-parameters","parameter":[{"name":"subject","valueString":"24ffee3e-9b5b-491e-8490-006d306e5f8a"}]}],"extension":[{"url":"http://hl7.org/fhir/StructureDefinition/cqf-inputParameters","valueReference":{"reference":"#347a7f35-e30e-48af-a514-f2be21e21a9c-parameters"}},{"url":"http://hl7.org/fhir/us/cqfmeasures/StructureDefinition/cqfm-testCaseDescription","valueMarkdown":"Principal diagnosis = ischemic stroke, age GE 18, encounter ends before MP\n"}],"modifierExtension":[{"url":"http://hl7.org/fhir/us/cqfmeasures/StructureDefinition/cqfm-isTestCase","valueBoolean":true}],"status":"complete","type":"individual","measure":"https://madie.cms.gov/Measure/CMS71FHIRSTKAnticoagAFFlutter","period":{"start":"2026-01-01","end":"2026-12-31"},"group":[{"id":"Group_1","population":[{"id":"InitialPopulation_1","code":{"coding":[{"system":"http://terminology.hl7.org/CodeSystem/measure-population","code":"initial-population","display":"Initial Population"}]},"count":0},{"id":"Denominator_1","code":{"coding":[{"system":"http://terminology.hl7.org/CodeSystem/measure-population","code":"denominator","display":"Denominator"}]},"count":0},{"id":"DenominatorExclusion_1","code":{"coding":[{"system":"http://terminology.hl7.org/CodeSystem/measure-population","code":"denominator-exclusion","display":"Denominator Exclusion"}]},"count":0},{"id":"Numerator_1","code":{"coding":[{"system":"http://terminology.hl7.org/CodeSystem/measure-population","code":"numerator","display":"Numerator"}]},"count":0},{"id":"DenominatorException_1","code":{"coding":[{"system":"http://terminology.hl7.org/CodeSystem/measure-population","code":"denominator-exception","display":"Denominator Exception"}]},"count":0}],"measureScore":{"value":0.0}}],"evaluatedResource":[{"reference":"Patient/24ffee3e-9b5b-491e-8490-006d306e5f8a"},{"reference":"Encounter/ff0badb7-f5fb-419d-9d1e-ccdf1de51180"},{"reference":"Coverage/f01e65cf-151e-4a89-9bf3-465dff18602a"},{"reference":"Condition/41df64f4-dd9d-4c8e-bb40-cde225398ec0"},{"reference":"Claim/5ca62962b8484628b8de1ec5"},{"reference":"Organization/e5dcd963-4e93-4598-aba2-2a6c700bce26"},{"reference":"Practitioner/bb7c6293-1d47-4677-a119-dfce117223a3"}]},"request":{"method":"PUT","url":"MeasureReport/aa5c7ebd-6330-4ed8-a86a-41a9df6599d6"}}]},"request":{"method":"PUT","url":"Bundle/633c9d030968f8012250fc76"}},{"resource":{"resourceType":"Organization","id":"e5dcd963-4e93-4598-aba2-2a6c700bce26","meta":{"profile":["http://hl7.org/fhir/us/qicore/StructureDefinition/qicore-organization"]},"identifier":[{"use":"temp","system":"urn:oid:2.16.840.1.113883.4.4","value":"21-3259825"}],"active":true,"type":[{"coding":[{"system":"http://terminology.hl7.org/CodeSystem/organization-type","code":"pay","display":"Payer"}]}],"name":"Blue Cross Blue Shield of Texas","telecom":[{"system":"phone","value":"(+1) 972-766-6900"}],"address":[{"use":"billing","type":"postal","line":["P.O. Box 660044"],"city":"Dallas","state":"TX","postalCode":"75266-0044","country":"USA"}]},"request":{"method":"PUT","url":"Organization/e5dcd963-4e93-4598-aba2-2a6c700bce26"}},{"resource":{"resourceType":"Practitioner","id":"bb7c6293-1d47-4677-a119-dfce117223a3","meta":{"profile":["http://hl7.org/fhir/us/qicore/StructureDefinition/qicore-practitioner"]},"identifier":[{"system":"http://hl7.org/fhir/sid/us-npi","value":"9999999896"}],"name":[{"family":"Evil","prefix":["Dr"]}]},"request":{"method":"PUT","url":"Practitioner/bb7c6293-1d47-4677-a119-dfce117223a3"}},{"resource":{"resourceType":"Claim","id":"5ca62962b8484628b8de1ec5","meta":{"profile":["http://hl7.org/fhir/us/qicore/StructureDefinition/qicore-claim"]},"status":"active","type":{"coding":[{"system":"http://terminology.hl7.org/CodeSystem/claim-type","code":"institutional"}]},"use":"claim","patient":{"reference":"Patient/d170a0a8-b5ad-4303-b6df-e304dd5f92ad"},"created":"2026-12-01","provider":{"reference":"Practitioner/bb7c6293-1d47-4677-a119-dfce117223a3"},"priority":{"coding":[{"system":"http://terminology.hl7.org/CodeSystem/processpriority","code":"normal"}]},"diagnosis":[{"sequence":1,"diagnosisCodeableConcept":{"coding":[{"system":"http://hl7.org/fhir/sid/icd-10-cm","code":"I63.00"}]},"type":[{"coding":[{"system":"http://terminology.hl7.org/CodeSystem/ex-diagnosistype","code":"principal"}]}]}],"insurance":[{"sequence":1,"focal":true,"coverage":{"reference":"Coverage/5fa041661c76ba66d9959367"}}],"item":[{"sequence":1,"diagnosisSequence":[1],"productOrService":{"coding":[{"system":"http://terminology.hl7.org/CodeSystem/ex-USCLS","code":"99555"}]},"encounter":[{"reference":"Encounter/ff0badb7-f5fb-419d-9d1e-ccdf1de51180"}]}]},"request":{"method":"PUT","url":"Claim/5ca62962b8484628b8de1ec5"}}]}