{"resourceType":"Bundle","id":"tests-c5eb810c-2abd-41ac-9838-81ab77532845-bundle","type":"transaction","entry":[{"resource":{"resourceType":"Bundle","id":"633c9d040968f8012250fcaa","type":"transaction","entry":[{"fullUrl":"https://madie.cms.gov/Patient/c5eb810c-2abd-41ac-9838-81ab77532845","resource":{"resourceType":"Patient","id":"c5eb810c-2abd-41ac-9838-81ab77532845","meta":{"profile":["http://hl7.org/fhir/us/qicore/StructureDefinition/qicore-patient"]},"text":{"status":"generated","div":"<div xmlns=\"http://www.w3.org/1999/xhtml\"><div class=\"hapiHeaderText\">Anticoag@DC_TestOccurance <b>NUMERPASS </b></div><table class=\"hapiPropertyTable\"><tbody><tr><td>Identifier</td><td>b33e5c40a8266630a8099906ba9c4a7fec43a1f608aad75439f44c686ae32b2a</td></tr><tr><td>Date of birth</td><td><span>23 May 1954</span></td></tr></tbody></table></div>"},"extension":[{"url":"http://hl7.org/fhir/us/core/StructureDefinition/us-core-race","extension":[{"url":"ombCategory","valueCoding":{"system":"urn:oid:2.16.840.1.113883.6.238","code":"1002-5","display":"American Indian or Alaska Native","userSelected":true}},{"url":"text","valueString":"American Indian or Alaska Native"}]},{"url":"http://hl7.org/fhir/us/core/StructureDefinition/us-core-ethnicity","extension":[{"url":"ombCategory","valueCoding":{"system":"urn:oid:2.16.840.1.113883.6.238","code":"2135-2","display":"Hispanic or Latino","userSelected":true}},{"url":"text","valueString":"Hispanic or Latino"}]}],"identifier":[{"type":{"coding":[{"system":"http://terminology.hl7.org/CodeSystem/v2-0203","code":"MR"}]},"system":"https://bonnie-fhir.healthit.gov/","value":"633c9d040968f8012250fcaa"}],"active":true,"name":[{"use":"usual","family":"NUMERPass","given":["AnticoagDCTestOccurance"]}],"gender":"female","birthDate":"1955-05-23"},"request":{"method":"PUT","url":"Patient/c5eb810c-2abd-41ac-9838-81ab77532845"}},{"fullUrl":"https://madie.cms.gov/Encounter/37c938e2-7a5e-4d0e-9452-acd1f4d6a00c","resource":{"resourceType":"Encounter","id":"37c938e2-7a5e-4d0e-9452-acd1f4d6a00c","meta":{"profile":["http://hl7.org/fhir/us/qicore/StructureDefinition/qicore-encounter"]},"status":"finished","class":{"system":"http://terminology.hl7.org/CodeSystem/v3-ActCode","code":"IMP","display":"inpatient encounter"},"type":[{"coding":[{"system":"http://snomed.info/sct","code":"183452005"}]}],"subject":{"reference":"Patient/c5eb810c-2abd-41ac-9838-81ab77532845"},"period":{"start":"2026-11-18T08:00:00Z","end":"2026-11-19T08:15:00.000+00:00"},"length":{"value":1,"unit":"days"}},"request":{"method":"PUT","url":"Encounter/37c938e2-7a5e-4d0e-9452-acd1f4d6a00c"}},{"fullUrl":"https://madie.cms.gov/Encounter/637aa66f-1da6-4867-8128-7f2f57c1162b","resource":{"resourceType":"Encounter","id":"637aa66f-1da6-4867-8128-7f2f57c1162b","meta":{"profile":["http://hl7.org/fhir/us/qicore/StructureDefinition/qicore-encounter"]},"status":"finished","class":{"system":"http://terminology.hl7.org/CodeSystem/v3-ActCode","code":"IMP","display":"inpatient encounter"},"type":[{"coding":[{"system":"http://snomed.info/sct","code":"32485007"}]}],"subject":{"reference":"Patient/c5eb810c-2abd-41ac-9838-81ab77532845"},"period":{"start":"2026-11-20T08:00:00Z","end":"2026-11-24T08:15:00.000+00:00"},"length":{"value":4,"unit":"days"},"reasonReference":[{"reference":"Condition/87b72513-3b74-4f52-9576-1cca2f2c6afa"}]},"request":{"method":"PUT","url":"Encounter/637aa66f-1da6-4867-8128-7f2f57c1162b"}},{"fullUrl":"https://madie.cms.gov/claim/5ca62962b8484628b8de1ec5","resource":{"resourceType":"Claim","id":"5ca62962b8484628b8de1ec5","meta":{"profile":["http://hl7.org/fhir/us/qicore/StructureDefinition/qicore-claim"]},"status":"active","type":{"coding":[{"system":"http://terminology.hl7.org/CodeSystem/claim-type","code":"institutional"}]},"use":"claim","patient":{"reference":"Patient/d170a0a8-b5ad-4303-b6df-e304dd5f92ad"},"created":"2026-12-01","provider":{"reference":"Practitioner/56b59558-8318-4bbd-9f86-6b8ad1502a49"},"priority":{"coding":[{"system":"http://terminology.hl7.org/CodeSystem/processpriority","code":"normal"}]},"diagnosis":[{"sequence":1,"diagnosisCodeableConcept":{"coding":[{"system":"http://hl7.org/fhir/sid/icd-10-cm","code":"I63.00"}]},"type":[{"coding":[{"system":"http://terminology.hl7.org/CodeSystem/ex-diagnosistype","code":"principal"}]}]}],"insurance":[{"sequence":1,"focal":true,"coverage":{"reference":"Coverage/5fa041661c76ba66d9959367"}}],"item":[{"sequence":1,"diagnosisSequence":[1],"productOrService":{"coding":[{"system":"http://terminology.hl7.org/CodeSystem/ex-USCLS","code":"99555"}]},"encounter":[{"reference":"Encounter/637aa66f-1da6-4867-8128-7f2f57c1162b"}]}]},"request":{"method":"PUT","url":"Claim/5ca62962b8484628b8de1ec5"}},{"fullUrl":"https://madie.cms.gov/MedicationRequest/230106cb-bb54-4268-9a79-fc2487e666ce","resource":{"resourceType":"MedicationRequest","id":"230106cb-bb54-4268-9a79-fc2487e666ce","meta":{"profile":["http://hl7.org/fhir/us/qicore/StructureDefinition/qicore-medicationrequest"]},"status":"active","intent":"order","category":[{"coding":[{"system":"http://terminology.hl7.org/CodeSystem/medicationrequest-category","code":"discharge","display":"Discharge","userSelected":true}]}],"medicationCodeableConcept":{"coding":[{"system":"http://www.nlm.nih.gov/research/umls/rxnorm","code":"308351"}]},"subject":{"reference":"Patient/c5eb810c-2abd-41ac-9838-81ab77532845"},"authoredOn":"2026-11-24T08:00:00Z","requester":{"reference":"Practitioner/example"}},"request":{"method":"PUT","url":"MedicationRequest/230106cb-bb54-4268-9a79-fc2487e666ce"}},{"fullUrl":"https://madie.cms.gov/Coverage/886d11c4-9aad-4c3b-8d4f-a6ed62bace26","resource":{"resourceType":"Coverage","id":"886d11c4-9aad-4c3b-8d4f-a6ed62bace26","meta":{"profile":["http://hl7.org/fhir/us/qicore/StructureDefinition/qicore-coverage"]},"status":"active","subscriberId":"523435","beneficiary":{"reference":"Patient/162a5913-9989-42f2-8d6a-ae460e245e4c"},"relationship":{"coding":[{"system":"http://terminology.hl7.org/CodeSystem/subscriber-relationship","code":"self"}]},"payor":[{"reference":"Organization/27091128-8d62-4f00-b7ba-9e43f277b782"}]},"request":{"method":"PUT","url":"Coverage/886d11c4-9aad-4c3b-8d4f-a6ed62bace26"}},{"fullUrl":"https://madie.cms.gov/Procedure/6c6ae19f-5186-4349-9e7b-3cac5bebd3cd","resource":{"resourceType":"Procedure","id":"6c6ae19f-5186-4349-9e7b-3cac5bebd3cd","meta":{"profile":["http://hl7.org/fhir/us/qicore/StructureDefinition/qicore-procedure"]},"extension":[{"url":"http://hl7.org/fhir/us/qicore/StructureDefinition/qicore-recorded","valueDateTime":"2026-11-19T13:35:00Z"}],"status":"completed","code":{"coding":[{"system":"http://www.cms.gov/Medicare/Coding/ICD10","code":"02560ZZ"},{"system":"http://snomed.info/sct","code":"175095005"}]},"subject":{"reference":"Patient/c5eb810c-2abd-41ac-9838-81ab77532845"},"performedPeriod":{"start":"2026-11-20T06:00:00Z","end":"2026-11-20T07:15:00.000+00:00"}},"request":{"method":"PUT","url":"Procedure/6c6ae19f-5186-4349-9e7b-3cac5bebd3cd"}},{"fullUrl":"https://madie.cms.gov/Condition/87b72513-3b74-4f52-9576-1cca2f2c6afa","resource":{"resourceType":"Condition","id":"87b72513-3b74-4f52-9576-1cca2f2c6afa","meta":{"profile":["http://hl7.org/fhir/us/qicore/StructureDefinition/qicore-condition-problems-health-concerns"]},"clinicalStatus":{"coding":[{"system":"http://terminology.hl7.org/CodeSystem/condition-clinical","code":"active"}]},"verificationStatus":{"coding":[{"system":"http://terminology.hl7.org/CodeSystem/condition-ver-status","code":"confirmed"}]},"category":[{"coding":[{"system":"http://terminology.hl7.org/CodeSystem/condition-category","code":"encounter-diagnosis","display":"Encounter Diagnosis"}]}],"code":{"coding":[{"system":"http://snomed.info/sct","version":"2021-09","code":"111297002","display":"Nonparalytic stroke (disorder)","userSelected":true}]},"subject":{"reference":"Patient/c5eb810c-2abd-41ac-9838-81ab77532845"},"recordedDate":"2026-10-13T08:00:00Z"},"request":{"method":"PUT","url":"Condition/87b72513-3b74-4f52-9576-1cca2f2c6afa"}},{"fullUrl":"https://madie.cms.gov/Organization/27091128-8d62-4f00-b7ba-9e43f277b782","resource":{"resourceType":"Organization","id":"27091128-8d62-4f00-b7ba-9e43f277b782","meta":{"profile":["http://hl7.org/fhir/us/qicore/StructureDefinition/qicore-organization"]},"identifier":[{"use":"temp","system":"urn:oid:2.16.840.1.113883.4.4","value":"21-3259825"}],"active":true,"type":[{"coding":[{"system":"http://terminology.hl7.org/CodeSystem/organization-type","code":"pay","display":"Payer"}]}],"name":"Blue Cross Blue Shield of Texas","telecom":[{"system":"phone","value":"(+1) 972-766-6900"}],"address":[{"use":"billing","type":"postal","line":["P.O. Box 660044"],"city":"Dallas","state":"TX","postalCode":"75266-0044","country":"USA"}]},"request":{"method":"PUT","url":"Organization/27091128-8d62-4f00-b7ba-9e43f277b782"}},{"fullUrl":"https://madie.cms.gov/Practitioner/56b59558-8318-4bbd-9f86-6b8ad1502a49","resource":{"resourceType":"Practitioner","id":"56b59558-8318-4bbd-9f86-6b8ad1502a49","meta":{"profile":["http://hl7.org/fhir/us/qicore/StructureDefinition/qicore-practitioner"]},"identifier":[{"system":"http://hl7.org/fhir/sid/us-npi","value":"9999999896"}],"name":[{"family":"Evil","prefix":["Dr"]}]},"request":{"method":"PUT","url":"Practitioner/56b59558-8318-4bbd-9f86-6b8ad1502a49"}},{"fullUrl":"https://madie.cms.gov/MeasureReport/6e6e4fba-0e5b-474c-a670-0041c8568ca2","resource":{"resourceType":"MeasureReport","id":"6e6e4fba-0e5b-474c-a670-0041c8568ca2","meta":{"profile":["http://hl7.org/fhir/us/cqfmeasures/StructureDefinition/test-case-cqfm"]},"contained":[{"resourceType":"Parameters","id":"4c13cf01-09f4-4b15-bf11-e0e54d080831-parameters","parameter":[{"name":"subject","valueString":"c5eb810c-2abd-41ac-9838-81ab77532845"}]}],"extension":[{"url":"http://hl7.org/fhir/StructureDefinition/cqf-inputParameters","valueReference":{"reference":"#4c13cf01-09f4-4b15-bf11-e0e54d080831-parameters"}},{"url":"http://hl7.org/fhir/us/cqfmeasures/StructureDefinition/cqfm-testCaseDescription","valueMarkdown":"Pt. discharged on anticoagulant, starts during OccurA not OccurB\n"}],"modifierExtension":[{"url":"http://hl7.org/fhir/us/cqfmeasures/StructureDefinition/cqfm-isTestCase","valueBoolean":true}],"status":"complete","type":"individual","measure":"https://madie.cms.gov/Measure/CMS71FHIRSTKAnticoagAFFlutter","period":{"start":"2026-01-01","end":"2026-12-31"},"group":[{"id":"Group_1","population":[{"id":"InitialPopulation_1","code":{"coding":[{"system":"http://terminology.hl7.org/CodeSystem/measure-population","code":"initial-population","display":"Initial Population"}]},"count":1},{"id":"Denominator_1","code":{"coding":[{"system":"http://terminology.hl7.org/CodeSystem/measure-population","code":"denominator","display":"Denominator"}]},"count":1},{"id":"DenominatorExclusion_1","code":{"coding":[{"system":"http://terminology.hl7.org/CodeSystem/measure-population","code":"denominator-exclusion","display":"Denominator Exclusion"}]},"count":0},{"id":"Numerator_1","code":{"coding":[{"system":"http://terminology.hl7.org/CodeSystem/measure-population","code":"numerator","display":"Numerator"}]},"count":1},{"id":"DenominatorException_1","code":{"coding":[{"system":"http://terminology.hl7.org/CodeSystem/measure-population","code":"denominator-exception","display":"Denominator Exception"}]},"count":0}],"measureScore":{"value":0.0}}],"evaluatedResource":[{"reference":"Patient/c5eb810c-2abd-41ac-9838-81ab77532845"},{"reference":"Encounter/37c938e2-7a5e-4d0e-9452-acd1f4d6a00c"},{"reference":"Encounter/637aa66f-1da6-4867-8128-7f2f57c1162b"},{"reference":"Claim/5ca62962b8484628b8de1ec5"},{"reference":"MedicationRequest/230106cb-bb54-4268-9a79-fc2487e666ce"},{"reference":"Coverage/886d11c4-9aad-4c3b-8d4f-a6ed62bace26"},{"reference":"Procedure/6c6ae19f-5186-4349-9e7b-3cac5bebd3cd"},{"reference":"Condition/87b72513-3b74-4f52-9576-1cca2f2c6afa"},{"reference":"Organization/27091128-8d62-4f00-b7ba-9e43f277b782"},{"reference":"Practitioner/56b59558-8318-4bbd-9f86-6b8ad1502a49"}]},"request":{"method":"PUT","url":"MeasureReport/6e6e4fba-0e5b-474c-a670-0041c8568ca2"}}]},"request":{"method":"PUT","url":"Bundle/633c9d040968f8012250fcaa"}},{"resource":{"resourceType":"Organization","id":"27091128-8d62-4f00-b7ba-9e43f277b782","meta":{"profile":["http://hl7.org/fhir/us/qicore/StructureDefinition/qicore-organization"]},"identifier":[{"use":"temp","system":"urn:oid:2.16.840.1.113883.4.4","value":"21-3259825"}],"active":true,"type":[{"coding":[{"system":"http://terminology.hl7.org/CodeSystem/organization-type","code":"pay","display":"Payer"}]}],"name":"Blue Cross Blue Shield of Texas","telecom":[{"system":"phone","value":"(+1) 972-766-6900"}],"address":[{"use":"billing","type":"postal","line":["P.O. Box 660044"],"city":"Dallas","state":"TX","postalCode":"75266-0044","country":"USA"}]},"request":{"method":"PUT","url":"Organization/27091128-8d62-4f00-b7ba-9e43f277b782"}},{"resource":{"resourceType":"Procedure","id":"6c6ae19f-5186-4349-9e7b-3cac5bebd3cd","meta":{"profile":["http://hl7.org/fhir/us/qicore/StructureDefinition/qicore-procedure"]},"extension":[{"url":"http://hl7.org/fhir/us/qicore/StructureDefinition/qicore-recorded","valueDateTime":"2026-11-19T13:35:00Z"}],"status":"completed","code":{"coding":[{"system":"http://www.cms.gov/Medicare/Coding/ICD10","code":"02560ZZ"},{"system":"http://snomed.info/sct","code":"175095005"}]},"subject":{"reference":"Patient/c5eb810c-2abd-41ac-9838-81ab77532845"},"performedPeriod":{"start":"2026-11-20T06:00:00Z","end":"2026-11-20T07:15:00.000+00:00"}},"request":{"method":"PUT","url":"Procedure/6c6ae19f-5186-4349-9e7b-3cac5bebd3cd"}},{"resource":{"resourceType":"Condition","id":"87b72513-3b74-4f52-9576-1cca2f2c6afa","meta":{"profile":["http://hl7.org/fhir/us/qicore/StructureDefinition/qicore-condition-problems-health-concerns"]},"clinicalStatus":{"coding":[{"system":"http://terminology.hl7.org/CodeSystem/condition-clinical","code":"active"}]},"verificationStatus":{"coding":[{"system":"http://terminology.hl7.org/CodeSystem/condition-ver-status","code":"confirmed"}]},"category":[{"coding":[{"system":"http://terminology.hl7.org/CodeSystem/condition-category","code":"encounter-diagnosis","display":"Encounter Diagnosis"}]}],"code":{"coding":[{"system":"http://snomed.info/sct","version":"2021-09","code":"111297002","display":"Nonparalytic stroke (disorder)","userSelected":true}]},"subject":{"reference":"Patient/c5eb810c-2abd-41ac-9838-81ab77532845"},"recordedDate":"2026-10-13T08:00:00Z"},"request":{"method":"PUT","url":"Condition/87b72513-3b74-4f52-9576-1cca2f2c6afa"}},{"resource":{"resourceType":"Encounter","id":"37c938e2-7a5e-4d0e-9452-acd1f4d6a00c","meta":{"profile":["http://hl7.org/fhir/us/qicore/StructureDefinition/qicore-encounter"]},"status":"finished","class":{"system":"http://terminology.hl7.org/CodeSystem/v3-ActCode","code":"IMP","display":"inpatient encounter"},"type":[{"coding":[{"system":"http://snomed.info/sct","code":"183452005"}]}],"subject":{"reference":"Patient/c5eb810c-2abd-41ac-9838-81ab77532845"},"period":{"start":"2026-11-18T08:00:00Z","end":"2026-11-19T08:15:00.000+00:00"},"length":{"value":1,"unit":"days"}},"request":{"method":"PUT","url":"Encounter/37c938e2-7a5e-4d0e-9452-acd1f4d6a00c"}},{"resource":{"resourceType":"Practitioner","id":"56b59558-8318-4bbd-9f86-6b8ad1502a49","meta":{"profile":["http://hl7.org/fhir/us/qicore/StructureDefinition/qicore-practitioner"]},"identifier":[{"system":"http://hl7.org/fhir/sid/us-npi","value":"9999999896"}],"name":[{"family":"Evil","prefix":["Dr"]}]},"request":{"method":"PUT","url":"Practitioner/56b59558-8318-4bbd-9f86-6b8ad1502a49"}},{"resource":{"resourceType":"Encounter","id":"637aa66f-1da6-4867-8128-7f2f57c1162b","meta":{"profile":["http://hl7.org/fhir/us/qicore/StructureDefinition/qicore-encounter"]},"status":"finished","class":{"system":"http://terminology.hl7.org/CodeSystem/v3-ActCode","code":"IMP","display":"inpatient encounter"},"type":[{"coding":[{"system":"http://snomed.info/sct","code":"32485007"}]}],"subject":{"reference":"Patient/c5eb810c-2abd-41ac-9838-81ab77532845"},"period":{"start":"2026-11-20T08:00:00Z","end":"2026-11-24T08:15:00.000+00:00"},"length":{"value":4,"unit":"days"},"reasonReference":[{"reference":"Condition/87b72513-3b74-4f52-9576-1cca2f2c6afa"}]},"request":{"method":"PUT","url":"Encounter/637aa66f-1da6-4867-8128-7f2f57c1162b"}},{"resource":{"resourceType":"MeasureReport","id":"6e6e4fba-0e5b-474c-a670-0041c8568ca2","meta":{"profile":["http://hl7.org/fhir/us/cqfmeasures/StructureDefinition/test-case-cqfm"]},"contained":[{"resourceType":"Parameters","id":"4c13cf01-09f4-4b15-bf11-e0e54d080831-parameters","parameter":[{"name":"subject","valueString":"c5eb810c-2abd-41ac-9838-81ab77532845"}]}],"extension":[{"url":"http://hl7.org/fhir/StructureDefinition/cqf-inputParameters","valueReference":{"reference":"#4c13cf01-09f4-4b15-bf11-e0e54d080831-parameters"}},{"url":"http://hl7.org/fhir/us/cqfmeasures/StructureDefinition/cqfm-testCaseDescription","valueMarkdown":"Pt. discharged on anticoagulant, starts during OccurA not OccurB\n"}],"modifierExtension":[{"url":"http://hl7.org/fhir/us/cqfmeasures/StructureDefinition/cqfm-isTestCase","valueBoolean":true}],"status":"complete","type":"individual","measure":"https://madie.cms.gov/Measure/CMS71FHIRSTKAnticoagAFFlutter","period":{"start":"2026-01-01","end":"2026-12-31"},"group":[{"id":"Group_1","population":[{"id":"InitialPopulation_1","code":{"coding":[{"system":"http://terminology.hl7.org/CodeSystem/measure-population","code":"initial-population","display":"Initial Population"}]},"count":1},{"id":"Denominator_1","code":{"coding":[{"system":"http://terminology.hl7.org/CodeSystem/measure-population","code":"denominator","display":"Denominator"}]},"count":1},{"id":"DenominatorExclusion_1","code":{"coding":[{"system":"http://terminology.hl7.org/CodeSystem/measure-population","code":"denominator-exclusion","display":"Denominator Exclusion"}]},"count":0},{"id":"Numerator_1","code":{"coding":[{"system":"http://terminology.hl7.org/CodeSystem/measure-population","code":"numerator","display":"Numerator"}]},"count":1},{"id":"DenominatorException_1","code":{"coding":[{"system":"http://terminology.hl7.org/CodeSystem/measure-population","code":"denominator-exception","display":"Denominator Exception"}]},"count":0}],"measureScore":{"value":0.0}}],"evaluatedResource":[{"reference":"Patient/c5eb810c-2abd-41ac-9838-81ab77532845"},{"reference":"Encounter/37c938e2-7a5e-4d0e-9452-acd1f4d6a00c"},{"reference":"Encounter/637aa66f-1da6-4867-8128-7f2f57c1162b"},{"reference":"Claim/5ca62962b8484628b8de1ec5"},{"reference":"MedicationRequest/230106cb-bb54-4268-9a79-fc2487e666ce"},{"reference":"Coverage/886d11c4-9aad-4c3b-8d4f-a6ed62bace26"},{"reference":"Procedure/6c6ae19f-5186-4349-9e7b-3cac5bebd3cd"},{"reference":"Condition/87b72513-3b74-4f52-9576-1cca2f2c6afa"},{"reference":"Organization/27091128-8d62-4f00-b7ba-9e43f277b782"},{"reference":"Practitioner/56b59558-8318-4bbd-9f86-6b8ad1502a49"}]},"request":{"method":"PUT","url":"MeasureReport/6e6e4fba-0e5b-474c-a670-0041c8568ca2"}},{"resource":{"resourceType":"MedicationRequest","id":"230106cb-bb54-4268-9a79-fc2487e666ce","meta":{"profile":["http://hl7.org/fhir/us/qicore/StructureDefinition/qicore-medicationrequest"]},"status":"active","intent":"order","category":[{"coding":[{"system":"http://terminology.hl7.org/CodeSystem/medicationrequest-category","code":"discharge","display":"Discharge","userSelected":true}]}],"medicationCodeableConcept":{"coding":[{"system":"http://www.nlm.nih.gov/research/umls/rxnorm","code":"308351"}]},"subject":{"reference":"Patient/c5eb810c-2abd-41ac-9838-81ab77532845"},"authoredOn":"2026-11-24T08:00:00Z","requester":{"reference":"Practitioner/example"}},"request":{"method":"PUT","url":"MedicationRequest/230106cb-bb54-4268-9a79-fc2487e666ce"}},{"resource":{"resourceType":"Patient","id":"c5eb810c-2abd-41ac-9838-81ab77532845","meta":{"profile":["http://hl7.org/fhir/us/qicore/StructureDefinition/qicore-patient"]},"text":{"status":"generated","div":"<div xmlns=\"http://www.w3.org/1999/xhtml\"><div class=\"hapiHeaderText\">Anticoag@DC_TestOccurance <b>NUMERPASS </b></div><table class=\"hapiPropertyTable\"><tbody><tr><td>Identifier</td><td>b33e5c40a8266630a8099906ba9c4a7fec43a1f608aad75439f44c686ae32b2a</td></tr><tr><td>Date of birth</td><td><span>23 May 1954</span></td></tr></tbody></table></div>"},"extension":[{"url":"http://hl7.org/fhir/us/core/StructureDefinition/us-core-race","extension":[{"url":"ombCategory","valueCoding":{"system":"urn:oid:2.16.840.1.113883.6.238","code":"1002-5","display":"American Indian or Alaska Native","userSelected":true}},{"url":"text","valueString":"American Indian or Alaska Native"}]},{"url":"http://hl7.org/fhir/us/core/StructureDefinition/us-core-ethnicity","extension":[{"url":"ombCategory","valueCoding":{"system":"urn:oid:2.16.840.1.113883.6.238","code":"2135-2","display":"Hispanic or Latino","userSelected":true}},{"url":"text","valueString":"Hispanic or Latino"}]}],"identifier":[{"type":{"coding":[{"system":"http://terminology.hl7.org/CodeSystem/v2-0203","code":"MR"}]},"system":"https://bonnie-fhir.healthit.gov/","value":"633c9d040968f8012250fcaa"}],"active":true,"name":[{"use":"usual","family":"NUMERPass","given":["AnticoagDCTestOccurance"]}],"gender":"female","birthDate":"1955-05-23"},"request":{"method":"PUT","url":"Patient/c5eb810c-2abd-41ac-9838-81ab77532845"}},{"resource":{"resourceType":"Claim","id":"5ca62962b8484628b8de1ec5","meta":{"profile":["http://hl7.org/fhir/us/qicore/StructureDefinition/qicore-claim"]},"status":"active","type":{"coding":[{"system":"http://terminology.hl7.org/CodeSystem/claim-type","code":"institutional"}]},"use":"claim","patient":{"reference":"Patient/d170a0a8-b5ad-4303-b6df-e304dd5f92ad"},"created":"2026-12-01","provider":{"reference":"Practitioner/56b59558-8318-4bbd-9f86-6b8ad1502a49"},"priority":{"coding":[{"system":"http://terminology.hl7.org/CodeSystem/processpriority","code":"normal"}]},"diagnosis":[{"sequence":1,"diagnosisCodeableConcept":{"coding":[{"system":"http://hl7.org/fhir/sid/icd-10-cm","code":"I63.00"}]},"type":[{"coding":[{"system":"http://terminology.hl7.org/CodeSystem/ex-diagnosistype","code":"principal"}]}]}],"insurance":[{"sequence":1,"focal":true,"coverage":{"reference":"Coverage/5fa041661c76ba66d9959367"}}],"item":[{"sequence":1,"diagnosisSequence":[1],"productOrService":{"coding":[{"system":"http://terminology.hl7.org/CodeSystem/ex-USCLS","code":"99555"}]},"encounter":[{"reference":"Encounter/637aa66f-1da6-4867-8128-7f2f57c1162b"}]}]},"request":{"method":"PUT","url":"Claim/5ca62962b8484628b8de1ec5"}},{"resource":{"resourceType":"Coverage","id":"886d11c4-9aad-4c3b-8d4f-a6ed62bace26","meta":{"profile":["http://hl7.org/fhir/us/qicore/StructureDefinition/qicore-coverage"]},"status":"active","subscriberId":"523435","beneficiary":{"reference":"Patient/162a5913-9989-42f2-8d6a-ae460e245e4c"},"relationship":{"coding":[{"system":"http://terminology.hl7.org/CodeSystem/subscriber-relationship","code":"self"}]},"payor":[{"reference":"Organization/27091128-8d62-4f00-b7ba-9e43f277b782"}]},"request":{"method":"PUT","url":"Coverage/886d11c4-9aad-4c3b-8d4f-a6ed62bace26"}}]}