{"resourceType":"Bundle","id":"tests-a2365453-d868-4111-b1dc-aad2e81d55fd-bundle","type":"transaction","entry":[{"resource":{"resourceType":"MeasureReport","id":"f4186d5b-8b56-4374-899d-1ee2756ae4e7","meta":{"profile":["http://hl7.org/fhir/us/cqfmeasures/StructureDefinition/test-case-cqfm"]},"contained":[{"resourceType":"Parameters","id":"cc96e090-408c-4911-bf1b-b60d6575f29a-parameters","parameter":[{"name":"subject","valueString":"a2365453-d868-4111-b1dc-aad2e81d55fd"}]}],"extension":[{"url":"http://hl7.org/fhir/StructureDefinition/cqf-inputParameters","valueReference":{"reference":"#cc96e090-408c-4911-bf1b-b60d6575f29a-parameters"}},{"url":"http://hl7.org/fhir/us/cqfmeasures/StructureDefinition/cqfm-testCaseDescription","valueMarkdown":"Patient receives CMO during Observation. ED ends 1 min before Obs start and Obs ends 61 min before inpatient encounter start. Testing HospitalizationWithObservation function."}],"modifierExtension":[{"url":"http://hl7.org/fhir/us/cqfmeasures/StructureDefinition/cqfm-isTestCase","valueBoolean":true}],"status":"complete","type":"individual","measure":"https://madie.cms.gov/Measure/CMS71FHIRSTKAnticoagAFFlutter","period":{"start":"2026-01-01","end":"2026-12-31"},"group":[{"id":"Group_1","population":[{"id":"InitialPopulation_1","code":{"coding":[{"system":"http://terminology.hl7.org/CodeSystem/measure-population","code":"initial-population","display":"Initial Population"}]},"count":1},{"id":"Denominator_1","code":{"coding":[{"system":"http://terminology.hl7.org/CodeSystem/measure-population","code":"denominator","display":"Denominator"}]},"count":1},{"id":"DenominatorExclusion_1","code":{"coding":[{"system":"http://terminology.hl7.org/CodeSystem/measure-population","code":"denominator-exclusion","display":"Denominator Exclusion"}]},"count":0},{"id":"Numerator_1","code":{"coding":[{"system":"http://terminology.hl7.org/CodeSystem/measure-population","code":"numerator","display":"Numerator"}]},"count":0},{"id":"DenominatorException_1","code":{"coding":[{"system":"http://terminology.hl7.org/CodeSystem/measure-population","code":"denominator-exception","display":"Denominator Exception"}]},"count":0}],"measureScore":{"value":0.0}}],"evaluatedResource":[{"reference":"Patient/a2365453-d868-4111-b1dc-aad2e81d55fd"},{"reference":"Condition/effa69c3-463b-4453-8a01-5298841a8f4f"},{"reference":"Encounter/3713e209-2dff-44eb-bdb7-ccdda7b3027e"},{"reference":"Encounter/ada2c94d-839a-418f-81e5-aa9c2325e955"},{"reference":"Encounter/dfbb58d2-157d-42c5-a43e-6cda0483f49e"},{"reference":"ServiceRequest/929b94a0-2873-4c6d-88e2-2fac9fc8cb1b"},{"reference":"Coverage/8b14c7b4-9ce4-432a-8506-75970d87edfe"},{"reference":"Condition/692f5017-118d-4544-b4a8-52058c60d3c2"},{"reference":"Claim/5ca62962b8484628b8de1ec5"},{"reference":"Organization/bdb98641-017e-49e6-af48-0818e5611a2f"}]},"request":{"method":"PUT","url":"MeasureReport/f4186d5b-8b56-4374-899d-1ee2756ae4e7"}},{"resource":{"resourceType":"Condition","id":"692f5017-118d-4544-b4a8-52058c60d3c2","meta":{"profile":["http://hl7.org/fhir/us/qicore/StructureDefinition/qicore-condition-problems-health-concerns"]},"clinicalStatus":{"coding":[{"system":"http://terminology.hl7.org/CodeSystem/condition-clinical","code":"active"}]},"verificationStatus":{"coding":[{"system":"http://terminology.hl7.org/CodeSystem/condition-ver-status","code":"confirmed"}]},"category":[{"coding":[{"system":"http://terminology.hl7.org/CodeSystem/condition-category","code":"encounter-diagnosis","display":"Encounter Diagnosis"}]}],"code":{"coding":[{"system":"http://snomed.info/sct","version":"2021-09","code":"111297002","display":"Nonparalytic stroke (disorder)","userSelected":true}]},"subject":{"reference":"Patient/a2365453-d868-4111-b1dc-aad2e81d55fd"},"recordedDate":"2026-10-13T08:00:00Z"},"request":{"method":"PUT","url":"Condition/692f5017-118d-4544-b4a8-52058c60d3c2"}},{"resource":{"resourceType":"Patient","id":"a2365453-d868-4111-b1dc-aad2e81d55fd","meta":{"profile":["http://hl7.org/fhir/us/qicore/StructureDefinition/qicore-patient"]},"text":{"status":"generated","div":"<div xmlns=\"http://www.w3.org/1999/xhtml\"><div class=\"hapiHeaderText\">CMOdurED_ED&lt;1hrObs&gt;1hrBFEnc <b>DENEXFAIL </b></div><table class=\"hapiPropertyTable\"><tbody><tr><td>Identifier</td><td>16a8bb5fe1507565fee1a4f891d3aeaa0d43dfed75c5408a6c17ebb5066d29ae</td></tr><tr><td>Date of birth</td><td><span>18 September 1985</span></td></tr></tbody></table></div>"},"extension":[{"url":"http://hl7.org/fhir/us/core/StructureDefinition/us-core-race","extension":[{"url":"ombCategory","valueCoding":{"system":"urn:oid:2.16.840.1.113883.6.238","code":"1002-5","display":"American Indian or Alaska Native","userSelected":true}},{"url":"text","valueString":"American Indian or Alaska Native"}]},{"url":"http://hl7.org/fhir/us/core/StructureDefinition/us-core-ethnicity","extension":[{"url":"ombCategory","valueCoding":{"system":"urn:oid:2.16.840.1.113883.6.238","code":"2135-2","display":"Hispanic or Latino","userSelected":true}},{"url":"text","valueString":"Hispanic or Latino"}]}],"identifier":[{"type":{"coding":[{"system":"http://terminology.hl7.org/CodeSystem/v2-0203","code":"MR"}]},"system":"https://bonnie-fhir.healthit.gov/","value":"633c9d040968f8012250fca9"}],"active":true,"name":[{"use":"usual","family":"DENEXFail","given":["CMOdurED_ED<1hrObs>1hrBFEnc"]}],"gender":"female","birthDate":"1986-09-18"},"request":{"method":"PUT","url":"Patient/a2365453-d868-4111-b1dc-aad2e81d55fd"}},{"resource":{"resourceType":"Condition","id":"effa69c3-463b-4453-8a01-5298841a8f4f","meta":{"profile":["http://hl7.org/fhir/us/qicore/StructureDefinition/qicore-condition-problems-health-concerns"]},"clinicalStatus":{"coding":[{"system":"http://terminology.hl7.org/CodeSystem/condition-clinical","code":"inactive"}]},"verificationStatus":{"coding":[{"system":"http://terminology.hl7.org/CodeSystem/condition-ver-status","code":"confirmed"}]},"category":[{"coding":[{"system":"http://terminology.hl7.org/CodeSystem/condition-category","code":"encounter-diagnosis","display":"Encounter Diagnosis"}]}],"code":{"coding":[{"system":"http://hl7.org/fhir/sid/icd-9-cm","code":"427.31"},{"system":"http://hl7.org/fhir/sid/icd-10-cm","code":"I48.0"},{"system":"http://snomed.info/sct","code":"5370000"}]},"subject":{"reference":"Patient/a2365453-d868-4111-b1dc-aad2e81d55fd"},"onsetDateTime":"2026-10-01T09:01:00Z","abatementDateTime":"2026-10-12T00:15:00.000+00:00"},"request":{"method":"PUT","url":"Condition/effa69c3-463b-4453-8a01-5298841a8f4f"}},{"resource":{"resourceType":"Encounter","id":"dfbb58d2-157d-42c5-a43e-6cda0483f49e","meta":{"profile":["http://hl7.org/fhir/us/qicore/StructureDefinition/qicore-encounter"]},"status":"finished","class":{"system":"http://terminology.hl7.org/CodeSystem/v3-ActCode","code":"IMP","display":"inpatient encounter"},"type":[{"coding":[{"system":"http://snomed.info/sct","code":"32485007"}]}],"subject":{"reference":"Patient/a2365453-d868-4111-b1dc-aad2e81d55fd"},"period":{"start":"2026-10-01T13:31:00Z","end":"2026-10-12T00:15:00.000+00:00"},"length":{"value":11,"unit":"days"},"reasonReference":[{"reference":"Condition/effa69c3-463b-4453-8a01-5298841a8f4f"}]},"request":{"method":"PUT","url":"Encounter/dfbb58d2-157d-42c5-a43e-6cda0483f49e"}},{"resource":{"resourceType":"Organization","id":"bdb98641-017e-49e6-af48-0818e5611a2f","meta":{"profile":["http://hl7.org/fhir/us/qicore/StructureDefinition/qicore-organization"]},"identifier":[{"use":"temp","system":"urn:oid:2.16.840.1.113883.4.4","value":"21-3259825"}],"active":true,"type":[{"coding":[{"system":"http://terminology.hl7.org/CodeSystem/organization-type","code":"pay","display":"Payer"}]}],"name":"Blue Cross Blue Shield of Texas","telecom":[{"system":"phone","value":"(+1) 972-766-6900"}],"address":[{"use":"billing","type":"postal","line":["P.O. Box 660044"],"city":"Dallas","state":"TX","postalCode":"75266-0044","country":"USA"}]},"request":{"method":"PUT","url":"Organization/bdb98641-017e-49e6-af48-0818e5611a2f"}},{"resource":{"resourceType":"Coverage","id":"8b14c7b4-9ce4-432a-8506-75970d87edfe","meta":{"profile":["http://hl7.org/fhir/us/qicore/StructureDefinition/qicore-coverage"]},"status":"active","subscriberId":"523435","beneficiary":{"reference":"Patient/162a5913-9989-42f2-8d6a-ae460e245e4c"},"relationship":{"coding":[{"system":"http://terminology.hl7.org/CodeSystem/subscriber-relationship","code":"self"}]},"payor":[{"reference":"Organization/bdb98641-017e-49e6-af48-0818e5611a2f"}]},"request":{"method":"PUT","url":"Coverage/8b14c7b4-9ce4-432a-8506-75970d87edfe"}},{"resource":{"resourceType":"Bundle","id":"633c9d040968f8012250fca9","type":"transaction","entry":[{"fullUrl":"https://madie.cms.gov/Patient/a2365453-d868-4111-b1dc-aad2e81d55fd","resource":{"resourceType":"Patient","id":"a2365453-d868-4111-b1dc-aad2e81d55fd","meta":{"profile":["http://hl7.org/fhir/us/qicore/StructureDefinition/qicore-patient"]},"text":{"status":"generated","div":"<div xmlns=\"http://www.w3.org/1999/xhtml\"><div class=\"hapiHeaderText\">CMOdurED_ED&lt;1hrObs&gt;1hrBFEnc <b>DENEXFAIL </b></div><table class=\"hapiPropertyTable\"><tbody><tr><td>Identifier</td><td>16a8bb5fe1507565fee1a4f891d3aeaa0d43dfed75c5408a6c17ebb5066d29ae</td></tr><tr><td>Date of birth</td><td><span>18 September 1985</span></td></tr></tbody></table></div>"},"extension":[{"url":"http://hl7.org/fhir/us/core/StructureDefinition/us-core-race","extension":[{"url":"ombCategory","valueCoding":{"system":"urn:oid:2.16.840.1.113883.6.238","code":"1002-5","display":"American Indian or Alaska Native","userSelected":true}},{"url":"text","valueString":"American Indian or Alaska Native"}]},{"url":"http://hl7.org/fhir/us/core/StructureDefinition/us-core-ethnicity","extension":[{"url":"ombCategory","valueCoding":{"system":"urn:oid:2.16.840.1.113883.6.238","code":"2135-2","display":"Hispanic or Latino","userSelected":true}},{"url":"text","valueString":"Hispanic or Latino"}]}],"identifier":[{"type":{"coding":[{"system":"http://terminology.hl7.org/CodeSystem/v2-0203","code":"MR"}]},"system":"https://bonnie-fhir.healthit.gov/","value":"633c9d040968f8012250fca9"}],"active":true,"name":[{"use":"usual","family":"DENEXFail","given":["CMOdurED_ED<1hrObs>1hrBFEnc"]}],"gender":"female","birthDate":"1986-09-18"},"request":{"method":"PUT","url":"Patient/a2365453-d868-4111-b1dc-aad2e81d55fd"}},{"fullUrl":"https://madie.cms.gov/Condition/effa69c3-463b-4453-8a01-5298841a8f4f","resource":{"resourceType":"Condition","id":"effa69c3-463b-4453-8a01-5298841a8f4f","meta":{"profile":["http://hl7.org/fhir/us/qicore/StructureDefinition/qicore-condition-problems-health-concerns"]},"clinicalStatus":{"coding":[{"system":"http://terminology.hl7.org/CodeSystem/condition-clinical","code":"inactive"}]},"verificationStatus":{"coding":[{"system":"http://terminology.hl7.org/CodeSystem/condition-ver-status","code":"confirmed"}]},"category":[{"coding":[{"system":"http://terminology.hl7.org/CodeSystem/condition-category","code":"encounter-diagnosis","display":"Encounter Diagnosis"}]}],"code":{"coding":[{"system":"http://hl7.org/fhir/sid/icd-9-cm","code":"427.31"},{"system":"http://hl7.org/fhir/sid/icd-10-cm","code":"I48.0"},{"system":"http://snomed.info/sct","code":"5370000"}]},"subject":{"reference":"Patient/a2365453-d868-4111-b1dc-aad2e81d55fd"},"onsetDateTime":"2026-10-01T09:01:00Z","abatementDateTime":"2026-10-12T00:15:00.000+00:00"},"request":{"method":"PUT","url":"Condition/effa69c3-463b-4453-8a01-5298841a8f4f"}},{"fullUrl":"https://madie.cms.gov/Encounter/3713e209-2dff-44eb-bdb7-ccdda7b3027e","resource":{"resourceType":"Encounter","id":"3713e209-2dff-44eb-bdb7-ccdda7b3027e","meta":{"profile":["http://hl7.org/fhir/us/qicore/StructureDefinition/qicore-encounter"]},"status":"finished","class":{"system":"http://terminology.hl7.org/CodeSystem/v3-ActCode","code":"EMER","display":"emergency"},"type":[{"coding":[{"system":"http://snomed.info/sct","code":"4525004"}]}],"subject":{"reference":"Patient/a2365453-d868-4111-b1dc-aad2e81d55fd"},"period":{"start":"2026-10-01T09:01:00Z","end":"2026-10-01T12:15:00.000+00:00"},"length":{"value":0,"unit":"days"}},"request":{"method":"PUT","url":"Encounter/3713e209-2dff-44eb-bdb7-ccdda7b3027e"}},{"fullUrl":"https://madie.cms.gov/Encounter/ada2c94d-839a-418f-81e5-aa9c2325e955","resource":{"resourceType":"Encounter","id":"ada2c94d-839a-418f-81e5-aa9c2325e955","meta":{"profile":["http://hl7.org/fhir/us/qicore/StructureDefinition/qicore-encounter"]},"status":"finished","class":{"system":"http://terminology.hl7.org/CodeSystem/v3-ActCode","code":"OBSENC","display":"observation encounter"},"type":[{"coding":[{"system":"http://snomed.info/sct","code":"448851000124103"}]}],"subject":{"reference":"Patient/a2365453-d868-4111-b1dc-aad2e81d55fd"},"period":{"start":"2026-10-01T12:16:00Z","end":"2026-10-01T12:30:00.000+00:00"},"length":{"value":0,"unit":"days"}},"request":{"method":"PUT","url":"Encounter/ada2c94d-839a-418f-81e5-aa9c2325e955"}},{"fullUrl":"https://madie.cms.gov/Encounter/dfbb58d2-157d-42c5-a43e-6cda0483f49e","resource":{"resourceType":"Encounter","id":"dfbb58d2-157d-42c5-a43e-6cda0483f49e","meta":{"profile":["http://hl7.org/fhir/us/qicore/StructureDefinition/qicore-encounter"]},"status":"finished","class":{"system":"http://terminology.hl7.org/CodeSystem/v3-ActCode","code":"IMP","display":"inpatient encounter"},"type":[{"coding":[{"system":"http://snomed.info/sct","code":"32485007"}]}],"subject":{"reference":"Patient/a2365453-d868-4111-b1dc-aad2e81d55fd"},"period":{"start":"2026-10-01T13:31:00Z","end":"2026-10-12T00:15:00.000+00:00"},"length":{"value":11,"unit":"days"},"reasonReference":[{"reference":"Condition/effa69c3-463b-4453-8a01-5298841a8f4f"}]},"request":{"method":"PUT","url":"Encounter/dfbb58d2-157d-42c5-a43e-6cda0483f49e"}},{"fullUrl":"https://madie.cms.gov/ServiceRequest/929b94a0-2873-4c6d-88e2-2fac9fc8cb1b","resource":{"resourceType":"ServiceRequest","id":"929b94a0-2873-4c6d-88e2-2fac9fc8cb1b","meta":{"profile":["http://hl7.org/fhir/us/qicore/StructureDefinition/qicore-servicerequest"]},"status":"active","intent":"order","code":{"coding":[{"system":"http://snomed.info/sct","code":"133918004"}]},"subject":{"reference":"Patient/a2365453-d868-4111-b1dc-aad2e81d55fd"},"authoredOn":"2026-10-01T09:15:00Z"},"request":{"method":"PUT","url":"ServiceRequest/929b94a0-2873-4c6d-88e2-2fac9fc8cb1b"}},{"fullUrl":"https://madie.cms.gov/Coverage/8b14c7b4-9ce4-432a-8506-75970d87edfe","resource":{"resourceType":"Coverage","id":"8b14c7b4-9ce4-432a-8506-75970d87edfe","meta":{"profile":["http://hl7.org/fhir/us/qicore/StructureDefinition/qicore-coverage"]},"status":"active","subscriberId":"523435","beneficiary":{"reference":"Patient/162a5913-9989-42f2-8d6a-ae460e245e4c"},"relationship":{"coding":[{"system":"http://terminology.hl7.org/CodeSystem/subscriber-relationship","code":"self"}]},"payor":[{"reference":"Organization/bdb98641-017e-49e6-af48-0818e5611a2f"}]},"request":{"method":"PUT","url":"Coverage/8b14c7b4-9ce4-432a-8506-75970d87edfe"}},{"fullUrl":"https://madie.cms.gov/Condition/692f5017-118d-4544-b4a8-52058c60d3c2","resource":{"resourceType":"Condition","id":"692f5017-118d-4544-b4a8-52058c60d3c2","meta":{"profile":["http://hl7.org/fhir/us/qicore/StructureDefinition/qicore-condition-problems-health-concerns"]},"clinicalStatus":{"coding":[{"system":"http://terminology.hl7.org/CodeSystem/condition-clinical","code":"active"}]},"verificationStatus":{"coding":[{"system":"http://terminology.hl7.org/CodeSystem/condition-ver-status","code":"confirmed"}]},"category":[{"coding":[{"system":"http://terminology.hl7.org/CodeSystem/condition-category","code":"encounter-diagnosis","display":"Encounter Diagnosis"}]}],"code":{"coding":[{"system":"http://snomed.info/sct","version":"2021-09","code":"111297002","display":"Nonparalytic stroke (disorder)","userSelected":true}]},"subject":{"reference":"Patient/a2365453-d868-4111-b1dc-aad2e81d55fd"},"recordedDate":"2026-10-13T08:00:00Z"},"request":{"method":"PUT","url":"Condition/692f5017-118d-4544-b4a8-52058c60d3c2"}},{"fullUrl":"https://madie.cms.gov/claim/5ca62962b8484628b8de1ec5","resource":{"resourceType":"Claim","id":"5ca62962b8484628b8de1ec5","meta":{"profile":["http://hl7.org/fhir/us/qicore/StructureDefinition/qicore-claim"]},"status":"active","type":{"coding":[{"system":"http://terminology.hl7.org/CodeSystem/claim-type","code":"institutional"}]},"use":"claim","patient":{"reference":"Patient/d170a0a8-b5ad-4303-b6df-e304dd5f92ad"},"created":"2026-12-01","provider":{"reference":"Practitioner/practitioner-123456"},"priority":{"coding":[{"system":"http://terminology.hl7.org/CodeSystem/processpriority","code":"normal"}]},"diagnosis":[{"sequence":1,"diagnosisCodeableConcept":{"coding":[{"system":"http://hl7.org/fhir/sid/icd-10-cm","code":"I63.00"}]},"type":[{"coding":[{"system":"http://terminology.hl7.org/CodeSystem/ex-diagnosistype","code":"principal"}]}]}],"insurance":[{"sequence":1,"focal":true,"coverage":{"reference":"Coverage/5fa041661c76ba66d9959367"}}],"item":[{"sequence":1,"diagnosisSequence":[1],"productOrService":{"coding":[{"system":"http://terminology.hl7.org/CodeSystem/ex-USCLS","code":"99555"}]},"encounter":[{"reference":"Encounter/dfbb58d2-157d-42c5-a43e-6cda0483f49e"}]}]},"request":{"method":"PUT","url":"Claim/5ca62962b8484628b8de1ec5"}},{"fullUrl":"https://madie.cms.gov/Organization/bdb98641-017e-49e6-af48-0818e5611a2f","resource":{"resourceType":"Organization","id":"bdb98641-017e-49e6-af48-0818e5611a2f","meta":{"profile":["http://hl7.org/fhir/us/qicore/StructureDefinition/qicore-organization"]},"identifier":[{"use":"temp","system":"urn:oid:2.16.840.1.113883.4.4","value":"21-3259825"}],"active":true,"type":[{"coding":[{"system":"http://terminology.hl7.org/CodeSystem/organization-type","code":"pay","display":"Payer"}]}],"name":"Blue Cross Blue Shield of Texas","telecom":[{"system":"phone","value":"(+1) 972-766-6900"}],"address":[{"use":"billing","type":"postal","line":["P.O. Box 660044"],"city":"Dallas","state":"TX","postalCode":"75266-0044","country":"USA"}]},"request":{"method":"PUT","url":"Organization/bdb98641-017e-49e6-af48-0818e5611a2f"}},{"fullUrl":"https://madie.cms.gov/MeasureReport/f4186d5b-8b56-4374-899d-1ee2756ae4e7","resource":{"resourceType":"MeasureReport","id":"f4186d5b-8b56-4374-899d-1ee2756ae4e7","meta":{"profile":["http://hl7.org/fhir/us/cqfmeasures/StructureDefinition/test-case-cqfm"]},"contained":[{"resourceType":"Parameters","id":"cc96e090-408c-4911-bf1b-b60d6575f29a-parameters","parameter":[{"name":"subject","valueString":"a2365453-d868-4111-b1dc-aad2e81d55fd"}]}],"extension":[{"url":"http://hl7.org/fhir/StructureDefinition/cqf-inputParameters","valueReference":{"reference":"#cc96e090-408c-4911-bf1b-b60d6575f29a-parameters"}},{"url":"http://hl7.org/fhir/us/cqfmeasures/StructureDefinition/cqfm-testCaseDescription","valueMarkdown":"Patient receives CMO during Observation. ED ends 1 min before Obs start and Obs ends 61 min before inpatient encounter start. Testing HospitalizationWithObservation function."}],"modifierExtension":[{"url":"http://hl7.org/fhir/us/cqfmeasures/StructureDefinition/cqfm-isTestCase","valueBoolean":true}],"status":"complete","type":"individual","measure":"https://madie.cms.gov/Measure/CMS71FHIRSTKAnticoagAFFlutter","period":{"start":"2026-01-01","end":"2026-12-31"},"group":[{"id":"Group_1","population":[{"id":"InitialPopulation_1","code":{"coding":[{"system":"http://terminology.hl7.org/CodeSystem/measure-population","code":"initial-population","display":"Initial Population"}]},"count":1},{"id":"Denominator_1","code":{"coding":[{"system":"http://terminology.hl7.org/CodeSystem/measure-population","code":"denominator","display":"Denominator"}]},"count":1},{"id":"DenominatorExclusion_1","code":{"coding":[{"system":"http://terminology.hl7.org/CodeSystem/measure-population","code":"denominator-exclusion","display":"Denominator Exclusion"}]},"count":0},{"id":"Numerator_1","code":{"coding":[{"system":"http://terminology.hl7.org/CodeSystem/measure-population","code":"numerator","display":"Numerator"}]},"count":0},{"id":"DenominatorException_1","code":{"coding":[{"system":"http://terminology.hl7.org/CodeSystem/measure-population","code":"denominator-exception","display":"Denominator Exception"}]},"count":0}],"measureScore":{"value":0.0}}],"evaluatedResource":[{"reference":"Patient/a2365453-d868-4111-b1dc-aad2e81d55fd"},{"reference":"Condition/effa69c3-463b-4453-8a01-5298841a8f4f"},{"reference":"Encounter/3713e209-2dff-44eb-bdb7-ccdda7b3027e"},{"reference":"Encounter/ada2c94d-839a-418f-81e5-aa9c2325e955"},{"reference":"Encounter/dfbb58d2-157d-42c5-a43e-6cda0483f49e"},{"reference":"ServiceRequest/929b94a0-2873-4c6d-88e2-2fac9fc8cb1b"},{"reference":"Coverage/8b14c7b4-9ce4-432a-8506-75970d87edfe"},{"reference":"Condition/692f5017-118d-4544-b4a8-52058c60d3c2"},{"reference":"Claim/5ca62962b8484628b8de1ec5"},{"reference":"Organization/bdb98641-017e-49e6-af48-0818e5611a2f"}]},"request":{"method":"PUT","url":"MeasureReport/f4186d5b-8b56-4374-899d-1ee2756ae4e7"}}]},"request":{"method":"PUT","url":"Bundle/633c9d040968f8012250fca9"}},{"resource":{"resourceType":"ServiceRequest","id":"929b94a0-2873-4c6d-88e2-2fac9fc8cb1b","meta":{"profile":["http://hl7.org/fhir/us/qicore/StructureDefinition/qicore-servicerequest"]},"status":"active","intent":"order","code":{"coding":[{"system":"http://snomed.info/sct","code":"133918004"}]},"subject":{"reference":"Patient/a2365453-d868-4111-b1dc-aad2e81d55fd"},"authoredOn":"2026-10-01T09:15:00Z"},"request":{"method":"PUT","url":"ServiceRequest/929b94a0-2873-4c6d-88e2-2fac9fc8cb1b"}},{"resource":{"resourceType":"Encounter","id":"3713e209-2dff-44eb-bdb7-ccdda7b3027e","meta":{"profile":["http://hl7.org/fhir/us/qicore/StructureDefinition/qicore-encounter"]},"status":"finished","class":{"system":"http://terminology.hl7.org/CodeSystem/v3-ActCode","code":"EMER","display":"emergency"},"type":[{"coding":[{"system":"http://snomed.info/sct","code":"4525004"}]}],"subject":{"reference":"Patient/a2365453-d868-4111-b1dc-aad2e81d55fd"},"period":{"start":"2026-10-01T09:01:00Z","end":"2026-10-01T12:15:00.000+00:00"},"length":{"value":0,"unit":"days"}},"request":{"method":"PUT","url":"Encounter/3713e209-2dff-44eb-bdb7-ccdda7b3027e"}},{"resource":{"resourceType":"Encounter","id":"ada2c94d-839a-418f-81e5-aa9c2325e955","meta":{"profile":["http://hl7.org/fhir/us/qicore/StructureDefinition/qicore-encounter"]},"status":"finished","class":{"system":"http://terminology.hl7.org/CodeSystem/v3-ActCode","code":"OBSENC","display":"observation encounter"},"type":[{"coding":[{"system":"http://snomed.info/sct","code":"448851000124103"}]}],"subject":{"reference":"Patient/a2365453-d868-4111-b1dc-aad2e81d55fd"},"period":{"start":"2026-10-01T12:16:00Z","end":"2026-10-01T12:30:00.000+00:00"},"length":{"value":0,"unit":"days"}},"request":{"method":"PUT","url":"Encounter/ada2c94d-839a-418f-81e5-aa9c2325e955"}},{"resource":{"resourceType":"Claim","id":"5ca62962b8484628b8de1ec5","meta":{"profile":["http://hl7.org/fhir/us/qicore/StructureDefinition/qicore-claim"]},"status":"active","type":{"coding":[{"system":"http://terminology.hl7.org/CodeSystem/claim-type","code":"institutional"}]},"use":"claim","patient":{"reference":"Patient/d170a0a8-b5ad-4303-b6df-e304dd5f92ad"},"created":"2026-12-01","provider":{"reference":"Practitioner/practitioner-123456"},"priority":{"coding":[{"system":"http://terminology.hl7.org/CodeSystem/processpriority","code":"normal"}]},"diagnosis":[{"sequence":1,"diagnosisCodeableConcept":{"coding":[{"system":"http://hl7.org/fhir/sid/icd-10-cm","code":"I63.00"}]},"type":[{"coding":[{"system":"http://terminology.hl7.org/CodeSystem/ex-diagnosistype","code":"principal"}]}]}],"insurance":[{"sequence":1,"focal":true,"coverage":{"reference":"Coverage/5fa041661c76ba66d9959367"}}],"item":[{"sequence":1,"diagnosisSequence":[1],"productOrService":{"coding":[{"system":"http://terminology.hl7.org/CodeSystem/ex-USCLS","code":"99555"}]},"encounter":[{"reference":"Encounter/dfbb58d2-157d-42c5-a43e-6cda0483f49e"}]}]},"request":{"method":"PUT","url":"Claim/5ca62962b8484628b8de1ec5"}}]}