{"resourceType":"Bundle","id":"tests-81386d2f-e6d7-4433-b477-314e658f8cfe-bundle","type":"transaction","entry":[{"resource":{"resourceType":"Condition","id":"db3062bf-1782-4d6f-a6ec-890ce0a7a4a8","meta":{"profile":["http://hl7.org/fhir/us/qicore/StructureDefinition/qicore-condition-problems-health-concerns"]},"clinicalStatus":{"coding":[{"system":"http://terminology.hl7.org/CodeSystem/condition-clinical","code":"active"}]},"verificationStatus":{"coding":[{"system":"http://terminology.hl7.org/CodeSystem/condition-ver-status","code":"confirmed"}]},"category":[{"coding":[{"system":"http://terminology.hl7.org/CodeSystem/condition-category","code":"encounter-diagnosis","display":"Encounter Diagnosis"}]}],"code":{"coding":[{"system":"http://snomed.info/sct","version":"2021-09","code":"111297002","display":"Nonparalytic stroke (disorder)","userSelected":true}]},"subject":{"reference":"Patient/81386d2f-e6d7-4433-b477-314e658f8cfe"},"recordedDate":"2026-10-13T08:00:00Z"},"request":{"method":"PUT","url":"Condition/db3062bf-1782-4d6f-a6ec-890ce0a7a4a8"}},{"resource":{"resourceType":"Encounter","id":"a4bae001-8fbd-4a3a-aa2e-9739ff940dea","meta":{"profile":["http://hl7.org/fhir/us/qicore/StructureDefinition/qicore-encounter"]},"status":"finished","class":{"system":"http://terminology.hl7.org/CodeSystem/v3-ActCode","code":"IMP","display":"inpatient encounter"},"type":[{"coding":[{"system":"http://snomed.info/sct","code":"32485007"}]}],"subject":{"reference":"Patient/81386d2f-e6d7-4433-b477-314e658f8cfe"},"period":{"start":"2026-11-20T08:00:00Z","end":"2026-11-24T08:15:00.000+00:00"},"length":{"value":4,"unit":"days"},"reasonReference":[{"reference":"Condition/9c358b47-f580-43ff-bea7-7c4405682372"}]},"request":{"method":"PUT","url":"Encounter/a4bae001-8fbd-4a3a-aa2e-9739ff940dea"}},{"resource":{"resourceType":"Organization","id":"e6aa8018-9add-4367-bb37-ee6977dbd5c7","meta":{"profile":["http://hl7.org/fhir/us/qicore/StructureDefinition/qicore-organization"]},"identifier":[{"use":"temp","system":"urn:oid:2.16.840.1.113883.4.4","value":"21-3259825"}],"active":true,"type":[{"coding":[{"system":"http://terminology.hl7.org/CodeSystem/organization-type","code":"pay","display":"Payer"}]}],"name":"Blue Cross Blue Shield of Texas","telecom":[{"system":"phone","value":"(+1) 972-766-6900"}],"address":[{"use":"billing","type":"postal","line":["P.O. Box 660044"],"city":"Dallas","state":"TX","postalCode":"75266-0044","country":"USA"}]},"request":{"method":"PUT","url":"Organization/e6aa8018-9add-4367-bb37-ee6977dbd5c7"}},{"resource":{"resourceType":"Bundle","id":"633c9d030968f8012250fc93","type":"transaction","entry":[{"fullUrl":"https://madie.cms.gov/Patient/81386d2f-e6d7-4433-b477-314e658f8cfe","resource":{"resourceType":"Patient","id":"81386d2f-e6d7-4433-b477-314e658f8cfe","meta":{"profile":["http://hl7.org/fhir/us/qicore/StructureDefinition/qicore-patient"]},"text":{"status":"generated","div":"<div xmlns=\"http://www.w3.org/1999/xhtml\"><div class=\"hapiHeaderText\">MedDCAnticoaStartTmEQEncAdmTm <b>NUMERPASS </b></div><table class=\"hapiPropertyTable\"><tbody><tr><td>Identifier</td><td>31fcea6cd6f0c1c8b9c40622729fede7</td></tr><tr><td>Date of birth</td><td><span>23 May 1954</span></td></tr></tbody></table></div>"},"extension":[{"url":"http://hl7.org/fhir/us/core/StructureDefinition/us-core-race","extension":[{"url":"ombCategory","valueCoding":{"system":"urn:oid:2.16.840.1.113883.6.238","code":"1002-5","display":"American Indian or Alaska Native","userSelected":true}},{"url":"text","valueString":"American Indian or Alaska Native"}]},{"url":"http://hl7.org/fhir/us/core/StructureDefinition/us-core-ethnicity","extension":[{"url":"ombCategory","valueCoding":{"system":"urn:oid:2.16.840.1.113883.6.238","code":"2135-2","display":"Hispanic or Latino","userSelected":true}},{"url":"text","valueString":"Hispanic or Latino"}]}],"identifier":[{"type":{"coding":[{"system":"http://terminology.hl7.org/CodeSystem/v2-0203","code":"MR"}]},"system":"https://bonnie-fhir.healthit.gov/","value":"633c9d030968f8012250fc93"}],"active":true,"name":[{"use":"usual","family":"NUMERPass","given":["MedDCAnticoaStartTmEQEncAdmTm"]}],"gender":"female","birthDate":"1955-05-23"},"request":{"method":"PUT","url":"Patient/81386d2f-e6d7-4433-b477-314e658f8cfe"}},{"fullUrl":"https://madie.cms.gov/Condition/9c358b47-f580-43ff-bea7-7c4405682372","resource":{"resourceType":"Condition","id":"9c358b47-f580-43ff-bea7-7c4405682372","meta":{"profile":["http://hl7.org/fhir/us/qicore/StructureDefinition/qicore-condition-problems-health-concerns"]},"clinicalStatus":{"coding":[{"system":"http://terminology.hl7.org/CodeSystem/condition-clinical","code":"inactive"}]},"verificationStatus":{"coding":[{"system":"http://terminology.hl7.org/CodeSystem/condition-ver-status","code":"confirmed"}]},"category":[{"coding":[{"system":"http://terminology.hl7.org/CodeSystem/condition-category","code":"encounter-diagnosis","display":"Encounter Diagnosis"}]}],"code":{"coding":[{"system":"http://snomed.info/sct","code":"195080001"},{"system":"http://hl7.org/fhir/sid/icd-9-cm","code":"427.31"},{"system":"http://hl7.org/fhir/sid/icd-10-cm","code":"I48.0"}]},"subject":{"reference":"Patient/81386d2f-e6d7-4433-b477-314e658f8cfe"},"onsetDateTime":"2026-11-20T06:00:00Z","abatementDateTime":"2026-11-20T07:15:00.000+00:00"},"request":{"method":"PUT","url":"Condition/9c358b47-f580-43ff-bea7-7c4405682372"}},{"fullUrl":"https://madie.cms.gov/Encounter/a4bae001-8fbd-4a3a-aa2e-9739ff940dea","resource":{"resourceType":"Encounter","id":"a4bae001-8fbd-4a3a-aa2e-9739ff940dea","meta":{"profile":["http://hl7.org/fhir/us/qicore/StructureDefinition/qicore-encounter"]},"status":"finished","class":{"system":"http://terminology.hl7.org/CodeSystem/v3-ActCode","code":"IMP","display":"inpatient encounter"},"type":[{"coding":[{"system":"http://snomed.info/sct","code":"32485007"}]}],"subject":{"reference":"Patient/81386d2f-e6d7-4433-b477-314e658f8cfe"},"period":{"start":"2026-11-20T08:00:00Z","end":"2026-11-24T08:15:00.000+00:00"},"length":{"value":4,"unit":"days"},"reasonReference":[{"reference":"Condition/9c358b47-f580-43ff-bea7-7c4405682372"}]},"request":{"method":"PUT","url":"Encounter/a4bae001-8fbd-4a3a-aa2e-9739ff940dea"}},{"fullUrl":"https://madie.cms.gov/claim/5ca62962b8484628b8de1ec5","resource":{"resourceType":"Claim","id":"5ca62962b8484628b8de1ec5","meta":{"profile":["http://hl7.org/fhir/us/qicore/StructureDefinition/qicore-claim"]},"status":"active","type":{"coding":[{"system":"http://terminology.hl7.org/CodeSystem/claim-type","code":"institutional"}]},"use":"claim","patient":{"reference":"Patient/d170a0a8-b5ad-4303-b6df-e304dd5f92ad"},"created":"2026-12-01","provider":{"reference":"Practitioner/ecb7c6cf-07f1-4fa5-97d4-9d94198b1a4c"},"priority":{"coding":[{"system":"http://terminology.hl7.org/CodeSystem/processpriority","code":"normal"}]},"diagnosis":[{"sequence":1,"diagnosisCodeableConcept":{"coding":[{"system":"http://hl7.org/fhir/sid/icd-10-cm","code":"I63.00"}]},"type":[{"coding":[{"system":"http://terminology.hl7.org/CodeSystem/ex-diagnosistype","code":"principal"}]}]}],"insurance":[{"sequence":1,"focal":true,"coverage":{"reference":"Coverage/5fa041661c76ba66d9959367"}}],"item":[{"sequence":1,"diagnosisSequence":[1],"productOrService":{"coding":[{"system":"http://terminology.hl7.org/CodeSystem/ex-USCLS","code":"99555"}]},"encounter":[{"reference":"Encounter/a4bae001-8fbd-4a3a-aa2e-9739ff940dea"}]}]},"request":{"method":"PUT","url":"Claim/5ca62962b8484628b8de1ec5"}},{"fullUrl":"https://madie.cms.gov/MedicationRequest/9e60485c-57d1-43ed-816f-5ffb08679090","resource":{"resourceType":"MedicationRequest","id":"9e60485c-57d1-43ed-816f-5ffb08679090","meta":{"profile":["http://hl7.org/fhir/us/qicore/StructureDefinition/qicore-medicationrequest"]},"status":"active","intent":"order","category":[{"coding":[{"system":"http://terminology.hl7.org/CodeSystem/medicationrequest-category","code":"community","display":"Community","userSelected":true}]}],"medicationCodeableConcept":{"coding":[{"system":"http://www.nlm.nih.gov/research/umls/rxnorm","code":"308351"}]},"subject":{"reference":"Patient/81386d2f-e6d7-4433-b477-314e658f8cfe"},"authoredOn":"2026-11-20T08:00:00Z","requester":{"reference":"Practitioner/example"}},"request":{"method":"PUT","url":"MedicationRequest/9e60485c-57d1-43ed-816f-5ffb08679090"}},{"fullUrl":"https://madie.cms.gov/Coverage/96aeab99-11cc-40b7-96d5-d234c4bf9f4e","resource":{"resourceType":"Coverage","id":"96aeab99-11cc-40b7-96d5-d234c4bf9f4e","meta":{"profile":["http://hl7.org/fhir/us/qicore/StructureDefinition/qicore-coverage"]},"status":"active","subscriberId":"523435","beneficiary":{"reference":"Patient/162a5913-9989-42f2-8d6a-ae460e245e4c"},"relationship":{"coding":[{"system":"http://terminology.hl7.org/CodeSystem/subscriber-relationship","code":"self"}]},"payor":[{"reference":"Organization/e6aa8018-9add-4367-bb37-ee6977dbd5c7"}]},"request":{"method":"PUT","url":"Coverage/96aeab99-11cc-40b7-96d5-d234c4bf9f4e"}},{"fullUrl":"https://madie.cms.gov/Condition/db3062bf-1782-4d6f-a6ec-890ce0a7a4a8","resource":{"resourceType":"Condition","id":"db3062bf-1782-4d6f-a6ec-890ce0a7a4a8","meta":{"profile":["http://hl7.org/fhir/us/qicore/StructureDefinition/qicore-condition-problems-health-concerns"]},"clinicalStatus":{"coding":[{"system":"http://terminology.hl7.org/CodeSystem/condition-clinical","code":"active"}]},"verificationStatus":{"coding":[{"system":"http://terminology.hl7.org/CodeSystem/condition-ver-status","code":"confirmed"}]},"category":[{"coding":[{"system":"http://terminology.hl7.org/CodeSystem/condition-category","code":"encounter-diagnosis","display":"Encounter Diagnosis"}]}],"code":{"coding":[{"system":"http://snomed.info/sct","version":"2021-09","code":"111297002","display":"Nonparalytic stroke (disorder)","userSelected":true}]},"subject":{"reference":"Patient/81386d2f-e6d7-4433-b477-314e658f8cfe"},"recordedDate":"2026-10-13T08:00:00Z"},"request":{"method":"PUT","url":"Condition/db3062bf-1782-4d6f-a6ec-890ce0a7a4a8"}},{"fullUrl":"https://madie.cms.gov/Organization/e6aa8018-9add-4367-bb37-ee6977dbd5c7","resource":{"resourceType":"Organization","id":"e6aa8018-9add-4367-bb37-ee6977dbd5c7","meta":{"profile":["http://hl7.org/fhir/us/qicore/StructureDefinition/qicore-organization"]},"identifier":[{"use":"temp","system":"urn:oid:2.16.840.1.113883.4.4","value":"21-3259825"}],"active":true,"type":[{"coding":[{"system":"http://terminology.hl7.org/CodeSystem/organization-type","code":"pay","display":"Payer"}]}],"name":"Blue Cross Blue Shield of Texas","telecom":[{"system":"phone","value":"(+1) 972-766-6900"}],"address":[{"use":"billing","type":"postal","line":["P.O. Box 660044"],"city":"Dallas","state":"TX","postalCode":"75266-0044","country":"USA"}]},"request":{"method":"PUT","url":"Organization/e6aa8018-9add-4367-bb37-ee6977dbd5c7"}},{"fullUrl":"https://madie.cms.gov/Practitioner/ecb7c6cf-07f1-4fa5-97d4-9d94198b1a4c","resource":{"resourceType":"Practitioner","id":"ecb7c6cf-07f1-4fa5-97d4-9d94198b1a4c","meta":{"profile":["http://hl7.org/fhir/us/qicore/StructureDefinition/qicore-practitioner"]},"identifier":[{"system":"http://hl7.org/fhir/sid/us-npi","value":"9999999896"}],"name":[{"family":"Evil","prefix":["Dr"]}]},"request":{"method":"PUT","url":"Practitioner/ecb7c6cf-07f1-4fa5-97d4-9d94198b1a4c"}},{"fullUrl":"https://madie.cms.gov/MeasureReport/2cbf9fbe-c471-4f89-9743-08fca3f8586f","resource":{"resourceType":"MeasureReport","id":"2cbf9fbe-c471-4f89-9743-08fca3f8586f","meta":{"profile":["http://hl7.org/fhir/us/cqfmeasures/StructureDefinition/test-case-cqfm"]},"contained":[{"resourceType":"Parameters","id":"e182b0ce-7454-413c-8b6b-35af9c9d462b-parameters","parameter":[{"name":"subject","valueString":"81386d2f-e6d7-4433-b477-314e658f8cfe"}]}],"extension":[{"url":"http://hl7.org/fhir/StructureDefinition/cqf-inputParameters","valueReference":{"reference":"#e182b0ce-7454-413c-8b6b-35af9c9d462b-parameters"}},{"url":"http://hl7.org/fhir/us/cqfmeasures/StructureDefinition/cqfm-testCaseDescription","valueMarkdown":"Pt. discharged on anticoagulant, starts same time as OccurA, patient has a history of atrial fibrillation\n"}],"modifierExtension":[{"url":"http://hl7.org/fhir/us/cqfmeasures/StructureDefinition/cqfm-isTestCase","valueBoolean":true}],"status":"complete","type":"individual","measure":"https://madie.cms.gov/Measure/CMS71FHIRSTKAnticoagAFFlutter","period":{"start":"2026-01-01","end":"2026-12-31"},"group":[{"id":"Group_1","population":[{"id":"InitialPopulation_1","code":{"coding":[{"system":"http://terminology.hl7.org/CodeSystem/measure-population","code":"initial-population","display":"Initial Population"}]},"count":1},{"id":"Denominator_1","code":{"coding":[{"system":"http://terminology.hl7.org/CodeSystem/measure-population","code":"denominator","display":"Denominator"}]},"count":1},{"id":"DenominatorExclusion_1","code":{"coding":[{"system":"http://terminology.hl7.org/CodeSystem/measure-population","code":"denominator-exclusion","display":"Denominator Exclusion"}]},"count":0},{"id":"Numerator_1","code":{"coding":[{"system":"http://terminology.hl7.org/CodeSystem/measure-population","code":"numerator","display":"Numerator"}]},"count":1},{"id":"DenominatorException_1","code":{"coding":[{"system":"http://terminology.hl7.org/CodeSystem/measure-population","code":"denominator-exception","display":"Denominator Exception"}]},"count":0}],"measureScore":{"value":0.0}}],"evaluatedResource":[{"reference":"Patient/81386d2f-e6d7-4433-b477-314e658f8cfe"},{"reference":"Condition/9c358b47-f580-43ff-bea7-7c4405682372"},{"reference":"Encounter/a4bae001-8fbd-4a3a-aa2e-9739ff940dea"},{"reference":"Claim/5ca62962b8484628b8de1ec5"},{"reference":"MedicationRequest/9e60485c-57d1-43ed-816f-5ffb08679090"},{"reference":"Coverage/96aeab99-11cc-40b7-96d5-d234c4bf9f4e"},{"reference":"Condition/db3062bf-1782-4d6f-a6ec-890ce0a7a4a8"},{"reference":"Organization/e6aa8018-9add-4367-bb37-ee6977dbd5c7"},{"reference":"Practitioner/ecb7c6cf-07f1-4fa5-97d4-9d94198b1a4c"}]},"request":{"method":"PUT","url":"MeasureReport/2cbf9fbe-c471-4f89-9743-08fca3f8586f"}}]},"request":{"method":"PUT","url":"Bundle/633c9d030968f8012250fc93"}},{"resource":{"resourceType":"MeasureReport","id":"2cbf9fbe-c471-4f89-9743-08fca3f8586f","meta":{"profile":["http://hl7.org/fhir/us/cqfmeasures/StructureDefinition/test-case-cqfm"]},"contained":[{"resourceType":"Parameters","id":"e182b0ce-7454-413c-8b6b-35af9c9d462b-parameters","parameter":[{"name":"subject","valueString":"81386d2f-e6d7-4433-b477-314e658f8cfe"}]}],"extension":[{"url":"http://hl7.org/fhir/StructureDefinition/cqf-inputParameters","valueReference":{"reference":"#e182b0ce-7454-413c-8b6b-35af9c9d462b-parameters"}},{"url":"http://hl7.org/fhir/us/cqfmeasures/StructureDefinition/cqfm-testCaseDescription","valueMarkdown":"Pt. discharged on anticoagulant, starts same time as OccurA, patient has a history of atrial fibrillation\n"}],"modifierExtension":[{"url":"http://hl7.org/fhir/us/cqfmeasures/StructureDefinition/cqfm-isTestCase","valueBoolean":true}],"status":"complete","type":"individual","measure":"https://madie.cms.gov/Measure/CMS71FHIRSTKAnticoagAFFlutter","period":{"start":"2026-01-01","end":"2026-12-31"},"group":[{"id":"Group_1","population":[{"id":"InitialPopulation_1","code":{"coding":[{"system":"http://terminology.hl7.org/CodeSystem/measure-population","code":"initial-population","display":"Initial Population"}]},"count":1},{"id":"Denominator_1","code":{"coding":[{"system":"http://terminology.hl7.org/CodeSystem/measure-population","code":"denominator","display":"Denominator"}]},"count":1},{"id":"DenominatorExclusion_1","code":{"coding":[{"system":"http://terminology.hl7.org/CodeSystem/measure-population","code":"denominator-exclusion","display":"Denominator Exclusion"}]},"count":0},{"id":"Numerator_1","code":{"coding":[{"system":"http://terminology.hl7.org/CodeSystem/measure-population","code":"numerator","display":"Numerator"}]},"count":1},{"id":"DenominatorException_1","code":{"coding":[{"system":"http://terminology.hl7.org/CodeSystem/measure-population","code":"denominator-exception","display":"Denominator Exception"}]},"count":0}],"measureScore":{"value":0.0}}],"evaluatedResource":[{"reference":"Patient/81386d2f-e6d7-4433-b477-314e658f8cfe"},{"reference":"Condition/9c358b47-f580-43ff-bea7-7c4405682372"},{"reference":"Encounter/a4bae001-8fbd-4a3a-aa2e-9739ff940dea"},{"reference":"Claim/5ca62962b8484628b8de1ec5"},{"reference":"MedicationRequest/9e60485c-57d1-43ed-816f-5ffb08679090"},{"reference":"Coverage/96aeab99-11cc-40b7-96d5-d234c4bf9f4e"},{"reference":"Condition/db3062bf-1782-4d6f-a6ec-890ce0a7a4a8"},{"reference":"Organization/e6aa8018-9add-4367-bb37-ee6977dbd5c7"},{"reference":"Practitioner/ecb7c6cf-07f1-4fa5-97d4-9d94198b1a4c"}]},"request":{"method":"PUT","url":"MeasureReport/2cbf9fbe-c471-4f89-9743-08fca3f8586f"}},{"resource":{"resourceType":"Coverage","id":"96aeab99-11cc-40b7-96d5-d234c4bf9f4e","meta":{"profile":["http://hl7.org/fhir/us/qicore/StructureDefinition/qicore-coverage"]},"status":"active","subscriberId":"523435","beneficiary":{"reference":"Patient/162a5913-9989-42f2-8d6a-ae460e245e4c"},"relationship":{"coding":[{"system":"http://terminology.hl7.org/CodeSystem/subscriber-relationship","code":"self"}]},"payor":[{"reference":"Organization/e6aa8018-9add-4367-bb37-ee6977dbd5c7"}]},"request":{"method":"PUT","url":"Coverage/96aeab99-11cc-40b7-96d5-d234c4bf9f4e"}},{"resource":{"resourceType":"MedicationRequest","id":"9e60485c-57d1-43ed-816f-5ffb08679090","meta":{"profile":["http://hl7.org/fhir/us/qicore/StructureDefinition/qicore-medicationrequest"]},"status":"active","intent":"order","category":[{"coding":[{"system":"http://terminology.hl7.org/CodeSystem/medicationrequest-category","code":"community","display":"Community","userSelected":true}]}],"medicationCodeableConcept":{"coding":[{"system":"http://www.nlm.nih.gov/research/umls/rxnorm","code":"308351"}]},"subject":{"reference":"Patient/81386d2f-e6d7-4433-b477-314e658f8cfe"},"authoredOn":"2026-11-20T08:00:00Z","requester":{"reference":"Practitioner/example"}},"request":{"method":"PUT","url":"MedicationRequest/9e60485c-57d1-43ed-816f-5ffb08679090"}},{"resource":{"resourceType":"Practitioner","id":"ecb7c6cf-07f1-4fa5-97d4-9d94198b1a4c","meta":{"profile":["http://hl7.org/fhir/us/qicore/StructureDefinition/qicore-practitioner"]},"identifier":[{"system":"http://hl7.org/fhir/sid/us-npi","value":"9999999896"}],"name":[{"family":"Evil","prefix":["Dr"]}]},"request":{"method":"PUT","url":"Practitioner/ecb7c6cf-07f1-4fa5-97d4-9d94198b1a4c"}},{"resource":{"resourceType":"Condition","id":"9c358b47-f580-43ff-bea7-7c4405682372","meta":{"profile":["http://hl7.org/fhir/us/qicore/StructureDefinition/qicore-condition-problems-health-concerns"]},"clinicalStatus":{"coding":[{"system":"http://terminology.hl7.org/CodeSystem/condition-clinical","code":"inactive"}]},"verificationStatus":{"coding":[{"system":"http://terminology.hl7.org/CodeSystem/condition-ver-status","code":"confirmed"}]},"category":[{"coding":[{"system":"http://terminology.hl7.org/CodeSystem/condition-category","code":"encounter-diagnosis","display":"Encounter Diagnosis"}]}],"code":{"coding":[{"system":"http://snomed.info/sct","code":"195080001"},{"system":"http://hl7.org/fhir/sid/icd-9-cm","code":"427.31"},{"system":"http://hl7.org/fhir/sid/icd-10-cm","code":"I48.0"}]},"subject":{"reference":"Patient/81386d2f-e6d7-4433-b477-314e658f8cfe"},"onsetDateTime":"2026-11-20T06:00:00Z","abatementDateTime":"2026-11-20T07:15:00.000+00:00"},"request":{"method":"PUT","url":"Condition/9c358b47-f580-43ff-bea7-7c4405682372"}},{"resource":{"resourceType":"Claim","id":"5ca62962b8484628b8de1ec5","meta":{"profile":["http://hl7.org/fhir/us/qicore/StructureDefinition/qicore-claim"]},"status":"active","type":{"coding":[{"system":"http://terminology.hl7.org/CodeSystem/claim-type","code":"institutional"}]},"use":"claim","patient":{"reference":"Patient/d170a0a8-b5ad-4303-b6df-e304dd5f92ad"},"created":"2026-12-01","provider":{"reference":"Practitioner/ecb7c6cf-07f1-4fa5-97d4-9d94198b1a4c"},"priority":{"coding":[{"system":"http://terminology.hl7.org/CodeSystem/processpriority","code":"normal"}]},"diagnosis":[{"sequence":1,"diagnosisCodeableConcept":{"coding":[{"system":"http://hl7.org/fhir/sid/icd-10-cm","code":"I63.00"}]},"type":[{"coding":[{"system":"http://terminology.hl7.org/CodeSystem/ex-diagnosistype","code":"principal"}]}]}],"insurance":[{"sequence":1,"focal":true,"coverage":{"reference":"Coverage/5fa041661c76ba66d9959367"}}],"item":[{"sequence":1,"diagnosisSequence":[1],"productOrService":{"coding":[{"system":"http://terminology.hl7.org/CodeSystem/ex-USCLS","code":"99555"}]},"encounter":[{"reference":"Encounter/a4bae001-8fbd-4a3a-aa2e-9739ff940dea"}]}]},"request":{"method":"PUT","url":"Claim/5ca62962b8484628b8de1ec5"}},{"resource":{"resourceType":"Patient","id":"81386d2f-e6d7-4433-b477-314e658f8cfe","meta":{"profile":["http://hl7.org/fhir/us/qicore/StructureDefinition/qicore-patient"]},"text":{"status":"generated","div":"<div xmlns=\"http://www.w3.org/1999/xhtml\"><div class=\"hapiHeaderText\">MedDCAnticoaStartTmEQEncAdmTm <b>NUMERPASS </b></div><table class=\"hapiPropertyTable\"><tbody><tr><td>Identifier</td><td>31fcea6cd6f0c1c8b9c40622729fede7</td></tr><tr><td>Date of birth</td><td><span>23 May 1954</span></td></tr></tbody></table></div>"},"extension":[{"url":"http://hl7.org/fhir/us/core/StructureDefinition/us-core-race","extension":[{"url":"ombCategory","valueCoding":{"system":"urn:oid:2.16.840.1.113883.6.238","code":"1002-5","display":"American Indian or Alaska Native","userSelected":true}},{"url":"text","valueString":"American Indian or Alaska Native"}]},{"url":"http://hl7.org/fhir/us/core/StructureDefinition/us-core-ethnicity","extension":[{"url":"ombCategory","valueCoding":{"system":"urn:oid:2.16.840.1.113883.6.238","code":"2135-2","display":"Hispanic or Latino","userSelected":true}},{"url":"text","valueString":"Hispanic or Latino"}]}],"identifier":[{"type":{"coding":[{"system":"http://terminology.hl7.org/CodeSystem/v2-0203","code":"MR"}]},"system":"https://bonnie-fhir.healthit.gov/","value":"633c9d030968f8012250fc93"}],"active":true,"name":[{"use":"usual","family":"NUMERPass","given":["MedDCAnticoaStartTmEQEncAdmTm"]}],"gender":"female","birthDate":"1955-05-23"},"request":{"method":"PUT","url":"Patient/81386d2f-e6d7-4433-b477-314e658f8cfe"}}]}