{"resourceType":"Bundle","id":"tests-43d04e08-768c-4e5e-a7eb-44219c5e94b1-bundle","type":"transaction","entry":[{"resource":{"resourceType":"Practitioner","id":"36591aae-a15f-4403-bfe9-fc932762b1ab","meta":{"profile":["http://hl7.org/fhir/us/qicore/StructureDefinition/qicore-practitioner"]},"identifier":[{"system":"http://hl7.org/fhir/sid/us-npi","value":"9999999896"}],"name":[{"family":"Evil","prefix":["Dr"]}]},"request":{"method":"PUT","url":"Practitioner/36591aae-a15f-4403-bfe9-fc932762b1ab"}},{"resource":{"resourceType":"Encounter","id":"768476ce-a72e-4452-a6a9-a07b816c679d","meta":{"profile":["http://hl7.org/fhir/us/qicore/StructureDefinition/qicore-encounter"]},"status":"finished","class":{"system":"http://terminology.hl7.org/CodeSystem/v3-ActCode","code":"IMP","display":"inpatient encounter"},"type":[{"coding":[{"system":"http://snomed.info/sct","code":"32485007"}]}],"subject":{"reference":"Patient/43d04e08-768c-4e5e-a7eb-44219c5e94b1"},"period":{"start":"2026-02-08T08:00:00Z","end":"2026-02-10T08:15:00.000+00:00"},"length":{"value":2,"unit":"days"},"reasonReference":[{"reference":"Condition/e761bdd8-57e4-4680-a3ac-11dee535bf89"}]},"request":{"method":"PUT","url":"Encounter/768476ce-a72e-4452-a6a9-a07b816c679d"}},{"resource":{"resourceType":"Condition","id":"e761bdd8-57e4-4680-a3ac-11dee535bf89","meta":{"profile":["http://hl7.org/fhir/us/qicore/StructureDefinition/qicore-condition-problems-health-concerns"]},"clinicalStatus":{"coding":[{"system":"http://terminology.hl7.org/CodeSystem/condition-clinical","code":"inactive"}]},"verificationStatus":{"coding":[{"system":"http://terminology.hl7.org/CodeSystem/condition-ver-status","code":"confirmed"}]},"category":[{"coding":[{"system":"http://terminology.hl7.org/CodeSystem/condition-category","code":"encounter-diagnosis","display":"Encounter Diagnosis"}]}],"code":{"coding":[{"system":"http://snomed.info/sct","code":"195080001"},{"system":"http://hl7.org/fhir/sid/icd-9-cm","code":"427.31"},{"system":"http://hl7.org/fhir/sid/icd-10-cm","code":"I48.0"}]},"subject":{"reference":"Patient/43d04e08-768c-4e5e-a7eb-44219c5e94b1"},"onsetDateTime":"2026-02-10T08:15:00Z","abatementDateTime":"2026-02-10T08:15:00.000+00:00"},"request":{"method":"PUT","url":"Condition/e761bdd8-57e4-4680-a3ac-11dee535bf89"}},{"resource":{"resourceType":"MeasureReport","id":"45da1e95-4fa4-4b76-9501-fa10f5712bfb","meta":{"profile":["http://hl7.org/fhir/us/cqfmeasures/StructureDefinition/test-case-cqfm"]},"contained":[{"resourceType":"Parameters","id":"2d4dfba6-6588-4e08-b8ec-211c98cbb347-parameters","parameter":[{"name":"subject","valueString":"43d04e08-768c-4e5e-a7eb-44219c5e94b1"}]}],"extension":[{"url":"http://hl7.org/fhir/StructureDefinition/cqf-inputParameters","valueReference":{"reference":"#2d4dfba6-6588-4e08-b8ec-211c98cbb347-parameters"}},{"url":"http://hl7.org/fhir/us/cqfmeasures/StructureDefinition/cqfm-testCaseDescription","valueMarkdown":"\"Afib as a Diagnosis Datatype, starts at OccurA EndDate\nEdge case to test timing boundaries of diagnosis. \"\n"}],"modifierExtension":[{"url":"http://hl7.org/fhir/us/cqfmeasures/StructureDefinition/cqfm-isTestCase","valueBoolean":true}],"status":"complete","type":"individual","measure":"https://madie.cms.gov/Measure/CMS71FHIRSTKAnticoagAFFlutter","period":{"start":"2026-01-01","end":"2026-12-31"},"group":[{"id":"Group_1","population":[{"id":"InitialPopulation_1","code":{"coding":[{"system":"http://terminology.hl7.org/CodeSystem/measure-population","code":"initial-population","display":"Initial Population"}]},"count":1},{"id":"Denominator_1","code":{"coding":[{"system":"http://terminology.hl7.org/CodeSystem/measure-population","code":"denominator","display":"Denominator"}]},"count":1},{"id":"DenominatorExclusion_1","code":{"coding":[{"system":"http://terminology.hl7.org/CodeSystem/measure-population","code":"denominator-exclusion","display":"Denominator Exclusion"}]},"count":0},{"id":"Numerator_1","code":{"coding":[{"system":"http://terminology.hl7.org/CodeSystem/measure-population","code":"numerator","display":"Numerator"}]},"count":0},{"id":"DenominatorException_1","code":{"coding":[{"system":"http://terminology.hl7.org/CodeSystem/measure-population","code":"denominator-exception","display":"Denominator Exception"}]},"count":0}],"measureScore":{"value":0.0}}],"evaluatedResource":[{"reference":"Patient/43d04e08-768c-4e5e-a7eb-44219c5e94b1"},{"reference":"Condition/e761bdd8-57e4-4680-a3ac-11dee535bf89"},{"reference":"Encounter/768476ce-a72e-4452-a6a9-a07b816c679d"},{"reference":"Claim/5ca62962b8484628b8de1ec5"},{"reference":"Coverage/d6ec0442-6a97-4004-9e96-c67875f6839c"},{"reference":"Condition/e3d72fc3-e1f1-4954-a3aa-fc3c2449ff98"},{"reference":"Organization/6fde8eae-9aad-4caa-b138-0729f3b3a282"},{"reference":"Practitioner/36591aae-a15f-4403-bfe9-fc932762b1ab"}]},"request":{"method":"PUT","url":"MeasureReport/45da1e95-4fa4-4b76-9501-fa10f5712bfb"}},{"resource":{"resourceType":"Bundle","id":"633c9d030968f8012250fc90","type":"transaction","entry":[{"fullUrl":"https://madie.cms.gov/Patient/43d04e08-768c-4e5e-a7eb-44219c5e94b1","resource":{"resourceType":"Patient","id":"43d04e08-768c-4e5e-a7eb-44219c5e94b1","meta":{"profile":["http://hl7.org/fhir/us/qicore/StructureDefinition/qicore-patient"]},"text":{"status":"generated","div":"<div xmlns=\"http://www.w3.org/1999/xhtml\"><div class=\"hapiHeaderText\">DxAfibAtEncEndTime <b>DENOMPASS </b></div><table class=\"hapiPropertyTable\"><tbody><tr><td>Identifier</td><td>07d1b6cfb79c3da7b4c3edf0c8bcb5f1</td></tr><tr><td>Date of birth</td><td><span>01 December 1960</span></td></tr></tbody></table></div>"},"extension":[{"url":"http://hl7.org/fhir/us/core/StructureDefinition/us-core-race","extension":[{"url":"ombCategory","valueCoding":{"system":"urn:oid:2.16.840.1.113883.6.238","code":"1002-5","display":"American Indian or Alaska Native","userSelected":true}},{"url":"text","valueString":"American Indian or Alaska Native"}]},{"url":"http://hl7.org/fhir/us/core/StructureDefinition/us-core-ethnicity","extension":[{"url":"ombCategory","valueCoding":{"system":"urn:oid:2.16.840.1.113883.6.238","code":"2135-2","display":"Hispanic or Latino","userSelected":true}},{"url":"text","valueString":"Hispanic or Latino"}]}],"identifier":[{"type":{"coding":[{"system":"http://terminology.hl7.org/CodeSystem/v2-0203","code":"MR"}]},"system":"https://bonnie-fhir.healthit.gov/","value":"633c9d030968f8012250fc90"}],"active":true,"name":[{"use":"usual","family":"DENOMPass","given":["DxAfibAtEncEndTime"]}],"gender":"male","birthDate":"1961-12-01"},"request":{"method":"PUT","url":"Patient/43d04e08-768c-4e5e-a7eb-44219c5e94b1"}},{"fullUrl":"https://madie.cms.gov/Condition/e761bdd8-57e4-4680-a3ac-11dee535bf89","resource":{"resourceType":"Condition","id":"e761bdd8-57e4-4680-a3ac-11dee535bf89","meta":{"profile":["http://hl7.org/fhir/us/qicore/StructureDefinition/qicore-condition-problems-health-concerns"]},"clinicalStatus":{"coding":[{"system":"http://terminology.hl7.org/CodeSystem/condition-clinical","code":"inactive"}]},"verificationStatus":{"coding":[{"system":"http://terminology.hl7.org/CodeSystem/condition-ver-status","code":"confirmed"}]},"category":[{"coding":[{"system":"http://terminology.hl7.org/CodeSystem/condition-category","code":"encounter-diagnosis","display":"Encounter Diagnosis"}]}],"code":{"coding":[{"system":"http://snomed.info/sct","code":"195080001"},{"system":"http://hl7.org/fhir/sid/icd-9-cm","code":"427.31"},{"system":"http://hl7.org/fhir/sid/icd-10-cm","code":"I48.0"}]},"subject":{"reference":"Patient/43d04e08-768c-4e5e-a7eb-44219c5e94b1"},"onsetDateTime":"2026-02-10T08:15:00Z","abatementDateTime":"2026-02-10T08:15:00.000+00:00"},"request":{"method":"PUT","url":"Condition/e761bdd8-57e4-4680-a3ac-11dee535bf89"}},{"fullUrl":"https://madie.cms.gov/Encounter/768476ce-a72e-4452-a6a9-a07b816c679d","resource":{"resourceType":"Encounter","id":"768476ce-a72e-4452-a6a9-a07b816c679d","meta":{"profile":["http://hl7.org/fhir/us/qicore/StructureDefinition/qicore-encounter"]},"status":"finished","class":{"system":"http://terminology.hl7.org/CodeSystem/v3-ActCode","code":"IMP","display":"inpatient encounter"},"type":[{"coding":[{"system":"http://snomed.info/sct","code":"32485007"}]}],"subject":{"reference":"Patient/43d04e08-768c-4e5e-a7eb-44219c5e94b1"},"period":{"start":"2026-02-08T08:00:00Z","end":"2026-02-10T08:15:00.000+00:00"},"length":{"value":2,"unit":"days"},"reasonReference":[{"reference":"Condition/e761bdd8-57e4-4680-a3ac-11dee535bf89"}]},"request":{"method":"PUT","url":"Encounter/768476ce-a72e-4452-a6a9-a07b816c679d"}},{"fullUrl":"https://madie.cms.gov/claim/5ca62962b8484628b8de1ec5","resource":{"resourceType":"Claim","id":"5ca62962b8484628b8de1ec5","meta":{"profile":["http://hl7.org/fhir/us/qicore/StructureDefinition/qicore-claim"]},"status":"active","type":{"coding":[{"system":"http://terminology.hl7.org/CodeSystem/claim-type","code":"institutional"}]},"use":"claim","patient":{"reference":"Patient/d170a0a8-b5ad-4303-b6df-e304dd5f92ad"},"created":"2026-12-01","provider":{"reference":"Practitioner/36591aae-a15f-4403-bfe9-fc932762b1ab"},"priority":{"coding":[{"system":"http://terminology.hl7.org/CodeSystem/processpriority","code":"normal"}]},"diagnosis":[{"sequence":1,"diagnosisCodeableConcept":{"coding":[{"system":"http://hl7.org/fhir/sid/icd-10-cm","code":"I63.00"}]},"type":[{"coding":[{"system":"http://terminology.hl7.org/CodeSystem/ex-diagnosistype","code":"principal"}]}]}],"insurance":[{"sequence":1,"focal":true,"coverage":{"reference":"Coverage/5fa041661c76ba66d9959367"}}],"item":[{"sequence":1,"diagnosisSequence":[1],"productOrService":{"coding":[{"system":"http://terminology.hl7.org/CodeSystem/ex-USCLS","code":"99555"}]},"encounter":[{"reference":"Encounter/768476ce-a72e-4452-a6a9-a07b816c679d"}]}]},"request":{"method":"PUT","url":"Claim/5ca62962b8484628b8de1ec5"}},{"fullUrl":"https://madie.cms.gov/Coverage/d6ec0442-6a97-4004-9e96-c67875f6839c","resource":{"resourceType":"Coverage","id":"d6ec0442-6a97-4004-9e96-c67875f6839c","meta":{"profile":["http://hl7.org/fhir/us/qicore/StructureDefinition/qicore-coverage"]},"status":"active","subscriberId":"523435","beneficiary":{"reference":"Patient/162a5913-9989-42f2-8d6a-ae460e245e4c"},"relationship":{"coding":[{"system":"http://terminology.hl7.org/CodeSystem/subscriber-relationship","code":"self"}]},"payor":[{"reference":"Organization/6fde8eae-9aad-4caa-b138-0729f3b3a282"}]},"request":{"method":"PUT","url":"Coverage/d6ec0442-6a97-4004-9e96-c67875f6839c"}},{"fullUrl":"https://madie.cms.gov/Condition/e3d72fc3-e1f1-4954-a3aa-fc3c2449ff98","resource":{"resourceType":"Condition","id":"e3d72fc3-e1f1-4954-a3aa-fc3c2449ff98","meta":{"profile":["http://hl7.org/fhir/us/qicore/StructureDefinition/qicore-condition-problems-health-concerns"]},"clinicalStatus":{"coding":[{"system":"http://terminology.hl7.org/CodeSystem/condition-clinical","code":"active"}]},"verificationStatus":{"coding":[{"system":"http://terminology.hl7.org/CodeSystem/condition-ver-status","code":"confirmed"}]},"category":[{"coding":[{"system":"http://terminology.hl7.org/CodeSystem/condition-category","code":"encounter-diagnosis","display":"Encounter Diagnosis"}]}],"code":{"coding":[{"system":"http://snomed.info/sct","version":"2021-09","code":"111297002","display":"Nonparalytic stroke (disorder)","userSelected":true}]},"subject":{"reference":"Patient/43d04e08-768c-4e5e-a7eb-44219c5e94b1"},"recordedDate":"2026-10-13T08:00:00Z"},"request":{"method":"PUT","url":"Condition/e3d72fc3-e1f1-4954-a3aa-fc3c2449ff98"}},{"fullUrl":"https://madie.cms.gov/Organization/6fde8eae-9aad-4caa-b138-0729f3b3a282","resource":{"resourceType":"Organization","id":"6fde8eae-9aad-4caa-b138-0729f3b3a282","meta":{"profile":["http://hl7.org/fhir/us/qicore/StructureDefinition/qicore-organization"]},"identifier":[{"use":"temp","system":"urn:oid:2.16.840.1.113883.4.4","value":"21-3259825"}],"active":true,"type":[{"coding":[{"system":"http://terminology.hl7.org/CodeSystem/organization-type","code":"pay","display":"Payer"}]}],"name":"Blue Cross Blue Shield of Texas","telecom":[{"system":"phone","value":"(+1) 972-766-6900"}],"address":[{"use":"billing","type":"postal","line":["P.O. Box 660044"],"city":"Dallas","state":"TX","postalCode":"75266-0044","country":"USA"}]},"request":{"method":"PUT","url":"Organization/6fde8eae-9aad-4caa-b138-0729f3b3a282"}},{"fullUrl":"https://madie.cms.gov/Practitioner/36591aae-a15f-4403-bfe9-fc932762b1ab","resource":{"resourceType":"Practitioner","id":"36591aae-a15f-4403-bfe9-fc932762b1ab","meta":{"profile":["http://hl7.org/fhir/us/qicore/StructureDefinition/qicore-practitioner"]},"identifier":[{"system":"http://hl7.org/fhir/sid/us-npi","value":"9999999896"}],"name":[{"family":"Evil","prefix":["Dr"]}]},"request":{"method":"PUT","url":"Practitioner/36591aae-a15f-4403-bfe9-fc932762b1ab"}},{"fullUrl":"https://madie.cms.gov/MeasureReport/45da1e95-4fa4-4b76-9501-fa10f5712bfb","resource":{"resourceType":"MeasureReport","id":"45da1e95-4fa4-4b76-9501-fa10f5712bfb","meta":{"profile":["http://hl7.org/fhir/us/cqfmeasures/StructureDefinition/test-case-cqfm"]},"contained":[{"resourceType":"Parameters","id":"2d4dfba6-6588-4e08-b8ec-211c98cbb347-parameters","parameter":[{"name":"subject","valueString":"43d04e08-768c-4e5e-a7eb-44219c5e94b1"}]}],"extension":[{"url":"http://hl7.org/fhir/StructureDefinition/cqf-inputParameters","valueReference":{"reference":"#2d4dfba6-6588-4e08-b8ec-211c98cbb347-parameters"}},{"url":"http://hl7.org/fhir/us/cqfmeasures/StructureDefinition/cqfm-testCaseDescription","valueMarkdown":"\"Afib as a Diagnosis Datatype, starts at OccurA EndDate\nEdge case to test timing boundaries of diagnosis. \"\n"}],"modifierExtension":[{"url":"http://hl7.org/fhir/us/cqfmeasures/StructureDefinition/cqfm-isTestCase","valueBoolean":true}],"status":"complete","type":"individual","measure":"https://madie.cms.gov/Measure/CMS71FHIRSTKAnticoagAFFlutter","period":{"start":"2026-01-01","end":"2026-12-31"},"group":[{"id":"Group_1","population":[{"id":"InitialPopulation_1","code":{"coding":[{"system":"http://terminology.hl7.org/CodeSystem/measure-population","code":"initial-population","display":"Initial Population"}]},"count":1},{"id":"Denominator_1","code":{"coding":[{"system":"http://terminology.hl7.org/CodeSystem/measure-population","code":"denominator","display":"Denominator"}]},"count":1},{"id":"DenominatorExclusion_1","code":{"coding":[{"system":"http://terminology.hl7.org/CodeSystem/measure-population","code":"denominator-exclusion","display":"Denominator Exclusion"}]},"count":0},{"id":"Numerator_1","code":{"coding":[{"system":"http://terminology.hl7.org/CodeSystem/measure-population","code":"numerator","display":"Numerator"}]},"count":0},{"id":"DenominatorException_1","code":{"coding":[{"system":"http://terminology.hl7.org/CodeSystem/measure-population","code":"denominator-exception","display":"Denominator Exception"}]},"count":0}],"measureScore":{"value":0.0}}],"evaluatedResource":[{"reference":"Patient/43d04e08-768c-4e5e-a7eb-44219c5e94b1"},{"reference":"Condition/e761bdd8-57e4-4680-a3ac-11dee535bf89"},{"reference":"Encounter/768476ce-a72e-4452-a6a9-a07b816c679d"},{"reference":"Claim/5ca62962b8484628b8de1ec5"},{"reference":"Coverage/d6ec0442-6a97-4004-9e96-c67875f6839c"},{"reference":"Condition/e3d72fc3-e1f1-4954-a3aa-fc3c2449ff98"},{"reference":"Organization/6fde8eae-9aad-4caa-b138-0729f3b3a282"},{"reference":"Practitioner/36591aae-a15f-4403-bfe9-fc932762b1ab"}]},"request":{"method":"PUT","url":"MeasureReport/45da1e95-4fa4-4b76-9501-fa10f5712bfb"}}]},"request":{"method":"PUT","url":"Bundle/633c9d030968f8012250fc90"}},{"resource":{"resourceType":"Coverage","id":"d6ec0442-6a97-4004-9e96-c67875f6839c","meta":{"profile":["http://hl7.org/fhir/us/qicore/StructureDefinition/qicore-coverage"]},"status":"active","subscriberId":"523435","beneficiary":{"reference":"Patient/162a5913-9989-42f2-8d6a-ae460e245e4c"},"relationship":{"coding":[{"system":"http://terminology.hl7.org/CodeSystem/subscriber-relationship","code":"self"}]},"payor":[{"reference":"Organization/6fde8eae-9aad-4caa-b138-0729f3b3a282"}]},"request":{"method":"PUT","url":"Coverage/d6ec0442-6a97-4004-9e96-c67875f6839c"}},{"resource":{"resourceType":"Organization","id":"6fde8eae-9aad-4caa-b138-0729f3b3a282","meta":{"profile":["http://hl7.org/fhir/us/qicore/StructureDefinition/qicore-organization"]},"identifier":[{"use":"temp","system":"urn:oid:2.16.840.1.113883.4.4","value":"21-3259825"}],"active":true,"type":[{"coding":[{"system":"http://terminology.hl7.org/CodeSystem/organization-type","code":"pay","display":"Payer"}]}],"name":"Blue Cross Blue Shield of Texas","telecom":[{"system":"phone","value":"(+1) 972-766-6900"}],"address":[{"use":"billing","type":"postal","line":["P.O. Box 660044"],"city":"Dallas","state":"TX","postalCode":"75266-0044","country":"USA"}]},"request":{"method":"PUT","url":"Organization/6fde8eae-9aad-4caa-b138-0729f3b3a282"}},{"resource":{"resourceType":"Condition","id":"e3d72fc3-e1f1-4954-a3aa-fc3c2449ff98","meta":{"profile":["http://hl7.org/fhir/us/qicore/StructureDefinition/qicore-condition-problems-health-concerns"]},"clinicalStatus":{"coding":[{"system":"http://terminology.hl7.org/CodeSystem/condition-clinical","code":"active"}]},"verificationStatus":{"coding":[{"system":"http://terminology.hl7.org/CodeSystem/condition-ver-status","code":"confirmed"}]},"category":[{"coding":[{"system":"http://terminology.hl7.org/CodeSystem/condition-category","code":"encounter-diagnosis","display":"Encounter Diagnosis"}]}],"code":{"coding":[{"system":"http://snomed.info/sct","version":"2021-09","code":"111297002","display":"Nonparalytic stroke (disorder)","userSelected":true}]},"subject":{"reference":"Patient/43d04e08-768c-4e5e-a7eb-44219c5e94b1"},"recordedDate":"2026-10-13T08:00:00Z"},"request":{"method":"PUT","url":"Condition/e3d72fc3-e1f1-4954-a3aa-fc3c2449ff98"}},{"resource":{"resourceType":"Claim","id":"5ca62962b8484628b8de1ec5","meta":{"profile":["http://hl7.org/fhir/us/qicore/StructureDefinition/qicore-claim"]},"status":"active","type":{"coding":[{"system":"http://terminology.hl7.org/CodeSystem/claim-type","code":"institutional"}]},"use":"claim","patient":{"reference":"Patient/d170a0a8-b5ad-4303-b6df-e304dd5f92ad"},"created":"2026-12-01","provider":{"reference":"Practitioner/36591aae-a15f-4403-bfe9-fc932762b1ab"},"priority":{"coding":[{"system":"http://terminology.hl7.org/CodeSystem/processpriority","code":"normal"}]},"diagnosis":[{"sequence":1,"diagnosisCodeableConcept":{"coding":[{"system":"http://hl7.org/fhir/sid/icd-10-cm","code":"I63.00"}]},"type":[{"coding":[{"system":"http://terminology.hl7.org/CodeSystem/ex-diagnosistype","code":"principal"}]}]}],"insurance":[{"sequence":1,"focal":true,"coverage":{"reference":"Coverage/5fa041661c76ba66d9959367"}}],"item":[{"sequence":1,"diagnosisSequence":[1],"productOrService":{"coding":[{"system":"http://terminology.hl7.org/CodeSystem/ex-USCLS","code":"99555"}]},"encounter":[{"reference":"Encounter/768476ce-a72e-4452-a6a9-a07b816c679d"}]}]},"request":{"method":"PUT","url":"Claim/5ca62962b8484628b8de1ec5"}},{"resource":{"resourceType":"Patient","id":"43d04e08-768c-4e5e-a7eb-44219c5e94b1","meta":{"profile":["http://hl7.org/fhir/us/qicore/StructureDefinition/qicore-patient"]},"text":{"status":"generated","div":"<div xmlns=\"http://www.w3.org/1999/xhtml\"><div class=\"hapiHeaderText\">DxAfibAtEncEndTime <b>DENOMPASS </b></div><table class=\"hapiPropertyTable\"><tbody><tr><td>Identifier</td><td>07d1b6cfb79c3da7b4c3edf0c8bcb5f1</td></tr><tr><td>Date of birth</td><td><span>01 December 1960</span></td></tr></tbody></table></div>"},"extension":[{"url":"http://hl7.org/fhir/us/core/StructureDefinition/us-core-race","extension":[{"url":"ombCategory","valueCoding":{"system":"urn:oid:2.16.840.1.113883.6.238","code":"1002-5","display":"American Indian or Alaska Native","userSelected":true}},{"url":"text","valueString":"American Indian or Alaska Native"}]},{"url":"http://hl7.org/fhir/us/core/StructureDefinition/us-core-ethnicity","extension":[{"url":"ombCategory","valueCoding":{"system":"urn:oid:2.16.840.1.113883.6.238","code":"2135-2","display":"Hispanic or Latino","userSelected":true}},{"url":"text","valueString":"Hispanic or Latino"}]}],"identifier":[{"type":{"coding":[{"system":"http://terminology.hl7.org/CodeSystem/v2-0203","code":"MR"}]},"system":"https://bonnie-fhir.healthit.gov/","value":"633c9d030968f8012250fc90"}],"active":true,"name":[{"use":"usual","family":"DENOMPass","given":["DxAfibAtEncEndTime"]}],"gender":"male","birthDate":"1961-12-01"},"request":{"method":"PUT","url":"Patient/43d04e08-768c-4e5e-a7eb-44219c5e94b1"}}]}