{"resourceType":"Bundle","id":"tests-017a2267-f463-47a6-8b8b-dc91465e0869-bundle","type":"transaction","entry":[{"resource":{"resourceType":"Patient","id":"017a2267-f463-47a6-8b8b-dc91465e0869","meta":{"profile":["http://hl7.org/fhir/us/qicore/StructureDefinition/qicore-patient"]},"text":{"status":"generated","div":"<div xmlns=\"http://www.w3.org/1999/xhtml\"><div class=\"hapiHeaderText\">MedDCPatRefDuringEncInp <b>DENEXCEPPASS </b></div><table class=\"hapiPropertyTable\"><tbody><tr><td>Identifier</td><td>0c63b215784ea7e3383559263b15cd7e</td></tr><tr><td>Date of birth</td><td><span>23 May 1954</span></td></tr></tbody></table></div>"},"extension":[{"url":"http://hl7.org/fhir/us/core/StructureDefinition/us-core-race","extension":[{"url":"ombCategory","valueCoding":{"system":"urn:oid:2.16.840.1.113883.6.238","code":"1002-5","display":"American Indian or Alaska Native","userSelected":true}},{"url":"text","valueString":"American Indian or Alaska Native"}]},{"url":"http://hl7.org/fhir/us/core/StructureDefinition/us-core-ethnicity","extension":[{"url":"ombCategory","valueCoding":{"system":"urn:oid:2.16.840.1.113883.6.238","code":"2135-2","display":"Hispanic or Latino","userSelected":true}},{"url":"text","valueString":"Hispanic or Latino"}]}],"identifier":[{"type":{"coding":[{"system":"http://terminology.hl7.org/CodeSystem/v2-0203","code":"MR"}]},"system":"https://bonnie-fhir.healthit.gov/","value":"633c9d030968f8012250fc8c"}],"active":true,"name":[{"use":"usual","family":"DENEXCEPPass","given":["MedDCMedReasonfDuringEncInpTask Reject"]}],"gender":"female","birthDate":"1955-05-23"},"request":{"method":"PUT","url":"Patient/017a2267-f463-47a6-8b8b-dc91465e0869"}},{"resource":{"resourceType":"MeasureReport","id":"744f6276-2ad4-4565-bea1-ae05a1771ebc","meta":{"profile":["http://hl7.org/fhir/us/cqfmeasures/StructureDefinition/test-case-cqfm"]},"contained":[{"resourceType":"Parameters","id":"7384679c-a941-474f-8b31-fb9d54bed41e-parameters","parameter":[{"name":"subject","valueString":"017a2267-f463-47a6-8b8b-dc91465e0869"}]}],"extension":[{"url":"http://hl7.org/fhir/StructureDefinition/cqf-inputParameters","valueReference":{"reference":"#7384679c-a941-474f-8b31-fb9d54bed41e-parameters"}},{"url":"http://hl7.org/fhir/us/cqfmeasures/StructureDefinition/cqfm-testCaseDescription","valueMarkdown":"Patient did not receive anticoagulant, Medical Reason\n"}],"modifierExtension":[{"url":"http://hl7.org/fhir/us/cqfmeasures/StructureDefinition/cqfm-isTestCase","valueBoolean":true}],"status":"complete","type":"individual","measure":"https://madie.cms.gov/Measure/CMS71FHIRSTKAnticoagAFFlutter","period":{"start":"2026-01-01","end":"2026-12-31"},"group":[{"id":"Group_1","population":[{"id":"InitialPopulation_1","code":{"coding":[{"system":"http://terminology.hl7.org/CodeSystem/measure-population","code":"initial-population","display":"Initial Population"}]},"count":1},{"id":"Denominator_1","code":{"coding":[{"system":"http://terminology.hl7.org/CodeSystem/measure-population","code":"denominator","display":"Denominator"}]},"count":1},{"id":"DenominatorExclusion_1","code":{"coding":[{"system":"http://terminology.hl7.org/CodeSystem/measure-population","code":"denominator-exclusion","display":"Denominator Exclusion"}]},"count":0},{"id":"Numerator_1","code":{"coding":[{"system":"http://terminology.hl7.org/CodeSystem/measure-population","code":"numerator","display":"Numerator"}]},"count":0},{"id":"DenominatorException_1","code":{"coding":[{"system":"http://terminology.hl7.org/CodeSystem/measure-population","code":"denominator-exception","display":"Denominator Exception"}]},"count":1}],"measureScore":{"value":0.0}}],"evaluatedResource":[{"reference":"Patient/017a2267-f463-47a6-8b8b-dc91465e0869"},{"reference":"Encounter/ea790c11-d398-4eb1-9a12-d43aa10b403c"},{"reference":"Claim/5ca62962b8484628b8de1ec5"},{"reference":"MedicationRequest/cf539768-6b20-4b9c-889b-8bbb64ea898b"},{"reference":"Task/3f85da66-fee2-45a1-8816-39ed6ea5a9c2"},{"reference":"Coverage/4faef539-d3fe-4948-8400-e071032e1c57"},{"reference":"Procedure/1881fe5b-ea7f-4c2b-9025-394a651fdae8"},{"reference":"Condition/66f2a54c-855d-45c3-bcbd-0a1231dc51d6"},{"reference":"Organization/b38225aa-2843-4ca6-a8c0-1378cc772529"}]},"request":{"method":"PUT","url":"MeasureReport/744f6276-2ad4-4565-bea1-ae05a1771ebc"}},{"resource":{"resourceType":"Encounter","id":"ea790c11-d398-4eb1-9a12-d43aa10b403c","meta":{"profile":["http://hl7.org/fhir/us/qicore/StructureDefinition/qicore-encounter"]},"status":"finished","class":{"system":"http://terminology.hl7.org/CodeSystem/v3-ActCode","code":"IMP","display":"inpatient encounter"},"type":[{"coding":[{"system":"http://snomed.info/sct","code":"32485007"}]}],"subject":{"reference":"Patient/017a2267-f463-47a6-8b8b-dc91465e0869"},"period":{"start":"2026-11-20T08:00:00Z","end":"2026-11-24T08:15:00.000+00:00"},"length":{"value":4,"unit":"days"},"reasonReference":[{"reference":"Condition/66f2a54c-855d-45c3-bcbd-0a1231dc51d6"}]},"request":{"method":"PUT","url":"Encounter/ea790c11-d398-4eb1-9a12-d43aa10b403c"}},{"resource":{"resourceType":"Task","id":"3f85da66-fee2-45a1-8816-39ed6ea5a9c2","meta":{"profile":["http://hl7.org/fhir/us/qicore/StructureDefinition/qicore-taskrejected"]},"status":"rejected","statusReason":{"coding":[{"system":"http://snomed.info/sct","code":"410536001","userSelected":true}]},"code":{"coding":[{"system":"http://hl7.org/fhir/CodeSystem/task-code","code":"fulfill"}]},"focus":{"reference":"MedicationRequest/cf539768-6b20-4b9c-889b-8bbb64ea898b"},"executionPeriod":{"start":"2026-11-20T08:00:00Z","end":"2026-11-24T08:15:00.000+00:00"}},"request":{"method":"PUT","url":"Task/3f85da66-fee2-45a1-8816-39ed6ea5a9c2"}},{"resource":{"resourceType":"Organization","id":"b38225aa-2843-4ca6-a8c0-1378cc772529","meta":{"profile":["http://hl7.org/fhir/us/qicore/StructureDefinition/qicore-organization"]},"identifier":[{"use":"temp","system":"urn:oid:2.16.840.1.113883.4.4","value":"21-3259825"}],"active":true,"type":[{"coding":[{"system":"http://terminology.hl7.org/CodeSystem/organization-type","code":"pay","display":"Payer"}]}],"name":"Blue Cross Blue Shield of Texas","telecom":[{"system":"phone","value":"(+1) 972-766-6900"}],"address":[{"use":"billing","type":"postal","line":["P.O. Box 660044"],"city":"Dallas","state":"TX","postalCode":"75266-0044","country":"USA"}]},"request":{"method":"PUT","url":"Organization/b38225aa-2843-4ca6-a8c0-1378cc772529"}},{"resource":{"resourceType":"Condition","id":"66f2a54c-855d-45c3-bcbd-0a1231dc51d6","meta":{"profile":["http://hl7.org/fhir/us/qicore/StructureDefinition/qicore-condition-problems-health-concerns"]},"clinicalStatus":{"coding":[{"system":"http://terminology.hl7.org/CodeSystem/condition-clinical","code":"active"}]},"verificationStatus":{"coding":[{"system":"http://terminology.hl7.org/CodeSystem/condition-ver-status","code":"confirmed"}]},"category":[{"coding":[{"system":"http://terminology.hl7.org/CodeSystem/condition-category","code":"encounter-diagnosis","display":"Encounter Diagnosis"}]}],"code":{"coding":[{"system":"http://snomed.info/sct","version":"2021-09","code":"111297002","display":"Nonparalytic stroke (disorder)","userSelected":true}]},"subject":{"reference":"Patient/017a2267-f463-47a6-8b8b-dc91465e0869"},"recordedDate":"2026-10-13T08:00:00Z"},"request":{"method":"PUT","url":"Condition/66f2a54c-855d-45c3-bcbd-0a1231dc51d6"}},{"resource":{"resourceType":"Bundle","id":"633c9d030968f8012250fc8c","type":"transaction","entry":[{"fullUrl":"https://madie.cms.gov/Patient/017a2267-f463-47a6-8b8b-dc91465e0869","resource":{"resourceType":"Patient","id":"017a2267-f463-47a6-8b8b-dc91465e0869","meta":{"profile":["http://hl7.org/fhir/us/qicore/StructureDefinition/qicore-patient"]},"text":{"status":"generated","div":"<div xmlns=\"http://www.w3.org/1999/xhtml\"><div class=\"hapiHeaderText\">MedDCPatRefDuringEncInp <b>DENEXCEPPASS </b></div><table class=\"hapiPropertyTable\"><tbody><tr><td>Identifier</td><td>0c63b215784ea7e3383559263b15cd7e</td></tr><tr><td>Date of birth</td><td><span>23 May 1954</span></td></tr></tbody></table></div>"},"extension":[{"url":"http://hl7.org/fhir/us/core/StructureDefinition/us-core-race","extension":[{"url":"ombCategory","valueCoding":{"system":"urn:oid:2.16.840.1.113883.6.238","code":"1002-5","display":"American Indian or Alaska Native","userSelected":true}},{"url":"text","valueString":"American Indian or Alaska Native"}]},{"url":"http://hl7.org/fhir/us/core/StructureDefinition/us-core-ethnicity","extension":[{"url":"ombCategory","valueCoding":{"system":"urn:oid:2.16.840.1.113883.6.238","code":"2135-2","display":"Hispanic or Latino","userSelected":true}},{"url":"text","valueString":"Hispanic or Latino"}]}],"identifier":[{"type":{"coding":[{"system":"http://terminology.hl7.org/CodeSystem/v2-0203","code":"MR"}]},"system":"https://bonnie-fhir.healthit.gov/","value":"633c9d030968f8012250fc8c"}],"active":true,"name":[{"use":"usual","family":"DENEXCEPPass","given":["MedDCMedReasonfDuringEncInpTask Reject"]}],"gender":"female","birthDate":"1955-05-23"},"request":{"method":"PUT","url":"Patient/017a2267-f463-47a6-8b8b-dc91465e0869"}},{"fullUrl":"https://madie.cms.gov/Encounter/ea790c11-d398-4eb1-9a12-d43aa10b403c","resource":{"resourceType":"Encounter","id":"ea790c11-d398-4eb1-9a12-d43aa10b403c","meta":{"profile":["http://hl7.org/fhir/us/qicore/StructureDefinition/qicore-encounter"]},"status":"finished","class":{"system":"http://terminology.hl7.org/CodeSystem/v3-ActCode","code":"IMP","display":"inpatient encounter"},"type":[{"coding":[{"system":"http://snomed.info/sct","code":"32485007"}]}],"subject":{"reference":"Patient/017a2267-f463-47a6-8b8b-dc91465e0869"},"period":{"start":"2026-11-20T08:00:00Z","end":"2026-11-24T08:15:00.000+00:00"},"length":{"value":4,"unit":"days"},"reasonReference":[{"reference":"Condition/66f2a54c-855d-45c3-bcbd-0a1231dc51d6"}]},"request":{"method":"PUT","url":"Encounter/ea790c11-d398-4eb1-9a12-d43aa10b403c"}},{"fullUrl":"https://madie.cms.gov/claim/5ca62962b8484628b8de1ec5","resource":{"resourceType":"Claim","id":"5ca62962b8484628b8de1ec5","meta":{"profile":["http://hl7.org/fhir/us/qicore/StructureDefinition/qicore-claim"]},"status":"active","type":{"coding":[{"system":"http://terminology.hl7.org/CodeSystem/claim-type","code":"institutional"}]},"use":"claim","patient":{"reference":"Patient/d170a0a8-b5ad-4303-b6df-e304dd5f92ad"},"created":"2026-12-01","provider":{"reference":"Practitioner/practitioner-123456"},"priority":{"coding":[{"system":"http://terminology.hl7.org/CodeSystem/processpriority","code":"normal"}]},"diagnosis":[{"sequence":1,"diagnosisCodeableConcept":{"coding":[{"system":"http://hl7.org/fhir/sid/icd-10-cm","code":"I63.00"}]},"type":[{"coding":[{"system":"http://terminology.hl7.org/CodeSystem/ex-diagnosistype","code":"principal"}]}]}],"insurance":[{"sequence":1,"focal":true,"coverage":{"reference":"Coverage/5fa041661c76ba66d9959367"}}],"item":[{"sequence":1,"diagnosisSequence":[1],"productOrService":{"coding":[{"system":"http://terminology.hl7.org/CodeSystem/ex-USCLS","code":"99555"}]},"encounter":[{"reference":"Encounter/ea790c11-d398-4eb1-9a12-d43aa10b403c"}]}]},"request":{"method":"PUT","url":"Claim/5ca62962b8484628b8de1ec5"}},{"fullUrl":"https://madie.cms.gov/MedicationRequest/cf539768-6b20-4b9c-889b-8bbb64ea898b","resource":{"resourceType":"MedicationRequest","id":"cf539768-6b20-4b9c-889b-8bbb64ea898b","meta":{"profile":["http://hl7.org/fhir/us/qicore/StructureDefinition/qicore-medicationrequest"]},"status":"active","intent":"order","category":[{"coding":[{"system":"http://terminology.hl7.org/CodeSystem/medicationrequest-category","code":"community","display":"Community","userSelected":true}]}],"medicationCodeableConcept":{"coding":[{"system":"http://www.nlm.nih.gov/research/umls/rxnorm","code":"308351"}]},"subject":{"reference":"Patient/ccfddeae-a86e-4e43-adca-2ceef716970e"},"authoredOn":"2026-11-20T08:00:00Z","requester":{"reference":"Practitioner/example"}},"request":{"method":"PUT","url":"MedicationRequest/cf539768-6b20-4b9c-889b-8bbb64ea898b"}},{"fullUrl":"https://madie.cms.gov/Task/3f85da66-fee2-45a1-8816-39ed6ea5a9c2","resource":{"resourceType":"Task","id":"3f85da66-fee2-45a1-8816-39ed6ea5a9c2","meta":{"profile":["http://hl7.org/fhir/us/qicore/StructureDefinition/qicore-taskrejected"]},"status":"rejected","statusReason":{"coding":[{"system":"http://snomed.info/sct","code":"410536001","userSelected":true}]},"code":{"coding":[{"system":"http://hl7.org/fhir/CodeSystem/task-code","code":"fulfill"}]},"focus":{"reference":"MedicationRequest/cf539768-6b20-4b9c-889b-8bbb64ea898b"},"executionPeriod":{"start":"2026-11-20T08:00:00Z","end":"2026-11-24T08:15:00.000+00:00"}},"request":{"method":"PUT","url":"Task/3f85da66-fee2-45a1-8816-39ed6ea5a9c2"}},{"fullUrl":"https://madie.cms.gov/Coverage/4faef539-d3fe-4948-8400-e071032e1c57","resource":{"resourceType":"Coverage","id":"4faef539-d3fe-4948-8400-e071032e1c57","meta":{"profile":["http://hl7.org/fhir/us/qicore/StructureDefinition/qicore-coverage"]},"status":"active","subscriberId":"523435","beneficiary":{"reference":"Patient/162a5913-9989-42f2-8d6a-ae460e245e4c"},"relationship":{"coding":[{"system":"http://terminology.hl7.org/CodeSystem/subscriber-relationship","code":"self"}]},"payor":[{"reference":"Organization/b38225aa-2843-4ca6-a8c0-1378cc772529"}]},"request":{"method":"PUT","url":"Coverage/4faef539-d3fe-4948-8400-e071032e1c57"}},{"fullUrl":"https://madie.cms.gov/Procedure/1881fe5b-ea7f-4c2b-9025-394a651fdae8","resource":{"resourceType":"Procedure","id":"1881fe5b-ea7f-4c2b-9025-394a651fdae8","meta":{"profile":["http://hl7.org/fhir/us/qicore/StructureDefinition/qicore-procedure"]},"extension":[{"url":"http://hl7.org/fhir/us/qicore/StructureDefinition/qicore-recorded","valueDateTime":"2014-04-05T13:35:00Z"}],"status":"completed","code":{"coding":[{"system":"http://www.cms.gov/Medicare/Coding/ICD10","code":"02560ZZ"},{"system":"http://snomed.info/sct","code":"175095005"}]},"subject":{"reference":"Patient/017a2267-f463-47a6-8b8b-dc91465e0869"},"performedPeriod":{"start":"2026-11-20T06:00:00Z","end":"2026-11-20T07:15:00.000+00:00"}},"request":{"method":"PUT","url":"Procedure/1881fe5b-ea7f-4c2b-9025-394a651fdae8"}},{"fullUrl":"https://madie.cms.gov/Condition/66f2a54c-855d-45c3-bcbd-0a1231dc51d6","resource":{"resourceType":"Condition","id":"66f2a54c-855d-45c3-bcbd-0a1231dc51d6","meta":{"profile":["http://hl7.org/fhir/us/qicore/StructureDefinition/qicore-condition-problems-health-concerns"]},"clinicalStatus":{"coding":[{"system":"http://terminology.hl7.org/CodeSystem/condition-clinical","code":"active"}]},"verificationStatus":{"coding":[{"system":"http://terminology.hl7.org/CodeSystem/condition-ver-status","code":"confirmed"}]},"category":[{"coding":[{"system":"http://terminology.hl7.org/CodeSystem/condition-category","code":"encounter-diagnosis","display":"Encounter Diagnosis"}]}],"code":{"coding":[{"system":"http://snomed.info/sct","version":"2021-09","code":"111297002","display":"Nonparalytic stroke (disorder)","userSelected":true}]},"subject":{"reference":"Patient/017a2267-f463-47a6-8b8b-dc91465e0869"},"recordedDate":"2026-10-13T08:00:00Z"},"request":{"method":"PUT","url":"Condition/66f2a54c-855d-45c3-bcbd-0a1231dc51d6"}},{"fullUrl":"https://madie.cms.gov/Organization/b38225aa-2843-4ca6-a8c0-1378cc772529","resource":{"resourceType":"Organization","id":"b38225aa-2843-4ca6-a8c0-1378cc772529","meta":{"profile":["http://hl7.org/fhir/us/qicore/StructureDefinition/qicore-organization"]},"identifier":[{"use":"temp","system":"urn:oid:2.16.840.1.113883.4.4","value":"21-3259825"}],"active":true,"type":[{"coding":[{"system":"http://terminology.hl7.org/CodeSystem/organization-type","code":"pay","display":"Payer"}]}],"name":"Blue Cross Blue Shield of Texas","telecom":[{"system":"phone","value":"(+1) 972-766-6900"}],"address":[{"use":"billing","type":"postal","line":["P.O. Box 660044"],"city":"Dallas","state":"TX","postalCode":"75266-0044","country":"USA"}]},"request":{"method":"PUT","url":"Organization/b38225aa-2843-4ca6-a8c0-1378cc772529"}},{"fullUrl":"https://madie.cms.gov/MeasureReport/744f6276-2ad4-4565-bea1-ae05a1771ebc","resource":{"resourceType":"MeasureReport","id":"744f6276-2ad4-4565-bea1-ae05a1771ebc","meta":{"profile":["http://hl7.org/fhir/us/cqfmeasures/StructureDefinition/test-case-cqfm"]},"contained":[{"resourceType":"Parameters","id":"7384679c-a941-474f-8b31-fb9d54bed41e-parameters","parameter":[{"name":"subject","valueString":"017a2267-f463-47a6-8b8b-dc91465e0869"}]}],"extension":[{"url":"http://hl7.org/fhir/StructureDefinition/cqf-inputParameters","valueReference":{"reference":"#7384679c-a941-474f-8b31-fb9d54bed41e-parameters"}},{"url":"http://hl7.org/fhir/us/cqfmeasures/StructureDefinition/cqfm-testCaseDescription","valueMarkdown":"Patient did not receive anticoagulant, Medical Reason\n"}],"modifierExtension":[{"url":"http://hl7.org/fhir/us/cqfmeasures/StructureDefinition/cqfm-isTestCase","valueBoolean":true}],"status":"complete","type":"individual","measure":"https://madie.cms.gov/Measure/CMS71FHIRSTKAnticoagAFFlutter","period":{"start":"2026-01-01","end":"2026-12-31"},"group":[{"id":"Group_1","population":[{"id":"InitialPopulation_1","code":{"coding":[{"system":"http://terminology.hl7.org/CodeSystem/measure-population","code":"initial-population","display":"Initial Population"}]},"count":1},{"id":"Denominator_1","code":{"coding":[{"system":"http://terminology.hl7.org/CodeSystem/measure-population","code":"denominator","display":"Denominator"}]},"count":1},{"id":"DenominatorExclusion_1","code":{"coding":[{"system":"http://terminology.hl7.org/CodeSystem/measure-population","code":"denominator-exclusion","display":"Denominator Exclusion"}]},"count":0},{"id":"Numerator_1","code":{"coding":[{"system":"http://terminology.hl7.org/CodeSystem/measure-population","code":"numerator","display":"Numerator"}]},"count":0},{"id":"DenominatorException_1","code":{"coding":[{"system":"http://terminology.hl7.org/CodeSystem/measure-population","code":"denominator-exception","display":"Denominator Exception"}]},"count":1}],"measureScore":{"value":0.0}}],"evaluatedResource":[{"reference":"Patient/017a2267-f463-47a6-8b8b-dc91465e0869"},{"reference":"Encounter/ea790c11-d398-4eb1-9a12-d43aa10b403c"},{"reference":"Claim/5ca62962b8484628b8de1ec5"},{"reference":"MedicationRequest/cf539768-6b20-4b9c-889b-8bbb64ea898b"},{"reference":"Task/3f85da66-fee2-45a1-8816-39ed6ea5a9c2"},{"reference":"Coverage/4faef539-d3fe-4948-8400-e071032e1c57"},{"reference":"Procedure/1881fe5b-ea7f-4c2b-9025-394a651fdae8"},{"reference":"Condition/66f2a54c-855d-45c3-bcbd-0a1231dc51d6"},{"reference":"Organization/b38225aa-2843-4ca6-a8c0-1378cc772529"}]},"request":{"method":"PUT","url":"MeasureReport/744f6276-2ad4-4565-bea1-ae05a1771ebc"}}]},"request":{"method":"PUT","url":"Bundle/633c9d030968f8012250fc8c"}},{"resource":{"resourceType":"Procedure","id":"1881fe5b-ea7f-4c2b-9025-394a651fdae8","meta":{"profile":["http://hl7.org/fhir/us/qicore/StructureDefinition/qicore-procedure"]},"extension":[{"url":"http://hl7.org/fhir/us/qicore/StructureDefinition/qicore-recorded","valueDateTime":"2014-04-05T13:35:00Z"}],"status":"completed","code":{"coding":[{"system":"http://www.cms.gov/Medicare/Coding/ICD10","code":"02560ZZ"},{"system":"http://snomed.info/sct","code":"175095005"}]},"subject":{"reference":"Patient/017a2267-f463-47a6-8b8b-dc91465e0869"},"performedPeriod":{"start":"2026-11-20T06:00:00Z","end":"2026-11-20T07:15:00.000+00:00"}},"request":{"method":"PUT","url":"Procedure/1881fe5b-ea7f-4c2b-9025-394a651fdae8"}},{"resource":{"resourceType":"MedicationRequest","id":"cf539768-6b20-4b9c-889b-8bbb64ea898b","meta":{"profile":["http://hl7.org/fhir/us/qicore/StructureDefinition/qicore-medicationrequest"]},"status":"active","intent":"order","category":[{"coding":[{"system":"http://terminology.hl7.org/CodeSystem/medicationrequest-category","code":"community","display":"Community","userSelected":true}]}],"medicationCodeableConcept":{"coding":[{"system":"http://www.nlm.nih.gov/research/umls/rxnorm","code":"308351"}]},"subject":{"reference":"Patient/ccfddeae-a86e-4e43-adca-2ceef716970e"},"authoredOn":"2026-11-20T08:00:00Z","requester":{"reference":"Practitioner/example"}},"request":{"method":"PUT","url":"MedicationRequest/cf539768-6b20-4b9c-889b-8bbb64ea898b"}},{"resource":{"resourceType":"Coverage","id":"4faef539-d3fe-4948-8400-e071032e1c57","meta":{"profile":["http://hl7.org/fhir/us/qicore/StructureDefinition/qicore-coverage"]},"status":"active","subscriberId":"523435","beneficiary":{"reference":"Patient/162a5913-9989-42f2-8d6a-ae460e245e4c"},"relationship":{"coding":[{"system":"http://terminology.hl7.org/CodeSystem/subscriber-relationship","code":"self"}]},"payor":[{"reference":"Organization/b38225aa-2843-4ca6-a8c0-1378cc772529"}]},"request":{"method":"PUT","url":"Coverage/4faef539-d3fe-4948-8400-e071032e1c57"}},{"resource":{"resourceType":"Claim","id":"5ca62962b8484628b8de1ec5","meta":{"profile":["http://hl7.org/fhir/us/qicore/StructureDefinition/qicore-claim"]},"status":"active","type":{"coding":[{"system":"http://terminology.hl7.org/CodeSystem/claim-type","code":"institutional"}]},"use":"claim","patient":{"reference":"Patient/d170a0a8-b5ad-4303-b6df-e304dd5f92ad"},"created":"2026-12-01","provider":{"reference":"Practitioner/practitioner-123456"},"priority":{"coding":[{"system":"http://terminology.hl7.org/CodeSystem/processpriority","code":"normal"}]},"diagnosis":[{"sequence":1,"diagnosisCodeableConcept":{"coding":[{"system":"http://hl7.org/fhir/sid/icd-10-cm","code":"I63.00"}]},"type":[{"coding":[{"system":"http://terminology.hl7.org/CodeSystem/ex-diagnosistype","code":"principal"}]}]}],"insurance":[{"sequence":1,"focal":true,"coverage":{"reference":"Coverage/5fa041661c76ba66d9959367"}}],"item":[{"sequence":1,"diagnosisSequence":[1],"productOrService":{"coding":[{"system":"http://terminology.hl7.org/CodeSystem/ex-USCLS","code":"99555"}]},"encounter":[{"reference":"Encounter/ea790c11-d398-4eb1-9a12-d43aa10b403c"}]}]},"request":{"method":"PUT","url":"Claim/5ca62962b8484628b8de1ec5"}}]}