{"resourceType":"Bundle","id":"tests-d9dc15b7-bf03-4b72-8dd5-3e4db21f052d-bundle","type":"transaction","entry":[{"resource":{"resourceType":"Encounter","id":"524300d8-fd0b-4ce4-a4fa-2704ca8a34dd","meta":{"profile":["http://hl7.org/fhir/us/qicore/StructureDefinition/qicore-encounter"]},"status":"finished","class":{"system":"http://terminology.hl7.org/CodeSystem/v3-ActCode","code":"IMP","display":"inpatient encounter"},"type":[{"coding":[{"system":"http://snomed.info/sct","code":"32485007"}]}],"subject":{"reference":"Patient/d9dc15b7-bf03-4b72-8dd5-3e4db21f052d"},"period":{"start":"2026-09-30T11:00:00Z","end":"2026-10-12T00:15:00.000+00:00"},"length":{"value":12,"unit":"days"},"reasonReference":[{"reference":"Condition/2dc10687-dcca-4657-8168-1d4255c63f93"}]},"request":{"method":"PUT","url":"Encounter/524300d8-fd0b-4ce4-a4fa-2704ca8a34dd"}},{"resource":{"resourceType":"Organization","id":"592fa45d-14dd-4dca-a2dc-8baaded780f7","meta":{"profile":["http://hl7.org/fhir/us/qicore/StructureDefinition/qicore-organization"]},"identifier":[{"use":"temp","system":"urn:oid:2.16.840.1.113883.4.4","value":"21-3259825"}],"active":true,"type":[{"coding":[{"system":"http://terminology.hl7.org/CodeSystem/organization-type","code":"pay","display":"Payer"}]}],"name":"Blue Cross Blue Shield of Texas","telecom":[{"system":"phone","value":"(+1) 972-766-6900"}],"address":[{"use":"billing","type":"postal","line":["P.O. Box 660044"],"city":"Dallas","state":"TX","postalCode":"75266-0044","country":"USA"}]},"request":{"method":"PUT","url":"Organization/592fa45d-14dd-4dca-a2dc-8baaded780f7"}},{"resource":{"resourceType":"Coverage","id":"845fb91e-5d40-4b25-80d2-467ab7f647fc","status":"active","subscriberId":"523435","beneficiary":{"reference":"Patient/d9dc15b7-bf03-4b72-8dd5-3e4db21f052d"},"relationship":{"coding":[{"system":"http://terminology.hl7.org/CodeSystem/subscriber-relationship","code":"self"}]},"period":{"start":"1986-09-18T08:00:00Z"},"payor":[{"reference":"Organization/592fa45d-14dd-4dca-a2dc-8baaded780f7"}]},"request":{"method":"PUT","url":"Coverage/845fb91e-5d40-4b25-80d2-467ab7f647fc"}},{"resource":{"resourceType":"MeasureReport","id":"6ab4f8ef-e3ae-4e5c-a9cf-5fdb42da0342","meta":{"profile":["http://hl7.org/fhir/us/cqfmeasures/StructureDefinition/test-case-cqfm"]},"contained":[{"resourceType":"Parameters","id":"5adf302c-f800-4af9-ac0b-3a963d83a2aa-parameters","parameter":[{"name":"subject","valueString":"d9dc15b7-bf03-4b72-8dd5-3e4db21f052d"}]}],"extension":[{"url":"http://hl7.org/fhir/StructureDefinition/cqf-inputParameters","valueReference":{"reference":"#5adf302c-f800-4af9-ac0b-3a963d83a2aa-parameters"}},{"url":"http://hl7.org/fhir/us/cqfmeasures/StructureDefinition/cqfm-testCaseDescription","valueMarkdown":"\"Patient receives CMO order during Observation, ED visit ends 1 minute before Obs starts, Obs ends 60 min before inpatient start. Testing HospitalizationWithObservation function.\n\n\"\n"}],"modifierExtension":[{"url":"http://hl7.org/fhir/us/cqfmeasures/StructureDefinition/cqfm-isTestCase","valueBoolean":true}],"status":"complete","type":"individual","measure":"https://madie.cms.gov/Measure/CMS71FHIRSTKAnticoagAFFlutter","period":{"start":"2026-01-01","end":"2026-12-31"},"group":[{"id":"Group_1","population":[{"id":"InitialPopulation_1","code":{"coding":[{"system":"http://terminology.hl7.org/CodeSystem/measure-population","code":"initial-population","display":"Initial Population"}]},"count":1},{"id":"Denominator_1","code":{"coding":[{"system":"http://terminology.hl7.org/CodeSystem/measure-population","code":"denominator","display":"Denominator"}]},"count":1},{"id":"DenominatorExclusion_1","code":{"coding":[{"system":"http://terminology.hl7.org/CodeSystem/measure-population","code":"denominator-exclusion","display":"Denominator Exclusion"}]},"count":1},{"id":"Numerator_1","code":{"coding":[{"system":"http://terminology.hl7.org/CodeSystem/measure-population","code":"numerator","display":"Numerator"}]},"count":0},{"id":"DenominatorException_1","code":{"coding":[{"system":"http://terminology.hl7.org/CodeSystem/measure-population","code":"denominator-exception","display":"Denominator Exception"}]},"count":0}],"measureScore":{"value":0.0}}],"evaluatedResource":[{"reference":"Patient/d9dc15b7-bf03-4b72-8dd5-3e4db21f052d"},{"reference":"Claim/5ca62962b8484628b8de1ec5"},{"reference":"Condition/2dc10687-dcca-4657-8168-1d4255c63f93"},{"reference":"Encounter/3a33a4e1-5c6c-49f1-b11b-796f546985ad"},{"reference":"Encounter/5a8f584d-dd64-44b4-a310-a8278cca9612"},{"reference":"Encounter/524300d8-fd0b-4ce4-a4fa-2704ca8a34dd"},{"reference":"ServiceRequest/3744b423-7953-4140-b976-20d61375e232"},{"reference":"Coverage/845fb91e-5d40-4b25-80d2-467ab7f647fc"},{"reference":"Condition/867b2455-2e29-40d0-ba56-c0ed6bafae37"},{"reference":"Organization/592fa45d-14dd-4dca-a2dc-8baaded780f7"},{"reference":"Practitioner/55032d2a-c781-4cf8-8140-8ca9697f207e"}]},"request":{"method":"PUT","url":"MeasureReport/6ab4f8ef-e3ae-4e5c-a9cf-5fdb42da0342"}},{"resource":{"resourceType":"Condition","id":"867b2455-2e29-40d0-ba56-c0ed6bafae37","meta":{"profile":["http://hl7.org/fhir/us/qicore/StructureDefinition/qicore-condition-problems-health-concerns"]},"clinicalStatus":{"coding":[{"system":"http://terminology.hl7.org/CodeSystem/condition-clinical","code":"active"}]},"verificationStatus":{"coding":[{"system":"http://terminology.hl7.org/CodeSystem/condition-ver-status","code":"confirmed"}]},"category":[{"coding":[{"system":"http://terminology.hl7.org/CodeSystem/condition-category","code":"encounter-diagnosis","display":"Encounter Diagnosis"}]}],"code":{"coding":[{"system":"http://snomed.info/sct","version":"2021-09","code":"111297002","display":"Nonparalytic stroke (disorder)","userSelected":true}]},"subject":{"reference":"Patient/d9dc15b7-bf03-4b72-8dd5-3e4db21f052d"},"recordedDate":"2026-10-13T08:00:00Z"},"request":{"method":"PUT","url":"Condition/867b2455-2e29-40d0-ba56-c0ed6bafae37"}},{"resource":{"resourceType":"Practitioner","id":"55032d2a-c781-4cf8-8140-8ca9697f207e","meta":{"profile":["http://hl7.org/fhir/us/qicore/StructureDefinition/qicore-practitioner"]},"identifier":[{"system":"http://hl7.org/fhir/sid/us-npi","value":"9999999896"}],"name":[{"family":"Evil","prefix":["Dr"]}]},"request":{"method":"PUT","url":"Practitioner/55032d2a-c781-4cf8-8140-8ca9697f207e"}},{"resource":{"resourceType":"Patient","id":"d9dc15b7-bf03-4b72-8dd5-3e4db21f052d","meta":{"profile":["http://hl7.org/fhir/us/qicore/StructureDefinition/qicore-patient"]},"text":{"status":"generated","div":"<div xmlns=\"http://www.w3.org/1999/xhtml\"><div class=\"hapiHeaderText\">CMOdurObs_ED&lt;1hrObs=1hrBFEnc <b>DENEXPASS </b></div><table class=\"hapiPropertyTable\"><tbody><tr><td>Identifier</td><td>d7110924d65a531d7c4ff727f0066c38</td></tr><tr><td>Date of birth</td><td><span>18 September 1985</span></td></tr></tbody></table></div>"},"extension":[{"url":"http://hl7.org/fhir/us/core/StructureDefinition/us-core-race","extension":[{"url":"ombCategory","valueCoding":{"system":"urn:oid:2.16.840.1.113883.6.238","code":"1002-5","display":"American Indian or Alaska Native","userSelected":true}},{"url":"text","valueString":"American Indian or Alaska Native"}]},{"url":"http://hl7.org/fhir/us/core/StructureDefinition/us-core-ethnicity","extension":[{"url":"ombCategory","valueCoding":{"system":"urn:oid:2.16.840.1.113883.6.238","code":"2135-2","display":"Hispanic or Latino","userSelected":true}},{"url":"text","valueString":"Hispanic or Latino"}]}],"identifier":[{"type":{"coding":[{"system":"http://terminology.hl7.org/CodeSystem/v2-0203","code":"MR"}]},"system":"https://bonnie-fhir.healthit.gov/","value":"633c9d030968f8012250fc86"}],"active":true,"name":[{"use":"usual","family":"DENEXPass","given":["CMOdurObsED1hrObs1hrBFEnc"]}],"gender":"female","birthDate":"1986-09-18"},"request":{"method":"PUT","url":"Patient/d9dc15b7-bf03-4b72-8dd5-3e4db21f052d"}},{"resource":{"resourceType":"Encounter","id":"3a33a4e1-5c6c-49f1-b11b-796f546985ad","meta":{"profile":["http://hl7.org/fhir/us/qicore/StructureDefinition/qicore-encounter"]},"status":"finished","class":{"system":"http://terminology.hl7.org/CodeSystem/v3-ActCode","code":"EMER","display":"emergency"},"type":[{"coding":[{"system":"http://snomed.info/sct","code":"4525004"}]}],"subject":{"reference":"Patient/d9dc15b7-bf03-4b72-8dd5-3e4db21f052d"},"period":{"start":"2026-09-30T07:59:00Z","end":"2026-09-30T08:00:00.000+00:00"},"length":{"value":0,"unit":"days"}},"request":{"method":"PUT","url":"Encounter/3a33a4e1-5c6c-49f1-b11b-796f546985ad"}},{"resource":{"resourceType":"Encounter","id":"5a8f584d-dd64-44b4-a310-a8278cca9612","meta":{"profile":["http://hl7.org/fhir/us/qicore/StructureDefinition/qicore-encounter"]},"status":"finished","class":{"system":"http://terminology.hl7.org/CodeSystem/v3-ActCode","code":"OBSENC","display":"observation encounter"},"type":[{"coding":[{"system":"http://snomed.info/sct","code":"448951000124107"}]}],"subject":{"reference":"Patient/d9dc15b7-bf03-4b72-8dd5-3e4db21f052d"},"period":{"start":"2026-09-30T08:01:00Z","end":"2026-09-30T10:00:00.000+00:00"},"length":{"value":0,"unit":"days"}},"request":{"method":"PUT","url":"Encounter/5a8f584d-dd64-44b4-a310-a8278cca9612"}},{"resource":{"resourceType":"Condition","id":"2dc10687-dcca-4657-8168-1d4255c63f93","meta":{"profile":["http://hl7.org/fhir/us/qicore/StructureDefinition/qicore-condition-problems-health-concerns"]},"clinicalStatus":{"coding":[{"system":"http://terminology.hl7.org/CodeSystem/condition-clinical","code":"inactive"}]},"verificationStatus":{"coding":[{"system":"http://terminology.hl7.org/CodeSystem/condition-ver-status","code":"confirmed"}]},"category":[{"coding":[{"system":"http://terminology.hl7.org/CodeSystem/condition-category","code":"encounter-diagnosis","display":"Encounter Diagnosis"}]}],"code":{"coding":[{"system":"http://hl7.org/fhir/sid/icd-10-cm","code":"I48.20"},{"system":"http://hl7.org/fhir/sid/icd-10-cm","code":"I48.0"},{"system":"http://snomed.info/sct","code":"5370000"}]},"subject":{"reference":"Patient/d9dc15b7-bf03-4b72-8dd5-3e4db21f052d"},"onsetDateTime":"2026-09-30T09:00:00Z","abatementDateTime":"2026-10-12T00:15:00.000+00:00"},"request":{"method":"PUT","url":"Condition/2dc10687-dcca-4657-8168-1d4255c63f93"}},{"resource":{"resourceType":"Bundle","id":"633c9d030968f8012250fc86","type":"transaction","entry":[{"fullUrl":"https://madie.cms.gov/Patient/d9dc15b7-bf03-4b72-8dd5-3e4db21f052d","resource":{"resourceType":"Patient","id":"d9dc15b7-bf03-4b72-8dd5-3e4db21f052d","meta":{"profile":["http://hl7.org/fhir/us/qicore/StructureDefinition/qicore-patient"]},"text":{"status":"generated","div":"<div xmlns=\"http://www.w3.org/1999/xhtml\"><div class=\"hapiHeaderText\">CMOdurObs_ED&lt;1hrObs=1hrBFEnc <b>DENEXPASS </b></div><table class=\"hapiPropertyTable\"><tbody><tr><td>Identifier</td><td>d7110924d65a531d7c4ff727f0066c38</td></tr><tr><td>Date of birth</td><td><span>18 September 1985</span></td></tr></tbody></table></div>"},"extension":[{"url":"http://hl7.org/fhir/us/core/StructureDefinition/us-core-race","extension":[{"url":"ombCategory","valueCoding":{"system":"urn:oid:2.16.840.1.113883.6.238","code":"1002-5","display":"American Indian or Alaska Native","userSelected":true}},{"url":"text","valueString":"American Indian or Alaska Native"}]},{"url":"http://hl7.org/fhir/us/core/StructureDefinition/us-core-ethnicity","extension":[{"url":"ombCategory","valueCoding":{"system":"urn:oid:2.16.840.1.113883.6.238","code":"2135-2","display":"Hispanic or Latino","userSelected":true}},{"url":"text","valueString":"Hispanic or Latino"}]}],"identifier":[{"type":{"coding":[{"system":"http://terminology.hl7.org/CodeSystem/v2-0203","code":"MR"}]},"system":"https://bonnie-fhir.healthit.gov/","value":"633c9d030968f8012250fc86"}],"active":true,"name":[{"use":"usual","family":"DENEXPass","given":["CMOdurObsED1hrObs1hrBFEnc"]}],"gender":"female","birthDate":"1986-09-18"},"request":{"method":"PUT","url":"Patient/d9dc15b7-bf03-4b72-8dd5-3e4db21f052d"}},{"fullUrl":"https://madie.cms.gov/claim/5ca62962b8484628b8de1ec5","resource":{"resourceType":"Claim","id":"5ca62962b8484628b8de1ec5","meta":{"profile":["http://hl7.org/fhir/us/qicore/StructureDefinition/qicore-claim"]},"status":"active","type":{"coding":[{"system":"http://terminology.hl7.org/CodeSystem/claim-type","code":"institutional"}]},"use":"claim","patient":{"reference":"Patient/d170a0a8-b5ad-4303-b6df-e304dd5f92ad"},"created":"2026-12-01","provider":{"reference":"Practitioner/55032d2a-c781-4cf8-8140-8ca9697f207e"},"priority":{"coding":[{"system":"http://terminology.hl7.org/CodeSystem/processpriority","code":"normal"}]},"diagnosis":[{"sequence":1,"diagnosisCodeableConcept":{"coding":[{"system":"http://hl7.org/fhir/sid/icd-10-cm","code":"I63.00"}]},"type":[{"coding":[{"system":"http://terminology.hl7.org/CodeSystem/ex-diagnosistype","code":"principal"}]}]}],"insurance":[{"sequence":1,"focal":true,"coverage":{"reference":"Coverage/5fa041661c76ba66d9959367"}}],"item":[{"sequence":1,"diagnosisSequence":[1],"productOrService":{"coding":[{"system":"http://terminology.hl7.org/CodeSystem/ex-USCLS","code":"99555"}]},"encounter":[{"reference":"Encounter/524300d8-fd0b-4ce4-a4fa-2704ca8a34dd"}]}]},"request":{"method":"PUT","url":"Claim/5ca62962b8484628b8de1ec5"}},{"fullUrl":"https://madie.cms.gov/Condition/2dc10687-dcca-4657-8168-1d4255c63f93","resource":{"resourceType":"Condition","id":"2dc10687-dcca-4657-8168-1d4255c63f93","meta":{"profile":["http://hl7.org/fhir/us/qicore/StructureDefinition/qicore-condition-problems-health-concerns"]},"clinicalStatus":{"coding":[{"system":"http://terminology.hl7.org/CodeSystem/condition-clinical","code":"inactive"}]},"verificationStatus":{"coding":[{"system":"http://terminology.hl7.org/CodeSystem/condition-ver-status","code":"confirmed"}]},"category":[{"coding":[{"system":"http://terminology.hl7.org/CodeSystem/condition-category","code":"encounter-diagnosis","display":"Encounter Diagnosis"}]}],"code":{"coding":[{"system":"http://hl7.org/fhir/sid/icd-10-cm","code":"I48.20"},{"system":"http://hl7.org/fhir/sid/icd-10-cm","code":"I48.0"},{"system":"http://snomed.info/sct","code":"5370000"}]},"subject":{"reference":"Patient/d9dc15b7-bf03-4b72-8dd5-3e4db21f052d"},"onsetDateTime":"2026-09-30T09:00:00Z","abatementDateTime":"2026-10-12T00:15:00.000+00:00"},"request":{"method":"PUT","url":"Condition/2dc10687-dcca-4657-8168-1d4255c63f93"}},{"fullUrl":"https://madie.cms.gov/Encounter/3a33a4e1-5c6c-49f1-b11b-796f546985ad","resource":{"resourceType":"Encounter","id":"3a33a4e1-5c6c-49f1-b11b-796f546985ad","meta":{"profile":["http://hl7.org/fhir/us/qicore/StructureDefinition/qicore-encounter"]},"status":"finished","class":{"system":"http://terminology.hl7.org/CodeSystem/v3-ActCode","code":"EMER","display":"emergency"},"type":[{"coding":[{"system":"http://snomed.info/sct","code":"4525004"}]}],"subject":{"reference":"Patient/d9dc15b7-bf03-4b72-8dd5-3e4db21f052d"},"period":{"start":"2026-09-30T07:59:00Z","end":"2026-09-30T08:00:00.000+00:00"},"length":{"value":0,"unit":"days"}},"request":{"method":"PUT","url":"Encounter/3a33a4e1-5c6c-49f1-b11b-796f546985ad"}},{"fullUrl":"https://madie.cms.gov/Encounter/5a8f584d-dd64-44b4-a310-a8278cca9612","resource":{"resourceType":"Encounter","id":"5a8f584d-dd64-44b4-a310-a8278cca9612","meta":{"profile":["http://hl7.org/fhir/us/qicore/StructureDefinition/qicore-encounter"]},"status":"finished","class":{"system":"http://terminology.hl7.org/CodeSystem/v3-ActCode","code":"OBSENC","display":"observation encounter"},"type":[{"coding":[{"system":"http://snomed.info/sct","code":"448951000124107"}]}],"subject":{"reference":"Patient/d9dc15b7-bf03-4b72-8dd5-3e4db21f052d"},"period":{"start":"2026-09-30T08:01:00Z","end":"2026-09-30T10:00:00.000+00:00"},"length":{"value":0,"unit":"days"}},"request":{"method":"PUT","url":"Encounter/5a8f584d-dd64-44b4-a310-a8278cca9612"}},{"fullUrl":"https://madie.cms.gov/Encounter/524300d8-fd0b-4ce4-a4fa-2704ca8a34dd","resource":{"resourceType":"Encounter","id":"524300d8-fd0b-4ce4-a4fa-2704ca8a34dd","meta":{"profile":["http://hl7.org/fhir/us/qicore/StructureDefinition/qicore-encounter"]},"status":"finished","class":{"system":"http://terminology.hl7.org/CodeSystem/v3-ActCode","code":"IMP","display":"inpatient encounter"},"type":[{"coding":[{"system":"http://snomed.info/sct","code":"32485007"}]}],"subject":{"reference":"Patient/d9dc15b7-bf03-4b72-8dd5-3e4db21f052d"},"period":{"start":"2026-09-30T11:00:00Z","end":"2026-10-12T00:15:00.000+00:00"},"length":{"value":12,"unit":"days"},"reasonReference":[{"reference":"Condition/2dc10687-dcca-4657-8168-1d4255c63f93"}]},"request":{"method":"PUT","url":"Encounter/524300d8-fd0b-4ce4-a4fa-2704ca8a34dd"}},{"fullUrl":"https://madie.cms.gov/ServiceRequest/3744b423-7953-4140-b976-20d61375e232","resource":{"resourceType":"ServiceRequest","id":"3744b423-7953-4140-b976-20d61375e232","meta":{"profile":["http://hl7.org/fhir/us/qicore/StructureDefinition/qicore-servicerequest"]},"status":"active","intent":"order","code":{"coding":[{"system":"http://snomed.info/sct","code":"133918004"}]},"subject":{"reference":"Patient/d9dc15b7-bf03-4b72-8dd5-3e4db21f052d"},"authoredOn":"2026-09-30T08:01:00Z"},"request":{"method":"PUT","url":"ServiceRequest/3744b423-7953-4140-b976-20d61375e232"}},{"fullUrl":"https://madie.cms.gov/Coverage/845fb91e-5d40-4b25-80d2-467ab7f647fc","resource":{"resourceType":"Coverage","id":"845fb91e-5d40-4b25-80d2-467ab7f647fc","status":"active","subscriberId":"523435","beneficiary":{"reference":"Patient/d9dc15b7-bf03-4b72-8dd5-3e4db21f052d"},"relationship":{"coding":[{"system":"http://terminology.hl7.org/CodeSystem/subscriber-relationship","code":"self"}]},"period":{"start":"1986-09-18T08:00:00Z"},"payor":[{"reference":"Organization/592fa45d-14dd-4dca-a2dc-8baaded780f7"}]},"request":{"method":"PUT","url":"Coverage/845fb91e-5d40-4b25-80d2-467ab7f647fc"}},{"fullUrl":"https://madie.cms.gov/Condition/867b2455-2e29-40d0-ba56-c0ed6bafae37","resource":{"resourceType":"Condition","id":"867b2455-2e29-40d0-ba56-c0ed6bafae37","meta":{"profile":["http://hl7.org/fhir/us/qicore/StructureDefinition/qicore-condition-problems-health-concerns"]},"clinicalStatus":{"coding":[{"system":"http://terminology.hl7.org/CodeSystem/condition-clinical","code":"active"}]},"verificationStatus":{"coding":[{"system":"http://terminology.hl7.org/CodeSystem/condition-ver-status","code":"confirmed"}]},"category":[{"coding":[{"system":"http://terminology.hl7.org/CodeSystem/condition-category","code":"encounter-diagnosis","display":"Encounter Diagnosis"}]}],"code":{"coding":[{"system":"http://snomed.info/sct","version":"2021-09","code":"111297002","display":"Nonparalytic stroke (disorder)","userSelected":true}]},"subject":{"reference":"Patient/d9dc15b7-bf03-4b72-8dd5-3e4db21f052d"},"recordedDate":"2026-10-13T08:00:00Z"},"request":{"method":"PUT","url":"Condition/867b2455-2e29-40d0-ba56-c0ed6bafae37"}},{"fullUrl":"https://madie.cms.gov/Organization/592fa45d-14dd-4dca-a2dc-8baaded780f7","resource":{"resourceType":"Organization","id":"592fa45d-14dd-4dca-a2dc-8baaded780f7","meta":{"profile":["http://hl7.org/fhir/us/qicore/StructureDefinition/qicore-organization"]},"identifier":[{"use":"temp","system":"urn:oid:2.16.840.1.113883.4.4","value":"21-3259825"}],"active":true,"type":[{"coding":[{"system":"http://terminology.hl7.org/CodeSystem/organization-type","code":"pay","display":"Payer"}]}],"name":"Blue Cross Blue Shield of Texas","telecom":[{"system":"phone","value":"(+1) 972-766-6900"}],"address":[{"use":"billing","type":"postal","line":["P.O. Box 660044"],"city":"Dallas","state":"TX","postalCode":"75266-0044","country":"USA"}]},"request":{"method":"PUT","url":"Organization/592fa45d-14dd-4dca-a2dc-8baaded780f7"}},{"fullUrl":"https://madie.cms.gov/Practitioner/55032d2a-c781-4cf8-8140-8ca9697f207e","resource":{"resourceType":"Practitioner","id":"55032d2a-c781-4cf8-8140-8ca9697f207e","meta":{"profile":["http://hl7.org/fhir/us/qicore/StructureDefinition/qicore-practitioner"]},"identifier":[{"system":"http://hl7.org/fhir/sid/us-npi","value":"9999999896"}],"name":[{"family":"Evil","prefix":["Dr"]}]},"request":{"method":"PUT","url":"Practitioner/55032d2a-c781-4cf8-8140-8ca9697f207e"}},{"fullUrl":"https://madie.cms.gov/MeasureReport/6ab4f8ef-e3ae-4e5c-a9cf-5fdb42da0342","resource":{"resourceType":"MeasureReport","id":"6ab4f8ef-e3ae-4e5c-a9cf-5fdb42da0342","meta":{"profile":["http://hl7.org/fhir/us/cqfmeasures/StructureDefinition/test-case-cqfm"]},"contained":[{"resourceType":"Parameters","id":"5adf302c-f800-4af9-ac0b-3a963d83a2aa-parameters","parameter":[{"name":"subject","valueString":"d9dc15b7-bf03-4b72-8dd5-3e4db21f052d"}]}],"extension":[{"url":"http://hl7.org/fhir/StructureDefinition/cqf-inputParameters","valueReference":{"reference":"#5adf302c-f800-4af9-ac0b-3a963d83a2aa-parameters"}},{"url":"http://hl7.org/fhir/us/cqfmeasures/StructureDefinition/cqfm-testCaseDescription","valueMarkdown":"\"Patient receives CMO order during Observation, ED visit ends 1 minute before Obs starts, Obs ends 60 min before inpatient start. Testing HospitalizationWithObservation function.\n\n\"\n"}],"modifierExtension":[{"url":"http://hl7.org/fhir/us/cqfmeasures/StructureDefinition/cqfm-isTestCase","valueBoolean":true}],"status":"complete","type":"individual","measure":"https://madie.cms.gov/Measure/CMS71FHIRSTKAnticoagAFFlutter","period":{"start":"2026-01-01","end":"2026-12-31"},"group":[{"id":"Group_1","population":[{"id":"InitialPopulation_1","code":{"coding":[{"system":"http://terminology.hl7.org/CodeSystem/measure-population","code":"initial-population","display":"Initial Population"}]},"count":1},{"id":"Denominator_1","code":{"coding":[{"system":"http://terminology.hl7.org/CodeSystem/measure-population","code":"denominator","display":"Denominator"}]},"count":1},{"id":"DenominatorExclusion_1","code":{"coding":[{"system":"http://terminology.hl7.org/CodeSystem/measure-population","code":"denominator-exclusion","display":"Denominator Exclusion"}]},"count":1},{"id":"Numerator_1","code":{"coding":[{"system":"http://terminology.hl7.org/CodeSystem/measure-population","code":"numerator","display":"Numerator"}]},"count":0},{"id":"DenominatorException_1","code":{"coding":[{"system":"http://terminology.hl7.org/CodeSystem/measure-population","code":"denominator-exception","display":"Denominator Exception"}]},"count":0}],"measureScore":{"value":0.0}}],"evaluatedResource":[{"reference":"Patient/d9dc15b7-bf03-4b72-8dd5-3e4db21f052d"},{"reference":"Claim/5ca62962b8484628b8de1ec5"},{"reference":"Condition/2dc10687-dcca-4657-8168-1d4255c63f93"},{"reference":"Encounter/3a33a4e1-5c6c-49f1-b11b-796f546985ad"},{"reference":"Encounter/5a8f584d-dd64-44b4-a310-a8278cca9612"},{"reference":"Encounter/524300d8-fd0b-4ce4-a4fa-2704ca8a34dd"},{"reference":"ServiceRequest/3744b423-7953-4140-b976-20d61375e232"},{"reference":"Coverage/845fb91e-5d40-4b25-80d2-467ab7f647fc"},{"reference":"Condition/867b2455-2e29-40d0-ba56-c0ed6bafae37"},{"reference":"Organization/592fa45d-14dd-4dca-a2dc-8baaded780f7"},{"reference":"Practitioner/55032d2a-c781-4cf8-8140-8ca9697f207e"}]},"request":{"method":"PUT","url":"MeasureReport/6ab4f8ef-e3ae-4e5c-a9cf-5fdb42da0342"}}]},"request":{"method":"PUT","url":"Bundle/633c9d030968f8012250fc86"}},{"resource":{"resourceType":"Claim","id":"5ca62962b8484628b8de1ec5","meta":{"profile":["http://hl7.org/fhir/us/qicore/StructureDefinition/qicore-claim"]},"status":"active","type":{"coding":[{"system":"http://terminology.hl7.org/CodeSystem/claim-type","code":"institutional"}]},"use":"claim","patient":{"reference":"Patient/d170a0a8-b5ad-4303-b6df-e304dd5f92ad"},"created":"2026-12-01","provider":{"reference":"Practitioner/55032d2a-c781-4cf8-8140-8ca9697f207e"},"priority":{"coding":[{"system":"http://terminology.hl7.org/CodeSystem/processpriority","code":"normal"}]},"diagnosis":[{"sequence":1,"diagnosisCodeableConcept":{"coding":[{"system":"http://hl7.org/fhir/sid/icd-10-cm","code":"I63.00"}]},"type":[{"coding":[{"system":"http://terminology.hl7.org/CodeSystem/ex-diagnosistype","code":"principal"}]}]}],"insurance":[{"sequence":1,"focal":true,"coverage":{"reference":"Coverage/5fa041661c76ba66d9959367"}}],"item":[{"sequence":1,"diagnosisSequence":[1],"productOrService":{"coding":[{"system":"http://terminology.hl7.org/CodeSystem/ex-USCLS","code":"99555"}]},"encounter":[{"reference":"Encounter/524300d8-fd0b-4ce4-a4fa-2704ca8a34dd"}]}]},"request":{"method":"PUT","url":"Claim/5ca62962b8484628b8de1ec5"}},{"resource":{"resourceType":"ServiceRequest","id":"3744b423-7953-4140-b976-20d61375e232","meta":{"profile":["http://hl7.org/fhir/us/qicore/StructureDefinition/qicore-servicerequest"]},"status":"active","intent":"order","code":{"coding":[{"system":"http://snomed.info/sct","code":"133918004"}]},"subject":{"reference":"Patient/d9dc15b7-bf03-4b72-8dd5-3e4db21f052d"},"authoredOn":"2026-09-30T08:01:00Z"},"request":{"method":"PUT","url":"ServiceRequest/3744b423-7953-4140-b976-20d61375e232"}}]}