{
  "resourceType": "Bundle",
  "id": "63232f15414ba67d4e1d1c29",
  "type": "transaction",
  "entry": [ {
    "fullUrl": "https://madie.cms.gov/Patient/031889e2-0353-4c2e-82c0-f422e15aacaa",
    "resource": {
      "resourceType": "Patient",
      "id": "031889e2-0353-4c2e-82c0-f422e15aacaa",
      "meta": {
        "profile": [ "http://hl7.org/fhir/us/qicore/StructureDefinition/qicore-patient" ]
      },
      "extension": [ {
        "url": "http://hl7.org/fhir/us/core/StructureDefinition/us-core-race",
        "extension": [ {
          "url": "ombCategory",
          "valueCoding": {
            "system": "urn:oid:2.16.840.1.113883.6.238",
            "code": "1002-5",
            "display": "American Indian or Alaska Native",
            "userSelected": true
          }
        }, {
          "url": "text",
          "valueString": "American Indian or Alaska Native"
        } ]
      }, {
        "url": "http://hl7.org/fhir/us/core/StructureDefinition/us-core-ethnicity",
        "extension": [ {
          "url": "ombCategory",
          "valueCoding": {
            "system": "urn:oid:2.16.840.1.113883.6.238",
            "code": "2135-2",
            "display": "Hispanic or Latino",
            "userSelected": true
          }
        }, {
          "url": "text",
          "valueString": "Hispanic or Latino"
        } ]
      } ],
      "identifier": [ {
        "type": {
          "coding": [ {
            "system": "http://terminology.hl7.org/CodeSystem/v2-0203",
            "code": "MR"
          } ]
        },
        "system": "https://bonnie-fhir.healthit.gov/",
        "value": "63232f15414ba67d4e1d1c29"
      } ],
      "name": [ {
        "family": "DENEXPass",
        "given": [ "OpioidTreatment" ]
      } ],
      "gender": "male",
      "birthDate": "2006-12-31"
    },
    "request": {
      "method": "PUT",
      "url": "Patient/031889e2-0353-4c2e-82c0-f422e15aacaa"
    }
  }, {
    "fullUrl": "https://madie.cms.gov/Encounter/984f5473-5ea3-4369-bd15-3e0f56745b0e",
    "resource": {
      "resourceType": "Encounter",
      "id": "984f5473-5ea3-4369-bd15-3e0f56745b0e",
      "meta": {
        "profile": [ "http://hl7.org/fhir/us/qicore/StructureDefinition/qicore-encounter" ]
      },
      "status": "finished",
      "class": {
        "system": "http://terminology.hl7.org/CodeSystem/v3-ActCode",
        "code": "IMP",
        "display": "inpatient"
      },
      "type": [ {
        "coding": [ {
          "system": "http://snomed.info/sct",
          "version": "2022-03",
          "code": "183452005",
          "display": "Emergency hospital admission (procedure)",
          "userSelected": true
        } ]
      } ],
      "subject": {
        "reference": "Patient/031889e2-0353-4c2e-82c0-f422e15aacaa"
      },
      "period": {
        "start": "2026-01-01T00:00:00.000+00:00",
        "end": "2026-01-03T00:35:00.000+00:00"
      }
    },
    "request": {
      "method": "PUT",
      "url": "Encounter/984f5473-5ea3-4369-bd15-3e0f56745b0e"
    }
  }, {
    "fullUrl": "https://madie.cms.gov/MedicationRequest/33426144-c046-43d4-8d36-3b8561ab38a7",
    "resource": {
      "resourceType": "MedicationRequest",
      "id": "33426144-c046-43d4-8d36-3b8561ab38a7",
      "meta": {
        "profile": [ "http://hl7.org/fhir/us/qicore/StructureDefinition/qicore-medicationrequest" ]
      },
      "status": "active",
      "intent": "order",
      "category": [ {
        "coding": [ {
          "system": "http://terminology.hl7.org/CodeSystem/medicationrequest-category",
          "code": "discharge",
          "display": "Discharge",
          "userSelected": true
        } ]
      } ],
      "doNotPerform": false,
      "medicationCodeableConcept": {
        "coding": [ {
          "system": "http://www.nlm.nih.gov/research/umls/rxnorm",
          "code": "1298088",
          "display": "flurazepam hydrochloride 15 MG Oral Capsule",
          "userSelected": true
        } ]
      },
      "subject": {
        "reference": "Patient/031889e2-0353-4c2e-82c0-f422e15aacaa"
      },
      "authoredOn": "2026-01-03T00:05:00.000+00:00",
      "requester": {
        "reference": "Practitioner/300740cb-c2cc-4910-b0d6-3da515eeea37"
      }
    },
    "request": {
      "method": "PUT",
      "url": "MedicationRequest/33426144-c046-43d4-8d36-3b8561ab38a7"
    }
  }, {
    "fullUrl": "https://madie.cms.gov/Practitioner/300740cb-c2cc-4910-b0d6-3da515eeea37",
    "resource": {
      "resourceType": "Practitioner",
      "id": "300740cb-c2cc-4910-b0d6-3da515eeea37",
      "meta": {
        "profile": [ "http://hl7.org/fhir/us/qicore/StructureDefinition/qicore-practitioner" ]
      },
      "identifier": [ {
        "system": "http://hl7.org/fhir/sid/us-npi",
        "value": "9999999896"
      } ],
      "active": true,
      "name": [ {
        "family": "Ramires",
        "given": [ "Alma" ],
        "prefix": [ "Dr" ]
      } ],
      "address": [ {
        "use": "home",
        "line": [ "534 Erewhon St" ],
        "city": "Netherville",
        "state": "IN",
        "postalCode": "46131"
      } ],
      "qualification": [ {
        "identifier": [ {
          "system": "http://goodhealth.org/prIdentifier",
          "value": "12345"
        } ],
        "code": {
          "coding": [ {
            "system": "http://terminology.hl7.org/CodeSystem/v2-0360|2.7",
            "code": "BS",
            "display": "Bachelor of Science"
          } ],
          "text": "Bachelor of Science"
        },
        "period": {
          "start": "1995"
        },
        "issuer": {
          "display": "Example University"
        }
      } ]
    },
    "request": {
      "method": "PUT",
      "url": "Practitioner/300740cb-c2cc-4910-b0d6-3da515eeea37"
    }
  }, {
    "fullUrl": "https://madie.cms.gov/MedicationRequest/805a0495-472c-429d-a286-1b6f58132847",
    "resource": {
      "resourceType": "MedicationRequest",
      "id": "805a0495-472c-429d-a286-1b6f58132847",
      "meta": {
        "profile": [ "http://hl7.org/fhir/us/qicore/StructureDefinition/qicore-medicationrequest" ]
      },
      "status": "active",
      "intent": "order",
      "category": [ {
        "coding": [ {
          "system": "http://terminology.hl7.org/CodeSystem/medicationrequest-category",
          "code": "discharge",
          "display": "Discharge",
          "userSelected": true
        } ]
      } ],
      "doNotPerform": false,
      "medicationCodeableConcept": {
        "coding": [ {
          "system": "http://www.nlm.nih.gov/research/umls/rxnorm",
          "code": "1010600",
          "display": "buprenorphine 2 MG / naloxone 0.5 MG Sublingual Film",
          "userSelected": true
        } ]
      },
      "subject": {
        "reference": "Patient/031889e2-0353-4c2e-82c0-f422e15aacaa"
      },
      "authoredOn": "2026-01-01T00:05:00.000+00:00",
      "requester": {
        "reference": "Practitioner/300740cb-c2cc-4910-b0d6-3da515eeea37"
      }
    },
    "request": {
      "method": "PUT",
      "url": "MedicationRequest/805a0495-472c-429d-a286-1b6f58132847"
    }
  }, {
    "fullUrl": "https://madie.cms.gov/Procedure/1a816faa-a4c5-43b9-94c3-5f4acf7fd0cb",
    "resource": {
      "resourceType": "Procedure",
      "id": "1a816faa-a4c5-43b9-94c3-5f4acf7fd0cb",
      "meta": {
        "profile": [ "http://hl7.org/fhir/us/qicore/StructureDefinition/qicore-procedure" ]
      },
      "extension": [ {
        "url": "http://hl7.org/fhir/us/qicore/StructureDefinition/qicore-recorded",
        "valueDateTime": "2026-01-03T00:10:00.000+00:00"
      } ],
      "status": "completed",
      "code": {
        "coding": [ {
          "system": "http://snomed.info/sct",
          "version": "2022-03",
          "code": "792902005",
          "display": "Drug addiction therapy using buprenorphine and naloxone (regime/therapy)",
          "userSelected": true
        } ]
      },
      "subject": {
        "reference": "Patient/031889e2-0353-4c2e-82c0-f422e15aacaa"
      },
      "performedDateTime": "2026-01-01T00:10:00.000+00:00"
    },
    "request": {
      "method": "PUT",
      "url": "Procedure/1a816faa-a4c5-43b9-94c3-5f4acf7fd0cb"
    }
  }, {
    "fullUrl": "https://madie.cms.gov/Coverage/d9d92209-ecc6-48a7-8a42-7b907514308c",
    "resource": {
      "resourceType": "Coverage",
      "id": "d9d92209-ecc6-48a7-8a42-7b907514308c",
      "meta": {
        "profile": [ "http://hl7.org/fhir/us/qicore/StructureDefinition/qicore-coverage" ]
      },
      "status": "active",
      "subscriberId": "523435",
      "beneficiary": {
        "reference": "Patient/031889e2-0353-4c2e-82c0-f422e15aacaa"
      },
      "relationship": {
        "coding": [ {
          "system": "http://terminology.hl7.org/CodeSystem/subscriber-relationship",
          "code": "self"
        } ]
      },
      "payor": [ {
        "reference": "Organization/4c757234-bcfe-4ea0-8b8a-c3317f516c9c"
      } ]
    },
    "request": {
      "method": "PUT",
      "url": "Coverage/d9d92209-ecc6-48a7-8a42-7b907514308c"
    }
  }, {
    "fullUrl": "https://madie.cms.gov/Organization/4c757234-bcfe-4ea0-8b8a-c3317f516c9c",
    "resource": {
      "resourceType": "Organization",
      "id": "4c757234-bcfe-4ea0-8b8a-c3317f516c9c",
      "meta": {
        "profile": [ "http://hl7.org/fhir/us/qicore/StructureDefinition/qicore-organization" ]
      },
      "identifier": [ {
        "use": "temp",
        "system": "urn:oid:2.16.840.1.113883.4.4",
        "value": "21-3259825"
      } ],
      "active": true,
      "type": [ {
        "coding": [ {
          "system": "http://terminology.hl7.org/CodeSystem/organization-type",
          "code": "pay",
          "display": "Payer"
        } ]
      } ],
      "name": "Blue Cross Blue Shield of Texas",
      "telecom": [ {
        "system": "phone",
        "value": "(+1) 972-766-6900"
      } ],
      "address": [ {
        "use": "billing",
        "type": "postal",
        "line": [ "P.O. Box 660044" ],
        "city": "Dallas",
        "state": "TX",
        "postalCode": "75266-0044",
        "country": "USA"
      } ]
    },
    "request": {
      "method": "PUT",
      "url": "Organization/4c757234-bcfe-4ea0-8b8a-c3317f516c9c"
    }
  }, {
    "fullUrl": "https://madie.cms.gov/MeasureReport/cdcece72-61c4-4b67-a9fb-7bc95c3f0938",
    "resource": {
      "resourceType": "MeasureReport",
      "id": "cdcece72-61c4-4b67-a9fb-7bc95c3f0938",
      "meta": {
        "profile": [ "http://hl7.org/fhir/us/cqfmeasures/StructureDefinition/test-case-cqfm" ]
      },
      "contained": [ {
        "resourceType": "Parameters",
        "id": "c06c2083-7a22-4d29-b2e0-87b43f63f03d-parameters",
        "parameter": [ {
          "name": "subject",
          "valueString": "031889e2-0353-4c2e-82c0-f422e15aacaa"
        } ]
      } ],
      "extension": [ {
        "url": "http://hl7.org/fhir/StructureDefinition/cqf-inputParameters",
        "valueReference": {
          "reference": "#c06c2083-7a22-4d29-b2e0-87b43f63f03d-parameters"
        }
      }, {
        "url": "http://hl7.org/fhir/us/cqfmeasures/StructureDefinition/cqfm-testCaseDescription",
        "valueMarkdown": "Enc first day of MP, pt in MAT program for opioids, tx plan includes buprenorhine tx. "
      } ],
      "modifierExtension": [ {
        "url": "http://hl7.org/fhir/us/cqfmeasures/StructureDefinition/cqfm-isTestCase",
        "valueBoolean": true
      } ],
      "status": "complete",
      "type": "individual",
      "measure": "https://madie.cms.gov/Measure/CMS506FHIRSafeUseofOpioids",
      "period": {
        "start": "2026-01-01",
        "end": "2026-12-31"
      },
      "group": [ {
        "id": "Group_1",
        "population": [ {
          "id": "InitialPopulation_1",
          "code": {
            "coding": [ {
              "system": "http://terminology.hl7.org/CodeSystem/measure-population",
              "code": "initial-population",
              "display": "Initial Population"
            } ]
          },
          "count": 1
        }, {
          "id": "Denominator_1",
          "code": {
            "coding": [ {
              "system": "http://terminology.hl7.org/CodeSystem/measure-population",
              "code": "denominator",
              "display": "Denominator"
            } ]
          },
          "count": 1
        }, {
          "id": "DenominatorExclusion_1",
          "code": {
            "coding": [ {
              "system": "http://terminology.hl7.org/CodeSystem/measure-population",
              "code": "denominator-exclusion",
              "display": "Denominator Exclusion"
            } ]
          },
          "count": 1
        }, {
          "id": "Numerator_1",
          "code": {
            "coding": [ {
              "system": "http://terminology.hl7.org/CodeSystem/measure-population",
              "code": "numerator",
              "display": "Numerator"
            } ]
          },
          "count": 0
        } ],
        "measureScore": {
          "value": 0.0
        }
      } ],
      "evaluatedResource": [ {
        "reference": "Patient/031889e2-0353-4c2e-82c0-f422e15aacaa"
      }, {
        "reference": "Encounter/984f5473-5ea3-4369-bd15-3e0f56745b0e"
      }, {
        "reference": "MedicationRequest/33426144-c046-43d4-8d36-3b8561ab38a7"
      }, {
        "reference": "Practitioner/300740cb-c2cc-4910-b0d6-3da515eeea37"
      }, {
        "reference": "MedicationRequest/805a0495-472c-429d-a286-1b6f58132847"
      }, {
        "reference": "Procedure/1a816faa-a4c5-43b9-94c3-5f4acf7fd0cb"
      }, {
        "reference": "Coverage/d9d92209-ecc6-48a7-8a42-7b907514308c"
      }, {
        "reference": "Organization/4c757234-bcfe-4ea0-8b8a-c3317f516c9c"
      } ]
    },
    "request": {
      "method": "PUT",
      "url": "MeasureReport/cdcece72-61c4-4b67-a9fb-7bc95c3f0938"
    }
  } ]
}