{
  "resourceType": "Bundle",
  "id": "630307cb0968f801224784b8",
  "type": "transaction",
  "entry": [ {
    "fullUrl": "https://madie.cms.gov/Patient/01083d96-9f99-4138-824d-f4a0eab21f75",
    "resource": {
      "resourceType": "Patient",
      "id": "01083d96-9f99-4138-824d-f4a0eab21f75",
      "meta": {
        "profile": [ "http://hl7.org/fhir/us/qicore/StructureDefinition/qicore-patient" ]
      },
      "extension": [ {
        "url": "http://hl7.org/fhir/us/core/StructureDefinition/us-core-race",
        "extension": [ {
          "url": "ombCategory",
          "valueCoding": {
            "system": "urn:oid:2.16.840.1.113883.6.238",
            "code": "2106-3",
            "display": "White"
          }
        }, {
          "url": "text",
          "valueString": "White"
        } ]
      }, {
        "url": "http://hl7.org/fhir/us/core/StructureDefinition/us-core-ethnicity",
        "extension": [ {
          "url": "ombCategory",
          "valueCoding": {
            "system": "urn:oid:2.16.840.1.113883.6.238",
            "code": "2186-5",
            "display": "Not Hispanic or Latino"
          }
        }, {
          "url": "text",
          "valueString": "Not Hispanic or Latino"
        } ]
      } ],
      "identifier": [ {
        "type": {
          "coding": [ {
            "system": "http://terminology.hl7.org/CodeSystem/v2-0203",
            "code": "MR"
          } ]
        },
        "system": "https://bonnie-fhir.healthit.gov/",
        "value": "630307cb0968f801224784b8"
      } ],
      "name": [ {
        "family": "NUMERPopStrat1Fail",
        "given": [ "SecondPHQ9OutofRange" ]
      } ],
      "gender": "other",
      "birthDate": "2013-01-01"
    },
    "request": {
      "method": "PUT",
      "url": "Patient/01083d96-9f99-4138-824d-f4a0eab21f75"
    }
  }, {
    "fullUrl": "https://madie.cms.gov/Encounter/801c6043-1490-421d-ae01-8f3721ad56e4",
    "resource": {
      "resourceType": "Encounter",
      "id": "801c6043-1490-421d-ae01-8f3721ad56e4",
      "meta": {
        "profile": [ "http://hl7.org/fhir/us/qicore/StructureDefinition/qicore-encounter" ]
      },
      "status": "finished",
      "class": {
        "system": "http://terminology.hl7.org/CodeSystem/v3-ActCode",
        "code": "AMB",
        "display": "ambulatory"
      },
      "type": [ {
        "coding": [ {
          "system": "http://www.ama-assn.org/go/cpt",
          "version": "2024",
          "code": "90791"
        } ]
      } ],
      "subject": {
        "reference": "Patient/01083d96-9f99-4138-824d-f4a0eab21f75"
      },
      "period": {
        "start": "2025-02-25T14:30:00+00:00",
        "end": "2025-02-25T14:50:00+00:00"
      },
      "length": {
        "value": 0,
        "unit": "days"
      }
    },
    "request": {
      "method": "PUT",
      "url": "Encounter/801c6043-1490-421d-ae01-8f3721ad56e4"
    }
  }, {
    "fullUrl": "https://madie.cms.gov/Observation/f4e3f714-28ff-4c68-95f7-0f5208879879",
    "resource": {
      "resourceType": "Observation",
      "id": "f4e3f714-28ff-4c68-95f7-0f5208879879",
      "meta": {
        "profile": [ "http://hl7.org/fhir/us/qicore/StructureDefinition/qicore-observation-screening-assessment" ]
      },
      "status": "final",
      "category": [ {
        "coding": [ {
          "system": "http://terminology.hl7.org/CodeSystem/observation-category",
          "code": "survey",
          "display": "Survey"
        } ]
      } ],
      "code": {
        "coding": [ {
          "system": "http://loinc.org",
          "version": "2.76",
          "code": "44261-6"
        } ]
      },
      "subject": {
        "reference": "Patient/01083d96-9f99-4138-824d-f4a0eab21f75"
      },
      "effectiveDateTime": "2025-02-25T14:35:00+00:00",
      "valueInteger": 10
    },
    "request": {
      "method": "PUT",
      "url": "Observation/f4e3f714-28ff-4c68-95f7-0f5208879879"
    }
  }, {
    "fullUrl": "https://madie.cms.gov/Observation/38703402-ea34-4450-ba9f-0ce899ddf080",
    "resource": {
      "resourceType": "Observation",
      "id": "38703402-ea34-4450-ba9f-0ce899ddf080",
      "meta": {
        "profile": [ "http://hl7.org/fhir/us/qicore/StructureDefinition/qicore-observation-screening-assessment" ]
      },
      "status": "final",
      "category": [ {
        "coding": [ {
          "system": "http://terminology.hl7.org/CodeSystem/observation-category",
          "code": "survey",
          "display": "Survey"
        } ]
      } ],
      "code": {
        "coding": [ {
          "system": "http://loinc.org",
          "version": "2.76",
          "code": "44261-6"
        } ]
      },
      "subject": {
        "reference": "Patient/01083d96-9f99-4138-824d-f4a0eab21f75"
      },
      "effectiveDateTime": "2026-02-19T14:30:00+00:00",
      "valueInteger": 300
    },
    "request": {
      "method": "PUT",
      "url": "Observation/38703402-ea34-4450-ba9f-0ce899ddf080"
    }
  }, {
    "fullUrl": "https://madie.cms.gov/Condition/656710fc-e229-4be2-a4a8-cb8323fec1d6",
    "resource": {
      "resourceType": "Condition",
      "id": "656710fc-e229-4be2-a4a8-cb8323fec1d6",
      "meta": {
        "profile": [ "http://hl7.org/fhir/us/qicore/StructureDefinition/qicore-condition-problems-health-concerns" ]
      },
      "clinicalStatus": {
        "coding": [ {
          "system": "http://terminology.hl7.org/CodeSystem/condition-clinical",
          "code": "active",
          "display": "active"
        } ]
      },
      "verificationStatus": {
        "coding": [ {
          "system": "http://terminology.hl7.org/CodeSystem/condition-ver-status",
          "code": "confirmed"
        } ]
      },
      "category": [ {
        "coding": [ {
          "system": "http://terminology.hl7.org/CodeSystem/condition-category",
          "code": "problem-list-item",
          "display": "Problem List Item"
        } ]
      } ],
      "code": {
        "coding": [ {
          "system": "http://hl7.org/fhir/sid/icd-10-cm",
          "version": "2024",
          "code": "F32.9"
        } ]
      },
      "subject": {
        "reference": "Patient/01083d96-9f99-4138-824d-f4a0eab21f75"
      },
      "onsetDateTime": "2025-02-25T14:35:00+00:00"
    },
    "request": {
      "method": "PUT",
      "url": "Condition/656710fc-e229-4be2-a4a8-cb8323fec1d6"
    }
  }, {
    "fullUrl": "https://madie.cms.gov/MeasureReport/6ea2e610-3697-4158-a216-6e4df9b2fe23",
    "resource": {
      "resourceType": "MeasureReport",
      "id": "6ea2e610-3697-4158-a216-6e4df9b2fe23",
      "meta": {
        "profile": [ "http://hl7.org/fhir/us/cqfmeasures/StructureDefinition/test-case-cqfm" ]
      },
      "contained": [ {
        "resourceType": "Parameters",
        "id": "f6b91e2e-d774-4e34-b797-de9d4c8e8d81-parameters",
        "parameter": [ {
          "name": "subject",
          "valueString": "01083d96-9f99-4138-824d-f4a0eab21f75"
        } ]
      } ],
      "extension": [ {
        "url": "http://hl7.org/fhir/StructureDefinition/cqf-inputParameters",
        "valueReference": {
          "reference": "#f6b91e2e-d774-4e34-b797-de9d4c8e8d81-parameters"
        }
      }, {
        "url": "http://hl7.org/fhir/us/cqfmeasures/StructureDefinition/cqfm-testCaseDescription",
        "valueMarkdown": "Patient is 12 years old and has a Major Depression diagnosis and an encounter with PHQ-9>9 during Denom ID period. Patient has an incorrect/non applicable result for the PHQ-9 assessment during the MAP. Patient is in the denom for strat 1. "
      } ],
      "modifierExtension": [ {
        "url": "http://hl7.org/fhir/us/cqfmeasures/StructureDefinition/cqfm-isTestCase",
        "valueBoolean": true
      } ],
      "status": "complete",
      "type": "individual",
      "measure": "https://madie.cms.gov/Measure/CMS159FHIRDepressionRemissionatTwelveMonths",
      "period": {
        "start": "2026-01-01",
        "end": "2026-12-31"
      },
      "group": [ {
        "id": "Group_1",
        "population": [ {
          "id": "InitialPopulation_1",
          "code": {
            "coding": [ {
              "system": "http://terminology.hl7.org/CodeSystem/measure-population",
              "code": "initial-population",
              "display": "Initial Population"
            } ]
          },
          "count": 1
        }, {
          "id": "Denominator_1",
          "code": {
            "coding": [ {
              "system": "http://terminology.hl7.org/CodeSystem/measure-population",
              "code": "denominator",
              "display": "Denominator"
            } ]
          },
          "count": 1
        }, {
          "id": "DenominatorExclusion_1",
          "code": {
            "coding": [ {
              "system": "http://terminology.hl7.org/CodeSystem/measure-population",
              "code": "denominator-exclusion",
              "display": "Denominator Exclusion"
            } ]
          },
          "count": 0
        }, {
          "id": "Numerator_1",
          "code": {
            "coding": [ {
              "system": "http://terminology.hl7.org/CodeSystem/measure-population",
              "code": "numerator",
              "display": "Numerator"
            } ]
          },
          "count": 0
        } ],
        "measureScore": {
          "value": 1.0
        }
      } ],
      "evaluatedResource": [ {
        "reference": "Patient/01083d96-9f99-4138-824d-f4a0eab21f75"
      }, {
        "reference": "Encounter/801c6043-1490-421d-ae01-8f3721ad56e4"
      }, {
        "reference": "Observation/f4e3f714-28ff-4c68-95f7-0f5208879879"
      }, {
        "reference": "Observation/38703402-ea34-4450-ba9f-0ce899ddf080"
      }, {
        "reference": "Condition/656710fc-e229-4be2-a4a8-cb8323fec1d6"
      } ]
    },
    "request": {
      "method": "PUT",
      "url": "MeasureReport/6ea2e610-3697-4158-a216-6e4df9b2fe23"
    }
  } ]
}