{
  "resourceType": "Bundle",
  "id": "633b3f9e0968f80122503cd2",
  "type": "transaction",
  "entry": [ {
    "fullUrl": "https://madie.cms.gov/Patient/94236514-cb6c-4e1b-8235-69e8ccc4ad05",
    "resource": {
      "resourceType": "Patient",
      "id": "94236514-cb6c-4e1b-8235-69e8ccc4ad05",
      "meta": {
        "profile": [ "http://hl7.org/fhir/us/qicore/StructureDefinition/qicore-patient" ]
      },
      "text": {
        "status": "generated",
        "div": "<div xmlns=\"http://www.w3.org/1999/xhtml\"><div class=\"hapiHeaderText\">LastAssPrfDELRsltDtTimeAftIPEnd<b>DENOMPASS</b></div><table class=\"hapiPropertyTable\"><tbody><tr><td>Date of birth</td><td><span>01 February 2004</span></td></tr></tbody></table></div>"
      },
      "extension": [ {
        "url": "http://hl7.org/fhir/us/core/StructureDefinition/us-core-race",
        "extension": [ {
          "url": "ombCategory",
          "valueCoding": {
            "system": "urn:oid:2.16.840.1.113883.6.238",
            "code": "1002-5",
            "display": "American Indian or Alaska Native",
            "userSelected": true
          }
        }, {
          "url": "text",
          "valueString": "American Indian or Alaska Native"
        } ]
      }, {
        "url": "http://hl7.org/fhir/us/core/StructureDefinition/us-core-ethnicity",
        "extension": [ {
          "url": "ombCategory",
          "valueCoding": {
            "system": "urn:oid:2.16.840.1.113883.6.238",
            "code": "2135-2",
            "display": "Hispanic or Latino",
            "userSelected": true
          }
        }, {
          "url": "text",
          "valueString": "Hispanic or Latino"
        } ]
      } ],
      "identifier": [ {
        "type": {
          "coding": [ {
            "system": "http://terminology.hl7.org/CodeSystem/v2-0203",
            "code": "MR"
          } ]
        },
        "system": "https://bonnie-fhir.healthit.gov/",
        "value": "633b3f9e0968f80122503cd2"
      } ],
      "active": true,
      "name": [ {
        "use": "usual",
        "family": "DENOMPass",
        "given": [ "LastAssPrfDELRsltDtTimeAftIPEnd" ]
      } ],
      "gender": "female",
      "birthDate": "2005-02-01"
    },
    "request": {
      "method": "PUT",
      "url": "Patient/94236514-cb6c-4e1b-8235-69e8ccc4ad05"
    }
  }, {
    "fullUrl": "https://madie.cms.gov/Observation/b038c23c-88b6-4ce1-9d8d-28a63a0c5268",
    "resource": {
      "resourceType": "Observation",
      "id": "b038c23c-88b6-4ce1-9d8d-28a63a0c5268",
      "meta": {
        "profile": [ "http://hl7.org/fhir/us/qicore/StructureDefinition/qicore-simple-observation" ]
      },
      "status": "final",
      "category": [ {
        "coding": [ {
          "system": "http://terminology.hl7.org/CodeSystem/observation-category",
          "code": "exam",
          "display": "exam",
          "userSelected": true
        } ]
      } ],
      "code": {
        "coding": [ {
          "system": "http://loinc.org",
          "code": "93857-1"
        } ]
      },
      "subject": {
        "reference": "Patient/94236514-cb6c-4e1b-8235-69e8ccc4ad05"
      },
      "effectiveDateTime": "2026-02-01T08:00:00Z",
      "performer": [ {
        "reference": "Organization/example1",
        "display": "Hendricks Country Hospital"
      } ],
      "valueDateTime": "2026-02-05T08:15:00.000+00:00"
    },
    "request": {
      "method": "PUT",
      "url": "Observation/b038c23c-88b6-4ce1-9d8d-28a63a0c5268"
    }
  }, {
    "fullUrl": "https://madie.cms.gov/Observation/b227c9c6-8aaa-4828-8123-b6b89b8d7a1c",
    "resource": {
      "resourceType": "Observation",
      "id": "b227c9c6-8aaa-4828-8123-b6b89b8d7a1c",
      "meta": {
        "profile": [ "http://hl7.org/fhir/us/qicore/StructureDefinition/qicore-simple-observation" ]
      },
      "status": "final",
      "category": [ {
        "coding": [ {
          "system": "http://terminology.hl7.org/CodeSystem/observation-category",
          "code": "exam",
          "display": "exam",
          "userSelected": true
        } ]
      } ],
      "code": {
        "coding": [ {
          "system": "http://loinc.org",
          "code": "11778-8"
        } ]
      },
      "subject": {
        "reference": "Patient/94236514-cb6c-4e1b-8235-69e8ccc4ad05"
      },
      "effectiveDateTime": "2026-02-05T08:00:00Z",
      "performer": [ {
        "reference": "Organization/example1",
        "display": "Hendricks Country Hospital"
      } ],
      "valueDateTime": "2026-02-01T08:00:00.000+00:00"
    },
    "request": {
      "method": "PUT",
      "url": "Observation/b227c9c6-8aaa-4828-8123-b6b89b8d7a1c"
    }
  }, {
    "fullUrl": "https://madie.cms.gov/Observation/85c3cab6-f6b1-4022-af7e-ab35b5ba947c",
    "resource": {
      "resourceType": "Observation",
      "id": "85c3cab6-f6b1-4022-af7e-ab35b5ba947c",
      "meta": {
        "profile": [ "http://hl7.org/fhir/us/qicore/StructureDefinition/qicore-simple-observation" ]
      },
      "status": "final",
      "category": [ {
        "coding": [ {
          "system": "http://terminology.hl7.org/CodeSystem/observation-category",
          "code": "exam",
          "display": "exam",
          "userSelected": true
        } ]
      } ],
      "code": {
        "coding": [ {
          "system": "http://loinc.org",
          "code": "93857-1"
        } ]
      },
      "subject": {
        "reference": "Patient/94236514-cb6c-4e1b-8235-69e8ccc4ad05"
      },
      "effectiveDateTime": "2026-02-01T08:00:00Z",
      "performer": [ {
        "reference": "Organization/example1",
        "display": "Hendricks Country Hospital"
      } ],
      "valueDateTime": "2026-08-05T08:00:00.000+00:00"
    },
    "request": {
      "method": "PUT",
      "url": "Observation/85c3cab6-f6b1-4022-af7e-ab35b5ba947c"
    }
  }, {
    "fullUrl": "https://madie.cms.gov/Encounter/0f0dc162-4a98-4168-8867-6f4ebece294f",
    "resource": {
      "resourceType": "Encounter",
      "id": "0f0dc162-4a98-4168-8867-6f4ebece294f",
      "meta": {
        "profile": [ "http://hl7.org/fhir/us/qicore/StructureDefinition/qicore-encounter" ]
      },
      "status": "finished",
      "class": {
        "system": "http://terminology.hl7.org/CodeSystem/v3-ActCode",
        "code": "IMP",
        "display": "inpatient encounter"
      },
      "type": [ {
        "coding": [ {
          "system": "http://snomed.info/sct",
          "code": "183452005"
        } ]
      } ],
      "subject": {
        "reference": "Patient/94236514-cb6c-4e1b-8235-69e8ccc4ad05"
      },
      "period": {
        "start": "2026-02-01T08:00:00Z",
        "end": "2026-02-05T08:15:00.000+00:00"
      }
    },
    "request": {
      "method": "PUT",
      "url": "Encounter/0f0dc162-4a98-4168-8867-6f4ebece294f"
    }
  }, {
    "fullUrl": "https://madie.cms.gov/Procedure/249dffe3-e971-49be-9dd6-abda04225f31",
    "resource": {
      "resourceType": "Procedure",
      "id": "249dffe3-e971-49be-9dd6-abda04225f31",
      "meta": {
        "profile": [ "http://hl7.org/fhir/us/qicore/StructureDefinition/qicore-procedure" ]
      },
      "extension": [ {
        "url": "http://hl7.org/fhir/us/qicore/StructureDefinition/qicore-recorded",
        "valueDateTime": "2014-04-05T13:35:00Z"
      } ],
      "status": "completed",
      "code": {
        "coding": [ {
          "system": "http://snomed.info/sct",
          "code": "10745001"
        } ]
      },
      "subject": {
        "reference": "Patient/94236514-cb6c-4e1b-8235-69e8ccc4ad05"
      },
      "performedPeriod": {
        "start": "2026-02-01T08:00:00Z",
        "end": "2026-02-05T08:15:00.000+00:00"
      }
    },
    "request": {
      "method": "PUT",
      "url": "Procedure/249dffe3-e971-49be-9dd6-abda04225f31"
    }
  }, {
    "fullUrl": "https://madie.cms.gov/Coverage/9dfbdeb4-a1b3-49d0-ae76-cafb9da98bc7",
    "resource": {
      "resourceType": "Coverage",
      "id": "9dfbdeb4-a1b3-49d0-ae76-cafb9da98bc7",
      "meta": {
        "profile": [ "http://hl7.org/fhir/us/qicore/StructureDefinition/qicore-coverage" ]
      },
      "status": "active",
      "subscriberId": "523435",
      "beneficiary": {
        "reference": "Patient/94236514-cb6c-4e1b-8235-69e8ccc4ad05"
      },
      "relationship": {
        "coding": [ {
          "system": "http://terminology.hl7.org/CodeSystem/subscriber-relationship",
          "code": "self"
        } ]
      },
      "payor": [ {
        "reference": "Organization/acb91072-0bd1-4381-8fdc-faac2491cafb"
      } ]
    },
    "request": {
      "method": "PUT",
      "url": "Coverage/9dfbdeb4-a1b3-49d0-ae76-cafb9da98bc7"
    }
  }, {
    "fullUrl": "https://madie.cms.gov/Organization/acb91072-0bd1-4381-8fdc-faac2491cafb",
    "resource": {
      "resourceType": "Organization",
      "id": "acb91072-0bd1-4381-8fdc-faac2491cafb",
      "meta": {
        "profile": [ "http://hl7.org/fhir/us/qicore/StructureDefinition/qicore-organization" ]
      },
      "identifier": [ {
        "use": "temp",
        "system": "urn:oid:2.16.840.1.113883.4.4",
        "value": "21-3259825"
      } ],
      "active": true,
      "type": [ {
        "coding": [ {
          "system": "http://terminology.hl7.org/CodeSystem/organization-type",
          "code": "pay",
          "display": "Payer"
        } ]
      } ],
      "name": "Blue Cross Blue Shield of Texas",
      "telecom": [ {
        "system": "phone",
        "value": "(+1) 972-766-6900"
      } ],
      "address": [ {
        "use": "billing",
        "type": "postal",
        "line": [ "P.O. Box 660044" ],
        "city": "Dallas",
        "state": "TX",
        "postalCode": "75266-0044",
        "country": "USA"
      } ]
    },
    "request": {
      "method": "PUT",
      "url": "Organization/acb91072-0bd1-4381-8fdc-faac2491cafb"
    }
  }, {
    "fullUrl": "https://madie.cms.gov/Practitioner/2e1f5d2b-5bf6-4687-ad6e-5ffbe36fb266",
    "resource": {
      "resourceType": "Practitioner",
      "id": "2e1f5d2b-5bf6-4687-ad6e-5ffbe36fb266",
      "meta": {
        "profile": [ "http://hl7.org/fhir/us/qicore/StructureDefinition/qicore-practitioner" ]
      },
      "identifier": [ {
        "system": "http://hl7.org/fhir/sid/us-npi",
        "value": "1234567890"
      } ],
      "name": [ {
        "family": "Evil",
        "prefix": [ "Dr" ]
      } ]
    },
    "request": {
      "method": "PUT",
      "url": "Practitioner/2e1f5d2b-5bf6-4687-ad6e-5ffbe36fb266"
    }
  }, {
    "fullUrl": "https://madie.cms.gov/MeasureReport/ef5535f8-1b88-4e38-af0f-4a987ccd36c5",
    "resource": {
      "resourceType": "MeasureReport",
      "id": "ef5535f8-1b88-4e38-af0f-4a987ccd36c5",
      "meta": {
        "profile": [ "http://hl7.org/fhir/us/cqfmeasures/StructureDefinition/test-case-cqfm" ]
      },
      "contained": [ {
        "resourceType": "Parameters",
        "id": "3005254b-be82-4c64-8785-df1efa1a2edf-parameters",
        "parameter": [ {
          "name": "subject",
          "valueString": "94236514-cb6c-4e1b-8235-69e8ccc4ad05"
        } ]
      } ],
      "extension": [ {
        "url": "http://hl7.org/fhir/StructureDefinition/cqf-inputParameters",
        "valueReference": {
          "reference": "#3005254b-be82-4c64-8785-df1efa1a2edf-parameters"
        }
      }, {
        "url": "http://hl7.org/fhir/us/cqfmeasures/StructureDefinition/cqfm-testCaseDescription",
        "valueMarkdown": "2 Time of Delivery assessments.  1st one is during the encounter.  The 2nd one is after the encounter.  1st:  Result date/Time of delivery (based on assessment performed) is equal to encounter end. 2nd:  Result date/time after encounter.\n"
      } ],
      "modifierExtension": [ {
        "url": "http://hl7.org/fhir/us/cqfmeasures/StructureDefinition/cqfm-isTestCase",
        "valueBoolean": true
      } ],
      "status": "complete",
      "type": "individual",
      "measure": "https://madie.cms.gov/Measure/CMS1028FHIRPCSevereOBComps",
      "period": {
        "start": "2026-01-01",
        "end": "2026-12-31"
      },
      "group": [ {
        "id": "Group_1",
        "population": [ {
          "id": "InitialPopulation_1",
          "code": {
            "coding": [ {
              "system": "http://terminology.hl7.org/CodeSystem/measure-population",
              "code": "initial-population",
              "display": "Initial Population"
            } ]
          },
          "count": 1
        }, {
          "id": "Denominator_1",
          "code": {
            "coding": [ {
              "system": "http://terminology.hl7.org/CodeSystem/measure-population",
              "code": "denominator",
              "display": "Denominator"
            } ]
          },
          "count": 1
        }, {
          "id": "Numerator_1",
          "code": {
            "coding": [ {
              "system": "http://terminology.hl7.org/CodeSystem/measure-population",
              "code": "numerator",
              "display": "Numerator"
            } ]
          },
          "count": 0
        }, {
          "id": "NumeratorExclusion_1",
          "code": {
            "coding": [ {
              "system": "http://terminology.hl7.org/CodeSystem/measure-population",
              "code": "numerator-exclusion",
              "display": "Numerator Exclusion"
            } ]
          },
          "count": 0
        } ],
        "measureScore": {
          "value": 0.0
        }
      }, {
        "id": "Group_2",
        "population": [ {
          "id": "InitialPopulation_2",
          "code": {
            "coding": [ {
              "system": "http://terminology.hl7.org/CodeSystem/measure-population",
              "code": "initial-population",
              "display": "Initial Population"
            } ]
          },
          "count": 1
        }, {
          "id": "Denominator_2",
          "code": {
            "coding": [ {
              "system": "http://terminology.hl7.org/CodeSystem/measure-population",
              "code": "denominator",
              "display": "Denominator"
            } ]
          },
          "count": 1
        }, {
          "id": "Numerator_2",
          "code": {
            "coding": [ {
              "system": "http://terminology.hl7.org/CodeSystem/measure-population",
              "code": "numerator",
              "display": "Numerator"
            } ]
          },
          "count": 0
        }, {
          "id": "NumeratorExclusion_2",
          "code": {
            "coding": [ {
              "system": "http://terminology.hl7.org/CodeSystem/measure-population",
              "code": "numerator-exclusion",
              "display": "Numerator Exclusion"
            } ]
          },
          "count": 0
        } ],
        "measureScore": {
          "value": 0.0
        }
      } ],
      "evaluatedResource": [ {
        "reference": "Patient/94236514-cb6c-4e1b-8235-69e8ccc4ad05"
      }, {
        "reference": "Observation/b038c23c-88b6-4ce1-9d8d-28a63a0c5268"
      }, {
        "reference": "Observation/b227c9c6-8aaa-4828-8123-b6b89b8d7a1c"
      }, {
        "reference": "Observation/85c3cab6-f6b1-4022-af7e-ab35b5ba947c"
      }, {
        "reference": "Encounter/0f0dc162-4a98-4168-8867-6f4ebece294f"
      }, {
        "reference": "Procedure/249dffe3-e971-49be-9dd6-abda04225f31"
      }, {
        "reference": "Coverage/9dfbdeb4-a1b3-49d0-ae76-cafb9da98bc7"
      }, {
        "reference": "Organization/acb91072-0bd1-4381-8fdc-faac2491cafb"
      }, {
        "reference": "Practitioner/2e1f5d2b-5bf6-4687-ad6e-5ffbe36fb266"
      } ]
    },
    "request": {
      "method": "PUT",
      "url": "MeasureReport/ef5535f8-1b88-4e38-af0f-4a987ccd36c5"
    }
  } ]
}