{"resourceType":"Bundle","id":"tests-081a12b5-6d27-4380-9085-d44680b7bb3b-bundle","type":"transaction","entry":[{"fullUrl":"Patient/081a12b5-6d27-4380-9085-d44680b7bb3b","resource":{"resourceType":"Patient","id":"081a12b5-6d27-4380-9085-d44680b7bb3b","meta":{"profile":["http://hl7.org/fhir/us/qicore/StructureDefinition/qicore-patient"]},"extension":[{"url":"http://hl7.org/fhir/us/core/StructureDefinition/us-core-race","extension":[{"url":"ombCategory","valueCoding":{"system":"urn:oid:2.16.840.1.113883.6.238","code":"2106-3","display":"White","userSelected":true}},{"url":"text","valueString":"White"}]},{"url":"http://hl7.org/fhir/us/core/StructureDefinition/us-core-ethnicity","extension":[{"url":"ombCategory","valueCoding":{"system":"urn:oid:2.16.840.1.113883.6.238","code":"2186-5","display":"Not Hispanic or Latino","userSelected":true}},{"url":"text","valueString":"Not Hispanic or Latino"}]}],"identifier":[{"type":{"coding":[{"system":"http://terminology.hl7.org/CodeSystem/v2-0203","code":"MR"}]},"system":"https://bonnie-fhir.healthit.gov/","value":"657cbdc9b4f1f0343662347a"}],"name":[{"family":"IPOPPass","given":["InptEncDiabeticMedEncClassShortStay"]}],"gender":"female","birthDate":"2008-01-01"},"request":{"method":"PUT","url":"Patient/081a12b5-6d27-4380-9085-d44680b7bb3b"}},{"fullUrl":"Location/03a94b0f-e87c-4717-9fe9-dab2b4608865","resource":{"resourceType":"Location","id":"03a94b0f-e87c-4717-9fe9-dab2b4608865","meta":{"profile":["http://hl7.org/fhir/us/qicore/StructureDefinition/qicore-location"]},"identifier":[{"use":"usual","system":"http://exampleoflocation.com","value":"B1-S.F2"}],"name":"Medical Surgical East, first floor","type":[{"coding":[{"system":"https://www.cdc.gov/nhsn/cdaportal/terminology/codesystem/hsloc.html","code":"1025-6","display":"Trauma Critical Care","userSelected":true}]}]},"request":{"method":"PUT","url":"Location/03a94b0f-e87c-4717-9fe9-dab2b4608865"}},{"fullUrl":"MedicationAdministration/1b6de429-74f3-42e2-9c3d-7405f9ebb71d","resource":{"resourceType":"MedicationAdministration","id":"1b6de429-74f3-42e2-9c3d-7405f9ebb71d","meta":{"profile":["http://hl7.org/fhir/us/qicore/StructureDefinition/qicore-medicationadministration"]},"status":"completed","medicationCodeableConcept":{"coding":[{"system":"http://www.nlm.nih.gov/research/umls/rxnorm","code":"1007184","display":"insulin aspart protamine, human / insulin aspart, human"}]},"subject":{"reference":"Patient/081a12b5-6d27-4380-9085-d44680b7bb3b"},"effectivePeriod":{"start":"2026-01-01T08:00:00Z","end":"2026-01-01T08:15:00Z"}},"request":{"method":"PUT","url":"MedicationAdministration/1b6de429-74f3-42e2-9c3d-7405f9ebb71d"}},{"fullUrl":"MeasureReport/6259786a-e4d4-49d5-97a6-5a5e9f0bcccc","resource":{"resourceType":"MeasureReport","id":"6259786a-e4d4-49d5-97a6-5a5e9f0bcccc","meta":{"profile":["http://hl7.org/fhir/us/cqfmeasures/StructureDefinition/test-case-cqfm"]},"contained":[{"resourceType":"Parameters","id":"f7695ede-21d2-479d-a5e8-35be4213198d-parameters","parameter":[{"name":"subject","valueString":"081a12b5-6d27-4380-9085-d44680b7bb3b"}]}],"extension":[{"url":"http://hl7.org/fhir/StructureDefinition/cqf-inputParameters","valueReference":{"reference":"#f7695ede-21d2-479d-a5e8-35be4213198d-parameters"}},{"url":"http://hl7.org/fhir/us/cqfmeasures/StructureDefinition/cqfm-testCaseDescription","valueMarkdown":"Inpatient encounter with diabetic medication administration - encounter class short stay"}],"modifierExtension":[{"url":"http://hl7.org/fhir/us/cqfmeasures/StructureDefinition/cqfm-isTestCase","valueBoolean":true}],"status":"complete","type":"individual","measure":"https://madie.cms.gov/Measure/NHSNGlycemicControlHypoglycemiaInitialPopulation","period":{"start":"2026-01-01","end":"2026-12-31"},"group":[{"id":"Group_1","population":[{"id":"InitialPopulation_1","code":{"coding":[{"system":"http://terminology.hl7.org/CodeSystem/measure-population","code":"initial-population","display":"Initial Population"}]},"count":1}],"measureScore":{"value":0.0}}],"evaluatedResource":[{"reference":"Patient/081a12b5-6d27-4380-9085-d44680b7bb3b"},{"reference":"Encounter/7541ce26-9a53-4c9a-b354-daec616896ea"},{"reference":"Location/03a94b0f-e87c-4717-9fe9-dab2b4608865"},{"reference":"MedicationAdministration/1b6de429-74f3-42e2-9c3d-7405f9ebb71d"},{"reference":"Coverage/2d6fc195-846b-4d36-bd8a-114bb5949b7e"},{"reference":"Organization/28744f17-1dd6-4892-b0df-e97bbd8ac175"},{"reference":"Practitioner/1be4d46b-8e51-469b-a1d0-401f75078197"}]},"request":{"method":"PUT","url":"MeasureReport/6259786a-e4d4-49d5-97a6-5a5e9f0bcccc"}},{"fullUrl":"Practitioner/1be4d46b-8e51-469b-a1d0-401f75078197","resource":{"resourceType":"Practitioner","id":"1be4d46b-8e51-469b-a1d0-401f75078197","meta":{"profile":["http://hl7.org/fhir/us/qicore/StructureDefinition/qicore-practitioner"]},"identifier":[{"system":"http://hl7.org/fhir/sid/us-npi","value":"0723660813"}],"name":[{"family":"Evil","prefix":["Dr"]}]},"request":{"method":"PUT","url":"Practitioner/1be4d46b-8e51-469b-a1d0-401f75078197"}},{"fullUrl":"Encounter/7541ce26-9a53-4c9a-b354-daec616896ea","resource":{"resourceType":"Encounter","id":"7541ce26-9a53-4c9a-b354-daec616896ea","meta":{"profile":["http://hl7.org/fhir/us/qicore/StructureDefinition/qicore-encounter"]},"status":"entered-in-error","class":{"system":"http://terminology.hl7.org/CodeSystem/v3-ActCode","code":"SS","display":"short stay"},"type":[{"coding":[{"system":"http://snomed.info/sct","version":"2024","code":"32485007","display":"Hospital admission (procedure)","userSelected":true}]}],"subject":{"reference":"Patient/081a12b5-6d27-4380-9085-d44680b7bb3b"},"period":{"start":"2026-01-01T08:00:00Z","end":"2026-01-02T09:15:00Z"},"location":[{"location":{"reference":"Location/03a94b0f-e87c-4717-9fe9-dab2b4608865"},"period":{"start":"2026-01-01T00:00:00Z","end":"2026-01-01T10:01:00Z"}}]},"request":{"method":"PUT","url":"Encounter/7541ce26-9a53-4c9a-b354-daec616896ea"}},{"fullUrl":"Coverage/2d6fc195-846b-4d36-bd8a-114bb5949b7e","resource":{"resourceType":"Coverage","id":"2d6fc195-846b-4d36-bd8a-114bb5949b7e","meta":{"profile":["http://hl7.org/fhir/us/qicore/StructureDefinition/qicore-coverage"]},"identifier":[{"system":"http://benefitsinc.com/certificate","value":"12345"}],"status":"active","type":{"coding":[{"system":"https://nahdo.org/sopt","version":"1.0.1","code":"1","display":"MEDICARE","userSelected":true}]},"subscriberId":"AB9876","beneficiary":{"reference":"Patient/081a12b5-6d27-4380-9085-d44680b7bb3b"},"relationship":{"coding":[{"system":"http://terminology.hl7.org/CodeSystem/subscriber-relationship","code":"self"}]},"payor":[{"reference":"Organization/28744f17-1dd6-4892-b0df-e97bbd8ac175"}]},"request":{"method":"PUT","url":"Coverage/2d6fc195-846b-4d36-bd8a-114bb5949b7e"}},{"fullUrl":"Bundle/657cbdc9b4f1f0343662347a","resource":{"resourceType":"Bundle","id":"657cbdc9b4f1f0343662347a","type":"transaction","entry":[{"fullUrl":"https://madie.cms.gov/Patient/081a12b5-6d27-4380-9085-d44680b7bb3b","resource":{"resourceType":"Patient","id":"081a12b5-6d27-4380-9085-d44680b7bb3b","meta":{"profile":["http://hl7.org/fhir/us/qicore/StructureDefinition/qicore-patient"]},"extension":[{"url":"http://hl7.org/fhir/us/core/StructureDefinition/us-core-race","extension":[{"url":"ombCategory","valueCoding":{"system":"urn:oid:2.16.840.1.113883.6.238","code":"2106-3","display":"White","userSelected":true}},{"url":"text","valueString":"White"}]},{"url":"http://hl7.org/fhir/us/core/StructureDefinition/us-core-ethnicity","extension":[{"url":"ombCategory","valueCoding":{"system":"urn:oid:2.16.840.1.113883.6.238","code":"2186-5","display":"Not Hispanic or Latino","userSelected":true}},{"url":"text","valueString":"Not Hispanic or Latino"}]}],"identifier":[{"type":{"coding":[{"system":"http://terminology.hl7.org/CodeSystem/v2-0203","code":"MR"}]},"system":"https://bonnie-fhir.healthit.gov/","value":"657cbdc9b4f1f0343662347a"}],"name":[{"family":"IPOPPass","given":["InptEncDiabeticMedEncClassShortStay"]}],"gender":"female","birthDate":"2008-01-01"},"request":{"method":"PUT","url":"Patient/081a12b5-6d27-4380-9085-d44680b7bb3b"}},{"fullUrl":"https://madie.cms.gov/Encounter/7541ce26-9a53-4c9a-b354-daec616896ea","resource":{"resourceType":"Encounter","id":"7541ce26-9a53-4c9a-b354-daec616896ea","meta":{"profile":["http://hl7.org/fhir/us/qicore/StructureDefinition/qicore-encounter"]},"status":"entered-in-error","class":{"system":"http://terminology.hl7.org/CodeSystem/v3-ActCode","code":"SS","display":"short stay"},"type":[{"coding":[{"system":"http://snomed.info/sct","version":"2024","code":"32485007","display":"Hospital admission (procedure)","userSelected":true}]}],"subject":{"reference":"Patient/081a12b5-6d27-4380-9085-d44680b7bb3b"},"period":{"start":"2026-01-01T08:00:00Z","end":"2026-01-02T09:15:00Z"},"location":[{"location":{"reference":"Location/03a94b0f-e87c-4717-9fe9-dab2b4608865"},"period":{"start":"2026-01-01T00:00:00Z","end":"2026-01-01T10:01:00Z"}}]},"request":{"method":"PUT","url":"Encounter/7541ce26-9a53-4c9a-b354-daec616896ea"}},{"fullUrl":"https://madie.cms.gov/Location/03a94b0f-e87c-4717-9fe9-dab2b4608865","resource":{"resourceType":"Location","id":"03a94b0f-e87c-4717-9fe9-dab2b4608865","meta":{"profile":["http://hl7.org/fhir/us/qicore/StructureDefinition/qicore-location"]},"identifier":[{"use":"usual","system":"http://exampleoflocation.com","value":"B1-S.F2"}],"name":"Medical Surgical East, first floor","type":[{"coding":[{"system":"https://www.cdc.gov/nhsn/cdaportal/terminology/codesystem/hsloc.html","code":"1025-6","display":"Trauma Critical Care","userSelected":true}]}]},"request":{"method":"PUT","url":"Location/03a94b0f-e87c-4717-9fe9-dab2b4608865"}},{"fullUrl":"https://madie.cms.gov/MedicationAdministration/1b6de429-74f3-42e2-9c3d-7405f9ebb71d","resource":{"resourceType":"MedicationAdministration","id":"1b6de429-74f3-42e2-9c3d-7405f9ebb71d","meta":{"profile":["http://hl7.org/fhir/us/qicore/StructureDefinition/qicore-medicationadministration"]},"status":"completed","medicationCodeableConcept":{"coding":[{"system":"http://www.nlm.nih.gov/research/umls/rxnorm","code":"1007184","display":"insulin aspart protamine, human / insulin aspart, human"}]},"subject":{"reference":"Patient/081a12b5-6d27-4380-9085-d44680b7bb3b"},"effectivePeriod":{"start":"2026-01-01T08:00:00Z","end":"2026-01-01T08:15:00Z"}},"request":{"method":"PUT","url":"MedicationAdministration/1b6de429-74f3-42e2-9c3d-7405f9ebb71d"}},{"fullUrl":"https://madie.cms.gov/Coverage/2d6fc195-846b-4d36-bd8a-114bb5949b7e","resource":{"resourceType":"Coverage","id":"2d6fc195-846b-4d36-bd8a-114bb5949b7e","meta":{"profile":["http://hl7.org/fhir/us/qicore/StructureDefinition/qicore-coverage"]},"identifier":[{"system":"http://benefitsinc.com/certificate","value":"12345"}],"status":"active","type":{"coding":[{"system":"https://nahdo.org/sopt","version":"1.0.1","code":"1","display":"MEDICARE","userSelected":true}]},"subscriberId":"AB9876","beneficiary":{"reference":"Patient/081a12b5-6d27-4380-9085-d44680b7bb3b"},"relationship":{"coding":[{"system":"http://terminology.hl7.org/CodeSystem/subscriber-relationship","code":"self"}]},"payor":[{"reference":"Organization/28744f17-1dd6-4892-b0df-e97bbd8ac175"}]},"request":{"method":"PUT","url":"Coverage/2d6fc195-846b-4d36-bd8a-114bb5949b7e"}},{"fullUrl":"https://madie.cms.gov/Organization/28744f17-1dd6-4892-b0df-e97bbd8ac175","resource":{"resourceType":"Organization","id":"28744f17-1dd6-4892-b0df-e97bbd8ac175","meta":{"profile":["http://hl7.org/fhir/us/qicore/StructureDefinition/qicore-organization"]},"identifier":[{"use":"temp","system":"urn:oid:2.16.840.1.113883.4.4","value":"21-3259825"}],"active":true,"type":[{"coding":[{"system":"http://terminology.hl7.org/CodeSystem/organization-type","code":"pay","display":"Payer"}]}],"name":"Blue Cross Blue Shield of Texas","telecom":[{"system":"phone","value":"(+1) 972-766-6900"}],"address":[{"use":"billing","type":"postal","line":["P.O. Box 660044"],"city":"Dallas","state":"TX","postalCode":"75266-0044","country":"USA"}]},"request":{"method":"PUT","url":"Organization/28744f17-1dd6-4892-b0df-e97bbd8ac175"}},{"fullUrl":"https://madie.cms.gov/Practitioner/1be4d46b-8e51-469b-a1d0-401f75078197","resource":{"resourceType":"Practitioner","id":"1be4d46b-8e51-469b-a1d0-401f75078197","meta":{"profile":["http://hl7.org/fhir/us/qicore/StructureDefinition/qicore-practitioner"]},"identifier":[{"system":"http://hl7.org/fhir/sid/us-npi","value":"0723660813"}],"name":[{"family":"Evil","prefix":["Dr"]}]},"request":{"method":"PUT","url":"Practitioner/1be4d46b-8e51-469b-a1d0-401f75078197"}},{"fullUrl":"https://madie.cms.gov/MeasureReport/6259786a-e4d4-49d5-97a6-5a5e9f0bcccc","resource":{"resourceType":"MeasureReport","id":"6259786a-e4d4-49d5-97a6-5a5e9f0bcccc","meta":{"profile":["http://hl7.org/fhir/us/cqfmeasures/StructureDefinition/test-case-cqfm"]},"contained":[{"resourceType":"Parameters","id":"f7695ede-21d2-479d-a5e8-35be4213198d-parameters","parameter":[{"name":"subject","valueString":"081a12b5-6d27-4380-9085-d44680b7bb3b"}]}],"extension":[{"url":"http://hl7.org/fhir/StructureDefinition/cqf-inputParameters","valueReference":{"reference":"#f7695ede-21d2-479d-a5e8-35be4213198d-parameters"}},{"url":"http://hl7.org/fhir/us/cqfmeasures/StructureDefinition/cqfm-testCaseDescription","valueMarkdown":"Inpatient encounter with diabetic medication administration - encounter class short stay"}],"modifierExtension":[{"url":"http://hl7.org/fhir/us/cqfmeasures/StructureDefinition/cqfm-isTestCase","valueBoolean":true}],"status":"complete","type":"individual","measure":"https://madie.cms.gov/Measure/NHSNGlycemicControlHypoglycemiaInitialPopulation","period":{"start":"2026-01-01","end":"2026-12-31"},"group":[{"id":"Group_1","population":[{"id":"InitialPopulation_1","code":{"coding":[{"system":"http://terminology.hl7.org/CodeSystem/measure-population","code":"initial-population","display":"Initial Population"}]},"count":1}],"measureScore":{"value":0.0}}],"evaluatedResource":[{"reference":"Patient/081a12b5-6d27-4380-9085-d44680b7bb3b"},{"reference":"Encounter/7541ce26-9a53-4c9a-b354-daec616896ea"},{"reference":"Location/03a94b0f-e87c-4717-9fe9-dab2b4608865"},{"reference":"MedicationAdministration/1b6de429-74f3-42e2-9c3d-7405f9ebb71d"},{"reference":"Coverage/2d6fc195-846b-4d36-bd8a-114bb5949b7e"},{"reference":"Organization/28744f17-1dd6-4892-b0df-e97bbd8ac175"},{"reference":"Practitioner/1be4d46b-8e51-469b-a1d0-401f75078197"}]},"request":{"method":"PUT","url":"MeasureReport/6259786a-e4d4-49d5-97a6-5a5e9f0bcccc"}}]},"request":{"method":"PUT","url":"Bundle/657cbdc9b4f1f0343662347a"}},{"fullUrl":"Organization/28744f17-1dd6-4892-b0df-e97bbd8ac175","resource":{"resourceType":"Organization","id":"28744f17-1dd6-4892-b0df-e97bbd8ac175","meta":{"profile":["http://hl7.org/fhir/us/qicore/StructureDefinition/qicore-organization"]},"identifier":[{"use":"temp","system":"urn:oid:2.16.840.1.113883.4.4","value":"21-3259825"}],"active":true,"type":[{"coding":[{"system":"http://terminology.hl7.org/CodeSystem/organization-type","code":"pay","display":"Payer"}]}],"name":"Blue Cross Blue Shield of Texas","telecom":[{"system":"phone","value":"(+1) 972-766-6900"}],"address":[{"use":"billing","type":"postal","line":["P.O. Box 660044"],"city":"Dallas","state":"TX","postalCode":"75266-0044","country":"USA"}]},"request":{"method":"PUT","url":"Organization/28744f17-1dd6-4892-b0df-e97bbd8ac175"}}]}