{"resourceType":"Bundle","id":"tests-b247e1af-4d1a-42c1-be34-7c74987da0bd-bundle","type":"transaction","entry":[{"fullUrl":"Condition/fd302383-346d-4618-936b-9464d101ca96","resource":{"resourceType":"Condition","id":"fd302383-346d-4618-936b-9464d101ca96","meta":{"profile":["http://hl7.org/fhir/us/qicore/StructureDefinition/qicore-condition-problems-health-concerns"]},"clinicalStatus":{"coding":[{"system":"http://terminology.hl7.org/CodeSystem/condition-clinical","code":"active","display":"Active","userSelected":true}]},"verificationStatus":{"coding":[{"system":"http://terminology.hl7.org/CodeSystem/condition-ver-status","code":"confirmed","display":"confirmed","userSelected":true}]},"category":[{"coding":[{"system":"http://terminology.hl7.org/CodeSystem/condition-category","code":"encounter-diagnosis","display":"Encounter Diagnosis"},{"system":"http://snomed.info/sct","code":"439401001","display":"Diagnosis"},{"system":"http://terminology.hl7.org/CodeSystem/condition-category","code":"problem-list-item","display":"Problem List Item"}]}],"code":{"coding":[{"system":"http://snomed.info/sct","version":"2023-09","code":"46635009","display":"Diabetes mellitus type 1","userSelected":true}]},"subject":{"reference":"Patient/b247e1af-4d1a-42c1-be34-7c74987da0bd"},"onsetDateTime":"2026-01-01T08:00:00Z","recordedDate":"2026-01-01T08:10:00Z"},"request":{"method":"PUT","url":"Condition/fd302383-346d-4618-936b-9464d101ca96"}},{"fullUrl":"Patient/b247e1af-4d1a-42c1-be34-7c74987da0bd","resource":{"resourceType":"Patient","id":"b247e1af-4d1a-42c1-be34-7c74987da0bd","meta":{"profile":["http://hl7.org/fhir/us/qicore/StructureDefinition/qicore-patient"]},"extension":[{"url":"http://hl7.org/fhir/us/core/StructureDefinition/us-core-race","extension":[{"url":"ombCategory","valueCoding":{"system":"urn:oid:2.16.840.1.113883.6.238","code":"2106-3","display":"White","userSelected":true}},{"url":"text","valueString":"White"}]},{"url":"http://hl7.org/fhir/us/core/StructureDefinition/us-core-ethnicity","extension":[{"url":"ombCategory","valueCoding":{"system":"urn:oid:2.16.840.1.113883.6.238","code":"2186-5","display":"Not Hispanic or Latino","userSelected":true}},{"url":"text","valueString":"Not Hispanic or Latino"}]}],"identifier":[{"type":{"coding":[{"system":"http://terminology.hl7.org/CodeSystem/v2-0203","code":"MR"}]},"system":"https://bonnie-fhir.healthit.gov/","value":"657cbdc9b4f1f0343662347a"}],"name":[{"family":"ConditionPass","given":["Condition"]}],"gender":"female","birthDate":"2008-01-01"},"request":{"method":"PUT","url":"Patient/b247e1af-4d1a-42c1-be34-7c74987da0bd"}},{"fullUrl":"MeasureReport/367741cb-7525-48b5-96b1-5a33f8f1edfe","resource":{"resourceType":"MeasureReport","id":"367741cb-7525-48b5-96b1-5a33f8f1edfe","meta":{"profile":["http://hl7.org/fhir/us/cqfmeasures/StructureDefinition/test-case-cqfm"]},"contained":[{"resourceType":"Parameters","id":"0b1c7c97-5340-4783-bd84-57a4deddb922-parameters","parameter":[{"name":"subject","valueString":"b247e1af-4d1a-42c1-be34-7c74987da0bd"}]}],"extension":[{"url":"http://hl7.org/fhir/StructureDefinition/cqf-inputParameters","valueReference":{"reference":"#0b1c7c97-5340-4783-bd84-57a4deddb922-parameters"}},{"url":"http://hl7.org/fhir/us/cqfmeasures/StructureDefinition/cqfm-testCaseDescription","valueMarkdown":"Inpatient encounter with diabetic medication during MP with SDE condition"}],"modifierExtension":[{"url":"http://hl7.org/fhir/us/cqfmeasures/StructureDefinition/cqfm-isTestCase","valueBoolean":true}],"status":"complete","type":"individual","measure":"https://madie.cms.gov/Measure/NHSNGlycemicControlHypoglycemiaInitialPopulation","period":{"start":"2026-01-01","end":"2026-12-31"},"group":[{"id":"Group_1","population":[{"id":"InitialPopulation_1","code":{"coding":[{"system":"http://terminology.hl7.org/CodeSystem/measure-population","code":"initial-population","display":"Initial Population"}]},"count":1}],"measureScore":{"value":0.0}}],"evaluatedResource":[{"reference":"Patient/b247e1af-4d1a-42c1-be34-7c74987da0bd"},{"reference":"Encounter/1f66a965-d5e0-4ba5-b342-37252e157749"},{"reference":"Location/ec07600c-725e-44f8-8bea-80bda0e8b665"},{"reference":"MedicationRequest/399c88c9-03c6-40d2-a562-6d202460f52f"},{"reference":"Condition/fd302383-346d-4618-936b-9464d101ca96"},{"reference":"Coverage/2e87dc6b-38e0-44d0-a0e8-6b8f825e26da"},{"reference":"Organization/7a9e48c0-7567-41e8-afef-7cc65c70993e"},{"reference":"Practitioner/39e06956-76d1-4eff-88e1-6c22254ab895"}]},"request":{"method":"PUT","url":"MeasureReport/367741cb-7525-48b5-96b1-5a33f8f1edfe"}},{"fullUrl":"Encounter/1f66a965-d5e0-4ba5-b342-37252e157749","resource":{"resourceType":"Encounter","id":"1f66a965-d5e0-4ba5-b342-37252e157749","meta":{"profile":["http://hl7.org/fhir/us/qicore/StructureDefinition/qicore-encounter"]},"status":"finished","class":{"system":"http://terminology.hl7.org/CodeSystem/v3-ActCode","code":"ACUTE","display":"inpatient acute"},"type":[{"coding":[{"system":"http://snomed.info/sct","version":"2024","code":"32485007","display":"Hospital admission (procedure)","userSelected":true}]}],"subject":{"reference":"Patient/b247e1af-4d1a-42c1-be34-7c74987da0bd"},"period":{"start":"2026-01-01T08:00:00Z","end":"2026-01-02T09:15:00Z"}},"request":{"method":"PUT","url":"Encounter/1f66a965-d5e0-4ba5-b342-37252e157749"}},{"fullUrl":"Location/ec07600c-725e-44f8-8bea-80bda0e8b665","resource":{"resourceType":"Location","id":"ec07600c-725e-44f8-8bea-80bda0e8b665","meta":{"profile":["http://hl7.org/fhir/us/qicore/StructureDefinition/qicore-location"]},"identifier":[{"use":"usual","system":"http://exampleoflocation.com","value":"B1-S.F2"}],"name":"Medical Surgical East, first floor","type":[{"coding":[{"system":"https://www.cdc.gov/nhsn/cdaportal/terminology/codesystem/hsloc.html","code":"1028-0","display":"Medical Cardiac Critical Care","userSelected":true}]}]},"request":{"method":"PUT","url":"Location/ec07600c-725e-44f8-8bea-80bda0e8b665"}},{"fullUrl":"Organization/7a9e48c0-7567-41e8-afef-7cc65c70993e","resource":{"resourceType":"Organization","id":"7a9e48c0-7567-41e8-afef-7cc65c70993e","meta":{"profile":["http://hl7.org/fhir/us/qicore/StructureDefinition/qicore-organization"]},"identifier":[{"use":"temp","system":"urn:oid:2.16.840.1.113883.4.4","value":"21-3259825"}],"active":true,"type":[{"coding":[{"system":"http://terminology.hl7.org/CodeSystem/organization-type","code":"pay","display":"Payer"}]}],"name":"Blue Cross Blue Shield of Texas","telecom":[{"system":"phone","value":"(+1) 972-766-6900"}],"address":[{"use":"billing","type":"postal","line":["P.O. Box 660044"],"city":"Dallas","state":"TX","postalCode":"75266-0044","country":"USA"}]},"request":{"method":"PUT","url":"Organization/7a9e48c0-7567-41e8-afef-7cc65c70993e"}},{"fullUrl":"MedicationRequest/399c88c9-03c6-40d2-a562-6d202460f52f","resource":{"resourceType":"MedicationRequest","id":"399c88c9-03c6-40d2-a562-6d202460f52f","meta":{"profile":["http://hl7.org/fhir/us/qicore/StructureDefinition/qicore-medicationrequest"]},"status":"completed","intent":"order","medicationCodeableConcept":{"coding":[{"system":"http://www.nlm.nih.gov/research/umls/rxnorm","version":"06052023","code":"1007184"}]},"subject":{"reference":"Patient/b247e1af-4d1a-42c1-be34-7c74987da0bd"},"authoredOn":"2026-01-01T08:15:00Z","requester":{"reference":"Practitioner/33d87640-6b2a-40b0-ab11-542478a88d5a"},"dosageInstruction":[{"timing":{"repeat":{"boundsPeriod":{"start":"2025-01-01T08:15:00Z"}}}}]},"request":{"method":"PUT","url":"MedicationRequest/399c88c9-03c6-40d2-a562-6d202460f52f"}},{"fullUrl":"Coverage/2e87dc6b-38e0-44d0-a0e8-6b8f825e26da","resource":{"resourceType":"Coverage","id":"2e87dc6b-38e0-44d0-a0e8-6b8f825e26da","meta":{"profile":["http://hl7.org/fhir/us/qicore/StructureDefinition/qicore-coverage"]},"identifier":[{"system":"http://benefitsinc.com/certificate","value":"12345"}],"status":"active","type":{"coding":[{"system":"https://nahdo.org/sopt","version":"1.0.1","code":"1","display":"MEDICARE","userSelected":true}]},"subscriberId":"AB9876","beneficiary":{"reference":"Patient/b247e1af-4d1a-42c1-be34-7c74987da0bd"},"relationship":{"coding":[{"system":"http://terminology.hl7.org/CodeSystem/subscriber-relationship","code":"self"}]},"payor":[{"reference":"Organization/7a9e48c0-7567-41e8-afef-7cc65c70993e"}]},"request":{"method":"PUT","url":"Coverage/2e87dc6b-38e0-44d0-a0e8-6b8f825e26da"}},{"fullUrl":"Practitioner/39e06956-76d1-4eff-88e1-6c22254ab895","resource":{"resourceType":"Practitioner","id":"39e06956-76d1-4eff-88e1-6c22254ab895","meta":{"profile":["http://hl7.org/fhir/us/qicore/StructureDefinition/qicore-practitioner"]},"identifier":[{"system":"http://hl7.org/fhir/sid/us-npi","value":"0723660813"}],"name":[{"family":"Evil","prefix":["Dr"]}]},"request":{"method":"PUT","url":"Practitioner/39e06956-76d1-4eff-88e1-6c22254ab895"}},{"fullUrl":"Bundle/657cbdc9b4f1f0343662347a","resource":{"resourceType":"Bundle","id":"657cbdc9b4f1f0343662347a","type":"transaction","entry":[{"fullUrl":"https://madie.cms.gov/Patient/b247e1af-4d1a-42c1-be34-7c74987da0bd","resource":{"resourceType":"Patient","id":"b247e1af-4d1a-42c1-be34-7c74987da0bd","meta":{"profile":["http://hl7.org/fhir/us/qicore/StructureDefinition/qicore-patient"]},"extension":[{"url":"http://hl7.org/fhir/us/core/StructureDefinition/us-core-race","extension":[{"url":"ombCategory","valueCoding":{"system":"urn:oid:2.16.840.1.113883.6.238","code":"2106-3","display":"White","userSelected":true}},{"url":"text","valueString":"White"}]},{"url":"http://hl7.org/fhir/us/core/StructureDefinition/us-core-ethnicity","extension":[{"url":"ombCategory","valueCoding":{"system":"urn:oid:2.16.840.1.113883.6.238","code":"2186-5","display":"Not Hispanic or Latino","userSelected":true}},{"url":"text","valueString":"Not Hispanic or Latino"}]}],"identifier":[{"type":{"coding":[{"system":"http://terminology.hl7.org/CodeSystem/v2-0203","code":"MR"}]},"system":"https://bonnie-fhir.healthit.gov/","value":"657cbdc9b4f1f0343662347a"}],"name":[{"family":"ConditionPass","given":["Condition"]}],"gender":"female","birthDate":"2008-01-01"},"request":{"method":"PUT","url":"Patient/b247e1af-4d1a-42c1-be34-7c74987da0bd"}},{"fullUrl":"https://madie.cms.gov/Encounter/1f66a965-d5e0-4ba5-b342-37252e157749","resource":{"resourceType":"Encounter","id":"1f66a965-d5e0-4ba5-b342-37252e157749","meta":{"profile":["http://hl7.org/fhir/us/qicore/StructureDefinition/qicore-encounter"]},"status":"finished","class":{"system":"http://terminology.hl7.org/CodeSystem/v3-ActCode","code":"ACUTE","display":"inpatient acute"},"type":[{"coding":[{"system":"http://snomed.info/sct","version":"2024","code":"32485007","display":"Hospital admission (procedure)","userSelected":true}]}],"subject":{"reference":"Patient/b247e1af-4d1a-42c1-be34-7c74987da0bd"},"period":{"start":"2026-01-01T08:00:00Z","end":"2026-01-02T09:15:00Z"}},"request":{"method":"PUT","url":"Encounter/1f66a965-d5e0-4ba5-b342-37252e157749"}},{"fullUrl":"https://madie.cms.gov/Location/ec07600c-725e-44f8-8bea-80bda0e8b665","resource":{"resourceType":"Location","id":"ec07600c-725e-44f8-8bea-80bda0e8b665","meta":{"profile":["http://hl7.org/fhir/us/qicore/StructureDefinition/qicore-location"]},"identifier":[{"use":"usual","system":"http://exampleoflocation.com","value":"B1-S.F2"}],"name":"Medical Surgical East, first floor","type":[{"coding":[{"system":"https://www.cdc.gov/nhsn/cdaportal/terminology/codesystem/hsloc.html","code":"1028-0","display":"Medical Cardiac Critical Care","userSelected":true}]}]},"request":{"method":"PUT","url":"Location/ec07600c-725e-44f8-8bea-80bda0e8b665"}},{"fullUrl":"https://madie.cms.gov/MedicationRequest/399c88c9-03c6-40d2-a562-6d202460f52f","resource":{"resourceType":"MedicationRequest","id":"399c88c9-03c6-40d2-a562-6d202460f52f","meta":{"profile":["http://hl7.org/fhir/us/qicore/StructureDefinition/qicore-medicationrequest"]},"status":"completed","intent":"order","medicationCodeableConcept":{"coding":[{"system":"http://www.nlm.nih.gov/research/umls/rxnorm","version":"06052023","code":"1007184"}]},"subject":{"reference":"Patient/b247e1af-4d1a-42c1-be34-7c74987da0bd"},"authoredOn":"2026-01-01T08:15:00Z","requester":{"reference":"Practitioner/33d87640-6b2a-40b0-ab11-542478a88d5a"},"dosageInstruction":[{"timing":{"repeat":{"boundsPeriod":{"start":"2025-01-01T08:15:00Z"}}}}]},"request":{"method":"PUT","url":"MedicationRequest/399c88c9-03c6-40d2-a562-6d202460f52f"}},{"fullUrl":"https://madie.cms.gov/Condition/fd302383-346d-4618-936b-9464d101ca96","resource":{"resourceType":"Condition","id":"fd302383-346d-4618-936b-9464d101ca96","meta":{"profile":["http://hl7.org/fhir/us/qicore/StructureDefinition/qicore-condition-problems-health-concerns"]},"clinicalStatus":{"coding":[{"system":"http://terminology.hl7.org/CodeSystem/condition-clinical","code":"active","display":"Active","userSelected":true}]},"verificationStatus":{"coding":[{"system":"http://terminology.hl7.org/CodeSystem/condition-ver-status","code":"confirmed","display":"confirmed","userSelected":true}]},"category":[{"coding":[{"system":"http://terminology.hl7.org/CodeSystem/condition-category","code":"encounter-diagnosis","display":"Encounter Diagnosis"},{"system":"http://snomed.info/sct","code":"439401001","display":"Diagnosis"},{"system":"http://terminology.hl7.org/CodeSystem/condition-category","code":"problem-list-item","display":"Problem List Item"}]}],"code":{"coding":[{"system":"http://snomed.info/sct","version":"2023-09","code":"46635009","display":"Diabetes mellitus type 1","userSelected":true}]},"subject":{"reference":"Patient/b247e1af-4d1a-42c1-be34-7c74987da0bd"},"onsetDateTime":"2026-01-01T08:00:00Z","recordedDate":"2026-01-01T08:10:00Z"},"request":{"method":"PUT","url":"Condition/fd302383-346d-4618-936b-9464d101ca96"}},{"fullUrl":"https://madie.cms.gov/Coverage/2e87dc6b-38e0-44d0-a0e8-6b8f825e26da","resource":{"resourceType":"Coverage","id":"2e87dc6b-38e0-44d0-a0e8-6b8f825e26da","meta":{"profile":["http://hl7.org/fhir/us/qicore/StructureDefinition/qicore-coverage"]},"identifier":[{"system":"http://benefitsinc.com/certificate","value":"12345"}],"status":"active","type":{"coding":[{"system":"https://nahdo.org/sopt","version":"1.0.1","code":"1","display":"MEDICARE","userSelected":true}]},"subscriberId":"AB9876","beneficiary":{"reference":"Patient/b247e1af-4d1a-42c1-be34-7c74987da0bd"},"relationship":{"coding":[{"system":"http://terminology.hl7.org/CodeSystem/subscriber-relationship","code":"self"}]},"payor":[{"reference":"Organization/7a9e48c0-7567-41e8-afef-7cc65c70993e"}]},"request":{"method":"PUT","url":"Coverage/2e87dc6b-38e0-44d0-a0e8-6b8f825e26da"}},{"fullUrl":"https://madie.cms.gov/Organization/7a9e48c0-7567-41e8-afef-7cc65c70993e","resource":{"resourceType":"Organization","id":"7a9e48c0-7567-41e8-afef-7cc65c70993e","meta":{"profile":["http://hl7.org/fhir/us/qicore/StructureDefinition/qicore-organization"]},"identifier":[{"use":"temp","system":"urn:oid:2.16.840.1.113883.4.4","value":"21-3259825"}],"active":true,"type":[{"coding":[{"system":"http://terminology.hl7.org/CodeSystem/organization-type","code":"pay","display":"Payer"}]}],"name":"Blue Cross Blue Shield of Texas","telecom":[{"system":"phone","value":"(+1) 972-766-6900"}],"address":[{"use":"billing","type":"postal","line":["P.O. Box 660044"],"city":"Dallas","state":"TX","postalCode":"75266-0044","country":"USA"}]},"request":{"method":"PUT","url":"Organization/7a9e48c0-7567-41e8-afef-7cc65c70993e"}},{"fullUrl":"https://madie.cms.gov/Practitioner/39e06956-76d1-4eff-88e1-6c22254ab895","resource":{"resourceType":"Practitioner","id":"39e06956-76d1-4eff-88e1-6c22254ab895","meta":{"profile":["http://hl7.org/fhir/us/qicore/StructureDefinition/qicore-practitioner"]},"identifier":[{"system":"http://hl7.org/fhir/sid/us-npi","value":"0723660813"}],"name":[{"family":"Evil","prefix":["Dr"]}]},"request":{"method":"PUT","url":"Practitioner/39e06956-76d1-4eff-88e1-6c22254ab895"}},{"fullUrl":"https://madie.cms.gov/MeasureReport/367741cb-7525-48b5-96b1-5a33f8f1edfe","resource":{"resourceType":"MeasureReport","id":"367741cb-7525-48b5-96b1-5a33f8f1edfe","meta":{"profile":["http://hl7.org/fhir/us/cqfmeasures/StructureDefinition/test-case-cqfm"]},"contained":[{"resourceType":"Parameters","id":"0b1c7c97-5340-4783-bd84-57a4deddb922-parameters","parameter":[{"name":"subject","valueString":"b247e1af-4d1a-42c1-be34-7c74987da0bd"}]}],"extension":[{"url":"http://hl7.org/fhir/StructureDefinition/cqf-inputParameters","valueReference":{"reference":"#0b1c7c97-5340-4783-bd84-57a4deddb922-parameters"}},{"url":"http://hl7.org/fhir/us/cqfmeasures/StructureDefinition/cqfm-testCaseDescription","valueMarkdown":"Inpatient encounter with diabetic medication during MP with SDE condition"}],"modifierExtension":[{"url":"http://hl7.org/fhir/us/cqfmeasures/StructureDefinition/cqfm-isTestCase","valueBoolean":true}],"status":"complete","type":"individual","measure":"https://madie.cms.gov/Measure/NHSNGlycemicControlHypoglycemiaInitialPopulation","period":{"start":"2026-01-01","end":"2026-12-31"},"group":[{"id":"Group_1","population":[{"id":"InitialPopulation_1","code":{"coding":[{"system":"http://terminology.hl7.org/CodeSystem/measure-population","code":"initial-population","display":"Initial Population"}]},"count":1}],"measureScore":{"value":0.0}}],"evaluatedResource":[{"reference":"Patient/b247e1af-4d1a-42c1-be34-7c74987da0bd"},{"reference":"Encounter/1f66a965-d5e0-4ba5-b342-37252e157749"},{"reference":"Location/ec07600c-725e-44f8-8bea-80bda0e8b665"},{"reference":"MedicationRequest/399c88c9-03c6-40d2-a562-6d202460f52f"},{"reference":"Condition/fd302383-346d-4618-936b-9464d101ca96"},{"reference":"Coverage/2e87dc6b-38e0-44d0-a0e8-6b8f825e26da"},{"reference":"Organization/7a9e48c0-7567-41e8-afef-7cc65c70993e"},{"reference":"Practitioner/39e06956-76d1-4eff-88e1-6c22254ab895"}]},"request":{"method":"PUT","url":"MeasureReport/367741cb-7525-48b5-96b1-5a33f8f1edfe"}}]},"request":{"method":"PUT","url":"Bundle/657cbdc9b4f1f0343662347a"}}]}