{"resourceType":"Bundle","id":"tests-2dabc75c-cce7-4337-a92f-bf0d60546b5a-bundle","type":"transaction","entry":[{"fullUrl":"Coverage/16e72d99-95bb-4de8-93b1-305cb857faa2","resource":{"resourceType":"Coverage","id":"16e72d99-95bb-4de8-93b1-305cb857faa2","meta":{"profile":["http://hl7.org/fhir/us/qicore/StructureDefinition/qicore-coverage"]},"identifier":[{"system":"http://benefitsinc.com/certificate","value":"12345"}],"status":"active","type":{"coding":[{"system":"https://nahdo.org/sopt","version":"1.0.1","code":"1","display":"MEDICARE","userSelected":true}]},"subscriberId":"AB9876","beneficiary":{"reference":"Patient/2dabc75c-cce7-4337-a92f-bf0d60546b5a"},"relationship":{"coding":[{"system":"http://terminology.hl7.org/CodeSystem/subscriber-relationship","code":"self"}]},"payor":[{"reference":"Organization/8bede79f-5e2e-4469-a92e-b64b354a0eae"}]},"request":{"method":"PUT","url":"Coverage/16e72d99-95bb-4de8-93b1-305cb857faa2"}},{"fullUrl":"MeasureReport/7268660b-f223-4c82-b9db-0d5c08287e55","resource":{"resourceType":"MeasureReport","id":"7268660b-f223-4c82-b9db-0d5c08287e55","meta":{"profile":["http://hl7.org/fhir/us/cqfmeasures/StructureDefinition/test-case-cqfm"]},"contained":[{"resourceType":"Parameters","id":"8937db85-c9f6-4149-8572-759cbe47f7ad-parameters","parameter":[{"name":"subject","valueString":"2dabc75c-cce7-4337-a92f-bf0d60546b5a"}]}],"extension":[{"url":"http://hl7.org/fhir/StructureDefinition/cqf-inputParameters","valueReference":{"reference":"#8937db85-c9f6-4149-8572-759cbe47f7ad-parameters"}},{"url":"http://hl7.org/fhir/us/cqfmeasures/StructureDefinition/cqfm-testCaseDescription","valueMarkdown":"Inpatient encounter with diabetic medication during MP with SDE blood glucose effective datetime. "}],"modifierExtension":[{"url":"http://hl7.org/fhir/us/cqfmeasures/StructureDefinition/cqfm-isTestCase","valueBoolean":true}],"status":"complete","type":"individual","measure":"https://madie.cms.gov/Measure/NHSNGlycemicControlHypoglycemiaInitialPopulation","period":{"start":"2026-01-01","end":"2026-12-31"},"group":[{"id":"Group_1","population":[{"id":"InitialPopulation_1","code":{"coding":[{"system":"http://terminology.hl7.org/CodeSystem/measure-population","code":"initial-population","display":"Initial Population"}]},"count":1}],"measureScore":{"value":0.0}}],"evaluatedResource":[{"reference":"Patient/2dabc75c-cce7-4337-a92f-bf0d60546b5a"},{"reference":"Encounter/6bab4e7f-b72f-4534-82ca-d5a58e611fe3"},{"reference":"Location/4090222d-4453-4ea8-85f0-010dcc41ff7c"},{"reference":"MedicationRequest/997fb88b-34d0-4fbf-bdbe-21ca803cd69c"},{"reference":"Observation/55740553-8732-4c32-abd6-5073d0e47a10"},{"reference":"Coverage/16e72d99-95bb-4de8-93b1-305cb857faa2"},{"reference":"Organization/8bede79f-5e2e-4469-a92e-b64b354a0eae"},{"reference":"Practitioner/3ce7747c-714e-448b-bc50-012398828fd6"}]},"request":{"method":"PUT","url":"MeasureReport/7268660b-f223-4c82-b9db-0d5c08287e55"}},{"fullUrl":"Location/4090222d-4453-4ea8-85f0-010dcc41ff7c","resource":{"resourceType":"Location","id":"4090222d-4453-4ea8-85f0-010dcc41ff7c","meta":{"profile":["http://hl7.org/fhir/us/qicore/StructureDefinition/qicore-location"]},"identifier":[{"use":"usual","system":"http://exampleoflocation.com","value":"B1-S.F2"}],"name":"Medical Surgical East, first floor","type":[{"coding":[{"system":"https://www.cdc.gov/nhsn/cdaportal/terminology/codesystem/hsloc.html","code":"1028-0","display":"Medical Cardiac Critical Care","userSelected":true}]}]},"request":{"method":"PUT","url":"Location/4090222d-4453-4ea8-85f0-010dcc41ff7c"}},{"fullUrl":"Practitioner/3ce7747c-714e-448b-bc50-012398828fd6","resource":{"resourceType":"Practitioner","id":"3ce7747c-714e-448b-bc50-012398828fd6","meta":{"profile":["http://hl7.org/fhir/us/qicore/StructureDefinition/qicore-practitioner"]},"identifier":[{"system":"http://hl7.org/fhir/sid/us-npi","value":"0723660813"}],"name":[{"family":"Evil","prefix":["Dr"]}]},"request":{"method":"PUT","url":"Practitioner/3ce7747c-714e-448b-bc50-012398828fd6"}},{"fullUrl":"MedicationRequest/997fb88b-34d0-4fbf-bdbe-21ca803cd69c","resource":{"resourceType":"MedicationRequest","id":"997fb88b-34d0-4fbf-bdbe-21ca803cd69c","meta":{"profile":["http://hl7.org/fhir/us/qicore/StructureDefinition/qicore-medicationrequest"]},"status":"completed","intent":"order","medicationCodeableConcept":{"coding":[{"system":"http://www.nlm.nih.gov/research/umls/rxnorm","version":"06052023","code":"1007184"}]},"subject":{"reference":"Patient/2dabc75c-cce7-4337-a92f-bf0d60546b5a"},"authoredOn":"2026-01-01T08:15:00Z","requester":{"reference":"Practitioner/33d87640-6b2a-40b0-ab11-542478a88d5a"},"dosageInstruction":[{"timing":{"repeat":{"boundsPeriod":{"start":"2025-01-01T08:15:00Z"}}}}]},"request":{"method":"PUT","url":"MedicationRequest/997fb88b-34d0-4fbf-bdbe-21ca803cd69c"}},{"fullUrl":"Bundle/657cbdc9b4f1f0343662347a","resource":{"resourceType":"Bundle","id":"657cbdc9b4f1f0343662347a","type":"transaction","entry":[{"fullUrl":"https://madie.cms.gov/Patient/2dabc75c-cce7-4337-a92f-bf0d60546b5a","resource":{"resourceType":"Patient","id":"2dabc75c-cce7-4337-a92f-bf0d60546b5a","meta":{"profile":["http://hl7.org/fhir/us/qicore/StructureDefinition/qicore-patient"]},"extension":[{"url":"http://hl7.org/fhir/us/core/StructureDefinition/us-core-race","extension":[{"url":"ombCategory","valueCoding":{"system":"urn:oid:2.16.840.1.113883.6.238","code":"2106-3","display":"White","userSelected":true}},{"url":"text","valueString":"White"}]},{"url":"http://hl7.org/fhir/us/core/StructureDefinition/us-core-ethnicity","extension":[{"url":"ombCategory","valueCoding":{"system":"urn:oid:2.16.840.1.113883.6.238","code":"2186-5","display":"Not Hispanic or Latino","userSelected":true}},{"url":"text","valueString":"Not Hispanic or Latino"}]}],"identifier":[{"type":{"coding":[{"system":"http://terminology.hl7.org/CodeSystem/v2-0203","code":"MR"}]},"system":"https://bonnie-fhir.healthit.gov/","value":"657cbdc9b4f1f0343662347a"}],"name":[{"family":"BloodGlucosePass","given":["BloodGlucoseEffective"]}],"gender":"female","birthDate":"2008-01-01"},"request":{"method":"PUT","url":"Patient/2dabc75c-cce7-4337-a92f-bf0d60546b5a"}},{"fullUrl":"https://madie.cms.gov/Encounter/6bab4e7f-b72f-4534-82ca-d5a58e611fe3","resource":{"resourceType":"Encounter","id":"6bab4e7f-b72f-4534-82ca-d5a58e611fe3","meta":{"profile":["http://hl7.org/fhir/us/qicore/StructureDefinition/qicore-encounter"]},"status":"finished","class":{"system":"http://terminology.hl7.org/CodeSystem/v3-ActCode","code":"ACUTE","display":"inpatient acute"},"type":[{"coding":[{"system":"http://snomed.info/sct","version":"2024","code":"32485007","display":"Hospital admission (procedure)","userSelected":true}]}],"subject":{"reference":"Patient/2dabc75c-cce7-4337-a92f-bf0d60546b5a"},"period":{"start":"2026-01-01T08:00:00Z","end":"2026-01-02T09:15:00Z"}},"request":{"method":"PUT","url":"Encounter/6bab4e7f-b72f-4534-82ca-d5a58e611fe3"}},{"fullUrl":"https://madie.cms.gov/Location/4090222d-4453-4ea8-85f0-010dcc41ff7c","resource":{"resourceType":"Location","id":"4090222d-4453-4ea8-85f0-010dcc41ff7c","meta":{"profile":["http://hl7.org/fhir/us/qicore/StructureDefinition/qicore-location"]},"identifier":[{"use":"usual","system":"http://exampleoflocation.com","value":"B1-S.F2"}],"name":"Medical Surgical East, first floor","type":[{"coding":[{"system":"https://www.cdc.gov/nhsn/cdaportal/terminology/codesystem/hsloc.html","code":"1028-0","display":"Medical Cardiac Critical Care","userSelected":true}]}]},"request":{"method":"PUT","url":"Location/4090222d-4453-4ea8-85f0-010dcc41ff7c"}},{"fullUrl":"https://madie.cms.gov/MedicationRequest/997fb88b-34d0-4fbf-bdbe-21ca803cd69c","resource":{"resourceType":"MedicationRequest","id":"997fb88b-34d0-4fbf-bdbe-21ca803cd69c","meta":{"profile":["http://hl7.org/fhir/us/qicore/StructureDefinition/qicore-medicationrequest"]},"status":"completed","intent":"order","medicationCodeableConcept":{"coding":[{"system":"http://www.nlm.nih.gov/research/umls/rxnorm","version":"06052023","code":"1007184"}]},"subject":{"reference":"Patient/2dabc75c-cce7-4337-a92f-bf0d60546b5a"},"authoredOn":"2026-01-01T08:15:00Z","requester":{"reference":"Practitioner/33d87640-6b2a-40b0-ab11-542478a88d5a"},"dosageInstruction":[{"timing":{"repeat":{"boundsPeriod":{"start":"2025-01-01T08:15:00Z"}}}}]},"request":{"method":"PUT","url":"MedicationRequest/997fb88b-34d0-4fbf-bdbe-21ca803cd69c"}},{"fullUrl":"https://madie.cms.gov/Observation/55740553-8732-4c32-abd6-5073d0e47a10","resource":{"resourceType":"Observation","id":"55740553-8732-4c32-abd6-5073d0e47a10","meta":{"profile":["http://hl7.org/fhir/us/qicore/StructureDefinition/qicore-observation-lab"]},"status":"final","category":[{"coding":[{"system":"http://terminology.hl7.org/CodeSystem/observation-category","code":"laboratory","display":"Laboratory"}],"text":"Laboratory"}],"code":{"coding":[{"system":"http://loinc.org","version":"2.72","code":"2339-0","display":"Glucose [Mass/volume] in Blood","userSelected":true}]},"subject":{"reference":"Patient/2dabc75c-cce7-4337-a92f-bf0d60546b5a"},"effectiveDateTime":"2026-01-01T08:10:00Z","performer":[{"reference":"Organization/Organization-1"}],"valueQuantity":{"value":179,"unit":"mg/dL","system":"http://unitsofmeasure.org","code":"mg/dL"}},"request":{"method":"PUT","url":"Observation/55740553-8732-4c32-abd6-5073d0e47a10"}},{"fullUrl":"https://madie.cms.gov/Coverage/16e72d99-95bb-4de8-93b1-305cb857faa2","resource":{"resourceType":"Coverage","id":"16e72d99-95bb-4de8-93b1-305cb857faa2","meta":{"profile":["http://hl7.org/fhir/us/qicore/StructureDefinition/qicore-coverage"]},"identifier":[{"system":"http://benefitsinc.com/certificate","value":"12345"}],"status":"active","type":{"coding":[{"system":"https://nahdo.org/sopt","version":"1.0.1","code":"1","display":"MEDICARE","userSelected":true}]},"subscriberId":"AB9876","beneficiary":{"reference":"Patient/2dabc75c-cce7-4337-a92f-bf0d60546b5a"},"relationship":{"coding":[{"system":"http://terminology.hl7.org/CodeSystem/subscriber-relationship","code":"self"}]},"payor":[{"reference":"Organization/8bede79f-5e2e-4469-a92e-b64b354a0eae"}]},"request":{"method":"PUT","url":"Coverage/16e72d99-95bb-4de8-93b1-305cb857faa2"}},{"fullUrl":"https://madie.cms.gov/Organization/8bede79f-5e2e-4469-a92e-b64b354a0eae","resource":{"resourceType":"Organization","id":"8bede79f-5e2e-4469-a92e-b64b354a0eae","meta":{"profile":["http://hl7.org/fhir/us/qicore/StructureDefinition/qicore-organization"]},"identifier":[{"use":"temp","system":"urn:oid:2.16.840.1.113883.4.4","value":"21-3259825"}],"active":true,"type":[{"coding":[{"system":"http://terminology.hl7.org/CodeSystem/organization-type","code":"pay","display":"Payer"}]}],"name":"Blue Cross Blue Shield of Texas","telecom":[{"system":"phone","value":"(+1) 972-766-6900"}],"address":[{"use":"billing","type":"postal","line":["P.O. Box 660044"],"city":"Dallas","state":"TX","postalCode":"75266-0044","country":"USA"}]},"request":{"method":"PUT","url":"Organization/8bede79f-5e2e-4469-a92e-b64b354a0eae"}},{"fullUrl":"https://madie.cms.gov/Practitioner/3ce7747c-714e-448b-bc50-012398828fd6","resource":{"resourceType":"Practitioner","id":"3ce7747c-714e-448b-bc50-012398828fd6","meta":{"profile":["http://hl7.org/fhir/us/qicore/StructureDefinition/qicore-practitioner"]},"identifier":[{"system":"http://hl7.org/fhir/sid/us-npi","value":"0723660813"}],"name":[{"family":"Evil","prefix":["Dr"]}]},"request":{"method":"PUT","url":"Practitioner/3ce7747c-714e-448b-bc50-012398828fd6"}},{"fullUrl":"https://madie.cms.gov/MeasureReport/7268660b-f223-4c82-b9db-0d5c08287e55","resource":{"resourceType":"MeasureReport","id":"7268660b-f223-4c82-b9db-0d5c08287e55","meta":{"profile":["http://hl7.org/fhir/us/cqfmeasures/StructureDefinition/test-case-cqfm"]},"contained":[{"resourceType":"Parameters","id":"8937db85-c9f6-4149-8572-759cbe47f7ad-parameters","parameter":[{"name":"subject","valueString":"2dabc75c-cce7-4337-a92f-bf0d60546b5a"}]}],"extension":[{"url":"http://hl7.org/fhir/StructureDefinition/cqf-inputParameters","valueReference":{"reference":"#8937db85-c9f6-4149-8572-759cbe47f7ad-parameters"}},{"url":"http://hl7.org/fhir/us/cqfmeasures/StructureDefinition/cqfm-testCaseDescription","valueMarkdown":"Inpatient encounter with diabetic medication during MP with SDE blood glucose effective datetime. "}],"modifierExtension":[{"url":"http://hl7.org/fhir/us/cqfmeasures/StructureDefinition/cqfm-isTestCase","valueBoolean":true}],"status":"complete","type":"individual","measure":"https://madie.cms.gov/Measure/NHSNGlycemicControlHypoglycemiaInitialPopulation","period":{"start":"2026-01-01","end":"2026-12-31"},"group":[{"id":"Group_1","population":[{"id":"InitialPopulation_1","code":{"coding":[{"system":"http://terminology.hl7.org/CodeSystem/measure-population","code":"initial-population","display":"Initial Population"}]},"count":1}],"measureScore":{"value":0.0}}],"evaluatedResource":[{"reference":"Patient/2dabc75c-cce7-4337-a92f-bf0d60546b5a"},{"reference":"Encounter/6bab4e7f-b72f-4534-82ca-d5a58e611fe3"},{"reference":"Location/4090222d-4453-4ea8-85f0-010dcc41ff7c"},{"reference":"MedicationRequest/997fb88b-34d0-4fbf-bdbe-21ca803cd69c"},{"reference":"Observation/55740553-8732-4c32-abd6-5073d0e47a10"},{"reference":"Coverage/16e72d99-95bb-4de8-93b1-305cb857faa2"},{"reference":"Organization/8bede79f-5e2e-4469-a92e-b64b354a0eae"},{"reference":"Practitioner/3ce7747c-714e-448b-bc50-012398828fd6"}]},"request":{"method":"PUT","url":"MeasureReport/7268660b-f223-4c82-b9db-0d5c08287e55"}}]},"request":{"method":"PUT","url":"Bundle/657cbdc9b4f1f0343662347a"}},{"fullUrl":"Organization/8bede79f-5e2e-4469-a92e-b64b354a0eae","resource":{"resourceType":"Organization","id":"8bede79f-5e2e-4469-a92e-b64b354a0eae","meta":{"profile":["http://hl7.org/fhir/us/qicore/StructureDefinition/qicore-organization"]},"identifier":[{"use":"temp","system":"urn:oid:2.16.840.1.113883.4.4","value":"21-3259825"}],"active":true,"type":[{"coding":[{"system":"http://terminology.hl7.org/CodeSystem/organization-type","code":"pay","display":"Payer"}]}],"name":"Blue Cross Blue Shield of Texas","telecom":[{"system":"phone","value":"(+1) 972-766-6900"}],"address":[{"use":"billing","type":"postal","line":["P.O. Box 660044"],"city":"Dallas","state":"TX","postalCode":"75266-0044","country":"USA"}]},"request":{"method":"PUT","url":"Organization/8bede79f-5e2e-4469-a92e-b64b354a0eae"}},{"fullUrl":"Observation/55740553-8732-4c32-abd6-5073d0e47a10","resource":{"resourceType":"Observation","id":"55740553-8732-4c32-abd6-5073d0e47a10","meta":{"profile":["http://hl7.org/fhir/us/qicore/StructureDefinition/qicore-observation-lab"]},"status":"final","category":[{"coding":[{"system":"http://terminology.hl7.org/CodeSystem/observation-category","code":"laboratory","display":"Laboratory"}],"text":"Laboratory"}],"code":{"coding":[{"system":"http://loinc.org","version":"2.72","code":"2339-0","display":"Glucose [Mass/volume] in Blood","userSelected":true}]},"subject":{"reference":"Patient/2dabc75c-cce7-4337-a92f-bf0d60546b5a"},"effectiveDateTime":"2026-01-01T08:10:00Z","performer":[{"reference":"Organization/Organization-1"}],"valueQuantity":{"value":179,"unit":"mg/dL","system":"http://unitsofmeasure.org","code":"mg/dL"}},"request":{"method":"PUT","url":"Observation/55740553-8732-4c32-abd6-5073d0e47a10"}},{"fullUrl":"Patient/2dabc75c-cce7-4337-a92f-bf0d60546b5a","resource":{"resourceType":"Patient","id":"2dabc75c-cce7-4337-a92f-bf0d60546b5a","meta":{"profile":["http://hl7.org/fhir/us/qicore/StructureDefinition/qicore-patient"]},"extension":[{"url":"http://hl7.org/fhir/us/core/StructureDefinition/us-core-race","extension":[{"url":"ombCategory","valueCoding":{"system":"urn:oid:2.16.840.1.113883.6.238","code":"2106-3","display":"White","userSelected":true}},{"url":"text","valueString":"White"}]},{"url":"http://hl7.org/fhir/us/core/StructureDefinition/us-core-ethnicity","extension":[{"url":"ombCategory","valueCoding":{"system":"urn:oid:2.16.840.1.113883.6.238","code":"2186-5","display":"Not Hispanic or Latino","userSelected":true}},{"url":"text","valueString":"Not Hispanic or Latino"}]}],"identifier":[{"type":{"coding":[{"system":"http://terminology.hl7.org/CodeSystem/v2-0203","code":"MR"}]},"system":"https://bonnie-fhir.healthit.gov/","value":"657cbdc9b4f1f0343662347a"}],"name":[{"family":"BloodGlucosePass","given":["BloodGlucoseEffective"]}],"gender":"female","birthDate":"2008-01-01"},"request":{"method":"PUT","url":"Patient/2dabc75c-cce7-4337-a92f-bf0d60546b5a"}},{"fullUrl":"Encounter/6bab4e7f-b72f-4534-82ca-d5a58e611fe3","resource":{"resourceType":"Encounter","id":"6bab4e7f-b72f-4534-82ca-d5a58e611fe3","meta":{"profile":["http://hl7.org/fhir/us/qicore/StructureDefinition/qicore-encounter"]},"status":"finished","class":{"system":"http://terminology.hl7.org/CodeSystem/v3-ActCode","code":"ACUTE","display":"inpatient acute"},"type":[{"coding":[{"system":"http://snomed.info/sct","version":"2024","code":"32485007","display":"Hospital admission (procedure)","userSelected":true}]}],"subject":{"reference":"Patient/2dabc75c-cce7-4337-a92f-bf0d60546b5a"},"period":{"start":"2026-01-01T08:00:00Z","end":"2026-01-02T09:15:00Z"}},"request":{"method":"PUT","url":"Encounter/6bab4e7f-b72f-4534-82ca-d5a58e611fe3"}}]}