{
  "resourceType": "Bundle",
  "id": "63487c2d0968f8012254014b",
  "type": "transaction",
  "entry": [ {
    "fullUrl": "https://madie.cms.gov/Patient/43236e7d-b851-462c-bed1-fca6b16aa61d",
    "resource": {
      "resourceType": "Patient",
      "id": "43236e7d-b851-462c-bed1-fca6b16aa61d",
      "meta": {
        "profile": [ "http://hl7.org/fhir/us/qicore/StructureDefinition/qicore-patient" ]
      },
      "text": {
        "status": "generated",
        "div": "<div xmlns=\"http://www.w3.org/1999/xhtml\"><div class=\"hapiHeaderText\">NoProcPerformed<b>IPOPFail</b></div><table class=\"hapiPropertyTable\"><tbody><tr><td>Identifier</td><td>4768d440320cf3298333847203f295a8587c79c95db866f204cf3a2168f50a97</td></tr><tr><td>Date of birth</td><td><span>14 February 1985</span></td></tr></tbody></table></div>"
      },
      "extension": [ {
        "url": "http://hl7.org/fhir/us/core/StructureDefinition/us-core-race",
        "extension": [ {
          "url": "ombCategory",
          "valueCoding": {
            "system": "urn:oid:2.16.840.1.113883.6.238",
            "code": "1002-5",
            "display": "American Indian or Alaska Native",
            "userSelected": true
          }
        }, {
          "url": "text",
          "valueString": "American Indian or Alaska Native"
        } ]
      }, {
        "url": "http://hl7.org/fhir/us/core/StructureDefinition/us-core-ethnicity",
        "extension": [ {
          "url": "ombCategory",
          "valueCoding": {
            "system": "urn:oid:2.16.840.1.113883.6.238",
            "code": "2135-2",
            "display": "Hispanic or Latino",
            "userSelected": true
          }
        }, {
          "url": "text",
          "valueString": "Hispanic or Latino"
        } ]
      } ],
      "identifier": [ {
        "type": {
          "coding": [ {
            "system": "http://terminology.hl7.org/CodeSystem/v2-0203",
            "code": "MR"
          } ]
        },
        "system": "https://bonnie-fhir.healthit.gov/",
        "value": "63487c2d0968f8012254014b"
      } ],
      "active": true,
      "name": [ {
        "use": "usual",
        "family": "IPOPFail",
        "given": [ "NoProcPerformed" ]
      } ],
      "gender": "female",
      "birthDate": "1986-02-14"
    },
    "request": {
      "method": "PUT",
      "url": "Patient/43236e7d-b851-462c-bed1-fca6b16aa61d"
    }
  }, {
    "fullUrl": "https://madie.cms.gov/Encounter/f3c4c852-2136-4c19-8e66-8b087d82c685",
    "resource": {
      "resourceType": "Encounter",
      "id": "f3c4c852-2136-4c19-8e66-8b087d82c685",
      "meta": {
        "profile": [ "http://hl7.org/fhir/us/qicore/StructureDefinition/qicore-encounter" ]
      },
      "status": "finished",
      "class": {
        "system": "http://terminology.hl7.org/CodeSystem/v3-ActCode",
        "code": "IMP",
        "display": "inpatient encounter"
      },
      "type": [ {
        "coding": [ {
          "system": "http://snomed.info/sct",
          "code": "8715000"
        } ]
      } ],
      "subject": {
        "reference": "Patient/43236e7d-b851-462c-bed1-fca6b16aa61d"
      },
      "period": {
        "start": "2026-11-28T08:00:00.000+00:00",
        "end": "2026-11-30T08:15:00.000+00:00"
      },
      "length": {
        "value": 2,
        "unit": "days"
      },
      "diagnosis": [ {
        "condition": {
          "reference": "Condition/Condition-2"
        },
        "use": {
          "coding": [ {
            "system": "http://snomed.info/sct",
            "code": "169826009",
            "display": "Single live birth from singleton pregnancy (finding)"
          } ]
        }
      } ]
    },
    "request": {
      "method": "PUT",
      "url": "Encounter/f3c4c852-2136-4c19-8e66-8b087d82c685"
    }
  }, {
    "fullUrl": "https://madie.cms.gov/Coverage/1db05505-517f-4c27-88d7-019672477ced",
    "resource": {
      "resourceType": "Coverage",
      "id": "1db05505-517f-4c27-88d7-019672477ced",
      "meta": {
        "profile": [ "http://hl7.org/fhir/us/qicore/StructureDefinition/qicore-coverage" ]
      },
      "status": "active",
      "subscriberId": "523435",
      "beneficiary": {
        "reference": "Patient/43236e7d-b851-462c-bed1-fca6b16aa61d"
      },
      "relationship": {
        "coding": [ {
          "system": "http://terminology.hl7.org/CodeSystem/subscriber-relationship",
          "code": "self"
        } ]
      },
      "payor": [ {
        "reference": "Organization/b02a4cc7-fb93-421a-b043-ded7893b8905"
      } ]
    },
    "request": {
      "method": "PUT",
      "url": "Coverage/1db05505-517f-4c27-88d7-019672477ced"
    }
  }, {
    "fullUrl": "https://madie.cms.gov/Organization/b02a4cc7-fb93-421a-b043-ded7893b8905",
    "resource": {
      "resourceType": "Organization",
      "id": "b02a4cc7-fb93-421a-b043-ded7893b8905",
      "meta": {
        "profile": [ "http://hl7.org/fhir/us/qicore/StructureDefinition/qicore-organization" ]
      },
      "identifier": [ {
        "use": "temp",
        "system": "urn:oid:2.16.840.1.113883.4.4",
        "value": "21-3259825"
      } ],
      "active": true,
      "type": [ {
        "coding": [ {
          "system": "http://terminology.hl7.org/CodeSystem/organization-type",
          "code": "pay",
          "display": "Payer"
        } ]
      } ],
      "name": "Blue Cross Blue Shield of Texas",
      "telecom": [ {
        "system": "phone",
        "value": "(+1) 972-766-6900"
      } ],
      "address": [ {
        "use": "billing",
        "type": "postal",
        "line": [ "P.O. Box 660044" ],
        "city": "Dallas",
        "state": "TX",
        "postalCode": "75266-0044",
        "country": "USA"
      } ]
    },
    "request": {
      "method": "PUT",
      "url": "Organization/b02a4cc7-fb93-421a-b043-ded7893b8905"
    }
  }, {
    "fullUrl": "https://madie.cms.gov/Practitioner/ebd2a9be-5fe2-47b0-9d37-7ad5d289300f",
    "resource": {
      "resourceType": "Practitioner",
      "id": "ebd2a9be-5fe2-47b0-9d37-7ad5d289300f",
      "meta": {
        "profile": [ "http://hl7.org/fhir/us/qicore/StructureDefinition/qicore-practitioner" ]
      },
      "identifier": [ {
        "system": "http://hl7.org/fhir/sid/us-npi",
        "value": "1234567890"
      } ],
      "name": [ {
        "family": "Evil",
        "prefix": [ "Dr" ]
      } ]
    },
    "request": {
      "method": "PUT",
      "url": "Practitioner/ebd2a9be-5fe2-47b0-9d37-7ad5d289300f"
    }
  }, {
    "fullUrl": "https://madie.cms.gov/MeasureReport/f2552ddf-2fad-49a0-8933-3227d9869974",
    "resource": {
      "resourceType": "MeasureReport",
      "id": "f2552ddf-2fad-49a0-8933-3227d9869974",
      "meta": {
        "profile": [ "http://hl7.org/fhir/us/cqfmeasures/StructureDefinition/test-case-cqfm" ]
      },
      "contained": [ {
        "resourceType": "Parameters",
        "id": "e2ca78fa-40ff-4b7d-b527-7871d6163d25-parameters",
        "parameter": [ {
          "name": "subject",
          "valueString": "43236e7d-b851-462c-bed1-fca6b16aa61d"
        } ]
      } ],
      "extension": [ {
        "url": "http://hl7.org/fhir/StructureDefinition/cqf-inputParameters",
        "valueReference": {
          "reference": "#e2ca78fa-40ff-4b7d-b527-7871d6163d25-parameters"
        }
      }, {
        "url": "http://hl7.org/fhir/us/cqfmeasures/StructureDefinition/cqfm-testCaseDescription",
        "valueMarkdown": "Fail IP, Delivery Proc missing\n"
      } ],
      "modifierExtension": [ {
        "url": "http://hl7.org/fhir/us/cqfmeasures/StructureDefinition/cqfm-isTestCase",
        "valueBoolean": true
      } ],
      "status": "complete",
      "type": "individual",
      "measure": "https://madie.cms.gov/Measure/CMS0334FHIRPCCesareanBirth",
      "period": {
        "start": "2026-01-01",
        "end": "2026-12-31"
      },
      "group": [ {
        "id": "Group_1",
        "population": [ {
          "id": "InitialPopulation_1",
          "code": {
            "coding": [ {
              "system": "http://terminology.hl7.org/CodeSystem/measure-population",
              "code": "initial-population",
              "display": "Initial Population"
            } ]
          },
          "count": 0
        }, {
          "id": "Denominator_1",
          "code": {
            "coding": [ {
              "system": "http://terminology.hl7.org/CodeSystem/measure-population",
              "code": "denominator",
              "display": "Denominator"
            } ]
          },
          "count": 0
        }, {
          "id": "DenominatorExclusion_1",
          "code": {
            "coding": [ {
              "system": "http://terminology.hl7.org/CodeSystem/measure-population",
              "code": "denominator-exclusion",
              "display": "Denominator Exclusion"
            } ]
          },
          "count": 0
        }, {
          "id": "Numerator_1",
          "code": {
            "coding": [ {
              "system": "http://terminology.hl7.org/CodeSystem/measure-population",
              "code": "numerator",
              "display": "Numerator"
            } ]
          },
          "count": 0
        } ],
        "measureScore": {
          "value": 0.0
        }
      } ],
      "evaluatedResource": [ {
        "reference": "Patient/43236e7d-b851-462c-bed1-fca6b16aa61d"
      }, {
        "reference": "Encounter/f3c4c852-2136-4c19-8e66-8b087d82c685"
      }, {
        "reference": "Coverage/1db05505-517f-4c27-88d7-019672477ced"
      }, {
        "reference": "Organization/b02a4cc7-fb93-421a-b043-ded7893b8905"
      }, {
        "reference": "Practitioner/ebd2a9be-5fe2-47b0-9d37-7ad5d289300f"
      } ]
    },
    "request": {
      "method": "PUT",
      "url": "MeasureReport/f2552ddf-2fad-49a0-8933-3227d9869974"
    }
  } ]
}