{"resourceType":"Bundle","id":"tests-f2d9aa30-e8ae-4b9b-81b8-3a64c5c939ca-bundle","type":"transaction","entry":[{"fullUrl":"Condition/a874936f-fe54-4e57-9b9c-db3cd8a214c5","resource":{"resourceType":"Condition","id":"a874936f-fe54-4e57-9b9c-db3cd8a214c5","meta":{"profile":["http://hl7.org/fhir/us/qicore/StructureDefinition/qicore-condition-encounter-diagnosis"]},"clinicalStatus":{"coding":[{"system":"http://terminology.hl7.org/CodeSystem/condition-clinical","code":"active"}]},"category":[{"coding":[{"system":"http://terminology.hl7.org/CodeSystem/condition-category","code":"problem-list-item","display":"Problem List Item"}]}],"code":{"coding":[{"system":"http://snomed.info/sct","code":"17741008","display":"Acute tonsillitis (disorder)"}]},"subject":{"reference":"Patient/f2d9aa30-e8ae-4b9b-81b8-3a64c5c939ca"},"onsetDateTime":"2026-10-11T12:48:00.000Z"},"request":{"method":"PUT","url":"Condition/a874936f-fe54-4e57-9b9c-db3cd8a214c5"}},{"fullUrl":"Bundle/IPPass-OutpatientConsultation","resource":{"resourceType":"Bundle","id":"IPPass-OutpatientConsultation","type":"transaction","entry":[{"fullUrl":"https://madie.cms.gov/Patient/f2d9aa30-e8ae-4b9b-81b8-3a64c5c939ca","resource":{"resourceType":"Patient","id":"f2d9aa30-e8ae-4b9b-81b8-3a64c5c939ca","meta":{"profile":["http://hl7.org/fhir/us/qicore/StructureDefinition/qicore-patient"]},"extension":[{"url":"http://hl7.org/fhir/us/core/StructureDefinition/us-core-race","extension":[{"url":"ombCategory","valueCoding":{"system":"urn:oid:2.16.840.1.113883.6.238","code":"2028-9","display":"Asian","userSelected":true}},{"url":"text","valueString":"Asian"}]},{"url":"http://hl7.org/fhir/us/core/StructureDefinition/us-core-ethnicity","extension":[{"url":"ombCategory","valueCoding":{"system":"urn:oid:2.16.840.1.113883.6.238","code":"2135-2","display":"Hispanic or Latino","userSelected":true}},{"url":"text","valueString":"Hispanic or Latino"}]}],"identifier":[{"type":{"coding":[{"system":"http://terminology.hl7.org/CodeSystem/v2-0203","code":"MR"}]},"system":"http://hospital.smarthealthit.org","value":"999999995"}],"name":[{"family":"Bertha","given":["Betty"]}],"gender":"male","birthDate":"2021-01-01"},"request":{"method":"PUT","url":"Patient/f2d9aa30-e8ae-4b9b-81b8-3a64c5c939ca"}},{"fullUrl":"https://madie.cms.gov/Encounter/216b25f3-c386-47b4-951c-7b54d9f9f007","resource":{"resourceType":"Encounter","id":"216b25f3-c386-47b4-951c-7b54d9f9f007","meta":{"profile":["http://hl7.org/fhir/us/qicore/StructureDefinition/qicore-encounter"]},"status":"finished","class":{"system":"http://terminology.hl7.org/CodeSystem/v3-ActCode","code":"AMB","display":"ambulatory"},"type":[{"coding":[{"system":"http://snomed.info/sct","code":"281036007","display":"Follow-up consultation (procedure)"}]}],"subject":{"reference":"Patient/f2d9aa30-e8ae-4b9b-81b8-3a64c5c939ca"},"period":{"start":"2026-10-11T12:45:00.000Z","end":"2026-10-11T12:59:00.000Z"}},"request":{"method":"PUT","url":"Encounter/216b25f3-c386-47b4-951c-7b54d9f9f007"}},{"fullUrl":"https://madie.cms.gov/Condition/a874936f-fe54-4e57-9b9c-db3cd8a214c5","resource":{"resourceType":"Condition","id":"a874936f-fe54-4e57-9b9c-db3cd8a214c5","meta":{"profile":["http://hl7.org/fhir/us/qicore/StructureDefinition/qicore-condition-encounter-diagnosis"]},"clinicalStatus":{"coding":[{"system":"http://terminology.hl7.org/CodeSystem/condition-clinical","code":"active"}]},"category":[{"coding":[{"system":"http://terminology.hl7.org/CodeSystem/condition-category","code":"problem-list-item","display":"Problem List Item"}]}],"code":{"coding":[{"system":"http://snomed.info/sct","code":"17741008","display":"Acute tonsillitis (disorder)"}]},"subject":{"reference":"Patient/f2d9aa30-e8ae-4b9b-81b8-3a64c5c939ca"},"onsetDateTime":"2026-10-11T12:48:00.000Z"},"request":{"method":"PUT","url":"Condition/a874936f-fe54-4e57-9b9c-db3cd8a214c5"}},{"fullUrl":"https://madie.cms.gov/MedicationRequest/43d5d293-7255-41f9-81e7-1dd8b6a400d7","resource":{"resourceType":"MedicationRequest","id":"43d5d293-7255-41f9-81e7-1dd8b6a400d7","meta":{"profile":["http://hl7.org/fhir/us/qicore/StructureDefinition/qicore-medicationrequest"]},"status":"completed","intent":"order","category":[{"coding":[{"system":"http://terminology.hl7.org/CodeSystem/medicationrequest-category","code":"discharge","display":"Discharge"}]}],"medicationCodeableConcept":{"coding":[{"system":"http://www.nlm.nih.gov/research/umls/rxnorm","code":"141963","display":"azithromycin 40 MG/ML Oral Suspension","userSelected":true}]},"subject":{"reference":"Patient/f2d9aa30-e8ae-4b9b-81b8-3a64c5c939ca"},"authoredOn":"2026-10-12T00:00:00.000Z","requester":{"reference":"Practitioner/example"},"dosageInstruction":[{"timing":{"repeat":{"boundsPeriod":{"start":"2026-10-12T00:00:00.000Z","end":"2026-10-20T00:00:00.000Z"}}}}]},"request":{"method":"PUT","url":"MedicationRequest/43d5d293-7255-41f9-81e7-1dd8b6a400d7"}},{"fullUrl":"https://madie.cms.gov/MeasureReport/098dd030-ac9c-4e95-8acd-f8100e4b8029","resource":{"resourceType":"MeasureReport","id":"098dd030-ac9c-4e95-8acd-f8100e4b8029","meta":{"profile":["http://hl7.org/fhir/us/cqfmeasures/StructureDefinition/test-case-cqfm"]},"contained":[{"resourceType":"Parameters","id":"1b550ec0-08b3-4126-b1c2-f1ce108358a5-parameters","parameter":[{"name":"subject","valueString":"f2d9aa30-e8ae-4b9b-81b8-3a64c5c939ca"}]}],"extension":[{"url":"http://hl7.org/fhir/StructureDefinition/cqf-inputParameters","valueReference":{"reference":"#1b550ec0-08b3-4126-b1c2-f1ce108358a5-parameters"}},{"url":"http://hl7.org/fhir/us/cqfmeasures/StructureDefinition/cqfm-testCaseDescription","valueMarkdown":"Qualifying encounter is Outpatient Consultation"}],"modifierExtension":[{"url":"http://hl7.org/fhir/us/cqfmeasures/StructureDefinition/cqfm-isTestCase","valueBoolean":true}],"status":"complete","type":"individual","measure":"https://madie.cms.gov/Measure/CMS146FHIRAppropriateTestingforPharyngitis","period":{"start":"2026-01-01","end":"2026-12-31"},"group":[{"id":"Group_1","population":[{"id":"InitialPopulation_1","code":{"coding":[{"system":"http://terminology.hl7.org/CodeSystem/measure-population","code":"initial-population","display":"Initial Population"}]},"count":1},{"id":"Denominator_1","code":{"coding":[{"system":"http://terminology.hl7.org/CodeSystem/measure-population","code":"denominator","display":"Denominator"}]},"count":1},{"id":"DenominatorExclusion_1","code":{"coding":[{"system":"http://terminology.hl7.org/CodeSystem/measure-population","code":"denominator-exclusion","display":"Denominator Exclusion"}]},"count":0},{"id":"Numerator_1","code":{"coding":[{"system":"http://terminology.hl7.org/CodeSystem/measure-population","code":"numerator","display":"Numerator"}]},"count":0}],"measureScore":{"value":0.0},"stratifier":[{"id":"Stratification_1_1","code":[{"text":"Strata-1"}],"stratum":[{"value":{"text":"Strata-1"},"population":[{"id":"InitialPopulation_1","code":{"coding":[{"system":"http://terminology.hl7.org/CodeSystem/measure-population","code":"initial-population","display":"Initial Population"}]},"count":1}]}]},{"id":"Stratification_1_2","code":[{"text":"Strata-2"}],"stratum":[{"value":{"text":"Strata-2"},"population":[{"id":"InitialPopulation_1","code":{"coding":[{"system":"http://terminology.hl7.org/CodeSystem/measure-population","code":"initial-population","display":"Initial Population"}]},"count":1}]}]},{"id":"Stratification_1_3","code":[{"text":"Strata-3"}],"stratum":[{"value":{"text":"Strata-3"},"population":[{"id":"InitialPopulation_1","code":{"coding":[{"system":"http://terminology.hl7.org/CodeSystem/measure-population","code":"initial-population","display":"Initial Population"}]},"count":1}]}]}]}],"evaluatedResource":[{"reference":"Patient/f2d9aa30-e8ae-4b9b-81b8-3a64c5c939ca"},{"reference":"Encounter/216b25f3-c386-47b4-951c-7b54d9f9f007"},{"reference":"Condition/a874936f-fe54-4e57-9b9c-db3cd8a214c5"},{"reference":"MedicationRequest/43d5d293-7255-41f9-81e7-1dd8b6a400d7"}]},"request":{"method":"PUT","url":"MeasureReport/098dd030-ac9c-4e95-8acd-f8100e4b8029"}}]},"request":{"method":"PUT","url":"Bundle/IPPass-OutpatientConsultation"}},{"fullUrl":"Encounter/216b25f3-c386-47b4-951c-7b54d9f9f007","resource":{"resourceType":"Encounter","id":"216b25f3-c386-47b4-951c-7b54d9f9f007","meta":{"profile":["http://hl7.org/fhir/us/qicore/StructureDefinition/qicore-encounter"]},"status":"finished","class":{"system":"http://terminology.hl7.org/CodeSystem/v3-ActCode","code":"AMB","display":"ambulatory"},"type":[{"coding":[{"system":"http://snomed.info/sct","code":"281036007","display":"Follow-up consultation (procedure)"}]}],"subject":{"reference":"Patient/f2d9aa30-e8ae-4b9b-81b8-3a64c5c939ca"},"period":{"start":"2026-10-11T12:45:00.000Z","end":"2026-10-11T12:59:00.000Z"}},"request":{"method":"PUT","url":"Encounter/216b25f3-c386-47b4-951c-7b54d9f9f007"}},{"fullUrl":"MeasureReport/098dd030-ac9c-4e95-8acd-f8100e4b8029","resource":{"resourceType":"MeasureReport","id":"098dd030-ac9c-4e95-8acd-f8100e4b8029","meta":{"profile":["http://hl7.org/fhir/us/cqfmeasures/StructureDefinition/test-case-cqfm"]},"contained":[{"resourceType":"Parameters","id":"1b550ec0-08b3-4126-b1c2-f1ce108358a5-parameters","parameter":[{"name":"subject","valueString":"f2d9aa30-e8ae-4b9b-81b8-3a64c5c939ca"}]}],"extension":[{"url":"http://hl7.org/fhir/StructureDefinition/cqf-inputParameters","valueReference":{"reference":"#1b550ec0-08b3-4126-b1c2-f1ce108358a5-parameters"}},{"url":"http://hl7.org/fhir/us/cqfmeasures/StructureDefinition/cqfm-testCaseDescription","valueMarkdown":"Qualifying encounter is Outpatient Consultation"}],"modifierExtension":[{"url":"http://hl7.org/fhir/us/cqfmeasures/StructureDefinition/cqfm-isTestCase","valueBoolean":true}],"status":"complete","type":"individual","measure":"https://madie.cms.gov/Measure/CMS146FHIRAppropriateTestingforPharyngitis","period":{"start":"2026-01-01","end":"2026-12-31"},"group":[{"id":"Group_1","population":[{"id":"InitialPopulation_1","code":{"coding":[{"system":"http://terminology.hl7.org/CodeSystem/measure-population","code":"initial-population","display":"Initial Population"}]},"count":1},{"id":"Denominator_1","code":{"coding":[{"system":"http://terminology.hl7.org/CodeSystem/measure-population","code":"denominator","display":"Denominator"}]},"count":1},{"id":"DenominatorExclusion_1","code":{"coding":[{"system":"http://terminology.hl7.org/CodeSystem/measure-population","code":"denominator-exclusion","display":"Denominator Exclusion"}]},"count":0},{"id":"Numerator_1","code":{"coding":[{"system":"http://terminology.hl7.org/CodeSystem/measure-population","code":"numerator","display":"Numerator"}]},"count":0}],"measureScore":{"value":0.0},"stratifier":[{"id":"Stratification_1_1","code":[{"text":"Strata-1"}],"stratum":[{"value":{"text":"Strata-1"},"population":[{"id":"InitialPopulation_1","code":{"coding":[{"system":"http://terminology.hl7.org/CodeSystem/measure-population","code":"initial-population","display":"Initial Population"}]},"count":1}]}]},{"id":"Stratification_1_2","code":[{"text":"Strata-2"}],"stratum":[{"value":{"text":"Strata-2"},"population":[{"id":"InitialPopulation_1","code":{"coding":[{"system":"http://terminology.hl7.org/CodeSystem/measure-population","code":"initial-population","display":"Initial Population"}]},"count":1}]}]},{"id":"Stratification_1_3","code":[{"text":"Strata-3"}],"stratum":[{"value":{"text":"Strata-3"},"population":[{"id":"InitialPopulation_1","code":{"coding":[{"system":"http://terminology.hl7.org/CodeSystem/measure-population","code":"initial-population","display":"Initial Population"}]},"count":1}]}]}]}],"evaluatedResource":[{"reference":"Patient/f2d9aa30-e8ae-4b9b-81b8-3a64c5c939ca"},{"reference":"Encounter/216b25f3-c386-47b4-951c-7b54d9f9f007"},{"reference":"Condition/a874936f-fe54-4e57-9b9c-db3cd8a214c5"},{"reference":"MedicationRequest/43d5d293-7255-41f9-81e7-1dd8b6a400d7"}]},"request":{"method":"PUT","url":"MeasureReport/098dd030-ac9c-4e95-8acd-f8100e4b8029"}},{"fullUrl":"MedicationRequest/43d5d293-7255-41f9-81e7-1dd8b6a400d7","resource":{"resourceType":"MedicationRequest","id":"43d5d293-7255-41f9-81e7-1dd8b6a400d7","meta":{"profile":["http://hl7.org/fhir/us/qicore/StructureDefinition/qicore-medicationrequest"]},"status":"completed","intent":"order","category":[{"coding":[{"system":"http://terminology.hl7.org/CodeSystem/medicationrequest-category","code":"discharge","display":"Discharge"}]}],"medicationCodeableConcept":{"coding":[{"system":"http://www.nlm.nih.gov/research/umls/rxnorm","code":"141963","display":"azithromycin 40 MG/ML Oral Suspension","userSelected":true}]},"subject":{"reference":"Patient/f2d9aa30-e8ae-4b9b-81b8-3a64c5c939ca"},"authoredOn":"2026-10-12T00:00:00.000Z","requester":{"reference":"Practitioner/example"},"dosageInstruction":[{"timing":{"repeat":{"boundsPeriod":{"start":"2026-10-12T00:00:00.000Z","end":"2026-10-20T00:00:00.000Z"}}}}]},"request":{"method":"PUT","url":"MedicationRequest/43d5d293-7255-41f9-81e7-1dd8b6a400d7"}},{"fullUrl":"Patient/f2d9aa30-e8ae-4b9b-81b8-3a64c5c939ca","resource":{"resourceType":"Patient","id":"f2d9aa30-e8ae-4b9b-81b8-3a64c5c939ca","meta":{"profile":["http://hl7.org/fhir/us/qicore/StructureDefinition/qicore-patient"]},"extension":[{"url":"http://hl7.org/fhir/us/core/StructureDefinition/us-core-race","extension":[{"url":"ombCategory","valueCoding":{"system":"urn:oid:2.16.840.1.113883.6.238","code":"2028-9","display":"Asian","userSelected":true}},{"url":"text","valueString":"Asian"}]},{"url":"http://hl7.org/fhir/us/core/StructureDefinition/us-core-ethnicity","extension":[{"url":"ombCategory","valueCoding":{"system":"urn:oid:2.16.840.1.113883.6.238","code":"2135-2","display":"Hispanic or Latino","userSelected":true}},{"url":"text","valueString":"Hispanic or Latino"}]}],"identifier":[{"type":{"coding":[{"system":"http://terminology.hl7.org/CodeSystem/v2-0203","code":"MR"}]},"system":"http://hospital.smarthealthit.org","value":"999999995"}],"name":[{"family":"Bertha","given":["Betty"]}],"gender":"male","birthDate":"2021-01-01"},"request":{"method":"PUT","url":"Patient/f2d9aa30-e8ae-4b9b-81b8-3a64c5c939ca"}}]}