{
    "entry": [
        {
            "request": {
                "method": "PUT",
                "url": "Patient/0e463fc3-d1bf-4e19-882b-fad6342aa668"
            },
            "resource": {
                "identifier": [{
                    "system": "https://bonnie-fhir.healthit.gov/",
                    "type": {"coding": [{
                        "system": "http://terminology.hl7.org/CodeSystem/v2-0203",
                        "code": "MR"
                    }]},
                    "value": "62f65f6e5efef5272905e70b"
                }],
                "extension": [
                    {
                        "extension": [
                            {
                                "valueCoding": {
                                    "system": "urn:oid:2.16.840.1.113883.6.238",
                                    "code": "1002-5",
                                    "userSelected": true,
                                    "display": "American Indian or Alaska Native"
                                },
                                "url": "ombCategory"
                            },
                            {
                                "valueString": "American Indian or Alaska Native",
                                "url": "text"
                            }
                        ],
                        "url": "http://hl7.org/fhir/us/core/StructureDefinition/us-core-race"
                    },
                    {
                        "extension": [
                            {
                                "valueCoding": {
                                    "system": "urn:oid:2.16.840.1.113883.6.238",
                                    "code": "2135-2",
                                    "userSelected": true,
                                    "display": "Hispanic or Latino"
                                },
                                "url": "ombCategory"
                            },
                            {
                                "valueString": "Hispanic or Latino",
                                "url": "text"
                            }
                        ],
                        "url": "http://hl7.org/fhir/us/core/StructureDefinition/us-core-ethnicity"
                    }
                ],
                "gender": "male",
                "meta": {"profile": ["http://hl7.org/fhir/us/qicore/StructureDefinition/qicore-patient"]},
                "name": [{
                    "given": ["AdolescentMedicalReasonForNoDepressionScreenAge17"],
                    "family": "DENEXCEPPass"
                }],
                "id": "0e463fc3-d1bf-4e19-882b-fad6342aa668",
                "birthDate": "2009-01-01",
                "resourceType": "Patient"
            },
            "fullUrl": "https://madie.cms.gov/Patient/0e463fc3-d1bf-4e19-882b-fad6342aa668"
        },
        {
            "request": {
                "method": "PUT",
                "url": "Encounter/706bb86e-15c7-48cc-919d-bafe9a929eb5"
            },
            "resource": {
                "period": {
                    "start": "2026-01-02T08:00:00.000+00:00",
                    "end": "2026-01-02T08:15:00.000+00:00"
                },
                "meta": {"profile": ["http://hl7.org/fhir/us/qicore/StructureDefinition/qicore-encounter"]},
                "subject": {"reference": "Patient/0e463fc3-d1bf-4e19-882b-fad6342aa668"},
                "id": "706bb86e-15c7-48cc-919d-bafe9a929eb5",
                "type": [{"coding": [{
                    "system": "http://snomed.info/sct",
                    "code": "10197000",
                    "userSelected": true,
                    "display": "Psychiatric interview and evaluation (procedure)",
                    "version": "2021-09"
                }]}],
                "class": {
                    "system": "http://terminology.hl7.org/CodeSystem/v3-ActCode",
                    "code": "AMB",
                    "display": "ambulatory"
                },
                "resourceType": "Encounter",
                "status": "finished"
            },
            "fullUrl": "https://madie.cms.gov/Encounter/706bb86e-15c7-48cc-919d-bafe9a929eb5"
        },
        {
            "request": {
                "method": "PUT",
                "url": "Observation/ff52b9b7-1f54-4ab9-921a-f76d4ee4618b"
            },
            "resource": {
                "valueBoolean": true,
                "extension": [{
                    "valueCodeableConcept": {"coding": [{
                        "system": "http://snomed.info/sct",
                        "code": "183932001",
                        "userSelected": true,
                        "display": "Procedure contraindicated (situation)"
                    }]},
                    "url": "http://hl7.org/fhir/us/qicore/StructureDefinition/qicore-notDoneReason"
                }],
                "code": {"coding": [{
                    "system": "http://loinc.org",
                    "code": "73831-0",
                    "userSelected": true,
                    "display": "Adolescent depression screening assessment"
                }]},
                "meta": {"profile": ["http://hl7.org/fhir/us/qicore/StructureDefinition/qicore-observationcancelled"]},
                "subject": {"reference": "Patient/0e463fc3-d1bf-4e19-882b-fad6342aa668"},
                "id": "ff52b9b7-1f54-4ab9-921a-f76d4ee4618b",
                "category": [{"coding": [{
                    "system": "http://terminology.hl7.org/CodeSystem/observation-category",
                    "code": "procedure",
                    "display": "Procedure"
                }]}],
                "issued": "2026-01-02T08:00:00.000+00:00",
                "resourceType": "Observation",
                "status": "cancelled"
            },
            "fullUrl": "https://madie.cms.gov/Observation/ff52b9b7-1f54-4ab9-921a-f76d4ee4618b"
        },
        {
            "request": {
                "method": "PUT",
                "url": "Coverage/2ee10cac-f86c-4193-a508-99df0aa4b2bd"
            },
            "resource": {
                "payor": [{"reference": "Organization/9c7c5b51-decf-437b-a135-22deb1d31df9"}],
                "beneficiary": {"reference": "Patient/0e463fc3-d1bf-4e19-882b-fad6342aa668"},
                "meta": {"profile": ["http://hl7.org/fhir/us/qicore/StructureDefinition/qicore-coverage"]},
                "id": "2ee10cac-f86c-4193-a508-99df0aa4b2bd",
                "resourceType": "Coverage",
                "status": "active"
            },
            "fullUrl": "https://madie.cms.gov/Coverage/2ee10cac-f86c-4193-a508-99df0aa4b2bd"
        },
        {
            "request": {
                "method": "PUT",
                "url": "Organization/9c7c5b51-decf-437b-a135-22deb1d31df9"
            },
            "resource": {
                "identifier": [{
                    "system": "urn:oid:2.16.840.1.113883.4.4",
                    "use": "temp",
                    "value": "21-3259825"
                }],
                "address": [{
                    "country": "USA",
                    "city": "Dallas",
                    "use": "billing",
                    "line": ["P.O. Box 660044"],
                    "postalCode": "75266-0044",
                    "state": "TX",
                    "type": "postal"
                }],
                "meta": {"profile": ["http://hl7.org/fhir/us/qicore/StructureDefinition/qicore-organization"]},
                "name": "Blue Cross Blue Shield of Texas",
                "active": true,
                "telecom": [{
                    "system": "phone",
                    "value": "(+1) 972-766-6900"
                }],
                "id": "9c7c5b51-decf-437b-a135-22deb1d31df9",
                "type": [{"coding": [{
                    "system": "http://terminology.hl7.org/CodeSystem/organization-type",
                    "code": "pay",
                    "display": "Payer"
                }]}],
                "resourceType": "Organization"
            },
            "fullUrl": "https://madie.cms.gov/Organization/9c7c5b51-decf-437b-a135-22deb1d31df9"
        },
        {
            "request": {
                "method": "PUT",
                "url": "Practitioner/02e12536-d6ac-41fb-8c0d-08182f3eda95"
            },
            "resource": {
                "identifier": [{
                    "system": "http://hl7.org/fhir/sid/us-npi",
                    "value": "123456"
                }],
                "meta": {"profile": ["http://hl7.org/fhir/us/qicore/StructureDefinition/qicore-practitioner"]},
                "name": [{
                    "prefix": ["Dr"],
                    "family": "Evil"
                }],
                "id": "02e12536-d6ac-41fb-8c0d-08182f3eda95",
                "resourceType": "Practitioner"
            },
            "fullUrl": "https://madie.cms.gov/Practitioner/02e12536-d6ac-41fb-8c0d-08182f3eda95"
        },
        {
            "request": {
                "method": "PUT",
                "url": "MeasureReport/10d81813-58e4-4b2a-97e4-593620b81122"
            },
            "resource": {
                "contained": [{
                    "parameter": [{
                        "valueString": "0e463fc3-d1bf-4e19-882b-fad6342aa668",
                        "name": "subject"
                    }],
                    "id": "6ba6c772-5dd0-4879-a494-4f6b73621890-parameters",
                    "resourceType": "Parameters"
                }],
                "extension": [
                    {
                        "valueReference": {"reference": "#6ba6c772-5dd0-4879-a494-4f6b73621890-parameters"},
                        "url": "http://hl7.org/fhir/StructureDefinition/cqf-inputParameters"
                    },
                    {
                        "valueMarkdown": "17 yo male with medical reason for not screening for depression - Procedure contraindicated - 17 on first day MP.",
                        "url": "http://hl7.org/fhir/us/cqfmeasures/StructureDefinition/cqfm-testCaseDescription"
                    }
                ],
                "period": {
                    "start": "2026-01-01",
                    "end": "2026-12-31"
                },
                "measure": "https://madie.cms.gov/Measure/CMS2FHIRPCSDepressionScreenAndFollowUp",
                "meta": {"profile": ["http://hl7.org/fhir/us/cqfmeasures/StructureDefinition/test-case-cqfm"]},
                "modifierExtension": [{
                    "valueBoolean": true,
                    "url": "http://hl7.org/fhir/us/cqfmeasures/StructureDefinition/cqfm-isTestCase"
                }],
                "id": "10d81813-58e4-4b2a-97e4-593620b81122",
                "evaluatedResource": [
                    {"reference": "Patient/0e463fc3-d1bf-4e19-882b-fad6342aa668"},
                    {"reference": "Encounter/706bb86e-15c7-48cc-919d-bafe9a929eb5"},
                    {"reference": "Observation/ff52b9b7-1f54-4ab9-921a-f76d4ee4618b"},
                    {"reference": "Coverage/2ee10cac-f86c-4193-a508-99df0aa4b2bd"},
                    {"reference": "Organization/9c7c5b51-decf-437b-a135-22deb1d31df9"},
                    {"reference": "Practitioner/02e12536-d6ac-41fb-8c0d-08182f3eda95"}
                ],
                "type": "individual",
                "resourceType": "MeasureReport",
                "status": "complete",
                "group": [{
                    "id": "Group_1",
                    "measureScore": {"value": 1},
                    "population": [
                        {
                            "code": {"coding": [{
                                "system": "http://terminology.hl7.org/CodeSystem/measure-population",
                                "code": "initial-population",
                                "display": "Initial Population"
                            }]},
                            "count": 1,
                            "id": "InitialPopulation_1"
                        },
                        {
                            "code": {"coding": [{
                                "system": "http://terminology.hl7.org/CodeSystem/measure-population",
                                "code": "denominator",
                                "display": "Denominator"
                            }]},
                            "count": 1,
                            "id": "Denominator_1"
                        },
                        {
                            "code": {"coding": [{
                                "system": "http://terminology.hl7.org/CodeSystem/measure-population",
                                "code": "denominator-exclusion",
                                "display": "Denominator Exclusion"
                            }]},
                            "count": 0,
                            "id": "DenominatorExclusion_1"
                        },
                        {
                            "code": {"coding": [{
                                "system": "http://terminology.hl7.org/CodeSystem/measure-population",
                                "code": "numerator",
                                "display": "Numerator"
                            }]},
                            "count": 0,
                            "id": "Numerator_1"
                        },
                        {
                            "code": {"coding": [{
                                "system": "http://terminology.hl7.org/CodeSystem/measure-population",
                                "code": "denominator-exception",
                                "display": "Denominator Exception"
                            }]},
                            "count": 1,
                            "id": "DenominatorException_1"
                        }
                    ]
                }]
            },
            "fullUrl": "https://madie.cms.gov/MeasureReport/10d81813-58e4-4b2a-97e4-593620b81122"
        }
    ],
    "id": "62f65f6e5efef5272905e70b",
    "type": "transaction",
    "resourceType": "Bundle"
}