{
  "resourceType": "Bundle",
  "id": "6129132102c62a011f2e5e77",
  "type": "transaction",
  "entry": [ {
    "fullUrl": "https://madie.cms.gov/Patient/a9c3e62b-fd84-4701-8024-7e3e60af9ed1",
    "resource": {
      "resourceType": "Patient",
      "id": "a9c3e62b-fd84-4701-8024-7e3e60af9ed1",
      "meta": {
        "profile": [ "http://hl7.org/fhir/us/qicore/StructureDefinition/qicore-patient" ]
      },
      "text": {
        "status": "generated",
        "div": "<div xmlns=\"http://www.w3.org/1999/xhtml\"><div class=\"hapiHeaderText\">AntithromboticDuringIP <b>NUMERPASS </b></div><table class=\"hapiPropertyTable\"><tbody><tr><td>Identifier</td><td>ce3fc639833ed1b27db2cfcc7b5bf51d</td></tr><tr><td>Date of birth</td><td><span>31 May 1990</span></td></tr></tbody></table></div>"
      },
      "extension": [ {
        "url": "http://hl7.org/fhir/us/core/StructureDefinition/us-core-race",
        "extension": [ {
          "url": "ombCategory",
          "valueCoding": {
            "system": "urn:oid:2.16.840.1.113883.6.238",
            "code": "1002-5",
            "display": "American Indian or Alaska Native",
            "userSelected": true
          }
        }, {
          "url": "text",
          "valueString": "American Indian or Alaska Native"
        } ]
      }, {
        "url": "http://hl7.org/fhir/us/core/StructureDefinition/us-core-ethnicity",
        "extension": [ {
          "url": "ombCategory",
          "valueCoding": {
            "system": "urn:oid:2.16.840.1.113883.6.238",
            "code": "2135-2",
            "display": "Hispanic or Latino",
            "userSelected": true
          }
        }, {
          "url": "text",
          "valueString": "Hispanic or Latino"
        } ]
      }, {
        "url": "http://hl7.org/fhir/us/core/StructureDefinition/us-core-sex",
        "valueCode": "248152002"
      } ],
      "identifier": [ {
        "type": {
          "coding": [ {
            "system": "http://terminology.hl7.org/CodeSystem/v2-0203",
            "code": "MR"
          } ]
        },
        "system": "https://bonnie-fhir.healthit.gov/",
        "value": "6129132102c62a011f2e5e77"
      } ],
      "active": true,
      "name": [ {
        "use": "usual",
        "family": "NUMERPass",
        "given": [ "AntithromboticDuringIP" ]
      } ],
      "gender": "male",
      "birthDate": "2000-05-31"
    },
    "request": {
      "method": "PUT",
      "url": "Patient/a9c3e62b-fd84-4701-8024-7e3e60af9ed1"
    }
  }, {
    "fullUrl": "https://madie.cms.gov/Encounter/e151e18d-50ee-448f-b11f-7bf8c597b4d4",
    "resource": {
      "resourceType": "Encounter",
      "id": "e151e18d-50ee-448f-b11f-7bf8c597b4d4",
      "meta": {
        "profile": [ "http://hl7.org/fhir/us/qicore/StructureDefinition/qicore-encounter" ]
      },
      "status": "finished",
      "class": {
        "system": "http://terminology.hl7.org/CodeSystem/v3-ActCode",
        "code": "IMP",
        "display": "inpatient encounter",
        "userSelected": true
      },
      "type": [ {
        "coding": [ {
          "system": "http://snomed.info/sct",
          "code": "32485007"
        } ]
      } ],
      "subject": {
        "reference": "Patient/a9c3e62b-fd84-4701-8024-7e3e60af9ed1"
      },
      "period": {
        "start": "2026-06-15T09:30:00Z",
        "end": "2026-10-12T10:30:00.000+00:00"
      },
      "length": {
        "value": 119,
        "unit": "days"
      },
      "diagnosis": [ {
        "condition": {
          "reference": "Condition/5155b688-6aaa-4eb6-9a7d-214d31791f3c"
        },
        "use": {
          "coding": [ {
            "system": "http://terminology.hl7.org/CodeSystem/diagnosis-role",
            "code": "billing",
            "display": "Billing"
          } ]
        },
        "rank": 1
      } ]
    },
    "request": {
      "method": "PUT",
      "url": "Encounter/e151e18d-50ee-448f-b11f-7bf8c597b4d4"
    }
  }, {
    "fullUrl": "https://madie.cms.gov/MedicationRequest/6eca05ca-4c12-4c48-a9a3-e4c3c4cd3f24",
    "resource": {
      "resourceType": "MedicationRequest",
      "id": "6eca05ca-4c12-4c48-a9a3-e4c3c4cd3f24",
      "meta": {
        "profile": [ "http://hl7.org/fhir/us/qicore/StructureDefinition/qicore-medicationrequest" ]
      },
      "status": "active",
      "intent": "order",
      "category": [ {
        "coding": [ {
          "system": "http://terminology.hl7.org/CodeSystem/medicationrequest-category",
          "code": "discharge",
          "display": "Discharge",
          "userSelected": true
        } ]
      } ],
      "medicationCodeableConcept": {
        "coding": [ {
          "system": "http://www.nlm.nih.gov/research/umls/rxnorm",
          "code": "1037045"
        } ]
      },
      "subject": {
        "reference": "Patient/a9c3e62b-fd84-4701-8024-7e3e60af9ed1"
      },
      "authoredOn": "2026-10-10T10:00:00Z",
      "requester": {
        "reference": "Practitioner/example"
      }
    },
    "request": {
      "method": "PUT",
      "url": "MedicationRequest/6eca05ca-4c12-4c48-a9a3-e4c3c4cd3f24"
    }
  }, {
    "fullUrl": "https://madie.cms.gov/Condition/5155b688-6aaa-4eb6-9a7d-214d31791f3c",
    "resource": {
      "resourceType": "Condition",
      "id": "5155b688-6aaa-4eb6-9a7d-214d31791f3c",
      "meta": {
        "profile": [ "http://hl7.org/fhir/us/qicore/StructureDefinition/qicore-condition" ]
      },
      "clinicalStatus": {
        "coding": [ {
          "system": "http://terminology.hl7.org/CodeSystem/condition-clinical",
          "code": "active"
        } ]
      },
      "verificationStatus": {
        "coding": [ {
          "system": "http://terminology.hl7.org/CodeSystem/condition-ver-status",
          "code": "confirmed"
        } ]
      },
      "category": [ {
        "coding": [ {
          "system": "http://terminology.hl7.org/CodeSystem/condition-category",
          "code": "encounter-diagnosis",
          "display": "Encounter Diagnosis"
        } ]
      } ],
      "code": {
        "coding": [ {
          "system": "http://snomed.info/sct",
          "version": "2020-09",
          "code": "111297002",
          "display": "Nonparalytic stroke (disorder)",
          "userSelected": true
        } ]
      },
      "subject": {
        "reference": "Patient/a9c3e62b-fd84-4701-8024-7e3e60af9ed1"
      },
      "recordedDate": "2026-07-15T08:00:00Z"
    },
    "request": {
      "method": "PUT",
      "url": "Condition/5155b688-6aaa-4eb6-9a7d-214d31791f3c"
    }
  }, {
    "fullUrl": "https://madie.cms.gov/Coverage/edfd6172-a35b-4dd6-8606-b469fa8c84ef",
    "resource": {
      "resourceType": "Coverage",
      "id": "edfd6172-a35b-4dd6-8606-b469fa8c84ef",
      "meta": {
        "profile": [ "http://hl7.org/fhir/us/qicore/StructureDefinition/qicore-coverage" ]
      },
      "status": "active",
      "beneficiary": {
        "reference": "Patient/a9c3e62b-fd84-4701-8024-7e3e60af9ed1"
      },
      "payor": [ {
        "reference": "Organization/57b52b4d-0a92-41ac-bb64-a2f0f2bc3dde"
      } ]
    },
    "request": {
      "method": "PUT",
      "url": "Coverage/edfd6172-a35b-4dd6-8606-b469fa8c84ef"
    }
  }, {
    "fullUrl": "https://madie.cms.gov/claim/5ca62962b8484628b8de1ec5",
    "resource": {
      "resourceType": "Claim",
      "id": "5ca62962b8484628b8de1ec5",
      "meta": {
        "profile": [ "http://hl7.org/fhir/us/qicore/StructureDefinition/qicore-claim" ]
      },
      "status": "active",
      "type": {
        "coding": [ {
          "system": "http://terminology.hl7.org/CodeSystem/claim-type",
          "code": "institutional"
        } ]
      },
      "use": "claim",
      "patient": {
        "reference": "Patient/d170a0a8-b5ad-4303-b6df-e304dd5f92ad"
      },
      "created": "2026-12-01",
      "provider": {
        "reference": "Practitioner/practitioner-123456"
      },
      "priority": {
        "coding": [ {
          "system": "http://terminology.hl7.org/CodeSystem/processpriority",
          "code": "normal"
        } ]
      },
      "diagnosis": [ {
        "sequence": 1,
        "diagnosisCodeableConcept": {
          "coding": [ {
            "system": "http://hl7.org/fhir/sid/icd-10-cm",
            "code": "I63.00"
          } ]
        },
        "type": [ {
          "coding": [ {
            "system": "http://terminology.hl7.org/CodeSystem/ex-diagnosistype",
            "code": "principal"
          } ]
        } ]
      } ],
      "insurance": [ {
        "sequence": 1,
        "focal": true,
        "coverage": {
          "reference": "Coverage/5fa041661c76ba66d9959367"
        }
      } ],
      "item": [ {
        "sequence": 1,
        "diagnosisSequence": [ 1 ],
        "productOrService": {
          "coding": [ {
            "system": "http://terminology.hl7.org/CodeSystem/ex-USCLS",
            "code": "99555"
          } ]
        },
        "encounter": [ {
          "reference": "Encounter/e151e18d-50ee-448f-b11f-7bf8c597b4d4"
        } ]
      } ]
    },
    "request": {
      "method": "PUT",
      "url": "Claim/5ca62962b8484628b8de1ec5"
    }
  }, {
    "fullUrl": "https://madie.cms.gov/Organization/57b52b4d-0a92-41ac-bb64-a2f0f2bc3dde",
    "resource": {
      "resourceType": "Organization",
      "id": "57b52b4d-0a92-41ac-bb64-a2f0f2bc3dde",
      "meta": {
        "profile": [ "http://hl7.org/fhir/us/qicore/StructureDefinition/qicore-organization" ]
      },
      "identifier": [ {
        "use": "temp",
        "system": "urn:oid:2.16.840.1.113883.4.4",
        "value": "21-3259825"
      } ],
      "active": true,
      "type": [ {
        "coding": [ {
          "system": "http://terminology.hl7.org/CodeSystem/organization-type",
          "code": "pay",
          "display": "Payer"
        } ]
      } ],
      "name": "Blue Cross Blue Shield of Texas",
      "telecom": [ {
        "system": "phone",
        "value": "(+1) 972-766-6900"
      } ],
      "address": [ {
        "use": "billing",
        "type": "postal",
        "line": [ "P.O. Box 660044" ],
        "city": "Dallas",
        "state": "TX",
        "postalCode": "75266-0044",
        "country": "USA"
      } ]
    },
    "request": {
      "method": "PUT",
      "url": "Organization/57b52b4d-0a92-41ac-bb64-a2f0f2bc3dde"
    }
  }, {
    "fullUrl": "https://madie.cms.gov/MeasureReport/76b147fe-946e-4958-a34b-cd33978e55bb",
    "resource": {
      "resourceType": "MeasureReport",
      "id": "76b147fe-946e-4958-a34b-cd33978e55bb",
      "meta": {
        "profile": [ "http://hl7.org/fhir/us/cqfmeasures/StructureDefinition/test-case-cqfm" ]
      },
      "contained": [ {
        "resourceType": "Parameters",
        "id": "778de39a-da62-4861-af63-0d277d1ddbc1-parameters",
        "parameter": [ {
          "name": "subject",
          "valueString": "a9c3e62b-fd84-4701-8024-7e3e60af9ed1"
        } ]
      } ],
      "extension": [ {
        "url": "http://hl7.org/fhir/StructureDefinition/cqf-inputParameters",
        "valueReference": {
          "reference": "#778de39a-da62-4861-af63-0d277d1ddbc1-parameters"
        }
      }, {
        "url": "http://hl7.org/fhir/us/cqfmeasures/StructureDefinition/cqfm-testCaseDescription",
        "valueMarkdown": "Patient is GT 18 with Non-Elective Inpatient Encounter (LOS 120 days) with principal diagnosis of ischemic stroke ends during MP received antithrombotic during IP encounter\n"
      } ],
      "modifierExtension": [ {
        "url": "http://hl7.org/fhir/us/cqfmeasures/StructureDefinition/cqfm-isTestCase",
        "valueBoolean": true
      } ],
      "status": "complete",
      "type": "individual",
      "measure": "https://madie.cms.gov/Measure/CMS104FHIRSTKDCAntithrombotic",
      "period": {
        "start": "2026-01-01",
        "end": "2026-12-31"
      },
      "group": [ {
        "id": "Group_1",
        "population": [ {
          "id": "InitialPopulation_1",
          "code": {
            "coding": [ {
              "system": "http://terminology.hl7.org/CodeSystem/measure-population",
              "code": "initial-population",
              "display": "Initial Population"
            } ]
          },
          "count": 1
        }, {
          "id": "Denominator_1",
          "code": {
            "coding": [ {
              "system": "http://terminology.hl7.org/CodeSystem/measure-population",
              "code": "denominator",
              "display": "Denominator"
            } ]
          },
          "count": 1
        }, {
          "id": "DenominatorExclusion_1",
          "code": {
            "coding": [ {
              "system": "http://terminology.hl7.org/CodeSystem/measure-population",
              "code": "denominator-exclusion",
              "display": "Denominator Exclusion"
            } ]
          },
          "count": 0
        }, {
          "id": "Numerator_1",
          "code": {
            "coding": [ {
              "system": "http://terminology.hl7.org/CodeSystem/measure-population",
              "code": "numerator",
              "display": "Numerator"
            } ]
          },
          "count": 1
        }, {
          "id": "DenominatorException_1",
          "code": {
            "coding": [ {
              "system": "http://terminology.hl7.org/CodeSystem/measure-population",
              "code": "denominator-exception",
              "display": "Denominator Exception"
            } ]
          },
          "count": 0
        } ],
        "measureScore": {
          "value": 0.0
        }
      } ],
      "evaluatedResource": [ {
        "reference": "Patient/a9c3e62b-fd84-4701-8024-7e3e60af9ed1"
      }, {
        "reference": "Encounter/e151e18d-50ee-448f-b11f-7bf8c597b4d4"
      }, {
        "reference": "MedicationRequest/6eca05ca-4c12-4c48-a9a3-e4c3c4cd3f24"
      }, {
        "reference": "Condition/5155b688-6aaa-4eb6-9a7d-214d31791f3c"
      }, {
        "reference": "Coverage/edfd6172-a35b-4dd6-8606-b469fa8c84ef"
      }, {
        "reference": "Claim/5ca62962b8484628b8de1ec5"
      }, {
        "reference": "Organization/57b52b4d-0a92-41ac-bb64-a2f0f2bc3dde"
      } ]
    },
    "request": {
      "method": "PUT",
      "url": "MeasureReport/76b147fe-946e-4958-a34b-cd33978e55bb"
    }
  } ]
}