{
  "resourceType": "Bundle",
  "id": "633b3f9e0968f80122503cd8",
  "type": "transaction",
  "entry": [ {
    "fullUrl": "https://madie.cms.gov/Patient/4e9a1928-a33f-4be3-aa05-c69e9fc4bff7",
    "resource": {
      "resourceType": "Patient",
      "id": "4e9a1928-a33f-4be3-aa05-c69e9fc4bff7",
      "meta": {
        "profile": [ "http://hl7.org/fhir/us/qicore/StructureDefinition/qicore-patient" ]
      },
      "text": {
        "status": "generated",
        "div": "<div xmlns=\"http://www.w3.org/1999/xhtml\"><div class=\"hapiHeaderText\">DELEncCalEGAEQ20<b>DENOMPASS</b></div><table class=\"hapiPropertyTable\"><tbody><tr><td>Date of birth</td><td><span>01 February 1958</span></td></tr></tbody></table></div>"
      },
      "extension": [ {
        "url": "http://hl7.org/fhir/us/core/StructureDefinition/us-core-race",
        "extension": [ {
          "url": "ombCategory",
          "valueCoding": {
            "system": "urn:oid:2.16.840.1.113883.6.238",
            "code": "1002-5",
            "display": "American Indian or Alaska Native",
            "userSelected": true
          }
        }, {
          "url": "text",
          "valueString": "American Indian or Alaska Native"
        } ]
      }, {
        "url": "http://hl7.org/fhir/us/core/StructureDefinition/us-core-ethnicity",
        "extension": [ {
          "url": "ombCategory",
          "valueCoding": {
            "system": "urn:oid:2.16.840.1.113883.6.238",
            "code": "2135-2",
            "display": "Hispanic or Latino",
            "userSelected": true
          }
        }, {
          "url": "text",
          "valueString": "Hispanic or Latino"
        } ]
      } ],
      "identifier": [ {
        "type": {
          "coding": [ {
            "system": "http://terminology.hl7.org/CodeSystem/v2-0203",
            "code": "MR"
          } ]
        },
        "system": "https://bonnie-fhir.healthit.gov/",
        "value": "633b3f9e0968f80122503cd8"
      } ],
      "active": true,
      "name": [ {
        "use": "usual",
        "family": "DENOMPass",
        "given": [ "DELEncCalEGAEQ20" ]
      } ],
      "gender": "female",
      "birthDate": "1971-02-01"
    },
    "request": {
      "method": "PUT",
      "url": "Patient/4e9a1928-a33f-4be3-aa05-c69e9fc4bff7"
    }
  }, {
    "fullUrl": "https://madie.cms.gov/Observation/e4cd73e8-a1bd-43d3-a99d-47f8e4b948db",
    "resource": {
      "resourceType": "Observation",
      "id": "e4cd73e8-a1bd-43d3-a99d-47f8e4b948db",
      "meta": {
        "profile": [ "http://hl7.org/fhir/us/qicore/StructureDefinition/qicore-simple-observation" ]
      },
      "status": "final",
      "category": [ {
        "coding": [ {
          "system": "http://terminology.hl7.org/CodeSystem/observation-category",
          "code": "exam",
          "display": "exam",
          "userSelected": true
        } ]
      } ],
      "code": {
        "coding": [ {
          "system": "http://loinc.org",
          "code": "93857-1"
        } ]
      },
      "subject": {
        "reference": "Patient/4e9a1928-a33f-4be3-aa05-c69e9fc4bff7"
      },
      "effectiveDateTime": "2026-01-15T08:00:00Z",
      "performer": [ {
        "reference": "Organization/example1",
        "display": "Hendricks Country Hospital"
      } ],
      "valueDateTime": "2026-01-15T08:00:00.000+00:00"
    },
    "request": {
      "method": "PUT",
      "url": "Observation/e4cd73e8-a1bd-43d3-a99d-47f8e4b948db"
    }
  }, {
    "fullUrl": "https://madie.cms.gov/Observation/ca4cd2e3-fc44-42b9-be6e-8a2fc1a961a0",
    "resource": {
      "resourceType": "Observation",
      "id": "ca4cd2e3-fc44-42b9-be6e-8a2fc1a961a0",
      "meta": {
        "profile": [ "http://hl7.org/fhir/us/qicore/StructureDefinition/qicore-simple-observation" ]
      },
      "status": "final",
      "category": [ {
        "coding": [ {
          "system": "http://terminology.hl7.org/CodeSystem/observation-category",
          "code": "exam",
          "display": "exam",
          "userSelected": true
        } ]
      } ],
      "code": {
        "coding": [ {
          "system": "http://loinc.org",
          "code": "11778-8"
        } ]
      },
      "subject": {
        "reference": "Patient/4e9a1928-a33f-4be3-aa05-c69e9fc4bff7"
      },
      "effectiveDateTime": "2026-01-15T08:00:00Z",
      "performer": [ {
        "reference": "Organization/example1",
        "display": "Hendricks Country Hospital"
      } ],
      "valueDateTime": "2026-06-03T08:00:00.000+00:00"
    },
    "request": {
      "method": "PUT",
      "url": "Observation/ca4cd2e3-fc44-42b9-be6e-8a2fc1a961a0"
    }
  }, {
    "fullUrl": "https://madie.cms.gov/Encounter/b6173aa2-f420-4d87-a2e1-9a637b4c4889",
    "resource": {
      "resourceType": "Encounter",
      "id": "b6173aa2-f420-4d87-a2e1-9a637b4c4889",
      "meta": {
        "profile": [ "http://hl7.org/fhir/us/qicore/StructureDefinition/qicore-encounter" ]
      },
      "status": "finished",
      "class": {
        "system": "http://terminology.hl7.org/CodeSystem/v3-ActCode",
        "code": "IMP",
        "display": "inpatient encounter"
      },
      "type": [ {
        "coding": [ {
          "system": "http://snomed.info/sct",
          "code": "183452005"
        } ]
      } ],
      "subject": {
        "reference": "Patient/4e9a1928-a33f-4be3-aa05-c69e9fc4bff7"
      },
      "period": {
        "start": "2026-01-01T08:00:00Z",
        "end": "2026-02-05T08:15:00.000+00:00"
      }
    },
    "request": {
      "method": "PUT",
      "url": "Encounter/b6173aa2-f420-4d87-a2e1-9a637b4c4889"
    }
  }, {
    "fullUrl": "https://madie.cms.gov/Procedure/88edfa6d-7e84-4f5d-8e52-445ab08ebdd0",
    "resource": {
      "resourceType": "Procedure",
      "id": "88edfa6d-7e84-4f5d-8e52-445ab08ebdd0",
      "meta": {
        "profile": [ "http://hl7.org/fhir/us/qicore/StructureDefinition/qicore-procedure" ]
      },
      "extension": [ {
        "url": "http://hl7.org/fhir/us/qicore/StructureDefinition/qicore-recorded",
        "valueDateTime": "2014-04-05T13:35:00Z"
      } ],
      "status": "completed",
      "code": {
        "coding": [ {
          "system": "http://snomed.info/sct",
          "code": "10745001"
        } ]
      },
      "subject": {
        "reference": "Patient/4e9a1928-a33f-4be3-aa05-c69e9fc4bff7"
      },
      "performedPeriod": {
        "start": "2026-01-01T08:00:00Z"
      }
    },
    "request": {
      "method": "PUT",
      "url": "Procedure/88edfa6d-7e84-4f5d-8e52-445ab08ebdd0"
    }
  }, {
    "fullUrl": "https://madie.cms.gov/Coverage/db7522aa-f930-4a9a-a867-5b7aa458e357",
    "resource": {
      "resourceType": "Coverage",
      "id": "db7522aa-f930-4a9a-a867-5b7aa458e357",
      "meta": {
        "profile": [ "http://hl7.org/fhir/us/qicore/StructureDefinition/qicore-coverage" ]
      },
      "status": "active",
      "subscriberId": "523435",
      "beneficiary": {
        "reference": "Patient/4e9a1928-a33f-4be3-aa05-c69e9fc4bff7"
      },
      "relationship": {
        "coding": [ {
          "system": "http://terminology.hl7.org/CodeSystem/subscriber-relationship",
          "code": "self"
        } ]
      },
      "payor": [ {
        "reference": "Organization/faeda622-c1ff-4368-9379-79bfd7c5a718"
      } ]
    },
    "request": {
      "method": "PUT",
      "url": "Coverage/db7522aa-f930-4a9a-a867-5b7aa458e357"
    }
  }, {
    "fullUrl": "https://madie.cms.gov/Organization/faeda622-c1ff-4368-9379-79bfd7c5a718",
    "resource": {
      "resourceType": "Organization",
      "id": "faeda622-c1ff-4368-9379-79bfd7c5a718",
      "meta": {
        "profile": [ "http://hl7.org/fhir/us/qicore/StructureDefinition/qicore-organization" ]
      },
      "identifier": [ {
        "use": "temp",
        "system": "urn:oid:2.16.840.1.113883.4.4",
        "value": "21-3259825"
      } ],
      "active": true,
      "type": [ {
        "coding": [ {
          "system": "http://terminology.hl7.org/CodeSystem/organization-type",
          "code": "pay",
          "display": "Payer"
        } ]
      } ],
      "name": "Blue Cross Blue Shield of Texas",
      "telecom": [ {
        "system": "phone",
        "value": "(+1) 972-766-6900"
      } ],
      "address": [ {
        "use": "billing",
        "type": "postal",
        "line": [ "P.O. Box 660044" ],
        "city": "Dallas",
        "state": "TX",
        "postalCode": "75266-0044",
        "country": "USA"
      } ]
    },
    "request": {
      "method": "PUT",
      "url": "Organization/faeda622-c1ff-4368-9379-79bfd7c5a718"
    }
  }, {
    "fullUrl": "https://madie.cms.gov/Practitioner/6d6aa50e-cf1f-4a48-a3bc-a1ee99ccafc9",
    "resource": {
      "resourceType": "Practitioner",
      "id": "6d6aa50e-cf1f-4a48-a3bc-a1ee99ccafc9",
      "meta": {
        "profile": [ "http://hl7.org/fhir/us/qicore/StructureDefinition/qicore-practitioner" ]
      },
      "identifier": [ {
        "system": "http://hl7.org/fhir/sid/us-npi",
        "value": "1234567890"
      } ],
      "name": [ {
        "family": "Evil",
        "prefix": [ "Dr" ]
      } ]
    },
    "request": {
      "method": "PUT",
      "url": "Practitioner/6d6aa50e-cf1f-4a48-a3bc-a1ee99ccafc9"
    }
  }, {
    "fullUrl": "https://madie.cms.gov/MeasureReport/38b1a40a-3380-4f9f-99e0-9244a13b1990",
    "resource": {
      "resourceType": "MeasureReport",
      "id": "38b1a40a-3380-4f9f-99e0-9244a13b1990",
      "meta": {
        "profile": [ "http://hl7.org/fhir/us/cqfmeasures/StructureDefinition/test-case-cqfm" ]
      },
      "contained": [ {
        "resourceType": "Parameters",
        "id": "2b2a0b0b-0e40-4923-bd57-50926b356136-parameters",
        "parameter": [ {
          "name": "subject",
          "valueString": "4e9a1928-a33f-4be3-aa05-c69e9fc4bff7"
        } ]
      } ],
      "extension": [ {
        "url": "http://hl7.org/fhir/StructureDefinition/cqf-inputParameters",
        "valueReference": {
          "reference": "#2b2a0b0b-0e40-4923-bd57-50926b356136-parameters"
        }
      }, {
        "url": "http://hl7.org/fhir/us/cqfmeasures/StructureDefinition/cqfm-testCaseDescription",
        "valueMarkdown": "Calculated EGA = 20 weeks.\n"
      } ],
      "modifierExtension": [ {
        "url": "http://hl7.org/fhir/us/cqfmeasures/StructureDefinition/cqfm-isTestCase",
        "valueBoolean": true
      } ],
      "status": "complete",
      "type": "individual",
      "measure": "https://madie.cms.gov/Measure/CMS1028FHIRPCSevereOBComps",
      "period": {
        "start": "2026-01-01",
        "end": "2026-12-31"
      },
      "group": [ {
        "id": "Group_1",
        "population": [ {
          "id": "InitialPopulation_1",
          "code": {
            "coding": [ {
              "system": "http://terminology.hl7.org/CodeSystem/measure-population",
              "code": "initial-population",
              "display": "Initial Population"
            } ]
          },
          "count": 1
        }, {
          "id": "Denominator_1",
          "code": {
            "coding": [ {
              "system": "http://terminology.hl7.org/CodeSystem/measure-population",
              "code": "denominator",
              "display": "Denominator"
            } ]
          },
          "count": 1
        }, {
          "id": "Numerator_1",
          "code": {
            "coding": [ {
              "system": "http://terminology.hl7.org/CodeSystem/measure-population",
              "code": "numerator",
              "display": "Numerator"
            } ]
          },
          "count": 0
        }, {
          "id": "NumeratorExclusion_1",
          "code": {
            "coding": [ {
              "system": "http://terminology.hl7.org/CodeSystem/measure-population",
              "code": "numerator-exclusion",
              "display": "Numerator Exclusion"
            } ]
          },
          "count": 0
        } ],
        "measureScore": {
          "value": 0.0
        }
      }, {
        "id": "Group_2",
        "population": [ {
          "id": "InitialPopulation_2",
          "code": {
            "coding": [ {
              "system": "http://terminology.hl7.org/CodeSystem/measure-population",
              "code": "initial-population",
              "display": "Initial Population"
            } ]
          },
          "count": 1
        }, {
          "id": "Denominator_2",
          "code": {
            "coding": [ {
              "system": "http://terminology.hl7.org/CodeSystem/measure-population",
              "code": "denominator",
              "display": "Denominator"
            } ]
          },
          "count": 1
        }, {
          "id": "Numerator_2",
          "code": {
            "coding": [ {
              "system": "http://terminology.hl7.org/CodeSystem/measure-population",
              "code": "numerator",
              "display": "Numerator"
            } ]
          },
          "count": 0
        }, {
          "id": "NumeratorExclusion_2",
          "code": {
            "coding": [ {
              "system": "http://terminology.hl7.org/CodeSystem/measure-population",
              "code": "numerator-exclusion",
              "display": "Numerator Exclusion"
            } ]
          },
          "count": 0
        } ],
        "measureScore": {
          "value": 0.0
        }
      } ],
      "evaluatedResource": [ {
        "reference": "Patient/4e9a1928-a33f-4be3-aa05-c69e9fc4bff7"
      }, {
        "reference": "Observation/e4cd73e8-a1bd-43d3-a99d-47f8e4b948db"
      }, {
        "reference": "Observation/ca4cd2e3-fc44-42b9-be6e-8a2fc1a961a0"
      }, {
        "reference": "Encounter/b6173aa2-f420-4d87-a2e1-9a637b4c4889"
      }, {
        "reference": "Procedure/88edfa6d-7e84-4f5d-8e52-445ab08ebdd0"
      }, {
        "reference": "Coverage/db7522aa-f930-4a9a-a867-5b7aa458e357"
      }, {
        "reference": "Organization/faeda622-c1ff-4368-9379-79bfd7c5a718"
      }, {
        "reference": "Practitioner/6d6aa50e-cf1f-4a48-a3bc-a1ee99ccafc9"
      } ]
    },
    "request": {
      "method": "PUT",
      "url": "MeasureReport/38b1a40a-3380-4f9f-99e0-9244a13b1990"
    }
  } ]
}