{
  "resourceType": "Bundle",
  "id": "tests-DENEXFail-Increase03UsingFirstCreatInFirst48Hours",
  "type": "transaction",
  "entry": [ {
    "fullUrl": "https://madie.cms.gov/Patient/4e0c6578-8b8d-4c10-98d6-7c0a7c2ea385",
    "resource": {
      "resourceType": "Patient",
      "id": "4e0c6578-8b8d-4c10-98d6-7c0a7c2ea385",
      "meta": {
        "profile": [ "http://hl7.org/fhir/us/qicore/StructureDefinition/qicore-patient" ]
      },
      "extension": [ {
        "url": "http://hl7.org/fhir/us/core/StructureDefinition/us-core-race",
        "extension": [ {
          "url": "ombCategory",
          "valueCoding": {
            "system": "urn:oid:2.16.840.1.113883.6.238",
            "code": "2106-3",
            "display": "White"
          }
        }, {
          "url": "text",
          "valueString": "White"
        } ]
      }, {
        "url": "http://hl7.org/fhir/us/core/StructureDefinition/us-core-ethnicity",
        "extension": [ {
          "url": "ombCategory",
          "valueCoding": {
            "system": "urn:oid:2.16.840.1.113883.6.238",
            "code": "2135-2",
            "display": "Hispanic or Latino"
          }
        }, {
          "url": "text",
          "valueString": "Hispanic or Latino"
        } ]
      }, {
        "url": "http://hl7.org/fhir/us/core/StructureDefinition/us-core-sex",
        "valueCode": "248153007"
      } ],
      "identifier": [ {
        "system": "http://hospital.smarthealthit.org",
        "value": "999999999"
      } ],
      "name": [ {
        "family": "Example",
        "given": [ "Patient" ]
      } ],
      "gender": "male",
      "birthDate": "1975-01-01"
    },
    "request": {
      "method": "PUT",
      "url": "Patient/4e0c6578-8b8d-4c10-98d6-7c0a7c2ea385"
    }
  }, {
    "fullUrl": "https://madie.cms.gov/Encounter/e3c7ad79-c109-4970-b471-b6e431728069",
    "resource": {
      "resourceType": "Encounter",
      "id": "e3c7ad79-c109-4970-b471-b6e431728069",
      "meta": {
        "profile": [ "http://hl7.org/fhir/us/qicore/StructureDefinition/qicore-encounter" ]
      },
      "status": "finished",
      "class": {
        "system": "http://terminology.hl7.org/CodeSystem/v3-ActCode",
        "code": "IMP",
        "display": "inpatient encounter"
      },
      "type": [ {
        "coding": [ {
          "system": "http://snomed.info/sct",
          "code": "183452005",
          "display": "Emergency hospital admission (procedure)"
        } ]
      } ],
      "subject": {
        "reference": "Patient/4e0c6578-8b8d-4c10-98d6-7c0a7c2ea385"
      },
      "period": {
        "start": "2026-12-16T08:00:00.000+00:00",
        "end": "2026-12-24T08:15:00.000+00:00"
      }
    },
    "request": {
      "method": "PUT",
      "url": "Encounter/e3c7ad79-c109-4970-b471-b6e431728069"
    }
  }, {
    "fullUrl": "https://madie.cms.gov/Observation/fabbbb7f-34ed-4fe8-8949-a41717247baf",
    "resource": {
      "resourceType": "Observation",
      "id": "fabbbb7f-34ed-4fe8-8949-a41717247baf",
      "meta": {
        "profile": [ "http://hl7.org/fhir/us/qicore/StructureDefinition/qicore-observation-lab" ]
      },
      "status": "final",
      "category": [ {
        "coding": [ {
          "system": "http://terminology.hl7.org/CodeSystem/observation-category",
          "code": "laboratory",
          "display": "Laboratory"
        } ]
      } ],
      "code": {
        "coding": [ {
          "system": "http://loinc.org",
          "code": "21232-4",
          "display": "Creatinine [Mass/volume] in Serum or Plasma"
        } ]
      },
      "subject": {
        "reference": "Patient/4e0c6578-8b8d-4c10-98d6-7c0a7c2ea385"
      },
      "effectiveDateTime": "2026-12-17T09:00:00.000+00:00",
      "valueQuantity": {
        "value": 0.8,
        "unit": "mg/dL",
        "system": "http://unitsofmeasure.org",
        "code": "mg/dL"
      }
    },
    "request": {
      "method": "PUT",
      "url": "Observation/fabbbb7f-34ed-4fe8-8949-a41717247baf"
    }
  }, {
    "fullUrl": "https://madie.cms.gov/Observation/1b86cbdf-5745-406c-8935-497bcae7c46f",
    "resource": {
      "resourceType": "Observation",
      "id": "1b86cbdf-5745-406c-8935-497bcae7c46f",
      "meta": {
        "profile": [ "http://hl7.org/fhir/us/qicore/StructureDefinition/qicore-observation-lab" ]
      },
      "status": "final",
      "category": [ {
        "coding": [ {
          "system": "http://terminology.hl7.org/CodeSystem/observation-category",
          "code": "laboratory",
          "display": "Laboratory"
        } ]
      } ],
      "code": {
        "coding": [ {
          "system": "http://loinc.org",
          "code": "21232-4",
          "display": "Creatinine [Mass/volume] in Serum or Plasma"
        } ]
      },
      "subject": {
        "reference": "Patient/4e0c6578-8b8d-4c10-98d6-7c0a7c2ea385"
      },
      "effectiveDateTime": "2026-12-17T10:00:00.000+00:00",
      "valueQuantity": {
        "value": 1.1,
        "unit": "mg/dL",
        "system": "http://unitsofmeasure.org",
        "code": "mg/dL"
      }
    },
    "request": {
      "method": "PUT",
      "url": "Observation/1b86cbdf-5745-406c-8935-497bcae7c46f"
    }
  }, {
    "fullUrl": "https://madie.cms.gov/Observation/4219a7f0-8445-4265-9c4b-e93c41ee58c0",
    "resource": {
      "resourceType": "Observation",
      "id": "4219a7f0-8445-4265-9c4b-e93c41ee58c0",
      "meta": {
        "profile": [ "http://hl7.org/fhir/us/qicore/StructureDefinition/qicore-observation-lab" ]
      },
      "status": "final",
      "category": [ {
        "coding": [ {
          "system": "http://terminology.hl7.org/CodeSystem/observation-category",
          "code": "laboratory",
          "display": "Laboratory"
        } ]
      } ],
      "code": {
        "coding": [ {
          "system": "http://loinc.org",
          "code": "21232-4",
          "display": "Creatinine [Mass/volume] in Serum or Plasma"
        } ]
      },
      "subject": {
        "reference": "Patient/4e0c6578-8b8d-4c10-98d6-7c0a7c2ea385"
      },
      "effectiveDateTime": "2026-12-17T21:00:00.000+00:00",
      "valueQuantity": {
        "value": 1,
        "unit": "mg/dL",
        "system": "http://unitsofmeasure.org",
        "code": "mg/dL"
      }
    },
    "request": {
      "method": "PUT",
      "url": "Observation/4219a7f0-8445-4265-9c4b-e93c41ee58c0"
    }
  }, {
    "fullUrl": "https://madie.cms.gov/Observation/60bbc303-bd62-46cd-8466-a76244016d30",
    "resource": {
      "resourceType": "Observation",
      "id": "60bbc303-bd62-46cd-8466-a76244016d30",
      "meta": {
        "profile": [ "http://hl7.org/fhir/us/qicore/StructureDefinition/qicore-observation-lab" ]
      },
      "status": "final",
      "category": [ {
        "coding": [ {
          "system": "http://terminology.hl7.org/CodeSystem/observation-category",
          "code": "laboratory",
          "display": "Laboratory"
        } ]
      } ],
      "code": {
        "coding": [ {
          "system": "http://loinc.org",
          "code": "21232-4",
          "display": "Creatinine [Mass/volume] in Serum or Plasma"
        } ]
      },
      "subject": {
        "reference": "Patient/4e0c6578-8b8d-4c10-98d6-7c0a7c2ea385"
      },
      "effectiveDateTime": "2026-12-19T02:00:00.000+00:00",
      "valueQuantity": {
        "value": 0.9,
        "unit": "mg/dL",
        "system": "http://unitsofmeasure.org",
        "code": "mg/dL"
      }
    },
    "request": {
      "method": "PUT",
      "url": "Observation/60bbc303-bd62-46cd-8466-a76244016d30"
    }
  }, {
    "fullUrl": "https://madie.cms.gov/MeasureReport/78d094f3-e3eb-4ef0-a5a8-8f58ff0dcfcd",
    "resource": {
      "resourceType": "MeasureReport",
      "id": "78d094f3-e3eb-4ef0-a5a8-8f58ff0dcfcd",
      "meta": {
        "profile": [ "http://hl7.org/fhir/us/cqfmeasures/StructureDefinition/test-case-cqfm" ]
      },
      "contained": [ {
        "resourceType": "Parameters",
        "id": "277f0828-512b-4aac-a685-77c0f13c2371-parameters",
        "parameter": [ {
          "name": "subject",
          "valueString": "4e0c6578-8b8d-4c10-98d6-7c0a7c2ea385"
        } ]
      } ],
      "extension": [ {
        "url": "http://hl7.org/fhir/StructureDefinition/cqf-inputParameters",
        "valueReference": {
          "reference": "#277f0828-512b-4aac-a685-77c0f13c2371-parameters"
        }
      }, {
        "url": "http://hl7.org/fhir/us/cqfmeasures/StructureDefinition/cqfm-testCaseDescription",
        "valueMarkdown": "IP encounter where patient had 0.3 increase in SCr within first 48 hours, using first creatinine in first 48 hours as there is no SCr within first 24 hours. Meets Denominator Exclusion."
      } ],
      "modifierExtension": [ {
        "url": "http://hl7.org/fhir/us/cqfmeasures/StructureDefinition/cqfm-isTestCase",
        "valueBoolean": true
      } ],
      "status": "complete",
      "type": "individual",
      "measure": "https://madie.cms.gov/Measure/CMS832HHAKIFHIR",
      "period": {
        "start": "2026-01-01",
        "end": "2026-12-31"
      },
      "group": [ {
        "id": "Group_1",
        "population": [ {
          "id": "InitialPopulation_1",
          "code": {
            "coding": [ {
              "system": "http://terminology.hl7.org/CodeSystem/measure-population",
              "code": "initial-population",
              "display": "Initial Population"
            } ]
          },
          "count": 1
        }, {
          "id": "Denominator_1",
          "code": {
            "coding": [ {
              "system": "http://terminology.hl7.org/CodeSystem/measure-population",
              "code": "denominator",
              "display": "Denominator"
            } ]
          },
          "count": 1
        }, {
          "id": "DenominatorExclusion_1",
          "code": {
            "coding": [ {
              "system": "http://terminology.hl7.org/CodeSystem/measure-population",
              "code": "denominator-exclusion",
              "display": "Denominator Exclusion"
            } ]
          },
          "count": 1
        }, {
          "id": "Numerator_1",
          "code": {
            "coding": [ {
              "system": "http://terminology.hl7.org/CodeSystem/measure-population",
              "code": "numerator",
              "display": "Numerator"
            } ]
          },
          "count": 0
        } ],
        "measureScore": {
          "value": 0.0
        }
      } ],
      "evaluatedResource": [ {
        "reference": "Patient/4e0c6578-8b8d-4c10-98d6-7c0a7c2ea385"
      }, {
        "reference": "Encounter/e3c7ad79-c109-4970-b471-b6e431728069"
      }, {
        "reference": "Observation/fabbbb7f-34ed-4fe8-8949-a41717247baf"
      }, {
        "reference": "Observation/1b86cbdf-5745-406c-8935-497bcae7c46f"
      }, {
        "reference": "Observation/4219a7f0-8445-4265-9c4b-e93c41ee58c0"
      }, {
        "reference": "Observation/60bbc303-bd62-46cd-8466-a76244016d30"
      } ]
    },
    "request": {
      "method": "PUT",
      "url": "MeasureReport/78d094f3-e3eb-4ef0-a5a8-8f58ff0dcfcd"
    }
  } ]
}