{
  "resourceType": "Bundle",
  "id": "63233532414ba67d4e1d1c33",
  "type": "transaction",
  "entry": [ {
    "fullUrl": "https://madie.cms.gov/Patient/6b3b4271-63af-4a6b-a724-7009935b8820",
    "resource": {
      "resourceType": "Patient",
      "id": "6b3b4271-63af-4a6b-a724-7009935b8820",
      "meta": {
        "profile": [ "http://hl7.org/fhir/us/qicore/StructureDefinition/qicore-patient" ]
      },
      "extension": [ {
        "url": "http://hl7.org/fhir/us/core/StructureDefinition/us-core-race",
        "extension": [ {
          "url": "ombCategory",
          "valueCoding": {
            "system": "urn:oid:2.16.840.1.113883.6.238",
            "code": "2106-3",
            "display": "White",
            "userSelected": true
          }
        }, {
          "url": "text",
          "valueString": "White"
        }, {
          "url": "detailed",
          "valueCoding": {
            "system": "urn:oid:2.16.840.1.113883.6.238",
            "code": "1653-5",
            "display": "Tohono O'Odham"
          }
        } ]
      }, {
        "url": "http://hl7.org/fhir/us/core/StructureDefinition/us-core-ethnicity",
        "extension": [ {
          "url": "ombCategory",
          "valueCoding": {
            "system": "urn:oid:2.16.840.1.113883.6.238",
            "code": "2186-5",
            "display": "Not Hispanic or Latino",
            "userSelected": true
          }
        }, {
          "url": "text",
          "valueString": "Not Hispanic or Latino"
        }, {
          "url": "detailed",
          "valueCoding": {
            "system": "urn:oid:2.16.840.1.113883.6.238",
            "code": "2153-5",
            "display": "Mexican American Indian"
          }
        } ]
      } ],
      "identifier": [ {
        "type": {
          "coding": [ {
            "system": "http://terminology.hl7.org/CodeSystem/v2-0203",
            "code": "MR"
          } ]
        },
        "system": "https://bonnie-fhir.healthit.gov/",
        "value": "63233532414ba67d4e1d1c33"
      } ],
      "name": [ {
        "family": "DENEXPass",
        "given": [ "PatientExpired" ]
      } ],
      "gender": "male",
      "birthDate": "2006-02-01"
    },
    "request": {
      "method": "PUT",
      "url": "Patient/6b3b4271-63af-4a6b-a724-7009935b8820"
    }
  }, {
    "fullUrl": "https://madie.cms.gov/Encounter/a0fdff6f-dc68-4a76-bcf8-6cf72331aee5",
    "resource": {
      "resourceType": "Encounter",
      "id": "a0fdff6f-dc68-4a76-bcf8-6cf72331aee5",
      "meta": {
        "profile": [ "http://hl7.org/fhir/us/qicore/StructureDefinition/qicore-encounter" ]
      },
      "status": "finished",
      "class": {
        "system": "http://terminology.hl7.org/CodeSystem/v3-ActCode",
        "code": "AMB",
        "display": "ambulatory"
      },
      "type": [ {
        "coding": [ {
          "system": "http://snomed.info/sct",
          "version": "2022-03",
          "code": "183452005",
          "display": "Emergency hospital admission (procedure)",
          "userSelected": true
        } ]
      } ],
      "subject": {
        "reference": "Patient/6b3b4271-63af-4a6b-a724-7009935b8820"
      },
      "period": {
        "start": "2026-01-01T23:45:00.000+00:00",
        "end": "2026-01-05T23:59:00.000+00:00"
      },
      "hospitalization": {
        "dischargeDisposition": {
          "coding": [ {
            "system": "http://snomed.info/sct",
            "code": "371828006",
            "display": "Patient deceased during stay (discharge status = dead) (finding)",
            "userSelected": true
          } ]
        }
      }
    },
    "request": {
      "method": "PUT",
      "url": "Encounter/a0fdff6f-dc68-4a76-bcf8-6cf72331aee5"
    }
  }, {
    "fullUrl": "https://madie.cms.gov/MedicationRequest/8a140cd2-f4e1-4121-a883-bed233615a21",
    "resource": {
      "resourceType": "MedicationRequest",
      "id": "8a140cd2-f4e1-4121-a883-bed233615a21",
      "meta": {
        "profile": [ "http://hl7.org/fhir/us/qicore/StructureDefinition/qicore-medicationrequest" ]
      },
      "status": "active",
      "intent": "order",
      "category": [ {
        "coding": [ {
          "system": "http://terminology.hl7.org/CodeSystem/medicationrequest-category",
          "code": "discharge",
          "display": "Discharge",
          "userSelected": true
        } ]
      } ],
      "doNotPerform": false,
      "medicationCodeableConcept": {
        "coding": [ {
          "system": "http://www.nlm.nih.gov/research/umls/rxnorm",
          "code": "1049604",
          "display": "oxycodone hydrochloride 1 MG/ML Oral Solution",
          "userSelected": true
        } ]
      },
      "subject": {
        "reference": "Patient/6b3b4271-63af-4a6b-a724-7009935b8820"
      },
      "authoredOn": "2026-01-01T23:50:00.000+00:00",
      "requester": {
        "reference": "Practitioner/adad5d67-19ad-4d2d-9895-c78ef2592bb8"
      }
    },
    "request": {
      "method": "PUT",
      "url": "MedicationRequest/8a140cd2-f4e1-4121-a883-bed233615a21"
    }
  }, {
    "fullUrl": "https://madie.cms.gov/Practitioner/adad5d67-19ad-4d2d-9895-c78ef2592bb8",
    "resource": {
      "resourceType": "Practitioner",
      "id": "adad5d67-19ad-4d2d-9895-c78ef2592bb8",
      "meta": {
        "profile": [ "http://hl7.org/fhir/us/qicore/StructureDefinition/qicore-practitioner" ]
      },
      "identifier": [ {
        "system": "http://hl7.org/fhir/sid/us-npi",
        "value": "9999999896"
      } ],
      "active": true,
      "name": [ {
        "family": "Ramires",
        "given": [ "Alma" ],
        "prefix": [ "Dr" ]
      } ],
      "address": [ {
        "use": "home",
        "line": [ "534 Erewhon St" ],
        "city": "Netherville",
        "state": "IN",
        "postalCode": "46131"
      } ],
      "qualification": [ {
        "identifier": [ {
          "system": "http://goodhealth.org/prIdentifier",
          "value": "12345"
        } ],
        "code": {
          "coding": [ {
            "system": "http://terminology.hl7.org/CodeSystem/v2-0360|2.7",
            "code": "BS",
            "display": "Bachelor of Science"
          } ],
          "text": "Bachelor of Science"
        },
        "period": {
          "start": "1995"
        },
        "issuer": {
          "display": "Example University"
        }
      } ]
    },
    "request": {
      "method": "PUT",
      "url": "Practitioner/adad5d67-19ad-4d2d-9895-c78ef2592bb8"
    }
  }, {
    "fullUrl": "https://madie.cms.gov/Coverage/442b97af-5d56-40f8-8fee-e50cbe4f723f",
    "resource": {
      "resourceType": "Coverage",
      "id": "442b97af-5d56-40f8-8fee-e50cbe4f723f",
      "meta": {
        "profile": [ "http://hl7.org/fhir/us/qicore/StructureDefinition/qicore-coverage" ]
      },
      "status": "active",
      "type": {
        "coding": [ {
          "system": "https://nahdo.org/sopt",
          "code": "1",
          "display": "MEDICARE"
        } ]
      },
      "subscriberId": "523435",
      "beneficiary": {
        "reference": "Patient/6b3b4271-63af-4a6b-a724-7009935b8820"
      },
      "relationship": {
        "coding": [ {
          "system": "http://terminology.hl7.org/CodeSystem/subscriber-relationship",
          "code": "self"
        } ]
      },
      "period": {
        "start": "2024-12-01T00:00:00.000+00:00"
      },
      "payor": [ {
        "reference": "Organization/89a107fb-4dee-4a46-b8c1-85f84ca16dae"
      } ]
    },
    "request": {
      "method": "PUT",
      "url": "Coverage/442b97af-5d56-40f8-8fee-e50cbe4f723f"
    }
  }, {
    "fullUrl": "https://madie.cms.gov/Organization/89a107fb-4dee-4a46-b8c1-85f84ca16dae",
    "resource": {
      "resourceType": "Organization",
      "id": "89a107fb-4dee-4a46-b8c1-85f84ca16dae",
      "meta": {
        "profile": [ "http://hl7.org/fhir/us/qicore/StructureDefinition/qicore-organization" ]
      },
      "identifier": [ {
        "use": "temp",
        "system": "urn:oid:2.16.840.1.113883.4.4",
        "value": "21-3259825"
      } ],
      "active": true,
      "type": [ {
        "coding": [ {
          "system": "http://terminology.hl7.org/CodeSystem/organization-type",
          "code": "pay",
          "display": "Payer"
        } ]
      } ],
      "name": "Blue Cross Blue Shield of Texas",
      "telecom": [ {
        "system": "phone",
        "value": "(+1) 972-766-6900"
      } ],
      "address": [ {
        "use": "billing",
        "type": "postal",
        "line": [ "P.O. Box 660044" ],
        "city": "Dallas",
        "state": "TX",
        "postalCode": "75266-0044",
        "country": "USA"
      } ]
    },
    "request": {
      "method": "PUT",
      "url": "Organization/89a107fb-4dee-4a46-b8c1-85f84ca16dae"
    }
  }, {
    "fullUrl": "https://madie.cms.gov/MeasureReport/04f41029-a7ea-4b61-b049-1f523b839521",
    "resource": {
      "resourceType": "MeasureReport",
      "id": "04f41029-a7ea-4b61-b049-1f523b839521",
      "meta": {
        "profile": [ "http://hl7.org/fhir/us/cqfmeasures/StructureDefinition/test-case-cqfm" ]
      },
      "contained": [ {
        "resourceType": "Parameters",
        "id": "da42d327-5d37-43e3-a2a2-10f5bfd8ac2e-parameters",
        "parameter": [ {
          "name": "subject",
          "valueString": "6b3b4271-63af-4a6b-a724-7009935b8820"
        } ]
      } ],
      "extension": [ {
        "url": "http://hl7.org/fhir/StructureDefinition/cqf-inputParameters",
        "valueReference": {
          "reference": "#da42d327-5d37-43e3-a2a2-10f5bfd8ac2e-parameters"
        }
      }, {
        "url": "http://hl7.org/fhir/us/cqfmeasures/StructureDefinition/cqfm-testCaseDescription",
        "valueMarkdown": "Encounter 1/1 - 1/5, age 18, opioid at discharge, expired\n\nincludes 'Detailed' for SDE"
      } ],
      "modifierExtension": [ {
        "url": "http://hl7.org/fhir/us/cqfmeasures/StructureDefinition/cqfm-isTestCase",
        "valueBoolean": true
      } ],
      "status": "complete",
      "type": "individual",
      "measure": "https://madie.cms.gov/Measure/CMS506FHIRSafeUseofOpioids",
      "period": {
        "start": "2026-01-01",
        "end": "2026-12-31"
      },
      "group": [ {
        "id": "Group_1",
        "population": [ {
          "id": "InitialPopulation_1",
          "code": {
            "coding": [ {
              "system": "http://terminology.hl7.org/CodeSystem/measure-population",
              "code": "initial-population",
              "display": "Initial Population"
            } ]
          },
          "count": 1
        }, {
          "id": "Denominator_1",
          "code": {
            "coding": [ {
              "system": "http://terminology.hl7.org/CodeSystem/measure-population",
              "code": "denominator",
              "display": "Denominator"
            } ]
          },
          "count": 1
        }, {
          "id": "DenominatorExclusion_1",
          "code": {
            "coding": [ {
              "system": "http://terminology.hl7.org/CodeSystem/measure-population",
              "code": "denominator-exclusion",
              "display": "Denominator Exclusion"
            } ]
          },
          "count": 1
        }, {
          "id": "Numerator_1",
          "code": {
            "coding": [ {
              "system": "http://terminology.hl7.org/CodeSystem/measure-population",
              "code": "numerator",
              "display": "Numerator"
            } ]
          },
          "count": 0
        } ],
        "measureScore": {
          "value": 0.0
        }
      } ],
      "evaluatedResource": [ {
        "reference": "Patient/6b3b4271-63af-4a6b-a724-7009935b8820"
      }, {
        "reference": "Encounter/a0fdff6f-dc68-4a76-bcf8-6cf72331aee5"
      }, {
        "reference": "MedicationRequest/8a140cd2-f4e1-4121-a883-bed233615a21"
      }, {
        "reference": "Practitioner/adad5d67-19ad-4d2d-9895-c78ef2592bb8"
      }, {
        "reference": "Coverage/442b97af-5d56-40f8-8fee-e50cbe4f723f"
      }, {
        "reference": "Organization/89a107fb-4dee-4a46-b8c1-85f84ca16dae"
      } ]
    },
    "request": {
      "method": "PUT",
      "url": "MeasureReport/04f41029-a7ea-4b61-b049-1f523b839521"
    }
  } ]
}