{"resourceType":"Bundle","id":"tests-480245d6-3ce8-4944-b6c8-339cf2f69acb-bundle","type":"transaction","entry":[{"fullUrl":"Patient/480245d6-3ce8-4944-b6c8-339cf2f69acb","resource":{"resourceType":"Patient","id":"480245d6-3ce8-4944-b6c8-339cf2f69acb","meta":{"profile":["http://hl7.org/fhir/us/qicore/StructureDefinition/qicore-patient"]},"extension":[{"url":"http://hl7.org/fhir/us/core/StructureDefinition/us-core-race","extension":[{"url":"ombCategory","valueCoding":{"system":"urn:oid:2.16.840.1.113883.6.238","code":"2106-3","display":"White"}},{"url":"text","valueString":"White"}]},{"url":"http://hl7.org/fhir/us/core/StructureDefinition/us-core-ethnicity","extension":[{"url":"ombCategory","valueCoding":{"system":"urn:oid:2.16.840.1.113883.6.238","code":"2135-2","display":"Hispanic or Latino"}},{"url":"text","valueString":"Hispanic or Latino"}]},{"url":"http://hl7.org/fhir/us/core/StructureDefinition/us-core-sex","valueCode":"248153007"}],"identifier":[{"system":"http://hospital.smarthealthit.org","value":"999999999"}],"name":[{"family":"Example","given":["Patient"]}],"gender":"female","birthDate":"2000-07-11"},"request":{"method":"PUT","url":"Patient/480245d6-3ce8-4944-b6c8-339cf2f69acb"}},{"fullUrl":"MeasureReport/9b54322f-8c9d-4a7b-939f-8055fffcc31e","resource":{"resourceType":"MeasureReport","id":"9b54322f-8c9d-4a7b-939f-8055fffcc31e","meta":{"profile":["http://hl7.org/fhir/us/cqfmeasures/StructureDefinition/test-case-cqfm"]},"contained":[{"resourceType":"Parameters","id":"c6135d14-87e9-4bc2-a8a1-1ca9762dd75b-parameters","parameter":[{"name":"subject","valueString":"480245d6-3ce8-4944-b6c8-339cf2f69acb"}]}],"extension":[{"url":"http://hl7.org/fhir/StructureDefinition/cqf-inputParameters","valueReference":{"reference":"#c6135d14-87e9-4bc2-a8a1-1ca9762dd75b-parameters"}},{"url":"http://hl7.org/fhir/us/cqfmeasures/StructureDefinition/cqfm-testCaseDescription","valueMarkdown":"Patient inpatient, but the medication administered was not hypoglycemic med. Hypo med must be administered during encounter to meet IPP. "}],"modifierExtension":[{"url":"http://hl7.org/fhir/us/cqfmeasures/StructureDefinition/cqfm-isTestCase","valueBoolean":true}],"status":"complete","type":"individual","measure":"https://madie.cms.gov/Measure/CMS816FHIRHHHypo","period":{"start":"2026-01-01","end":"2026-12-31"},"group":[{"id":"Group_1","population":[{"id":"InitialPopulation_1","code":{"coding":[{"system":"http://terminology.hl7.org/CodeSystem/measure-population","code":"initial-population","display":"Initial Population"}]},"count":0},{"id":"Denominator_1","code":{"coding":[{"system":"http://terminology.hl7.org/CodeSystem/measure-population","code":"denominator","display":"Denominator"}]},"count":0},{"id":"Numerator_1","code":{"coding":[{"system":"http://terminology.hl7.org/CodeSystem/measure-population","code":"numerator","display":"Numerator"}]},"count":0}],"measureScore":{"value":0.0}}],"evaluatedResource":[{"reference":"Encounter/afee2ec4-c0f6-44f3-9282-f740c2be1d6f"},{"reference":"MedicationAdministration/7b4ace51-59ed-4e5a-8984-78649af3f273"},{"reference":"Patient/480245d6-3ce8-4944-b6c8-339cf2f69acb"}]},"request":{"method":"PUT","url":"MeasureReport/9b54322f-8c9d-4a7b-939f-8055fffcc31e"}},{"fullUrl":"MedicationAdministration/7b4ace51-59ed-4e5a-8984-78649af3f273","resource":{"resourceType":"MedicationAdministration","id":"7b4ace51-59ed-4e5a-8984-78649af3f273","meta":{"profile":["http://hl7.org/fhir/us/qicore/StructureDefinition/qicore-medicationadministration"]},"status":"completed","medicationCodeableConcept":{"coding":[{"system":"http://www.nlm.nih.gov/research/umls/rxnorm","code":"905377","display":"Hypoglycemics Severe Hypoglycemia"}]},"subject":{"reference":"Patient/480245d6-3ce8-4944-b6c8-339cf2f69acb"},"effectivePeriod":{"start":"2026-07-11T08:00:00Z","end":"2026-07-11T09:00:00Z"}},"request":{"method":"PUT","url":"MedicationAdministration/7b4ace51-59ed-4e5a-8984-78649af3f273"}},{"fullUrl":"Encounter/afee2ec4-c0f6-44f3-9282-f740c2be1d6f","resource":{"resourceType":"Encounter","id":"afee2ec4-c0f6-44f3-9282-f740c2be1d6f","meta":{"profile":["http://hl7.org/fhir/us/qicore/StructureDefinition/qicore-encounter"]},"status":"finished","class":{"system":"http://terminology.hl7.org/CodeSystem/v3-ActCode","code":"IMP","display":"Inpatient encounter"},"type":[{"coding":[{"system":"http://snomed.info/sct","code":"183452005","display":"Inpatient encounter"}]}],"period":{"start":"2026-07-11T08:00:00Z","end":"2026-07-14T21:00:00Z"}},"request":{"method":"PUT","url":"Encounter/afee2ec4-c0f6-44f3-9282-f740c2be1d6f"}},{"fullUrl":"Bundle/tests-IPPFail-MedGivenIsNotHypoglycemic-bundle","resource":{"resourceType":"Bundle","id":"tests-IPPFail-MedGivenIsNotHypoglycemic-bundle","type":"transaction","entry":[{"fullUrl":"https://madie.cms.gov/Encounter/afee2ec4-c0f6-44f3-9282-f740c2be1d6f","resource":{"resourceType":"Encounter","id":"afee2ec4-c0f6-44f3-9282-f740c2be1d6f","meta":{"profile":["http://hl7.org/fhir/us/qicore/StructureDefinition/qicore-encounter"]},"status":"finished","class":{"system":"http://terminology.hl7.org/CodeSystem/v3-ActCode","code":"IMP","display":"Inpatient encounter"},"type":[{"coding":[{"system":"http://snomed.info/sct","code":"183452005","display":"Inpatient encounter"}]}],"period":{"start":"2026-07-11T08:00:00Z","end":"2026-07-14T21:00:00Z"}},"request":{"method":"PUT","url":"Encounter/afee2ec4-c0f6-44f3-9282-f740c2be1d6f"}},{"fullUrl":"https://madie.cms.gov/MedicationAdministration/7b4ace51-59ed-4e5a-8984-78649af3f273","resource":{"resourceType":"MedicationAdministration","id":"7b4ace51-59ed-4e5a-8984-78649af3f273","meta":{"profile":["http://hl7.org/fhir/us/qicore/StructureDefinition/qicore-medicationadministration"]},"status":"completed","medicationCodeableConcept":{"coding":[{"system":"http://www.nlm.nih.gov/research/umls/rxnorm","code":"905377","display":"Hypoglycemics Severe Hypoglycemia"}]},"subject":{"reference":"Patient/480245d6-3ce8-4944-b6c8-339cf2f69acb"},"effectivePeriod":{"start":"2026-07-11T08:00:00Z","end":"2026-07-11T09:00:00Z"}},"request":{"method":"PUT","url":"MedicationAdministration/7b4ace51-59ed-4e5a-8984-78649af3f273"}},{"fullUrl":"https://madie.cms.gov/Patient/480245d6-3ce8-4944-b6c8-339cf2f69acb","resource":{"resourceType":"Patient","id":"480245d6-3ce8-4944-b6c8-339cf2f69acb","meta":{"profile":["http://hl7.org/fhir/us/qicore/StructureDefinition/qicore-patient"]},"extension":[{"url":"http://hl7.org/fhir/us/core/StructureDefinition/us-core-race","extension":[{"url":"ombCategory","valueCoding":{"system":"urn:oid:2.16.840.1.113883.6.238","code":"2106-3","display":"White"}},{"url":"text","valueString":"White"}]},{"url":"http://hl7.org/fhir/us/core/StructureDefinition/us-core-ethnicity","extension":[{"url":"ombCategory","valueCoding":{"system":"urn:oid:2.16.840.1.113883.6.238","code":"2135-2","display":"Hispanic or Latino"}},{"url":"text","valueString":"Hispanic or Latino"}]},{"url":"http://hl7.org/fhir/us/core/StructureDefinition/us-core-sex","valueCode":"248153007"}],"identifier":[{"system":"http://hospital.smarthealthit.org","value":"999999999"}],"name":[{"family":"Example","given":["Patient"]}],"gender":"female","birthDate":"2000-07-11"},"request":{"method":"PUT","url":"Patient/480245d6-3ce8-4944-b6c8-339cf2f69acb"}},{"fullUrl":"https://madie.cms.gov/MeasureReport/9b54322f-8c9d-4a7b-939f-8055fffcc31e","resource":{"resourceType":"MeasureReport","id":"9b54322f-8c9d-4a7b-939f-8055fffcc31e","meta":{"profile":["http://hl7.org/fhir/us/cqfmeasures/StructureDefinition/test-case-cqfm"]},"contained":[{"resourceType":"Parameters","id":"c6135d14-87e9-4bc2-a8a1-1ca9762dd75b-parameters","parameter":[{"name":"subject","valueString":"480245d6-3ce8-4944-b6c8-339cf2f69acb"}]}],"extension":[{"url":"http://hl7.org/fhir/StructureDefinition/cqf-inputParameters","valueReference":{"reference":"#c6135d14-87e9-4bc2-a8a1-1ca9762dd75b-parameters"}},{"url":"http://hl7.org/fhir/us/cqfmeasures/StructureDefinition/cqfm-testCaseDescription","valueMarkdown":"Patient inpatient, but the medication administered was not hypoglycemic med. Hypo med must be administered during encounter to meet IPP. "}],"modifierExtension":[{"url":"http://hl7.org/fhir/us/cqfmeasures/StructureDefinition/cqfm-isTestCase","valueBoolean":true}],"status":"complete","type":"individual","measure":"https://madie.cms.gov/Measure/CMS816FHIRHHHypo","period":{"start":"2026-01-01","end":"2026-12-31"},"group":[{"id":"Group_1","population":[{"id":"InitialPopulation_1","code":{"coding":[{"system":"http://terminology.hl7.org/CodeSystem/measure-population","code":"initial-population","display":"Initial Population"}]},"count":0},{"id":"Denominator_1","code":{"coding":[{"system":"http://terminology.hl7.org/CodeSystem/measure-population","code":"denominator","display":"Denominator"}]},"count":0},{"id":"Numerator_1","code":{"coding":[{"system":"http://terminology.hl7.org/CodeSystem/measure-population","code":"numerator","display":"Numerator"}]},"count":0}],"measureScore":{"value":0.0}}],"evaluatedResource":[{"reference":"Encounter/afee2ec4-c0f6-44f3-9282-f740c2be1d6f"},{"reference":"MedicationAdministration/7b4ace51-59ed-4e5a-8984-78649af3f273"},{"reference":"Patient/480245d6-3ce8-4944-b6c8-339cf2f69acb"}]},"request":{"method":"PUT","url":"MeasureReport/9b54322f-8c9d-4a7b-939f-8055fffcc31e"}}]},"request":{"method":"PUT","url":"Bundle/tests-IPPFail-MedGivenIsNotHypoglycemic-bundle"}}]}