{"resourceType":"Bundle","id":"tests-aa5f21cc-2d56-4749-a190-2828d579f790-bundle","type":"transaction","entry":[{"fullUrl":"MedicationAdministration/03dd81d3-d4a8-4605-8803-b81257cd8700","resource":{"resourceType":"MedicationAdministration","id":"03dd81d3-d4a8-4605-8803-b81257cd8700","meta":{"profile":["http://hl7.org/fhir/us/qicore/StructureDefinition/qicore-medicationadministration"]},"status":"completed","medicationCodeableConcept":{"coding":[{"system":"http://www.nlm.nih.gov/research/umls/rxnorm","code":"1361493","display":"Hypoglycemics Severe Hypoglycemia"}]},"subject":{"reference":"Patient/aa5f21cc-2d56-4749-a190-2828d579f790"},"effectivePeriod":{"start":"2026-07-11T09:00:00Z","end":"2026-07-11T09:15:00Z"}},"request":{"method":"PUT","url":"MedicationAdministration/03dd81d3-d4a8-4605-8803-b81257cd8700"}},{"fullUrl":"MeasureReport/6499e8da-0644-4f74-a328-d681c753a50b","resource":{"resourceType":"MeasureReport","id":"6499e8da-0644-4f74-a328-d681c753a50b","meta":{"profile":["http://hl7.org/fhir/us/cqfmeasures/StructureDefinition/test-case-cqfm"]},"contained":[{"resourceType":"Parameters","id":"8a31925b-c597-461c-8c31-78e9877d11eb-parameters","parameter":[{"name":"subject","valueString":"aa5f21cc-2d56-4749-a190-2828d579f790"}]}],"extension":[{"url":"http://hl7.org/fhir/StructureDefinition/cqf-inputParameters","valueReference":{"reference":"#8a31925b-c597-461c-8c31-78e9877d11eb-parameters"}},{"url":"http://hl7.org/fhir/us/cqfmeasures/StructureDefinition/cqfm-testCaseDescription","valueMarkdown":"IP Encounter with meds administered, but glucose lab <40 was before med. Must be <40 within 24 hours after med to meet numerator. Numerator fails."}],"modifierExtension":[{"url":"http://hl7.org/fhir/us/cqfmeasures/StructureDefinition/cqfm-isTestCase","valueBoolean":true}],"status":"complete","type":"individual","measure":"https://madie.cms.gov/Measure/CMS816FHIRHHHypo","period":{"start":"2026-01-01","end":"2026-12-31"},"group":[{"id":"Group_1","population":[{"id":"InitialPopulation_1","code":{"coding":[{"system":"http://terminology.hl7.org/CodeSystem/measure-population","code":"initial-population","display":"Initial Population"}]},"count":1},{"id":"Denominator_1","code":{"coding":[{"system":"http://terminology.hl7.org/CodeSystem/measure-population","code":"denominator","display":"Denominator"}]},"count":1},{"id":"Numerator_1","code":{"coding":[{"system":"http://terminology.hl7.org/CodeSystem/measure-population","code":"numerator","display":"Numerator"}]},"count":0}],"measureScore":{"value":0.0}}],"evaluatedResource":[{"reference":"Encounter/f31621d1-9210-49c9-bb3b-c7eac44582ee"},{"reference":"MedicationAdministration/03dd81d3-d4a8-4605-8803-b81257cd8700"},{"reference":"Observation/089f7fc2-b1f4-4fdd-a839-34c47b81d212"},{"reference":"Patient/aa5f21cc-2d56-4749-a190-2828d579f790"}]},"request":{"method":"PUT","url":"MeasureReport/6499e8da-0644-4f74-a328-d681c753a50b"}},{"fullUrl":"Patient/aa5f21cc-2d56-4749-a190-2828d579f790","resource":{"resourceType":"Patient","id":"aa5f21cc-2d56-4749-a190-2828d579f790","meta":{"profile":["http://hl7.org/fhir/us/qicore/StructureDefinition/qicore-patient"]},"extension":[{"url":"http://hl7.org/fhir/us/core/StructureDefinition/us-core-race","extension":[{"url":"ombCategory","valueCoding":{"system":"urn:oid:2.16.840.1.113883.6.238","code":"2106-3","display":"White"}},{"url":"text","valueString":"White"}]},{"url":"http://hl7.org/fhir/us/core/StructureDefinition/us-core-ethnicity","extension":[{"url":"ombCategory","valueCoding":{"system":"urn:oid:2.16.840.1.113883.6.238","code":"2135-2","display":"Hispanic or Latino"}},{"url":"text","valueString":"Hispanic or Latino"}]},{"url":"http://hl7.org/fhir/us/core/StructureDefinition/us-core-sex","valueCode":"248152002"}],"identifier":[{"system":"http://hospital.smarthealthit.org","value":"999999999"}],"name":[{"family":"Example","given":["Patient"]}],"gender":"female","birthDate":"2000-07-11"},"request":{"method":"PUT","url":"Patient/aa5f21cc-2d56-4749-a190-2828d579f790"}},{"fullUrl":"Bundle/tests-NUMERFail-LabBeforeMed-bundle","resource":{"resourceType":"Bundle","id":"tests-NUMERFail-LabBeforeMed-bundle","type":"transaction","entry":[{"fullUrl":"https://madie.cms.gov/Encounter/f31621d1-9210-49c9-bb3b-c7eac44582ee","resource":{"resourceType":"Encounter","id":"f31621d1-9210-49c9-bb3b-c7eac44582ee","meta":{"profile":["http://hl7.org/fhir/us/qicore/StructureDefinition/qicore-encounter"]},"status":"finished","class":{"system":"http://terminology.hl7.org/CodeSystem/v3-ActCode","code":"IMP","display":"Inpatient encounter"},"type":[{"coding":[{"system":"http://snomed.info/sct","code":"183452005","display":"Inpatient encounter"}]}],"period":{"start":"2026-07-11T08:00:00Z","end":"2026-07-17T21:00:00Z"}},"request":{"method":"PUT","url":"Encounter/f31621d1-9210-49c9-bb3b-c7eac44582ee"}},{"fullUrl":"https://madie.cms.gov/MedicationAdministration/03dd81d3-d4a8-4605-8803-b81257cd8700","resource":{"resourceType":"MedicationAdministration","id":"03dd81d3-d4a8-4605-8803-b81257cd8700","meta":{"profile":["http://hl7.org/fhir/us/qicore/StructureDefinition/qicore-medicationadministration"]},"status":"completed","medicationCodeableConcept":{"coding":[{"system":"http://www.nlm.nih.gov/research/umls/rxnorm","code":"1361493","display":"Hypoglycemics Severe Hypoglycemia"}]},"subject":{"reference":"Patient/aa5f21cc-2d56-4749-a190-2828d579f790"},"effectivePeriod":{"start":"2026-07-11T09:00:00Z","end":"2026-07-11T09:15:00Z"}},"request":{"method":"PUT","url":"MedicationAdministration/03dd81d3-d4a8-4605-8803-b81257cd8700"}},{"fullUrl":"https://madie.cms.gov/Observation/089f7fc2-b1f4-4fdd-a839-34c47b81d212","resource":{"resourceType":"Observation","id":"089f7fc2-b1f4-4fdd-a839-34c47b81d212","meta":{"profile":["http://hl7.org/fhir/us/qicore/StructureDefinition/qicore-observation-lab"]},"status":"final","code":{"coding":[{"system":"http://loinc.org","code":"1556-0","display":"Glucose Lab Test Mass Per Volume"}]},"subject":{"reference":"Patient/aa5f21cc-2d56-4749-a190-2828d579f790"},"effectivePeriod":{"start":"2026-07-11T08:00:00Z","end":"2026-07-11T08:00:00Z"},"issued":"2026-07-11T08:00:00Z","valueQuantity":{"value":35,"unit":"mg/dL"}},"request":{"method":"PUT","url":"Observation/089f7fc2-b1f4-4fdd-a839-34c47b81d212"}},{"fullUrl":"https://madie.cms.gov/Patient/aa5f21cc-2d56-4749-a190-2828d579f790","resource":{"resourceType":"Patient","id":"aa5f21cc-2d56-4749-a190-2828d579f790","meta":{"profile":["http://hl7.org/fhir/us/qicore/StructureDefinition/qicore-patient"]},"extension":[{"url":"http://hl7.org/fhir/us/core/StructureDefinition/us-core-race","extension":[{"url":"ombCategory","valueCoding":{"system":"urn:oid:2.16.840.1.113883.6.238","code":"2106-3","display":"White"}},{"url":"text","valueString":"White"}]},{"url":"http://hl7.org/fhir/us/core/StructureDefinition/us-core-ethnicity","extension":[{"url":"ombCategory","valueCoding":{"system":"urn:oid:2.16.840.1.113883.6.238","code":"2135-2","display":"Hispanic or Latino"}},{"url":"text","valueString":"Hispanic or Latino"}]},{"url":"http://hl7.org/fhir/us/core/StructureDefinition/us-core-sex","valueCode":"248152002"}],"identifier":[{"system":"http://hospital.smarthealthit.org","value":"999999999"}],"name":[{"family":"Example","given":["Patient"]}],"gender":"female","birthDate":"2000-07-11"},"request":{"method":"PUT","url":"Patient/aa5f21cc-2d56-4749-a190-2828d579f790"}},{"fullUrl":"https://madie.cms.gov/MeasureReport/6499e8da-0644-4f74-a328-d681c753a50b","resource":{"resourceType":"MeasureReport","id":"6499e8da-0644-4f74-a328-d681c753a50b","meta":{"profile":["http://hl7.org/fhir/us/cqfmeasures/StructureDefinition/test-case-cqfm"]},"contained":[{"resourceType":"Parameters","id":"8a31925b-c597-461c-8c31-78e9877d11eb-parameters","parameter":[{"name":"subject","valueString":"aa5f21cc-2d56-4749-a190-2828d579f790"}]}],"extension":[{"url":"http://hl7.org/fhir/StructureDefinition/cqf-inputParameters","valueReference":{"reference":"#8a31925b-c597-461c-8c31-78e9877d11eb-parameters"}},{"url":"http://hl7.org/fhir/us/cqfmeasures/StructureDefinition/cqfm-testCaseDescription","valueMarkdown":"IP Encounter with meds administered, but glucose lab <40 was before med. Must be <40 within 24 hours after med to meet numerator. Numerator fails."}],"modifierExtension":[{"url":"http://hl7.org/fhir/us/cqfmeasures/StructureDefinition/cqfm-isTestCase","valueBoolean":true}],"status":"complete","type":"individual","measure":"https://madie.cms.gov/Measure/CMS816FHIRHHHypo","period":{"start":"2026-01-01","end":"2026-12-31"},"group":[{"id":"Group_1","population":[{"id":"InitialPopulation_1","code":{"coding":[{"system":"http://terminology.hl7.org/CodeSystem/measure-population","code":"initial-population","display":"Initial Population"}]},"count":1},{"id":"Denominator_1","code":{"coding":[{"system":"http://terminology.hl7.org/CodeSystem/measure-population","code":"denominator","display":"Denominator"}]},"count":1},{"id":"Numerator_1","code":{"coding":[{"system":"http://terminology.hl7.org/CodeSystem/measure-population","code":"numerator","display":"Numerator"}]},"count":0}],"measureScore":{"value":0.0}}],"evaluatedResource":[{"reference":"Encounter/f31621d1-9210-49c9-bb3b-c7eac44582ee"},{"reference":"MedicationAdministration/03dd81d3-d4a8-4605-8803-b81257cd8700"},{"reference":"Observation/089f7fc2-b1f4-4fdd-a839-34c47b81d212"},{"reference":"Patient/aa5f21cc-2d56-4749-a190-2828d579f790"}]},"request":{"method":"PUT","url":"MeasureReport/6499e8da-0644-4f74-a328-d681c753a50b"}}]},"request":{"method":"PUT","url":"Bundle/tests-NUMERFail-LabBeforeMed-bundle"}},{"fullUrl":"Encounter/f31621d1-9210-49c9-bb3b-c7eac44582ee","resource":{"resourceType":"Encounter","id":"f31621d1-9210-49c9-bb3b-c7eac44582ee","meta":{"profile":["http://hl7.org/fhir/us/qicore/StructureDefinition/qicore-encounter"]},"status":"finished","class":{"system":"http://terminology.hl7.org/CodeSystem/v3-ActCode","code":"IMP","display":"Inpatient encounter"},"type":[{"coding":[{"system":"http://snomed.info/sct","code":"183452005","display":"Inpatient encounter"}]}],"period":{"start":"2026-07-11T08:00:00Z","end":"2026-07-17T21:00:00Z"}},"request":{"method":"PUT","url":"Encounter/f31621d1-9210-49c9-bb3b-c7eac44582ee"}},{"fullUrl":"Observation/089f7fc2-b1f4-4fdd-a839-34c47b81d212","resource":{"resourceType":"Observation","id":"089f7fc2-b1f4-4fdd-a839-34c47b81d212","meta":{"profile":["http://hl7.org/fhir/us/qicore/StructureDefinition/qicore-observation-lab"]},"status":"final","code":{"coding":[{"system":"http://loinc.org","code":"1556-0","display":"Glucose Lab Test Mass Per Volume"}]},"subject":{"reference":"Patient/aa5f21cc-2d56-4749-a190-2828d579f790"},"effectivePeriod":{"start":"2026-07-11T08:00:00Z","end":"2026-07-11T08:00:00Z"},"issued":"2026-07-11T08:00:00Z","valueQuantity":{"value":35,"unit":"mg/dL"}},"request":{"method":"PUT","url":"Observation/089f7fc2-b1f4-4fdd-a839-34c47b81d212"}}]}