{"resourceType":"Bundle","id":"tests-339a989b-722c-4452-9d25-454e2d53eea8-bundle","type":"transaction","entry":[{"fullUrl":"Encounter/8fbdc189-78fa-4736-8913-74531d4ae92e","resource":{"resourceType":"Encounter","id":"8fbdc189-78fa-4736-8913-74531d4ae92e","meta":{"profile":["http://hl7.org/fhir/us/qicore/StructureDefinition/qicore-encounter"]},"status":"finished","class":{"system":"http://terminology.hl7.org/CodeSystem/v3-ActCode","code":"IMP","display":"Inpatient encounter"},"type":[{"coding":[{"system":"http://snomed.info/sct","code":"183452005","display":"Inpatient encounter"}]}],"period":{"start":"2026-02-03T08:00:00Z","end":"2026-02-06T08:15:00Z"}},"request":{"method":"PUT","url":"Encounter/8fbdc189-78fa-4736-8913-74531d4ae92e"}},{"fullUrl":"Observation/43af5867-d6a8-4c6d-aca9-1bfbfcb44cbb","resource":{"resourceType":"Observation","id":"43af5867-d6a8-4c6d-aca9-1bfbfcb44cbb","meta":{"profile":["http://hl7.org/fhir/us/qicore/StructureDefinition/qicore-observation-lab"]},"status":"final","code":{"coding":[{"system":"http://loinc.org","code":"1556-0","display":"Glucose Lab Test Mass Per Volume"}]},"subject":{"reference":"Patient/339a989b-722c-4452-9d25-454e2d53eea8"},"effectivePeriod":{"start":"2026-02-04T10:06:00Z","end":"2026-02-04T10:07:00Z"},"issued":"2026-02-04T10:06:00Z","valueQuantity":{"value":90,"unit":"mg/dL"}},"request":{"method":"PUT","url":"Observation/43af5867-d6a8-4c6d-aca9-1bfbfcb44cbb"}},{"fullUrl":"Patient/339a989b-722c-4452-9d25-454e2d53eea8","resource":{"resourceType":"Patient","id":"339a989b-722c-4452-9d25-454e2d53eea8","meta":{"profile":["http://hl7.org/fhir/us/qicore/StructureDefinition/qicore-patient"]},"extension":[{"url":"http://hl7.org/fhir/us/core/StructureDefinition/us-core-race","extension":[{"url":"ombCategory","valueCoding":{"system":"urn:oid:2.16.840.1.113883.6.238","code":"2106-3","display":"White"}},{"url":"text","valueString":"White"}]},{"url":"http://hl7.org/fhir/us/core/StructureDefinition/us-core-ethnicity","extension":[{"url":"ombCategory","valueCoding":{"system":"urn:oid:2.16.840.1.113883.6.238","code":"2135-2","display":"Hispanic or Latino"}},{"url":"text","valueString":"Hispanic or Latino"}]},{"url":"http://hl7.org/fhir/us/core/StructureDefinition/us-core-sex","valueCode":"248153007"}],"identifier":[{"system":"http://hospital.smarthealthit.org","value":"999999999"}],"name":[{"family":"Example","given":["Patient"]}],"gender":"female","birthDate":"2000-02-03"},"request":{"method":"PUT","url":"Patient/339a989b-722c-4452-9d25-454e2d53eea8"}},{"fullUrl":"MedicationAdministration/1bd7ef16-f214-4343-bb24-21c0efaa6a68","resource":{"resourceType":"MedicationAdministration","id":"1bd7ef16-f214-4343-bb24-21c0efaa6a68","meta":{"profile":["http://hl7.org/fhir/us/qicore/StructureDefinition/qicore-medicationadministration"]},"status":"completed","medicationCodeableConcept":{"coding":[{"system":"http://www.nlm.nih.gov/research/umls/rxnorm","code":"1652239","display":"Hypoglycemics Severe Hypoglycemia"}]},"subject":{"reference":"Patient/339a989b-722c-4452-9d25-454e2d53eea8"},"effectivePeriod":{"start":"2026-02-04T08:00:00Z","end":"2026-02-04T08:15:00Z"}},"request":{"method":"PUT","url":"MedicationAdministration/1bd7ef16-f214-4343-bb24-21c0efaa6a68"}},{"fullUrl":"Bundle/tests-NUMERPass-1Enc2ResultsLT40UsedRelevantPeriod-bundle","resource":{"resourceType":"Bundle","id":"tests-NUMERPass-1Enc2ResultsLT40UsedRelevantPeriod-bundle","type":"transaction","entry":[{"fullUrl":"https://madie.cms.gov/Encounter/8fbdc189-78fa-4736-8913-74531d4ae92e","resource":{"resourceType":"Encounter","id":"8fbdc189-78fa-4736-8913-74531d4ae92e","meta":{"profile":["http://hl7.org/fhir/us/qicore/StructureDefinition/qicore-encounter"]},"status":"finished","class":{"system":"http://terminology.hl7.org/CodeSystem/v3-ActCode","code":"IMP","display":"Inpatient encounter"},"type":[{"coding":[{"system":"http://snomed.info/sct","code":"183452005","display":"Inpatient encounter"}]}],"period":{"start":"2026-02-03T08:00:00Z","end":"2026-02-06T08:15:00Z"}},"request":{"method":"PUT","url":"Encounter/8fbdc189-78fa-4736-8913-74531d4ae92e"}},{"fullUrl":"https://madie.cms.gov/MedicationAdministration/1bd7ef16-f214-4343-bb24-21c0efaa6a68","resource":{"resourceType":"MedicationAdministration","id":"1bd7ef16-f214-4343-bb24-21c0efaa6a68","meta":{"profile":["http://hl7.org/fhir/us/qicore/StructureDefinition/qicore-medicationadministration"]},"status":"completed","medicationCodeableConcept":{"coding":[{"system":"http://www.nlm.nih.gov/research/umls/rxnorm","code":"1652239","display":"Hypoglycemics Severe Hypoglycemia"}]},"subject":{"reference":"Patient/339a989b-722c-4452-9d25-454e2d53eea8"},"effectivePeriod":{"start":"2026-02-04T08:00:00Z","end":"2026-02-04T08:15:00Z"}},"request":{"method":"PUT","url":"MedicationAdministration/1bd7ef16-f214-4343-bb24-21c0efaa6a68"}},{"fullUrl":"https://madie.cms.gov/Observation/43af5867-d6a8-4c6d-aca9-1bfbfcb44cbb","resource":{"resourceType":"Observation","id":"43af5867-d6a8-4c6d-aca9-1bfbfcb44cbb","meta":{"profile":["http://hl7.org/fhir/us/qicore/StructureDefinition/qicore-observation-lab"]},"status":"final","code":{"coding":[{"system":"http://loinc.org","code":"1556-0","display":"Glucose Lab Test Mass Per Volume"}]},"subject":{"reference":"Patient/339a989b-722c-4452-9d25-454e2d53eea8"},"effectivePeriod":{"start":"2026-02-04T10:06:00Z","end":"2026-02-04T10:07:00Z"},"issued":"2026-02-04T10:06:00Z","valueQuantity":{"value":90,"unit":"mg/dL"}},"request":{"method":"PUT","url":"Observation/43af5867-d6a8-4c6d-aca9-1bfbfcb44cbb"}},{"fullUrl":"https://madie.cms.gov/Observation/5309a66b-3345-49e4-abc5-adbaa546d1f4","resource":{"resourceType":"Observation","id":"5309a66b-3345-49e4-abc5-adbaa546d1f4","meta":{"profile":["http://hl7.org/fhir/us/qicore/StructureDefinition/qicore-observation-lab"]},"status":"final","code":{"coding":[{"system":"http://loinc.org","code":"1556-0","display":"Glucose Lab Test Mass Per Volume"}]},"subject":{"reference":"Patient/339a989b-722c-4452-9d25-454e2d53eea8"},"effectivePeriod":{"start":"2026-02-04T11:45:00Z","end":"2026-02-04T11:45:00Z"},"issued":"2026-02-04T11:45:00Z","valueQuantity":{"value":30,"unit":"mg/dL"}},"request":{"method":"PUT","url":"Observation/5309a66b-3345-49e4-abc5-adbaa546d1f4"}},{"fullUrl":"https://madie.cms.gov/Observation/eb9a4cb0-1770-4ef2-885a-8d50cf28d25e","resource":{"resourceType":"Observation","id":"eb9a4cb0-1770-4ef2-885a-8d50cf28d25e","meta":{"profile":["http://hl7.org/fhir/us/qicore/StructureDefinition/qicore-observation-lab"]},"status":"final","code":{"coding":[{"system":"http://loinc.org","code":"1556-0","display":"Glucose Lab Test Mass Per Volume"}]},"subject":{"reference":"Patient/339a989b-722c-4452-9d25-454e2d53eea8"},"effectivePeriod":{"start":"2026-02-04T10:00:00Z","end":"2026-02-04T10:00:00Z"},"issued":"2026-02-04T10:00:00Z","valueQuantity":{"value":39,"unit":"mg/dL"}},"request":{"method":"PUT","url":"Observation/eb9a4cb0-1770-4ef2-885a-8d50cf28d25e"}},{"fullUrl":"https://madie.cms.gov/Patient/339a989b-722c-4452-9d25-454e2d53eea8","resource":{"resourceType":"Patient","id":"339a989b-722c-4452-9d25-454e2d53eea8","meta":{"profile":["http://hl7.org/fhir/us/qicore/StructureDefinition/qicore-patient"]},"extension":[{"url":"http://hl7.org/fhir/us/core/StructureDefinition/us-core-race","extension":[{"url":"ombCategory","valueCoding":{"system":"urn:oid:2.16.840.1.113883.6.238","code":"2106-3","display":"White"}},{"url":"text","valueString":"White"}]},{"url":"http://hl7.org/fhir/us/core/StructureDefinition/us-core-ethnicity","extension":[{"url":"ombCategory","valueCoding":{"system":"urn:oid:2.16.840.1.113883.6.238","code":"2135-2","display":"Hispanic or Latino"}},{"url":"text","valueString":"Hispanic or Latino"}]},{"url":"http://hl7.org/fhir/us/core/StructureDefinition/us-core-sex","valueCode":"248153007"}],"identifier":[{"system":"http://hospital.smarthealthit.org","value":"999999999"}],"name":[{"family":"Example","given":["Patient"]}],"gender":"female","birthDate":"2000-02-03"},"request":{"method":"PUT","url":"Patient/339a989b-722c-4452-9d25-454e2d53eea8"}},{"fullUrl":"https://madie.cms.gov/MeasureReport/5583a66f-b5c8-45b0-9401-eac73661e079","resource":{"resourceType":"MeasureReport","id":"5583a66f-b5c8-45b0-9401-eac73661e079","meta":{"profile":["http://hl7.org/fhir/us/cqfmeasures/StructureDefinition/test-case-cqfm"]},"contained":[{"resourceType":"Parameters","id":"244f753b-6c25-4e1e-9b31-8caa7361d95e-parameters","parameter":[{"name":"subject","valueString":"339a989b-722c-4452-9d25-454e2d53eea8"}]}],"extension":[{"url":"http://hl7.org/fhir/StructureDefinition/cqf-inputParameters","valueReference":{"reference":"#244f753b-6c25-4e1e-9b31-8caa7361d95e-parameters"}},{"url":"http://hl7.org/fhir/us/cqfmeasures/StructureDefinition/cqfm-testCaseDescription","valueMarkdown":"Encounter with meds and 3 glucose labs. Two are <40, one is >80 but is not within 5 minutes of other labs. Meets num. = 1 harm. Used start of relevant period for lab test timings"}],"modifierExtension":[{"url":"http://hl7.org/fhir/us/cqfmeasures/StructureDefinition/cqfm-isTestCase","valueBoolean":true}],"status":"complete","type":"individual","measure":"https://madie.cms.gov/Measure/CMS816FHIRHHHypo","period":{"start":"2026-01-01","end":"2026-12-31"},"group":[{"id":"Group_1","population":[{"id":"InitialPopulation_1","code":{"coding":[{"system":"http://terminology.hl7.org/CodeSystem/measure-population","code":"initial-population","display":"Initial Population"}]},"count":1},{"id":"Denominator_1","code":{"coding":[{"system":"http://terminology.hl7.org/CodeSystem/measure-population","code":"denominator","display":"Denominator"}]},"count":1},{"id":"Numerator_1","code":{"coding":[{"system":"http://terminology.hl7.org/CodeSystem/measure-population","code":"numerator","display":"Numerator"}]},"count":1}],"measureScore":{"value":0.0}}],"evaluatedResource":[{"reference":"Encounter/8fbdc189-78fa-4736-8913-74531d4ae92e"},{"reference":"MedicationAdministration/1bd7ef16-f214-4343-bb24-21c0efaa6a68"},{"reference":"Observation/43af5867-d6a8-4c6d-aca9-1bfbfcb44cbb"},{"reference":"Observation/5309a66b-3345-49e4-abc5-adbaa546d1f4"},{"reference":"Observation/eb9a4cb0-1770-4ef2-885a-8d50cf28d25e"},{"reference":"Patient/339a989b-722c-4452-9d25-454e2d53eea8"}]},"request":{"method":"PUT","url":"MeasureReport/5583a66f-b5c8-45b0-9401-eac73661e079"}}]},"request":{"method":"PUT","url":"Bundle/tests-NUMERPass-1Enc2ResultsLT40UsedRelevantPeriod-bundle"}},{"fullUrl":"MeasureReport/5583a66f-b5c8-45b0-9401-eac73661e079","resource":{"resourceType":"MeasureReport","id":"5583a66f-b5c8-45b0-9401-eac73661e079","meta":{"profile":["http://hl7.org/fhir/us/cqfmeasures/StructureDefinition/test-case-cqfm"]},"contained":[{"resourceType":"Parameters","id":"244f753b-6c25-4e1e-9b31-8caa7361d95e-parameters","parameter":[{"name":"subject","valueString":"339a989b-722c-4452-9d25-454e2d53eea8"}]}],"extension":[{"url":"http://hl7.org/fhir/StructureDefinition/cqf-inputParameters","valueReference":{"reference":"#244f753b-6c25-4e1e-9b31-8caa7361d95e-parameters"}},{"url":"http://hl7.org/fhir/us/cqfmeasures/StructureDefinition/cqfm-testCaseDescription","valueMarkdown":"Encounter with meds and 3 glucose labs. Two are <40, one is >80 but is not within 5 minutes of other labs. Meets num. = 1 harm. Used start of relevant period for lab test timings"}],"modifierExtension":[{"url":"http://hl7.org/fhir/us/cqfmeasures/StructureDefinition/cqfm-isTestCase","valueBoolean":true}],"status":"complete","type":"individual","measure":"https://madie.cms.gov/Measure/CMS816FHIRHHHypo","period":{"start":"2026-01-01","end":"2026-12-31"},"group":[{"id":"Group_1","population":[{"id":"InitialPopulation_1","code":{"coding":[{"system":"http://terminology.hl7.org/CodeSystem/measure-population","code":"initial-population","display":"Initial Population"}]},"count":1},{"id":"Denominator_1","code":{"coding":[{"system":"http://terminology.hl7.org/CodeSystem/measure-population","code":"denominator","display":"Denominator"}]},"count":1},{"id":"Numerator_1","code":{"coding":[{"system":"http://terminology.hl7.org/CodeSystem/measure-population","code":"numerator","display":"Numerator"}]},"count":1}],"measureScore":{"value":0.0}}],"evaluatedResource":[{"reference":"Encounter/8fbdc189-78fa-4736-8913-74531d4ae92e"},{"reference":"MedicationAdministration/1bd7ef16-f214-4343-bb24-21c0efaa6a68"},{"reference":"Observation/43af5867-d6a8-4c6d-aca9-1bfbfcb44cbb"},{"reference":"Observation/5309a66b-3345-49e4-abc5-adbaa546d1f4"},{"reference":"Observation/eb9a4cb0-1770-4ef2-885a-8d50cf28d25e"},{"reference":"Patient/339a989b-722c-4452-9d25-454e2d53eea8"}]},"request":{"method":"PUT","url":"MeasureReport/5583a66f-b5c8-45b0-9401-eac73661e079"}},{"fullUrl":"Observation/5309a66b-3345-49e4-abc5-adbaa546d1f4","resource":{"resourceType":"Observation","id":"5309a66b-3345-49e4-abc5-adbaa546d1f4","meta":{"profile":["http://hl7.org/fhir/us/qicore/StructureDefinition/qicore-observation-lab"]},"status":"final","code":{"coding":[{"system":"http://loinc.org","code":"1556-0","display":"Glucose Lab Test Mass Per Volume"}]},"subject":{"reference":"Patient/339a989b-722c-4452-9d25-454e2d53eea8"},"effectivePeriod":{"start":"2026-02-04T11:45:00Z","end":"2026-02-04T11:45:00Z"},"issued":"2026-02-04T11:45:00Z","valueQuantity":{"value":30,"unit":"mg/dL"}},"request":{"method":"PUT","url":"Observation/5309a66b-3345-49e4-abc5-adbaa546d1f4"}},{"fullUrl":"Observation/eb9a4cb0-1770-4ef2-885a-8d50cf28d25e","resource":{"resourceType":"Observation","id":"eb9a4cb0-1770-4ef2-885a-8d50cf28d25e","meta":{"profile":["http://hl7.org/fhir/us/qicore/StructureDefinition/qicore-observation-lab"]},"status":"final","code":{"coding":[{"system":"http://loinc.org","code":"1556-0","display":"Glucose Lab Test Mass Per Volume"}]},"subject":{"reference":"Patient/339a989b-722c-4452-9d25-454e2d53eea8"},"effectivePeriod":{"start":"2026-02-04T10:00:00Z","end":"2026-02-04T10:00:00Z"},"issued":"2026-02-04T10:00:00Z","valueQuantity":{"value":39,"unit":"mg/dL"}},"request":{"method":"PUT","url":"Observation/eb9a4cb0-1770-4ef2-885a-8d50cf28d25e"}}]}