{"resourceType":"Bundle","id":"tests-8301c6c8-e50c-4457-add0-1ebd909c8ca7-bundle","type":"transaction","entry":[{"fullUrl":"Patient/8301c6c8-e50c-4457-add0-1ebd909c8ca7","resource":{"resourceType":"Patient","id":"8301c6c8-e50c-4457-add0-1ebd909c8ca7","meta":{"profile":["http://hl7.org/fhir/us/qicore/StructureDefinition/qicore-patient"]},"extension":[{"url":"http://hl7.org/fhir/us/core/StructureDefinition/us-core-race","extension":[{"url":"ombCategory","valueCoding":{"system":"urn:oid:2.16.840.1.113883.6.238","code":"2106-3","display":"White"}},{"url":"text","valueString":"White"}]},{"url":"http://hl7.org/fhir/us/core/StructureDefinition/us-core-ethnicity","extension":[{"url":"ombCategory","valueCoding":{"system":"urn:oid:2.16.840.1.113883.6.238","code":"2135-2","display":"Hispanic or Latino"}},{"url":"text","valueString":"Hispanic or Latino"}]},{"url":"http://hl7.org/fhir/us/core/StructureDefinition/us-core-sex","valueCode":"248153007"}],"identifier":[{"system":"http://hospital.smarthealthit.org","value":"999999999"}],"name":[{"family":"Example","given":["Patient"]}],"gender":"female","birthDate":"1956-01-01"},"request":{"method":"PUT","url":"Patient/8301c6c8-e50c-4457-add0-1ebd909c8ca7"}},{"fullUrl":"MedicationAdministration/d218bc1b-bd3e-4db2-aa66-0d329e897169","resource":{"resourceType":"MedicationAdministration","id":"d218bc1b-bd3e-4db2-aa66-0d329e897169","meta":{"profile":["http://hl7.org/fhir/us/qicore/StructureDefinition/qicore-medicationadministration"]},"status":"completed","medicationCodeableConcept":{"coding":[{"system":"http://www.nlm.nih.gov/research/umls/rxnorm","code":"1670021","display":"Hypoglycemics Severe Hypoglycemia"}]},"subject":{"reference":"Patient/8301c6c8-e50c-4457-add0-1ebd909c8ca7"},"effectivePeriod":{"start":"2026-07-12T21:00:00.000+00:00"}},"request":{"method":"PUT","url":"MedicationAdministration/d218bc1b-bd3e-4db2-aa66-0d329e897169"}},{"fullUrl":"Bundle/tests-DENOMPass-MedsEndOfEncounterEdgeCase-bundle","resource":{"resourceType":"Bundle","id":"tests-DENOMPass-MedsEndOfEncounterEdgeCase-bundle","type":"transaction","entry":[{"fullUrl":"https://madie.cms.gov/Encounter/e81c8e7f-4154-4e8b-b4d8-6d954040ef51","resource":{"resourceType":"Encounter","id":"e81c8e7f-4154-4e8b-b4d8-6d954040ef51","meta":{"profile":["http://hl7.org/fhir/us/qicore/StructureDefinition/qicore-encounter"]},"status":"finished","class":{"system":"http://terminology.hl7.org/CodeSystem/v3-ActCode","code":"IMP","display":"Inpatient encounter"},"type":[{"coding":[{"system":"http://snomed.info/sct","code":"183452005","display":"Inpatient encounter"}]}],"period":{"start":"2026-07-11T08:00:00.000+00:00","end":"2026-07-12T21:00:00.000+00:00"}},"request":{"method":"PUT","url":"Encounter/e81c8e7f-4154-4e8b-b4d8-6d954040ef51"}},{"fullUrl":"https://madie.cms.gov/MedicationAdministration/d218bc1b-bd3e-4db2-aa66-0d329e897169","resource":{"resourceType":"MedicationAdministration","id":"d218bc1b-bd3e-4db2-aa66-0d329e897169","meta":{"profile":["http://hl7.org/fhir/us/qicore/StructureDefinition/qicore-medicationadministration"]},"status":"completed","medicationCodeableConcept":{"coding":[{"system":"http://www.nlm.nih.gov/research/umls/rxnorm","code":"1670021","display":"Hypoglycemics Severe Hypoglycemia"}]},"subject":{"reference":"Patient/8301c6c8-e50c-4457-add0-1ebd909c8ca7"},"effectivePeriod":{"start":"2026-07-12T21:00:00.000+00:00"}},"request":{"method":"PUT","url":"MedicationAdministration/d218bc1b-bd3e-4db2-aa66-0d329e897169"}},{"fullUrl":"https://madie.cms.gov/Patient/8301c6c8-e50c-4457-add0-1ebd909c8ca7","resource":{"resourceType":"Patient","id":"8301c6c8-e50c-4457-add0-1ebd909c8ca7","meta":{"profile":["http://hl7.org/fhir/us/qicore/StructureDefinition/qicore-patient"]},"extension":[{"url":"http://hl7.org/fhir/us/core/StructureDefinition/us-core-race","extension":[{"url":"ombCategory","valueCoding":{"system":"urn:oid:2.16.840.1.113883.6.238","code":"2106-3","display":"White"}},{"url":"text","valueString":"White"}]},{"url":"http://hl7.org/fhir/us/core/StructureDefinition/us-core-ethnicity","extension":[{"url":"ombCategory","valueCoding":{"system":"urn:oid:2.16.840.1.113883.6.238","code":"2135-2","display":"Hispanic or Latino"}},{"url":"text","valueString":"Hispanic or Latino"}]},{"url":"http://hl7.org/fhir/us/core/StructureDefinition/us-core-sex","valueCode":"248153007"}],"identifier":[{"system":"http://hospital.smarthealthit.org","value":"999999999"}],"name":[{"family":"Example","given":["Patient"]}],"gender":"female","birthDate":"1956-01-01"},"request":{"method":"PUT","url":"Patient/8301c6c8-e50c-4457-add0-1ebd909c8ca7"}},{"fullUrl":"https://madie.cms.gov/MeasureReport/5cecc2c4-4f8c-46e6-9565-7323ee63f100","resource":{"resourceType":"MeasureReport","id":"5cecc2c4-4f8c-46e6-9565-7323ee63f100","meta":{"profile":["http://hl7.org/fhir/us/cqfmeasures/StructureDefinition/test-case-cqfm"]},"contained":[{"resourceType":"Parameters","id":"4b910017-eae0-45a4-8779-7d820e909bee-parameters","parameter":[{"name":"subject","valueString":"8301c6c8-e50c-4457-add0-1ebd909c8ca7"}]}],"extension":[{"url":"http://hl7.org/fhir/StructureDefinition/cqf-inputParameters","valueReference":{"reference":"#4b910017-eae0-45a4-8779-7d820e909bee-parameters"}},{"url":"http://hl7.org/fhir/us/cqfmeasures/StructureDefinition/cqfm-testCaseDescription","valueMarkdown":"Encounter, med relevant period start date/time is same date/time as end of encounter date/time. No lab tests. Meets denom rule - med must start during encounter."}],"modifierExtension":[{"url":"http://hl7.org/fhir/us/cqfmeasures/StructureDefinition/cqfm-isTestCase","valueBoolean":true}],"status":"complete","type":"individual","measure":"https://madie.cms.gov/Measure/CMS816FHIRHHHypo","period":{"start":"2026-01-01","end":"2026-12-31"},"group":[{"id":"Group_1","population":[{"id":"InitialPopulation_1","code":{"coding":[{"system":"http://terminology.hl7.org/CodeSystem/measure-population","code":"initial-population","display":"Initial Population"}]},"count":1},{"id":"Denominator_1","code":{"coding":[{"system":"http://terminology.hl7.org/CodeSystem/measure-population","code":"denominator","display":"Denominator"}]},"count":1},{"id":"Numerator_1","code":{"coding":[{"system":"http://terminology.hl7.org/CodeSystem/measure-population","code":"numerator","display":"Numerator"}]},"count":0}],"measureScore":{"value":0.0}}],"evaluatedResource":[{"reference":"Encounter/e81c8e7f-4154-4e8b-b4d8-6d954040ef51"},{"reference":"MedicationAdministration/d218bc1b-bd3e-4db2-aa66-0d329e897169"},{"reference":"Patient/8301c6c8-e50c-4457-add0-1ebd909c8ca7"}]},"request":{"method":"PUT","url":"MeasureReport/5cecc2c4-4f8c-46e6-9565-7323ee63f100"}}]},"request":{"method":"PUT","url":"Bundle/tests-DENOMPass-MedsEndOfEncounterEdgeCase-bundle"}},{"fullUrl":"MeasureReport/5cecc2c4-4f8c-46e6-9565-7323ee63f100","resource":{"resourceType":"MeasureReport","id":"5cecc2c4-4f8c-46e6-9565-7323ee63f100","meta":{"profile":["http://hl7.org/fhir/us/cqfmeasures/StructureDefinition/test-case-cqfm"]},"contained":[{"resourceType":"Parameters","id":"4b910017-eae0-45a4-8779-7d820e909bee-parameters","parameter":[{"name":"subject","valueString":"8301c6c8-e50c-4457-add0-1ebd909c8ca7"}]}],"extension":[{"url":"http://hl7.org/fhir/StructureDefinition/cqf-inputParameters","valueReference":{"reference":"#4b910017-eae0-45a4-8779-7d820e909bee-parameters"}},{"url":"http://hl7.org/fhir/us/cqfmeasures/StructureDefinition/cqfm-testCaseDescription","valueMarkdown":"Encounter, med relevant period start date/time is same date/time as end of encounter date/time. No lab tests. Meets denom rule - med must start during encounter."}],"modifierExtension":[{"url":"http://hl7.org/fhir/us/cqfmeasures/StructureDefinition/cqfm-isTestCase","valueBoolean":true}],"status":"complete","type":"individual","measure":"https://madie.cms.gov/Measure/CMS816FHIRHHHypo","period":{"start":"2026-01-01","end":"2026-12-31"},"group":[{"id":"Group_1","population":[{"id":"InitialPopulation_1","code":{"coding":[{"system":"http://terminology.hl7.org/CodeSystem/measure-population","code":"initial-population","display":"Initial Population"}]},"count":1},{"id":"Denominator_1","code":{"coding":[{"system":"http://terminology.hl7.org/CodeSystem/measure-population","code":"denominator","display":"Denominator"}]},"count":1},{"id":"Numerator_1","code":{"coding":[{"system":"http://terminology.hl7.org/CodeSystem/measure-population","code":"numerator","display":"Numerator"}]},"count":0}],"measureScore":{"value":0.0}}],"evaluatedResource":[{"reference":"Encounter/e81c8e7f-4154-4e8b-b4d8-6d954040ef51"},{"reference":"MedicationAdministration/d218bc1b-bd3e-4db2-aa66-0d329e897169"},{"reference":"Patient/8301c6c8-e50c-4457-add0-1ebd909c8ca7"}]},"request":{"method":"PUT","url":"MeasureReport/5cecc2c4-4f8c-46e6-9565-7323ee63f100"}},{"fullUrl":"Encounter/e81c8e7f-4154-4e8b-b4d8-6d954040ef51","resource":{"resourceType":"Encounter","id":"e81c8e7f-4154-4e8b-b4d8-6d954040ef51","meta":{"profile":["http://hl7.org/fhir/us/qicore/StructureDefinition/qicore-encounter"]},"status":"finished","class":{"system":"http://terminology.hl7.org/CodeSystem/v3-ActCode","code":"IMP","display":"Inpatient encounter"},"type":[{"coding":[{"system":"http://snomed.info/sct","code":"183452005","display":"Inpatient encounter"}]}],"period":{"start":"2026-07-11T08:00:00.000+00:00","end":"2026-07-12T21:00:00.000+00:00"}},"request":{"method":"PUT","url":"Encounter/e81c8e7f-4154-4e8b-b4d8-6d954040ef51"}}]}