{"resourceType":"Bundle","id":"tests-61a026c6-be9e-4a0f-b495-8ea421edfe39-bundle","type":"transaction","entry":[{"fullUrl":"Encounter/d2dbd8d2-53af-4910-8725-2c4cce1a4a6e","resource":{"resourceType":"Encounter","id":"d2dbd8d2-53af-4910-8725-2c4cce1a4a6e","meta":{"profile":["http://hl7.org/fhir/us/qicore/StructureDefinition/qicore-encounter"]},"status":"finished","class":{"system":"http://terminology.hl7.org/CodeSystem/v3-ActCode","code":"IMP","display":"Inpatient encounter"},"type":[{"coding":[{"system":"http://www.ama-assn.org/go/cpt","code":"99212","display":"Office or other outpatient visit, established patient"}]}],"period":{"start":"2026-07-11T08:00:00Z","end":"2026-07-11T09:00:00Z"}},"request":{"method":"PUT","url":"Encounter/d2dbd8d2-53af-4910-8725-2c4cce1a4a6e"}},{"fullUrl":"MeasureReport/6e4f1117-684d-44ab-978b-b680f37fa139","resource":{"resourceType":"MeasureReport","id":"6e4f1117-684d-44ab-978b-b680f37fa139","meta":{"profile":["http://hl7.org/fhir/us/cqfmeasures/StructureDefinition/test-case-cqfm"]},"contained":[{"resourceType":"Parameters","id":"e4fdd987-e62d-4002-8ed5-4991fb32d159-parameters","parameter":[{"name":"subject","valueString":"61a026c6-be9e-4a0f-b495-8ea421edfe39"}]}],"extension":[{"url":"http://hl7.org/fhir/StructureDefinition/cqf-inputParameters","valueReference":{"reference":"#e4fdd987-e62d-4002-8ed5-4991fb32d159-parameters"}},{"url":"http://hl7.org/fhir/us/cqfmeasures/StructureDefinition/cqfm-testCaseDescription","valueMarkdown":"Patient had hypoglycemic medication administered, but was during a non-qualifying encounter (outpatient visit code). No inpatient encounter so does not meet IPP/Denom. "}],"modifierExtension":[{"url":"http://hl7.org/fhir/us/cqfmeasures/StructureDefinition/cqfm-isTestCase","valueBoolean":true}],"status":"complete","type":"individual","measure":"https://madie.cms.gov/Measure/CMS816FHIRHHHypo","period":{"start":"2026-01-01","end":"2026-12-31"},"group":[{"id":"Group_1","population":[{"id":"InitialPopulation_1","code":{"coding":[{"system":"http://terminology.hl7.org/CodeSystem/measure-population","code":"initial-population","display":"Initial Population"}]},"count":0},{"id":"Denominator_1","code":{"coding":[{"system":"http://terminology.hl7.org/CodeSystem/measure-population","code":"denominator","display":"Denominator"}]},"count":0},{"id":"Numerator_1","code":{"coding":[{"system":"http://terminology.hl7.org/CodeSystem/measure-population","code":"numerator","display":"Numerator"}]},"count":0}],"measureScore":{"value":0.0}}],"evaluatedResource":[{"reference":"Encounter/d2dbd8d2-53af-4910-8725-2c4cce1a4a6e"},{"reference":"MedicationAdministration/6c8d6931-add8-416c-83b3-72aaa4a936bd"},{"reference":"Patient/61a026c6-be9e-4a0f-b495-8ea421edfe39"}]},"request":{"method":"PUT","url":"MeasureReport/6e4f1117-684d-44ab-978b-b680f37fa139"}},{"fullUrl":"MedicationAdministration/6c8d6931-add8-416c-83b3-72aaa4a936bd","resource":{"resourceType":"MedicationAdministration","id":"6c8d6931-add8-416c-83b3-72aaa4a936bd","meta":{"profile":["http://hl7.org/fhir/us/qicore/StructureDefinition/qicore-medicationadministration"]},"status":"completed","medicationCodeableConcept":{"coding":[{"system":"http://www.nlm.nih.gov/research/umls/rxnorm","code":"1860167","display":"Hypoglycemics Severe Hypoglycemia"}]},"subject":{"reference":"Patient/61a026c6-be9e-4a0f-b495-8ea421edfe39"},"effectivePeriod":{"start":"2026-07-11T08:00:00Z","end":"2026-07-11T09:00:00Z"}},"request":{"method":"PUT","url":"MedicationAdministration/6c8d6931-add8-416c-83b3-72aaa4a936bd"}},{"fullUrl":"Bundle/tests-IPPFail-OutpatientEncounter-bundle","resource":{"resourceType":"Bundle","id":"tests-IPPFail-OutpatientEncounter-bundle","type":"transaction","entry":[{"fullUrl":"https://madie.cms.gov/Encounter/d2dbd8d2-53af-4910-8725-2c4cce1a4a6e","resource":{"resourceType":"Encounter","id":"d2dbd8d2-53af-4910-8725-2c4cce1a4a6e","meta":{"profile":["http://hl7.org/fhir/us/qicore/StructureDefinition/qicore-encounter"]},"status":"finished","class":{"system":"http://terminology.hl7.org/CodeSystem/v3-ActCode","code":"IMP","display":"Inpatient encounter"},"type":[{"coding":[{"system":"http://www.ama-assn.org/go/cpt","code":"99212","display":"Office or other outpatient visit, established patient"}]}],"period":{"start":"2026-07-11T08:00:00Z","end":"2026-07-11T09:00:00Z"}},"request":{"method":"PUT","url":"Encounter/d2dbd8d2-53af-4910-8725-2c4cce1a4a6e"}},{"fullUrl":"https://madie.cms.gov/MedicationAdministration/6c8d6931-add8-416c-83b3-72aaa4a936bd","resource":{"resourceType":"MedicationAdministration","id":"6c8d6931-add8-416c-83b3-72aaa4a936bd","meta":{"profile":["http://hl7.org/fhir/us/qicore/StructureDefinition/qicore-medicationadministration"]},"status":"completed","medicationCodeableConcept":{"coding":[{"system":"http://www.nlm.nih.gov/research/umls/rxnorm","code":"1860167","display":"Hypoglycemics Severe Hypoglycemia"}]},"subject":{"reference":"Patient/61a026c6-be9e-4a0f-b495-8ea421edfe39"},"effectivePeriod":{"start":"2026-07-11T08:00:00Z","end":"2026-07-11T09:00:00Z"}},"request":{"method":"PUT","url":"MedicationAdministration/6c8d6931-add8-416c-83b3-72aaa4a936bd"}},{"fullUrl":"https://madie.cms.gov/Patient/61a026c6-be9e-4a0f-b495-8ea421edfe39","resource":{"resourceType":"Patient","id":"61a026c6-be9e-4a0f-b495-8ea421edfe39","meta":{"profile":["http://hl7.org/fhir/us/qicore/StructureDefinition/qicore-patient"]},"extension":[{"url":"http://hl7.org/fhir/us/core/StructureDefinition/us-core-race","extension":[{"url":"ombCategory","valueCoding":{"system":"urn:oid:2.16.840.1.113883.6.238","code":"2106-3","display":"White"}},{"url":"text","valueString":"White"}]},{"url":"http://hl7.org/fhir/us/core/StructureDefinition/us-core-ethnicity","extension":[{"url":"ombCategory","valueCoding":{"system":"urn:oid:2.16.840.1.113883.6.238","code":"2135-2","display":"Hispanic or Latino"}},{"url":"text","valueString":"Hispanic or Latino"}]},{"url":"http://hl7.org/fhir/us/core/StructureDefinition/us-core-sex","valueCode":"248153007"}],"identifier":[{"system":"http://hospital.smarthealthit.org","value":"999999999"}],"name":[{"family":"Example","given":["Patient"]}],"gender":"female","birthDate":"2000-07-11"},"request":{"method":"PUT","url":"Patient/61a026c6-be9e-4a0f-b495-8ea421edfe39"}},{"fullUrl":"https://madie.cms.gov/MeasureReport/6e4f1117-684d-44ab-978b-b680f37fa139","resource":{"resourceType":"MeasureReport","id":"6e4f1117-684d-44ab-978b-b680f37fa139","meta":{"profile":["http://hl7.org/fhir/us/cqfmeasures/StructureDefinition/test-case-cqfm"]},"contained":[{"resourceType":"Parameters","id":"e4fdd987-e62d-4002-8ed5-4991fb32d159-parameters","parameter":[{"name":"subject","valueString":"61a026c6-be9e-4a0f-b495-8ea421edfe39"}]}],"extension":[{"url":"http://hl7.org/fhir/StructureDefinition/cqf-inputParameters","valueReference":{"reference":"#e4fdd987-e62d-4002-8ed5-4991fb32d159-parameters"}},{"url":"http://hl7.org/fhir/us/cqfmeasures/StructureDefinition/cqfm-testCaseDescription","valueMarkdown":"Patient had hypoglycemic medication administered, but was during a non-qualifying encounter (outpatient visit code). No inpatient encounter so does not meet IPP/Denom. "}],"modifierExtension":[{"url":"http://hl7.org/fhir/us/cqfmeasures/StructureDefinition/cqfm-isTestCase","valueBoolean":true}],"status":"complete","type":"individual","measure":"https://madie.cms.gov/Measure/CMS816FHIRHHHypo","period":{"start":"2026-01-01","end":"2026-12-31"},"group":[{"id":"Group_1","population":[{"id":"InitialPopulation_1","code":{"coding":[{"system":"http://terminology.hl7.org/CodeSystem/measure-population","code":"initial-population","display":"Initial Population"}]},"count":0},{"id":"Denominator_1","code":{"coding":[{"system":"http://terminology.hl7.org/CodeSystem/measure-population","code":"denominator","display":"Denominator"}]},"count":0},{"id":"Numerator_1","code":{"coding":[{"system":"http://terminology.hl7.org/CodeSystem/measure-population","code":"numerator","display":"Numerator"}]},"count":0}],"measureScore":{"value":0.0}}],"evaluatedResource":[{"reference":"Encounter/d2dbd8d2-53af-4910-8725-2c4cce1a4a6e"},{"reference":"MedicationAdministration/6c8d6931-add8-416c-83b3-72aaa4a936bd"},{"reference":"Patient/61a026c6-be9e-4a0f-b495-8ea421edfe39"}]},"request":{"method":"PUT","url":"MeasureReport/6e4f1117-684d-44ab-978b-b680f37fa139"}}]},"request":{"method":"PUT","url":"Bundle/tests-IPPFail-OutpatientEncounter-bundle"}},{"fullUrl":"Patient/61a026c6-be9e-4a0f-b495-8ea421edfe39","resource":{"resourceType":"Patient","id":"61a026c6-be9e-4a0f-b495-8ea421edfe39","meta":{"profile":["http://hl7.org/fhir/us/qicore/StructureDefinition/qicore-patient"]},"extension":[{"url":"http://hl7.org/fhir/us/core/StructureDefinition/us-core-race","extension":[{"url":"ombCategory","valueCoding":{"system":"urn:oid:2.16.840.1.113883.6.238","code":"2106-3","display":"White"}},{"url":"text","valueString":"White"}]},{"url":"http://hl7.org/fhir/us/core/StructureDefinition/us-core-ethnicity","extension":[{"url":"ombCategory","valueCoding":{"system":"urn:oid:2.16.840.1.113883.6.238","code":"2135-2","display":"Hispanic or Latino"}},{"url":"text","valueString":"Hispanic or Latino"}]},{"url":"http://hl7.org/fhir/us/core/StructureDefinition/us-core-sex","valueCode":"248153007"}],"identifier":[{"system":"http://hospital.smarthealthit.org","value":"999999999"}],"name":[{"family":"Example","given":["Patient"]}],"gender":"female","birthDate":"2000-07-11"},"request":{"method":"PUT","url":"Patient/61a026c6-be9e-4a0f-b495-8ea421edfe39"}}]}