{"resourceType":"Bundle","id":"tests-f58dcdc6-cce9-4b49-b657-7e1e2593e428-bundle","type":"transaction","entry":[{"fullUrl":"Observation/d1d2cf22-1c69-4af0-87b9-8aa9aea8dbcf","resource":{"resourceType":"Observation","id":"d1d2cf22-1c69-4af0-87b9-8aa9aea8dbcf","meta":{"profile":["http://hl7.org/fhir/us/qicore/StructureDefinition/qicore-observation-lab"]},"status":"final","category":[{"coding":[{"system":"http://terminology.hl7.org/CodeSystem/observation-category","code":"laboratory","display":"Laboratory"}]}],"code":{"coding":[{"system":"http://loinc.org","code":"1556-0","display":"Fasting glucose [Mass/volume] in Capillary blood"}]},"subject":{"reference":"Patient/f58dcdc6-cce9-4b49-b657-7e1e2593e428"},"effectivePeriod":{"start":"2026-12-15T09:00:00Z","end":"2026-12-15T09:00:00Z"},"issued":"2026-12-15T09:00:00Z","valueQuantity":{"value":39,"unit":"mg/dL"}},"request":{"method":"PUT","url":"Observation/d1d2cf22-1c69-4af0-87b9-8aa9aea8dbcf"}},{"fullUrl":"Encounter/c04cee94-77b2-474e-8d0e-2931dee3ce13","resource":{"resourceType":"Encounter","id":"c04cee94-77b2-474e-8d0e-2931dee3ce13","meta":{"profile":["http://hl7.org/fhir/us/qicore/StructureDefinition/qicore-encounter"]},"status":"finished","class":{"system":"http://terminology.hl7.org/CodeSystem/v3-ActCode","code":"IMP","display":"Inpatient encounter"},"type":[{"coding":[{"system":"http://snomed.info/sct","code":"183452005","display":"Emergency hospital admission"}]}],"subject":{"reference":"Patient/f58dcdc6-cce9-4b49-b657-7e1e2593e428"},"period":{"start":"2026-12-15T08:00:00Z","end":"2026-12-18T08:15:00Z"}},"request":{"method":"PUT","url":"Encounter/c04cee94-77b2-474e-8d0e-2931dee3ce13"}},{"fullUrl":"Encounter/495d29df-6c14-440b-9ec0-2f290a86e29e","resource":{"resourceType":"Encounter","id":"495d29df-6c14-440b-9ec0-2f290a86e29e","meta":{"profile":["http://hl7.org/fhir/us/qicore/StructureDefinition/qicore-encounter"]},"status":"finished","class":{"system":"http://terminology.hl7.org/CodeSystem/v3-ActCode","code":"IMP","display":"Inpatient encounter"},"type":[{"coding":[{"system":"http://snomed.info/sct","code":"183452005","display":"Emergency hospital admission"}]}],"subject":{"reference":"Patient/f58dcdc6-cce9-4b49-b657-7e1e2593e428"},"period":{"start":"2026-12-27T08:00:00Z","end":"2026-12-29T08:15:00Z"}},"request":{"method":"PUT","url":"Encounter/495d29df-6c14-440b-9ec0-2f290a86e29e"}},{"fullUrl":"Observation/4255a000-5743-4dc1-b073-21c32e20d8a5","resource":{"resourceType":"Observation","id":"4255a000-5743-4dc1-b073-21c32e20d8a5","meta":{"profile":["http://hl7.org/fhir/us/qicore/StructureDefinition/qicore-observation-lab"]},"status":"final","category":[{"coding":[{"system":"http://terminology.hl7.org/CodeSystem/observation-category","code":"laboratory","display":"Laboratory"}]}],"code":{"coding":[{"system":"http://loinc.org","code":"1556-0","display":"Fasting glucose [Mass/volume] in Capillary blood"}]},"subject":{"reference":"Patient/f58dcdc6-cce9-4b49-b657-7e1e2593e428"},"effectivePeriod":{"start":"2026-12-27T10:00:00Z","end":"2026-12-27T10:00:00Z"},"issued":"2026-12-27T10:00:00Z","valueQuantity":{"value":38,"unit":"mg/dL"}},"request":{"method":"PUT","url":"Observation/4255a000-5743-4dc1-b073-21c32e20d8a5"}},{"fullUrl":"MedicationAdministration/20496e57-9f94-4b4b-b1c3-413fd7ba1cb5","resource":{"resourceType":"MedicationAdministration","id":"20496e57-9f94-4b4b-b1c3-413fd7ba1cb5","meta":{"profile":["http://hl7.org/fhir/us/qicore/StructureDefinition/qicore-medicationadministration"]},"status":"completed","medicationCodeableConcept":{"coding":[{"system":"http://www.nlm.nih.gov/research/umls/rxnorm","code":"1670021","display":"3 ML insulin degludec 200 UNT/ML Pen Injector"}]},"subject":{"reference":"Patient/f58dcdc6-cce9-4b49-b657-7e1e2593e428"},"effectivePeriod":{"start":"2026-12-15T08:00:00Z","end":"2026-12-18T08:15:00Z"}},"request":{"method":"PUT","url":"MedicationAdministration/20496e57-9f94-4b4b-b1c3-413fd7ba1cb5"}},{"fullUrl":"Patient/f58dcdc6-cce9-4b49-b657-7e1e2593e428","resource":{"resourceType":"Patient","id":"f58dcdc6-cce9-4b49-b657-7e1e2593e428","meta":{"profile":["http://hl7.org/fhir/us/qicore/StructureDefinition/qicore-patient"]},"extension":[{"url":"http://hl7.org/fhir/us/core/StructureDefinition/us-core-race","extension":[{"url":"ombCategory","valueCoding":{"system":"urn:oid:2.16.840.1.113883.6.238","code":"2106-3","display":"White"}},{"url":"text","valueString":"White"}]},{"url":"http://hl7.org/fhir/us/core/StructureDefinition/us-core-ethnicity","extension":[{"url":"ombCategory","valueCoding":{"system":"urn:oid:2.16.840.1.113883.6.238","code":"2135-2","display":"Hispanic or Latino"}},{"url":"text","valueString":"Hispanic or Latino"}]},{"url":"http://hl7.org/fhir/us/core/StructureDefinition/us-core-sex","valueCode":"248153007"}],"identifier":[{"system":"http://hospital.smarthealthit.org","value":"999999999"}],"name":[{"family":"Example","given":["Patient"]}],"gender":"female","birthDate":"2000-07-11"},"request":{"method":"PUT","url":"Patient/f58dcdc6-cce9-4b49-b657-7e1e2593e428"}},{"fullUrl":"MeasureReport/d421971a-d8be-4925-aa09-f2f034262dae","resource":{"resourceType":"MeasureReport","id":"d421971a-d8be-4925-aa09-f2f034262dae","meta":{"profile":["http://hl7.org/fhir/us/cqfmeasures/StructureDefinition/test-case-cqfm"]},"contained":[{"resourceType":"Parameters","id":"50aab70d-54ab-4da2-95d5-a1985069d397-parameters","parameter":[{"name":"subject","valueString":"f58dcdc6-cce9-4b49-b657-7e1e2593e428"}]}],"extension":[{"url":"http://hl7.org/fhir/StructureDefinition/cqf-inputParameters","valueReference":{"reference":"#50aab70d-54ab-4da2-95d5-a1985069d397-parameters"}},{"url":"http://hl7.org/fhir/us/cqfmeasures/StructureDefinition/cqfm-testCaseDescription","valueMarkdown":"3 different encounters, all have harm (meets numerator). IPP/Denom = 3, Numerator should = 3. "}],"modifierExtension":[{"url":"http://hl7.org/fhir/us/cqfmeasures/StructureDefinition/cqfm-isTestCase","valueBoolean":true}],"status":"complete","type":"individual","measure":"https://madie.cms.gov/Measure/CMS816FHIRHHHypo","period":{"start":"2026-01-01","end":"2026-12-31"},"group":[{"id":"Group_1","population":[{"id":"InitialPopulation_1","code":{"coding":[{"system":"http://terminology.hl7.org/CodeSystem/measure-population","code":"initial-population","display":"Initial Population"}]},"count":3},{"id":"Denominator_1","code":{"coding":[{"system":"http://terminology.hl7.org/CodeSystem/measure-population","code":"denominator","display":"Denominator"}]},"count":3},{"id":"Numerator_1","code":{"coding":[{"system":"http://terminology.hl7.org/CodeSystem/measure-population","code":"numerator","display":"Numerator"}]},"count":3}],"measureScore":{"value":0.0}}],"evaluatedResource":[{"reference":"Encounter/c04cee94-77b2-474e-8d0e-2931dee3ce13"},{"reference":"Encounter/9ebc830f-bb50-48d2-bb50-5815e379f00b"},{"reference":"Encounter/495d29df-6c14-440b-9ec0-2f290a86e29e"},{"reference":"MedicationAdministration/20496e57-9f94-4b4b-b1c3-413fd7ba1cb5"},{"reference":"MedicationAdministration/55eaf71d-f9e0-446c-a217-f2afd3b3b8ee"},{"reference":"MedicationAdministration/a325cf3b-28bf-4c27-ae1b-9fbae8d34d96"},{"reference":"Observation/d1d2cf22-1c69-4af0-87b9-8aa9aea8dbcf"},{"reference":"Observation/e9158c00-a153-4b31-a441-61db636e8adc"},{"reference":"Observation/4255a000-5743-4dc1-b073-21c32e20d8a5"},{"reference":"Patient/f58dcdc6-cce9-4b49-b657-7e1e2593e428"}]},"request":{"method":"PUT","url":"MeasureReport/d421971a-d8be-4925-aa09-f2f034262dae"}},{"fullUrl":"MedicationAdministration/55eaf71d-f9e0-446c-a217-f2afd3b3b8ee","resource":{"resourceType":"MedicationAdministration","id":"55eaf71d-f9e0-446c-a217-f2afd3b3b8ee","meta":{"profile":["http://hl7.org/fhir/us/qicore/StructureDefinition/qicore-medicationadministration"]},"status":"completed","medicationCodeableConcept":{"coding":[{"system":"http://www.nlm.nih.gov/research/umls/rxnorm","code":"1731315","display":"3 ML insulin, regular, human 500 UNT/ML Pen Injector"}]},"subject":{"reference":"Patient/f58dcdc6-cce9-4b49-b657-7e1e2593e428"},"effectivePeriod":{"start":"2026-12-20T09:00:00Z","end":"2026-12-20T09:15:00Z"}},"request":{"method":"PUT","url":"MedicationAdministration/55eaf71d-f9e0-446c-a217-f2afd3b3b8ee"}},{"fullUrl":"MedicationAdministration/a325cf3b-28bf-4c27-ae1b-9fbae8d34d96","resource":{"resourceType":"MedicationAdministration","id":"a325cf3b-28bf-4c27-ae1b-9fbae8d34d96","meta":{"profile":["http://hl7.org/fhir/us/qicore/StructureDefinition/qicore-medicationadministration"]},"status":"completed","medicationCodeableConcept":{"coding":[{"system":"http://www.nlm.nih.gov/research/umls/rxnorm","code":"1652644","display":"3 ML insulin lispro 100 UNT/ML Cartridge"}]},"subject":{"reference":"Patient/f58dcdc6-cce9-4b49-b657-7e1e2593e428"},"effectivePeriod":{"start":"2026-12-27T09:00:00Z","end":"2026-12-27T09:15:00Z"}},"request":{"method":"PUT","url":"MedicationAdministration/a325cf3b-28bf-4c27-ae1b-9fbae8d34d96"}},{"fullUrl":"Observation/e9158c00-a153-4b31-a441-61db636e8adc","resource":{"resourceType":"Observation","id":"e9158c00-a153-4b31-a441-61db636e8adc","meta":{"profile":["http://hl7.org/fhir/us/qicore/StructureDefinition/qicore-observation-lab"]},"status":"final","category":[{"coding":[{"system":"http://terminology.hl7.org/CodeSystem/observation-category","code":"laboratory","display":"Laboratory"}]}],"code":{"coding":[{"system":"http://loinc.org","code":"1556-0","display":"Fasting glucose [Mass/volume] in Capillary blood"}]},"subject":{"reference":"Patient/f58dcdc6-cce9-4b49-b657-7e1e2593e428"},"effectivePeriod":{"start":"2026-12-20T10:00:00Z","end":"2026-12-20T10:00:00Z"},"issued":"2026-12-20T10:00:00Z","valueQuantity":{"value":30,"unit":"mg/dL"}},"request":{"method":"PUT","url":"Observation/e9158c00-a153-4b31-a441-61db636e8adc"}},{"fullUrl":"Bundle/tests-NUMERPass-3Encounters3Harms-bundle","resource":{"resourceType":"Bundle","id":"tests-NUMERPass-3Encounters3Harms-bundle","type":"transaction","entry":[{"fullUrl":"https://madie.cms.gov/Encounter/c04cee94-77b2-474e-8d0e-2931dee3ce13","resource":{"resourceType":"Encounter","id":"c04cee94-77b2-474e-8d0e-2931dee3ce13","meta":{"profile":["http://hl7.org/fhir/us/qicore/StructureDefinition/qicore-encounter"]},"status":"finished","class":{"system":"http://terminology.hl7.org/CodeSystem/v3-ActCode","code":"IMP","display":"Inpatient encounter"},"type":[{"coding":[{"system":"http://snomed.info/sct","code":"183452005","display":"Emergency hospital admission"}]}],"subject":{"reference":"Patient/f58dcdc6-cce9-4b49-b657-7e1e2593e428"},"period":{"start":"2026-12-15T08:00:00Z","end":"2026-12-18T08:15:00Z"}},"request":{"method":"PUT","url":"Encounter/c04cee94-77b2-474e-8d0e-2931dee3ce13"}},{"fullUrl":"https://madie.cms.gov/Encounter/9ebc830f-bb50-48d2-bb50-5815e379f00b","resource":{"resourceType":"Encounter","id":"9ebc830f-bb50-48d2-bb50-5815e379f00b","meta":{"profile":["http://hl7.org/fhir/us/qicore/StructureDefinition/qicore-encounter"]},"status":"finished","class":{"system":"http://terminology.hl7.org/CodeSystem/v3-ActCode","code":"IMP","display":"Inpatient encounter"},"type":[{"coding":[{"system":"http://snomed.info/sct","code":"183452005","display":"Emergency hospital admission"}]}],"subject":{"reference":"Patient/f58dcdc6-cce9-4b49-b657-7e1e2593e428"},"period":{"start":"2026-12-20T08:00:00Z","end":"2026-12-25T08:15:00Z"}},"request":{"method":"PUT","url":"Encounter/9ebc830f-bb50-48d2-bb50-5815e379f00b"}},{"fullUrl":"https://madie.cms.gov/Encounter/495d29df-6c14-440b-9ec0-2f290a86e29e","resource":{"resourceType":"Encounter","id":"495d29df-6c14-440b-9ec0-2f290a86e29e","meta":{"profile":["http://hl7.org/fhir/us/qicore/StructureDefinition/qicore-encounter"]},"status":"finished","class":{"system":"http://terminology.hl7.org/CodeSystem/v3-ActCode","code":"IMP","display":"Inpatient encounter"},"type":[{"coding":[{"system":"http://snomed.info/sct","code":"183452005","display":"Emergency hospital admission"}]}],"subject":{"reference":"Patient/f58dcdc6-cce9-4b49-b657-7e1e2593e428"},"period":{"start":"2026-12-27T08:00:00Z","end":"2026-12-29T08:15:00Z"}},"request":{"method":"PUT","url":"Encounter/495d29df-6c14-440b-9ec0-2f290a86e29e"}},{"fullUrl":"https://madie.cms.gov/MedicationAdministration/20496e57-9f94-4b4b-b1c3-413fd7ba1cb5","resource":{"resourceType":"MedicationAdministration","id":"20496e57-9f94-4b4b-b1c3-413fd7ba1cb5","meta":{"profile":["http://hl7.org/fhir/us/qicore/StructureDefinition/qicore-medicationadministration"]},"status":"completed","medicationCodeableConcept":{"coding":[{"system":"http://www.nlm.nih.gov/research/umls/rxnorm","code":"1670021","display":"3 ML insulin degludec 200 UNT/ML Pen Injector"}]},"subject":{"reference":"Patient/f58dcdc6-cce9-4b49-b657-7e1e2593e428"},"effectivePeriod":{"start":"2026-12-15T08:00:00Z","end":"2026-12-18T08:15:00Z"}},"request":{"method":"PUT","url":"MedicationAdministration/20496e57-9f94-4b4b-b1c3-413fd7ba1cb5"}},{"fullUrl":"https://madie.cms.gov/MedicationAdministration/55eaf71d-f9e0-446c-a217-f2afd3b3b8ee","resource":{"resourceType":"MedicationAdministration","id":"55eaf71d-f9e0-446c-a217-f2afd3b3b8ee","meta":{"profile":["http://hl7.org/fhir/us/qicore/StructureDefinition/qicore-medicationadministration"]},"status":"completed","medicationCodeableConcept":{"coding":[{"system":"http://www.nlm.nih.gov/research/umls/rxnorm","code":"1731315","display":"3 ML insulin, regular, human 500 UNT/ML Pen Injector"}]},"subject":{"reference":"Patient/f58dcdc6-cce9-4b49-b657-7e1e2593e428"},"effectivePeriod":{"start":"2026-12-20T09:00:00Z","end":"2026-12-20T09:15:00Z"}},"request":{"method":"PUT","url":"MedicationAdministration/55eaf71d-f9e0-446c-a217-f2afd3b3b8ee"}},{"fullUrl":"https://madie.cms.gov/MedicationAdministration/a325cf3b-28bf-4c27-ae1b-9fbae8d34d96","resource":{"resourceType":"MedicationAdministration","id":"a325cf3b-28bf-4c27-ae1b-9fbae8d34d96","meta":{"profile":["http://hl7.org/fhir/us/qicore/StructureDefinition/qicore-medicationadministration"]},"status":"completed","medicationCodeableConcept":{"coding":[{"system":"http://www.nlm.nih.gov/research/umls/rxnorm","code":"1652644","display":"3 ML insulin lispro 100 UNT/ML Cartridge"}]},"subject":{"reference":"Patient/f58dcdc6-cce9-4b49-b657-7e1e2593e428"},"effectivePeriod":{"start":"2026-12-27T09:00:00Z","end":"2026-12-27T09:15:00Z"}},"request":{"method":"PUT","url":"MedicationAdministration/a325cf3b-28bf-4c27-ae1b-9fbae8d34d96"}},{"fullUrl":"https://madie.cms.gov/Observation/d1d2cf22-1c69-4af0-87b9-8aa9aea8dbcf","resource":{"resourceType":"Observation","id":"d1d2cf22-1c69-4af0-87b9-8aa9aea8dbcf","meta":{"profile":["http://hl7.org/fhir/us/qicore/StructureDefinition/qicore-observation-lab"]},"status":"final","category":[{"coding":[{"system":"http://terminology.hl7.org/CodeSystem/observation-category","code":"laboratory","display":"Laboratory"}]}],"code":{"coding":[{"system":"http://loinc.org","code":"1556-0","display":"Fasting glucose [Mass/volume] in Capillary blood"}]},"subject":{"reference":"Patient/f58dcdc6-cce9-4b49-b657-7e1e2593e428"},"effectivePeriod":{"start":"2026-12-15T09:00:00Z","end":"2026-12-15T09:00:00Z"},"issued":"2026-12-15T09:00:00Z","valueQuantity":{"value":39,"unit":"mg/dL"}},"request":{"method":"PUT","url":"Observation/d1d2cf22-1c69-4af0-87b9-8aa9aea8dbcf"}},{"fullUrl":"https://madie.cms.gov/Observation/e9158c00-a153-4b31-a441-61db636e8adc","resource":{"resourceType":"Observation","id":"e9158c00-a153-4b31-a441-61db636e8adc","meta":{"profile":["http://hl7.org/fhir/us/qicore/StructureDefinition/qicore-observation-lab"]},"status":"final","category":[{"coding":[{"system":"http://terminology.hl7.org/CodeSystem/observation-category","code":"laboratory","display":"Laboratory"}]}],"code":{"coding":[{"system":"http://loinc.org","code":"1556-0","display":"Fasting glucose [Mass/volume] in Capillary blood"}]},"subject":{"reference":"Patient/f58dcdc6-cce9-4b49-b657-7e1e2593e428"},"effectivePeriod":{"start":"2026-12-20T10:00:00Z","end":"2026-12-20T10:00:00Z"},"issued":"2026-12-20T10:00:00Z","valueQuantity":{"value":30,"unit":"mg/dL"}},"request":{"method":"PUT","url":"Observation/e9158c00-a153-4b31-a441-61db636e8adc"}},{"fullUrl":"https://madie.cms.gov/Observation/4255a000-5743-4dc1-b073-21c32e20d8a5","resource":{"resourceType":"Observation","id":"4255a000-5743-4dc1-b073-21c32e20d8a5","meta":{"profile":["http://hl7.org/fhir/us/qicore/StructureDefinition/qicore-observation-lab"]},"status":"final","category":[{"coding":[{"system":"http://terminology.hl7.org/CodeSystem/observation-category","code":"laboratory","display":"Laboratory"}]}],"code":{"coding":[{"system":"http://loinc.org","code":"1556-0","display":"Fasting glucose [Mass/volume] in Capillary blood"}]},"subject":{"reference":"Patient/f58dcdc6-cce9-4b49-b657-7e1e2593e428"},"effectivePeriod":{"start":"2026-12-27T10:00:00Z","end":"2026-12-27T10:00:00Z"},"issued":"2026-12-27T10:00:00Z","valueQuantity":{"value":38,"unit":"mg/dL"}},"request":{"method":"PUT","url":"Observation/4255a000-5743-4dc1-b073-21c32e20d8a5"}},{"fullUrl":"https://madie.cms.gov/Patient/f58dcdc6-cce9-4b49-b657-7e1e2593e428","resource":{"resourceType":"Patient","id":"f58dcdc6-cce9-4b49-b657-7e1e2593e428","meta":{"profile":["http://hl7.org/fhir/us/qicore/StructureDefinition/qicore-patient"]},"extension":[{"url":"http://hl7.org/fhir/us/core/StructureDefinition/us-core-race","extension":[{"url":"ombCategory","valueCoding":{"system":"urn:oid:2.16.840.1.113883.6.238","code":"2106-3","display":"White"}},{"url":"text","valueString":"White"}]},{"url":"http://hl7.org/fhir/us/core/StructureDefinition/us-core-ethnicity","extension":[{"url":"ombCategory","valueCoding":{"system":"urn:oid:2.16.840.1.113883.6.238","code":"2135-2","display":"Hispanic or Latino"}},{"url":"text","valueString":"Hispanic or Latino"}]},{"url":"http://hl7.org/fhir/us/core/StructureDefinition/us-core-sex","valueCode":"248153007"}],"identifier":[{"system":"http://hospital.smarthealthit.org","value":"999999999"}],"name":[{"family":"Example","given":["Patient"]}],"gender":"female","birthDate":"2000-07-11"},"request":{"method":"PUT","url":"Patient/f58dcdc6-cce9-4b49-b657-7e1e2593e428"}},{"fullUrl":"https://madie.cms.gov/MeasureReport/d421971a-d8be-4925-aa09-f2f034262dae","resource":{"resourceType":"MeasureReport","id":"d421971a-d8be-4925-aa09-f2f034262dae","meta":{"profile":["http://hl7.org/fhir/us/cqfmeasures/StructureDefinition/test-case-cqfm"]},"contained":[{"resourceType":"Parameters","id":"50aab70d-54ab-4da2-95d5-a1985069d397-parameters","parameter":[{"name":"subject","valueString":"f58dcdc6-cce9-4b49-b657-7e1e2593e428"}]}],"extension":[{"url":"http://hl7.org/fhir/StructureDefinition/cqf-inputParameters","valueReference":{"reference":"#50aab70d-54ab-4da2-95d5-a1985069d397-parameters"}},{"url":"http://hl7.org/fhir/us/cqfmeasures/StructureDefinition/cqfm-testCaseDescription","valueMarkdown":"3 different encounters, all have harm (meets numerator). IPP/Denom = 3, Numerator should = 3. "}],"modifierExtension":[{"url":"http://hl7.org/fhir/us/cqfmeasures/StructureDefinition/cqfm-isTestCase","valueBoolean":true}],"status":"complete","type":"individual","measure":"https://madie.cms.gov/Measure/CMS816FHIRHHHypo","period":{"start":"2026-01-01","end":"2026-12-31"},"group":[{"id":"Group_1","population":[{"id":"InitialPopulation_1","code":{"coding":[{"system":"http://terminology.hl7.org/CodeSystem/measure-population","code":"initial-population","display":"Initial Population"}]},"count":3},{"id":"Denominator_1","code":{"coding":[{"system":"http://terminology.hl7.org/CodeSystem/measure-population","code":"denominator","display":"Denominator"}]},"count":3},{"id":"Numerator_1","code":{"coding":[{"system":"http://terminology.hl7.org/CodeSystem/measure-population","code":"numerator","display":"Numerator"}]},"count":3}],"measureScore":{"value":0.0}}],"evaluatedResource":[{"reference":"Encounter/c04cee94-77b2-474e-8d0e-2931dee3ce13"},{"reference":"Encounter/9ebc830f-bb50-48d2-bb50-5815e379f00b"},{"reference":"Encounter/495d29df-6c14-440b-9ec0-2f290a86e29e"},{"reference":"MedicationAdministration/20496e57-9f94-4b4b-b1c3-413fd7ba1cb5"},{"reference":"MedicationAdministration/55eaf71d-f9e0-446c-a217-f2afd3b3b8ee"},{"reference":"MedicationAdministration/a325cf3b-28bf-4c27-ae1b-9fbae8d34d96"},{"reference":"Observation/d1d2cf22-1c69-4af0-87b9-8aa9aea8dbcf"},{"reference":"Observation/e9158c00-a153-4b31-a441-61db636e8adc"},{"reference":"Observation/4255a000-5743-4dc1-b073-21c32e20d8a5"},{"reference":"Patient/f58dcdc6-cce9-4b49-b657-7e1e2593e428"}]},"request":{"method":"PUT","url":"MeasureReport/d421971a-d8be-4925-aa09-f2f034262dae"}}]},"request":{"method":"PUT","url":"Bundle/tests-NUMERPass-3Encounters3Harms-bundle"}},{"fullUrl":"Encounter/9ebc830f-bb50-48d2-bb50-5815e379f00b","resource":{"resourceType":"Encounter","id":"9ebc830f-bb50-48d2-bb50-5815e379f00b","meta":{"profile":["http://hl7.org/fhir/us/qicore/StructureDefinition/qicore-encounter"]},"status":"finished","class":{"system":"http://terminology.hl7.org/CodeSystem/v3-ActCode","code":"IMP","display":"Inpatient encounter"},"type":[{"coding":[{"system":"http://snomed.info/sct","code":"183452005","display":"Emergency hospital admission"}]}],"subject":{"reference":"Patient/f58dcdc6-cce9-4b49-b657-7e1e2593e428"},"period":{"start":"2026-12-20T08:00:00Z","end":"2026-12-25T08:15:00Z"}},"request":{"method":"PUT","url":"Encounter/9ebc830f-bb50-48d2-bb50-5815e379f00b"}}]}