{"resourceType":"Bundle","id":"tests-423a396b-7d81-476d-b2ea-bc8bba062ce2-bundle","type":"transaction","entry":[{"fullUrl":"MeasureReport/5e205683-9e03-42c2-b2a4-49b59a6701e3","resource":{"resourceType":"MeasureReport","id":"5e205683-9e03-42c2-b2a4-49b59a6701e3","meta":{"profile":["http://hl7.org/fhir/us/cqfmeasures/StructureDefinition/test-case-cqfm"]},"contained":[{"resourceType":"Parameters","id":"4c0cd77d-b240-4768-889a-9c1b26ebb03e-parameters","parameter":[{"name":"subject","valueString":"423a396b-7d81-476d-b2ea-bc8bba062ce2"}]}],"extension":[{"url":"http://hl7.org/fhir/StructureDefinition/cqf-inputParameters","valueReference":{"reference":"#4c0cd77d-b240-4768-889a-9c1b26ebb03e-parameters"}},{"url":"http://hl7.org/fhir/us/cqfmeasures/StructureDefinition/cqfm-testCaseDescription","valueMarkdown":"Pt started in Observation, hypoglycemic administered during Observ stay. Pt transferred to inpatient but transfer occurred 1 hour + 1 minute after end of observation stay. Transfer must be within hour or less to meet IPP. "}],"modifierExtension":[{"url":"http://hl7.org/fhir/us/cqfmeasures/StructureDefinition/cqfm-isTestCase","valueBoolean":true}],"status":"complete","type":"individual","measure":"https://madie.cms.gov/Measure/CMS816FHIRHHHypo","period":{"start":"2026-01-01","end":"2026-12-31"},"group":[{"id":"Group_1","population":[{"id":"InitialPopulation_1","code":{"coding":[{"system":"http://terminology.hl7.org/CodeSystem/measure-population","code":"initial-population","display":"Initial Population"}]},"count":0},{"id":"Denominator_1","code":{"coding":[{"system":"http://terminology.hl7.org/CodeSystem/measure-population","code":"denominator","display":"Denominator"}]},"count":0},{"id":"Numerator_1","code":{"coding":[{"system":"http://terminology.hl7.org/CodeSystem/measure-population","code":"numerator","display":"Numerator"}]},"count":0}],"measureScore":{"value":0.0}}],"evaluatedResource":[{"reference":"Encounter/01945d98-666c-40be-a8d8-37bff955c90d"},{"reference":"Encounter/4d78d04e-4794-431e-9d16-b2369c65a56d"},{"reference":"MedicationAdministration/74320732-7246-4a66-b21a-208a855e99c3"},{"reference":"Patient/423a396b-7d81-476d-b2ea-bc8bba062ce2"}]},"request":{"method":"PUT","url":"MeasureReport/5e205683-9e03-42c2-b2a4-49b59a6701e3"}},{"fullUrl":"Bundle/tests-IPPFail-MedGivenInObservTransferToIPMoreThan1Hour-bundle","resource":{"resourceType":"Bundle","id":"tests-IPPFail-MedGivenInObservTransferToIPMoreThan1Hour-bundle","type":"transaction","entry":[{"fullUrl":"https://madie.cms.gov/Encounter/01945d98-666c-40be-a8d8-37bff955c90d","resource":{"resourceType":"Encounter","id":"01945d98-666c-40be-a8d8-37bff955c90d","meta":{"profile":["http://hl7.org/fhir/us/qicore/StructureDefinition/qicore-encounter"]},"status":"finished","class":{"system":"http://terminology.hl7.org/CodeSystem/v3-ActCode","code":"IMP","display":"Inpatient encounter"},"type":[{"coding":[{"system":"http://snomed.info/sct","code":"183452005","display":"Inpatient encounter"}]}],"period":{"start":"2026-07-11T10:01:00Z","end":"2026-07-13T21:00:00Z"}},"request":{"method":"PUT","url":"Encounter/01945d98-666c-40be-a8d8-37bff955c90d"}},{"fullUrl":"https://madie.cms.gov/Encounter/4d78d04e-4794-431e-9d16-b2369c65a56d","resource":{"resourceType":"Encounter","id":"4d78d04e-4794-431e-9d16-b2369c65a56d","meta":{"profile":["http://hl7.org/fhir/us/qicore/StructureDefinition/qicore-encounter"]},"status":"finished","class":{"system":"http://terminology.hl7.org/CodeSystem/v3-ActCode","code":"OBS","display":"Observation services"},"type":[{"coding":[{"system":"http://snomed.info/sct","code":"448951000124107","display":"Observation services"}]}],"period":{"start":"2026-07-11T08:00:00Z","end":"2026-07-11T09:00:00Z"}},"request":{"method":"PUT","url":"Encounter/4d78d04e-4794-431e-9d16-b2369c65a56d"}},{"fullUrl":"https://madie.cms.gov/MedicationAdministration/74320732-7246-4a66-b21a-208a855e99c3","resource":{"resourceType":"MedicationAdministration","id":"74320732-7246-4a66-b21a-208a855e99c3","meta":{"profile":["http://hl7.org/fhir/us/qicore/StructureDefinition/qicore-medicationadministration"]},"status":"completed","medicationCodeableConcept":{"coding":[{"system":"http://www.nlm.nih.gov/research/umls/rxnorm","code":"1544488","display":"Hypoglycemics Severe Hypoglycemia"}]},"subject":{"reference":"Patient/423a396b-7d81-476d-b2ea-bc8bba062ce2"},"effectivePeriod":{"start":"2026-07-11T08:00:00Z","end":"2026-07-11T09:00:00Z"}},"request":{"method":"PUT","url":"MedicationAdministration/74320732-7246-4a66-b21a-208a855e99c3"}},{"fullUrl":"https://madie.cms.gov/Patient/423a396b-7d81-476d-b2ea-bc8bba062ce2","resource":{"resourceType":"Patient","id":"423a396b-7d81-476d-b2ea-bc8bba062ce2","meta":{"profile":["http://hl7.org/fhir/us/qicore/StructureDefinition/qicore-patient"]},"extension":[{"url":"http://hl7.org/fhir/us/core/StructureDefinition/us-core-race","extension":[{"url":"ombCategory","valueCoding":{"system":"urn:oid:2.16.840.1.113883.6.238","code":"2106-3","display":"White"}},{"url":"text","valueString":"White"}]},{"url":"http://hl7.org/fhir/us/core/StructureDefinition/us-core-ethnicity","extension":[{"url":"ombCategory","valueCoding":{"system":"urn:oid:2.16.840.1.113883.6.238","code":"2135-2","display":"Hispanic or Latino"}},{"url":"text","valueString":"Hispanic or Latino"}]},{"url":"http://hl7.org/fhir/us/core/StructureDefinition/us-core-sex","valueCode":"248153007"}],"identifier":[{"system":"http://hospital.smarthealthit.org","value":"999999999"}],"name":[{"family":"Example","given":["Patient"]}],"gender":"female","birthDate":"2000-07-11"},"request":{"method":"PUT","url":"Patient/423a396b-7d81-476d-b2ea-bc8bba062ce2"}},{"fullUrl":"https://madie.cms.gov/MeasureReport/5e205683-9e03-42c2-b2a4-49b59a6701e3","resource":{"resourceType":"MeasureReport","id":"5e205683-9e03-42c2-b2a4-49b59a6701e3","meta":{"profile":["http://hl7.org/fhir/us/cqfmeasures/StructureDefinition/test-case-cqfm"]},"contained":[{"resourceType":"Parameters","id":"4c0cd77d-b240-4768-889a-9c1b26ebb03e-parameters","parameter":[{"name":"subject","valueString":"423a396b-7d81-476d-b2ea-bc8bba062ce2"}]}],"extension":[{"url":"http://hl7.org/fhir/StructureDefinition/cqf-inputParameters","valueReference":{"reference":"#4c0cd77d-b240-4768-889a-9c1b26ebb03e-parameters"}},{"url":"http://hl7.org/fhir/us/cqfmeasures/StructureDefinition/cqfm-testCaseDescription","valueMarkdown":"Pt started in Observation, hypoglycemic administered during Observ stay. Pt transferred to inpatient but transfer occurred 1 hour + 1 minute after end of observation stay. Transfer must be within hour or less to meet IPP. "}],"modifierExtension":[{"url":"http://hl7.org/fhir/us/cqfmeasures/StructureDefinition/cqfm-isTestCase","valueBoolean":true}],"status":"complete","type":"individual","measure":"https://madie.cms.gov/Measure/CMS816FHIRHHHypo","period":{"start":"2026-01-01","end":"2026-12-31"},"group":[{"id":"Group_1","population":[{"id":"InitialPopulation_1","code":{"coding":[{"system":"http://terminology.hl7.org/CodeSystem/measure-population","code":"initial-population","display":"Initial Population"}]},"count":0},{"id":"Denominator_1","code":{"coding":[{"system":"http://terminology.hl7.org/CodeSystem/measure-population","code":"denominator","display":"Denominator"}]},"count":0},{"id":"Numerator_1","code":{"coding":[{"system":"http://terminology.hl7.org/CodeSystem/measure-population","code":"numerator","display":"Numerator"}]},"count":0}],"measureScore":{"value":0.0}}],"evaluatedResource":[{"reference":"Encounter/01945d98-666c-40be-a8d8-37bff955c90d"},{"reference":"Encounter/4d78d04e-4794-431e-9d16-b2369c65a56d"},{"reference":"MedicationAdministration/74320732-7246-4a66-b21a-208a855e99c3"},{"reference":"Patient/423a396b-7d81-476d-b2ea-bc8bba062ce2"}]},"request":{"method":"PUT","url":"MeasureReport/5e205683-9e03-42c2-b2a4-49b59a6701e3"}}]},"request":{"method":"PUT","url":"Bundle/tests-IPPFail-MedGivenInObservTransferToIPMoreThan1Hour-bundle"}},{"fullUrl":"MedicationAdministration/74320732-7246-4a66-b21a-208a855e99c3","resource":{"resourceType":"MedicationAdministration","id":"74320732-7246-4a66-b21a-208a855e99c3","meta":{"profile":["http://hl7.org/fhir/us/qicore/StructureDefinition/qicore-medicationadministration"]},"status":"completed","medicationCodeableConcept":{"coding":[{"system":"http://www.nlm.nih.gov/research/umls/rxnorm","code":"1544488","display":"Hypoglycemics Severe Hypoglycemia"}]},"subject":{"reference":"Patient/423a396b-7d81-476d-b2ea-bc8bba062ce2"},"effectivePeriod":{"start":"2026-07-11T08:00:00Z","end":"2026-07-11T09:00:00Z"}},"request":{"method":"PUT","url":"MedicationAdministration/74320732-7246-4a66-b21a-208a855e99c3"}},{"fullUrl":"Patient/423a396b-7d81-476d-b2ea-bc8bba062ce2","resource":{"resourceType":"Patient","id":"423a396b-7d81-476d-b2ea-bc8bba062ce2","meta":{"profile":["http://hl7.org/fhir/us/qicore/StructureDefinition/qicore-patient"]},"extension":[{"url":"http://hl7.org/fhir/us/core/StructureDefinition/us-core-race","extension":[{"url":"ombCategory","valueCoding":{"system":"urn:oid:2.16.840.1.113883.6.238","code":"2106-3","display":"White"}},{"url":"text","valueString":"White"}]},{"url":"http://hl7.org/fhir/us/core/StructureDefinition/us-core-ethnicity","extension":[{"url":"ombCategory","valueCoding":{"system":"urn:oid:2.16.840.1.113883.6.238","code":"2135-2","display":"Hispanic or Latino"}},{"url":"text","valueString":"Hispanic or Latino"}]},{"url":"http://hl7.org/fhir/us/core/StructureDefinition/us-core-sex","valueCode":"248153007"}],"identifier":[{"system":"http://hospital.smarthealthit.org","value":"999999999"}],"name":[{"family":"Example","given":["Patient"]}],"gender":"female","birthDate":"2000-07-11"},"request":{"method":"PUT","url":"Patient/423a396b-7d81-476d-b2ea-bc8bba062ce2"}},{"fullUrl":"Encounter/01945d98-666c-40be-a8d8-37bff955c90d","resource":{"resourceType":"Encounter","id":"01945d98-666c-40be-a8d8-37bff955c90d","meta":{"profile":["http://hl7.org/fhir/us/qicore/StructureDefinition/qicore-encounter"]},"status":"finished","class":{"system":"http://terminology.hl7.org/CodeSystem/v3-ActCode","code":"IMP","display":"Inpatient encounter"},"type":[{"coding":[{"system":"http://snomed.info/sct","code":"183452005","display":"Inpatient encounter"}]}],"period":{"start":"2026-07-11T10:01:00Z","end":"2026-07-13T21:00:00Z"}},"request":{"method":"PUT","url":"Encounter/01945d98-666c-40be-a8d8-37bff955c90d"}},{"fullUrl":"Encounter/4d78d04e-4794-431e-9d16-b2369c65a56d","resource":{"resourceType":"Encounter","id":"4d78d04e-4794-431e-9d16-b2369c65a56d","meta":{"profile":["http://hl7.org/fhir/us/qicore/StructureDefinition/qicore-encounter"]},"status":"finished","class":{"system":"http://terminology.hl7.org/CodeSystem/v3-ActCode","code":"OBS","display":"Observation services"},"type":[{"coding":[{"system":"http://snomed.info/sct","code":"448951000124107","display":"Observation services"}]}],"period":{"start":"2026-07-11T08:00:00Z","end":"2026-07-11T09:00:00Z"}},"request":{"method":"PUT","url":"Encounter/4d78d04e-4794-431e-9d16-b2369c65a56d"}}]}