{"resourceType":"Bundle","id":"CMS871HHHyperFHIR-bundle","type":"transaction","timestamp":"2025-07-14T13:29:32.714-06:00","entry":[{"resource":{"resourceType":"Library","id":"CMS871HHHyperFHIR","meta":{"profile":["http://hl7.org/fhir/uv/crmi/StructureDefinition/crmi-shareablelibrary","http://hl7.org/fhir/uv/crmi/StructureDefinition/crmi-computablelibrary","http://hl7.org/fhir/uv/crmi/StructureDefinition/crmi-publishablelibrary","http://hl7.org/fhir/uv/crmi/StructureDefinition/crmi-executablelibrary","http://hl7.org/fhir/uv/cql/StructureDefinition/cql-library","http://hl7.org/fhir/uv/cql/StructureDefinition/elm-json-library","http://hl7.org/fhir/uv/cql/StructureDefinition/elm-xml-library"]},"language":"en","text":{"status":"extensions","div":"<div xmlns=\"http://www.w3.org/1999/xhtml\"> \n         <table class=\"grid dict\"> \n            <tr> \n               <th scope=\"row\"> \n                  <b>Title: </b> \n               </th> \n               <td style=\"padding-left: 4px;\">CMS871HHHyperFHIR</td> \n            </tr> \n            <tr> \n               <th scope=\"row\"> \n                  <b>Id: </b> \n               </th> \n               <td style=\"padding-left: 4px;\">CMS871HHHyperFHIR</td> \n            </tr> \n            <tr> \n               <th scope=\"row\"> \n                  <b>Version: </b> \n               </th> \n               <td style=\"padding-left: 4px;\">0.3.000</td> \n            </tr> \n            <tr> \n               <th scope=\"row\"> \n                  <b>Url: </b> \n               </th> \n               <td style=\"padding-left: 4px;\">https://madie.cms.gov/Library/CMS871HHHyperFHIR</td> \n            </tr> \n            <tr> \n               <th scope=\"row\"> \n                  <b> official </b> \n               </th> \n               <td style=\"padding-left: 4px;\"> \n                  <p style=\"margin-bottom: 5px;\"> \n                     <span>CMS871HHHyperFHIR</span> \n                  </p> \n               </td> \n            </tr> \n            <tr> \n               <th scope=\"row\"> \n                  <b>Type: </b> \n               </th> \n               <td style=\"padding-left: 4px;\"> \n                  <p style=\"margin-bottom: 5px;\"> \n                     <b>system: </b> \n                     <span>http://terminology.hl7.org/CodeSystem/library-type</span> \n                  </p> \n                  <p style=\"margin-bottom: 5px;\"> \n                     <b>code: </b> \n                     <span>logic-library</span> \n                  </p> \n               </td> \n            </tr> \n            <tr> \n               <th scope=\"row\"> \n                  <b>Date: </b> \n               </th> \n               <td style=\"padding-left: 4px;\">2025-05-23T20:52:30+00:00</td> \n            </tr> \n            <tr> \n               <th scope=\"row\"> \n                  <b>Publisher: </b> \n               </th> \n               <td style=\"padding-left: 4px;\">Centers for Medicare &amp; Medicaid Services (CMS)</td> \n            </tr> \n            <tr> \n               <th scope=\"row\"> \n                  <b>Description: </b> \n               </th> \n               <td style=\"padding-left: 4px;\">CMS871HHHyperFHIR</td> \n            </tr> \n            <tr> \n               <th scope=\"row\"> \n                  <b>Related Artifacts: </b> \n               </th> \n               <td style=\"padding-left: 4px;\"> \n                  <p> \n                     <b>Dependencies</b> \n                  </p> \n                  <ul> \n                     <li>https://madie.cms.gov/Library/SupplementalDataElements|5.1.000</li> \n                     <li>https://madie.cms.gov/Library/FHIRHelpers|4.4.000</li> \n                     <li>https://madie.cms.gov/Library/CQMCommon|4.1.000</li> \n                     <li>https://madie.cms.gov/Library/QICoreCommon|4.0.000</li> \n                     <li>http://cts.nlm.nih.gov/fhir/ValueSet/2.16.840.1.113883.3.666.5.307</li> \n                     <li>http://cts.nlm.nih.gov/fhir/ValueSet/2.16.840.1.113883.3.464.1003.103.12.1001</li> \n                     <li>http://cts.nlm.nih.gov/fhir/ValueSet/2.16.840.1.113762.1.4.1196.394</li> \n                     <li>http://cts.nlm.nih.gov/fhir/ValueSet/2.16.840.1.113762.1.4.1248.34</li> \n                     <li>http://cts.nlm.nih.gov/fhir/ValueSet/1.3.6.1.4.1.33895.1.3.0.45</li> \n                     <li>http://cts.nlm.nih.gov/fhir/ValueSet/2.16.840.1.113883.3.117.1.7.1.209</li> \n                     <li>http://cts.nlm.nih.gov/fhir/ValueSet/2.16.840.1.113883.3.117.1.7.1.207</li> \n                  </ul> \n               </td> \n            </tr> \n            <tr> \n               <th scope=\"row\"> \n                  <b>Data Requirements:</b> \n               </th> \n               <td style=\"padding-left: 4px;\"> \n                  <table class=\"grid-dict\"> \n                     <tr> \n                        <th> \n                           <b>Type</b> \n                        </th> \n                        <th> \n                           <b>Profile</b> \n                        </th> \n                        <th> \n                           <b>MS</b> \n                        </th> \n                        <th> \n                           <b>Code Filter</b> \n                        </th> \n                     </tr> \n                     <tr> \n                        <th>Patient</th> \n                        <th>http://hl7.org/fhir/us/qicore/StructureDefinition/qicore-patient</th> \n                        <th>;;</th> \n                        <th> </th> \n                     </tr> \n                     <tr> \n                        <th>MedicationAdministration</th> \n                        <th>http://hl7.org/fhir/us/qicore/StructureDefinition/qicore-medicationadministration</th> \n                        <th>;</th> \n                        <th> \n                           <b>code filter: </b> \n                           <br/> \n                           <span style=\"padding-left: 4px;\"> \n                              <b>path: </b> \n                              <span>medication</span> \n                           </span> \n                           <br/> \n                           <span style=\"padding-left: 4px;\"> \n                              <b>value set: </b> \n                              <span>http://cts.nlm.nih.gov/fhir/ValueSet/2.16.840.1.113762.1.4.1196.394</span> \n                           </span> \n                        </th> \n                     </tr> \n                     <tr> \n                        <th>MedicationAdministration</th> \n                        <th>http://hl7.org/fhir/us/qicore/StructureDefinition/qicore-medicationadministration</th> \n                        <th>;</th> \n                        <th> </th> \n                     </tr> \n                     <tr> \n                        <th>Medication</th> \n                        <th>http://hl7.org/fhir/us/qicore/StructureDefinition/qicore-medication</th> \n                        <th>;;</th> \n                        <th> </th> \n                     </tr> \n                     <tr> \n                        <th>Observation</th> \n                        <th>http://hl7.org/fhir/us/qicore/StructureDefinition/qicore-observation-lab</th> \n                        <th>;;;;;;;</th> \n                        <th> \n                           <b>code filter: </b> \n                           <br/> \n                           <span style=\"padding-left: 4px;\"> \n                              <b>path: </b> \n                              <span>code</span> \n                           </span> \n                           <br/> \n                           <span style=\"padding-left: 4px;\"> \n                              <b>value set: </b> \n                              <span>http://cts.nlm.nih.gov/fhir/ValueSet/2.16.840.1.113762.1.4.1248.34</span> \n                           </span> \n                        </th> \n                     </tr> \n                     <tr> \n                        <th>ServiceRequest</th> \n                        <th>http://hl7.org/fhir/us/qicore/StructureDefinition/qicore-servicerequest</th> \n                        <th>;</th> \n                        <th> \n                           <b>code filter: </b> \n                           <br/> \n                           <span style=\"padding-left: 4px;\"> \n                              <b>path: </b> \n                              <span>code</span> \n                           </span> \n                           <br/> \n                           <span style=\"padding-left: 4px;\"> \n                              <b>value set: </b> \n                              <span>http://cts.nlm.nih.gov/fhir/ValueSet/1.3.6.1.4.1.33895.1.3.0.45</span> \n                           </span> \n                        </th> \n                     </tr> \n                     <tr> \n                        <th>Procedure</th> \n                        <th>http://hl7.org/fhir/us/qicore/StructureDefinition/qicore-procedure</th> \n                        <th>;</th> \n                        <th> \n                           <b>code filter: </b> \n                           <br/> \n                           <span style=\"padding-left: 4px;\"> \n                              <b>path: </b> \n                              <span>code</span> \n                           </span> \n                           <br/> \n                           <span style=\"padding-left: 4px;\"> \n                              <b>value set: </b> \n                              <span>http://cts.nlm.nih.gov/fhir/ValueSet/1.3.6.1.4.1.33895.1.3.0.45</span> \n                           </span> \n                        </th> \n                     </tr> \n                     <tr> \n                        <th>Coverage</th> \n                        <th>http://hl7.org/fhir/us/qicore/StructureDefinition/qicore-coverage</th> \n                        <th>;;</th> \n                        <th> \n                           <b>code filter: </b> \n                           <br/> \n                           <span style=\"padding-left: 4px;\"> \n                              <b>path: </b> \n                              <span>type</span> \n                           </span> \n                           <br/> \n                           <span style=\"padding-left: 4px;\"> \n                              <b>value set: </b> \n                              <span>http://cts.nlm.nih.gov/fhir/ValueSet/2.16.840.1.114222.4.11.3591</span> \n                           </span> \n                        </th> \n                     </tr> \n                  </table> \n               </td> \n            </tr> \n            <tr> \n               <td colspan=\"2\"> \n                  <table> \n                     <tr> \n                        <th> \n                           <a id=\"cql-content\"> \n                              <b>Content: </b> \n                           </a> text/cql \n                        </th> \n                     </tr> \n                     <tr> \n                        <td> \n                           <pre><code class=\"language-cql\">library CMS871HHHyperFHIR version '0.3.000'\n\nusing QICore version '6.0.0'\n\ninclude FHIRHelpers version '4.4.000' called FHIRHelpers\ninclude SupplementalDataElements version '5.1.000' called SDE\ninclude CQMCommon version '4.1.000' called CQMCommon\ninclude QICoreCommon version '4.0.000' called QICoreCommon\ninclude CumulativeMedicationDuration version '5.0.000' called CMD\n\ncodesystem &quot;LOINC&quot;: 'http://loinc.org'\n\nvalueset &quot;birth date&quot;: 'http://cts.nlm.nih.gov/fhir/ValueSet/2.16.840.1.113883.3.560.100.4'\nvalueset &quot;Comfort Measures&quot;: 'http://cts.nlm.nih.gov/fhir/ValueSet/1.3.6.1.4.1.33895.1.3.0.45'\nvalueset &quot;Diabetes&quot;: 'http://cts.nlm.nih.gov/fhir/ValueSet/2.16.840.1.113883.3.464.1003.103.12.1001'\nvalueset &quot;Discharged to Health Care Facility for Hospice Care&quot;: 'http://cts.nlm.nih.gov/fhir/ValueSet/2.16.840.1.113883.3.117.1.7.1.207'\nvalueset &quot;Discharged to Home for Hospice Care&quot;: 'http://cts.nlm.nih.gov/fhir/ValueSet/2.16.840.1.113883.3.117.1.7.1.209'\nvalueset &quot;Encounter Inpatient&quot;: 'http://cts.nlm.nih.gov/fhir/ValueSet/2.16.840.1.113883.3.666.5.307'\nvalueset &quot;Glucose Lab Test Mass Per Volume&quot;: 'http://cts.nlm.nih.gov/fhir/ValueSet/2.16.840.1.113762.1.4.1248.34'\nvalueset &quot;Hypoglycemics Treatment Medications&quot;: 'http://cts.nlm.nih.gov/fhir/ValueSet/2.16.840.1.113762.1.4.1196.394'\n\ncode &quot;Birth date&quot;: '21112-8' from &quot;LOINC&quot; display 'Birth date'\n\nparameter &quot;Measurement Period&quot; Interval&lt;DateTime&gt;\n\ncontext Patient\n\n/***/\n\n\ndefine &quot;Comfort Measures Care&quot;:\n  [&quot;ServiceRequest&quot;: &quot;Comfort Measures&quot;]\n    union [&quot;Procedure&quot;: &quot;Comfort Measures&quot;]\n\ndefine &quot;Days in Hospitalization&quot;:\n  &quot;Measurement Population&quot; EligibleInpatientHospitalization\n    let period: CQMCommon.&quot;HospitalizationWithObservation&quot; ( EligibleInpatientHospitalization ),\n    relevantPeriod: &quot;Hospital Days Max 10&quot;(period)\n    return Tuple {\n      encounter: EligibleInpatientHospitalization,\n      hospitalizationPeriod: period,\n      relevantPeriod: relevantPeriod,\n      relevantDays: &quot;Days In Period&quot;(relevantPeriod)\n    }\n\ndefine &quot;Days with Glucose Results&quot;:\n  &quot;Days in Hospitalization&quot; InpatientHospitalDays\n    return Tuple {\n      encounter: InpatientHospitalDays.encounter,\n      relevantPeriod: InpatientHospitalDays.relevantPeriod,\n      relevantDays: ( InpatientHospitalDays.relevantDays EncounterDay\n          return Tuple {\n            dayNumber: EncounterDay.dayNumber,\n            dayPeriod: EncounterDay.dayPeriod,\n            hasSevereResult: exists ( [&quot;LaboratoryResultObservation&quot;: &quot;Glucose Lab Test Mass Per Volume&quot;] GlucoseTest\n                where GlucoseTest.status in { 'final', 'amended', 'corrected' }\n                  and GlucoseTest.value &gt; 300 'mg/dL'\n                  and QICoreCommon.&quot;Earliest&quot; ( GlucoseTest.effective ) during EncounterDay.dayPeriod\n            ),\n            hasElevatedResult: exists ( [&quot;LaboratoryResultObservation&quot;: &quot;Glucose Lab Test Mass Per Volume&quot;] GlucoseTest\n                where GlucoseTest.status in { 'final', 'amended', 'corrected' }\n                  and GlucoseTest.value &gt;= 200 'mg/dL'\n                  and QICoreCommon.&quot;Earliest&quot; ( GlucoseTest.effective ) during EncounterDay.dayPeriod\n            ),\n            hasNoGlucoseTest: not exists ( [&quot;LaboratoryResultObservation&quot;: &quot;Glucose Lab Test Mass Per Volume&quot;] GlucoseTest\n                where GlucoseTest.status in { 'final', 'amended', 'corrected' }\n                  and QICoreCommon.&quot;Earliest&quot; ( GlucoseTest.effective ) during EncounterDay.dayPeriod\n            )\n          }\n      )\n    }\n\n/*# hyper days uses &quot;Relevant Encounters With Glucose Result Days&quot; to find if hyper event on each day. Skips 1st day in 'RelevantDays`. Returns boolean based on: Today high result OR Today no result AND Yesterday high result AND 2 days ago high result*/\n\n\ndefine &quot;Days with Hyperglycemic Events&quot;:\n  &quot;Days with Glucose Results&quot; EncounterWithResultDays\n    let eligibleEventDays: EncounterWithResultDays.relevantDays EncounterDay\n      where EncounterDay.dayNumber &gt; 1\n      return Tuple {\n        dayIndex: EncounterDay.dayNumber,\n        dayPeriod: EncounterDay.dayPeriod,\n        hasHyperglycemicEvent: ( EncounterDay.hasSevereResult\n            or ( EncounterDay.hasNoGlucoseTest\n                and EncounterWithResultDays.relevantDays[EncounterDay.dayNumber - 2].hasElevatedResult\n                and EncounterWithResultDays.relevantDays[EncounterDay.dayNumber - 3].hasElevatedResult\n            )\n        )\n      }\n    return Tuple {\n      encounter: EncounterWithResultDays.encounter,\n      relevantPeriod: EncounterWithResultDays.relevantPeriod,\n      eligibleEventDays: eligibleEventDays\n    }\n\ndefine &quot;Denominator&quot;:\n  &quot;Initial Population&quot;\n\ndefine &quot;Denominator Exclusions&quot;:\n  &quot;Encounter with Early Glucose Greater Than 600 or with Comfort or Hospice Care&quot;\n\ndefine &quot;Encounter with Comfort Measures during Hospitalization&quot;:\n  &quot;Initial Population&quot; InpatientHospitalization\n    with &quot;Comfort Measures Care&quot; ComfortCare\n      such that Coalesce(ComfortCare.performed.toInterval(), ComfortCare.authoredOn.toInterval()) during CQMCommon.&quot;HospitalizationWithObservation&quot; ( InpatientHospitalization )\n\ndefine &quot;Encounter with Discharge for Hospice Care&quot;:\n  &quot;Initial Population&quot; InpatientHospitalization\n    where InpatientHospitalization.hospitalization.dischargeDisposition in &quot;Discharged to Home for Hospice Care&quot;\n      or InpatientHospitalization.hospitalization.dischargeDisposition in &quot;Discharged to Health Care Facility for Hospice Care&quot;\n\ndefine &quot;Encounter with Early Glucose Greater Than 600 or with Comfort or Hospice Care&quot;:\n  &quot;Encounter with Glucose Greater Than 600 within 1 Hour Prior To and 6 Hours After Encounter Start&quot;\n    union &quot;Encounter with Comfort Measures during Hospitalization&quot;\n    union &quot;Encounter with Discharge for Hospice Care&quot;\n\n\n/**\n * Using the already calculated pairing of hospitalization periods with encounters, filter on ones with \n * any elevated (&gt;= 200) blood glucose reading during the hospitalization*/\n\n\ndefine &quot;Encounter with Elevated Glucose Greater Than or Equal to 200&quot;:\n  &quot;Encounter with Hospitalization Period&quot; Hospitalization\n    with [&quot;LaboratoryResultObservation&quot;: &quot;Glucose Lab Test Mass Per Volume&quot;] GlucoseTest\n      such that QICoreCommon.&quot;Earliest&quot; ( GlucoseTest.effective ) during Hospitalization.hospitalizationPeriod\n        and GlucoseTest.status in { 'final', 'amended', 'corrected' }\n            //and GlucoseTest.status != 'cancelled'\n        \n        and GlucoseTest.value &gt;= 200 'mg/dL'\n    return Hospitalization.encounter\n\n/**\n * Using the already calculated pairing of hospitalization periods with encounters, filter on ones with \n * diabetes and return the encounter.*/\n\n\ndefine &quot;Encounter with Existing Diabetes Diagnosis&quot;:\n  &quot;Encounter with Hospitalization Period&quot; Hospitalization\n    with [&quot;ConditionEncounterDiagnosis&quot;: &quot;Diabetes&quot;] Diabetes\n      such that ( QICoreCommon.&quot;ToPrevalenceInterval&quot; ( Diabetes ) starts before end of Hospitalization.hospitalizationPeriod )\n    return Hospitalization.encounter\n\ndefine &quot;Encounter with Glucose Greater Than 600 within 1 Hour Prior To and 6 Hours After Encounter Start&quot;:\n  from\n    &quot;Initial Population&quot; InpatientHospitalization,\n    &quot;Initial Glucose Greater Than 600 within 1 Hour Prior To and 6 Hours After Encounter Start&quot; EarlyGlucoseResult\n    where EarlyGlucoseResult.value as Quantity &gt; 600 'mg/dL'\n      and EarlyGlucoseResult.status in { 'final', 'amended', 'corrected' }\n      and QICoreCommon.&quot;Earliest&quot; ( EarlyGlucoseResult.effective ) during Interval[( start of CQMCommon.&quot;HospitalizationWithObservation&quot; ( InpatientHospitalization ) - 1 hour ), ( start of CQMCommon.&quot;HospitalizationWithObservation&quot; ( InpatientHospitalization ) + 6 hours )]\n    return InpatientHospitalization\n\n\n/**\n * Create paring of encounters to hospitalization period so this calculation can be inspected and the result \n * can be reused, making the logic faster.*/\n\n\ndefine &quot;Encounter with Hospitalization Period&quot;:\n  &quot;Qualifying Encounter&quot; QualifyingHospitalization\n    return Tuple {\n      encounter: QualifyingHospitalization,\n      hospitalizationPeriod: CQMCommon.&quot;HospitalizationWithObservation&quot; ( QualifyingHospitalization )\n    }\n\n/***/\n\n\ndefine &quot;Encounter with Hyperglycemic Events&quot;:\n  &quot;Days with Hyperglycemic Events&quot; HyperglycemicEventDays\n    where exists ( HyperglycemicEventDays.eligibleEventDays EligibleEventDay\n        where EligibleEventDay.hasHyperglycemicEvent\n    )\n    return HyperglycemicEventDays.encounter\n\n/**\n * Using the already calculated pairing of hospitalization periods with encounters, filter on ones with \n * hypoglycemic medicatons and return the encounter.*/\n\n\ndefine &quot;Encounter with Hypoglycemic Medication&quot;:\n  from\n    &quot;Encounter with Hospitalization Period&quot; Hospitalization,\n    [&quot;MedicationAdministration&quot;: &quot;Hypoglycemics Treatment Medications&quot;] HypoglycemicMed\n    where HypoglycemicMed.status in { 'completed', 'in-progress' }\n          //and HypoglycemicMed.status != 'not-done'\n      \n      and QICoreCommon.&quot;ToInterval&quot; ( HypoglycemicMed.effective ) during Hospitalization.hospitalizationPeriod\n    return Hospitalization.encounter\n\ndefine &quot;Glucose Greater Than 600 within 1 Hour Prior To and 6 Hours After Encounter Start&quot;:\n  from\n    &quot;Initial Population&quot; InpatientHospitalization,\n    [&quot;LaboratoryResultObservation&quot;: &quot;Glucose Lab Test Mass Per Volume&quot;] GlucoseTest\n    let HospitalizationInterval: CQMCommon.&quot;HospitalizationWithObservation&quot; ( InpatientHospitalization ),\n    GlucoseTestTime: QICoreCommon.&quot;Earliest&quot; ( GlucoseTest.effective )\n    where GlucoseTest.value as Quantity &gt; 600 'mg/dL'\n      and GlucoseTest.status in { 'final', 'amended', 'corrected' }\n      and GlucoseTestTime during Interval[( start of HospitalizationInterval - 1 hour ), ( start of HospitalizationInterval + 6 hours )]\n    return GlucoseTest\n\ndefine &quot;Glucose Tests Earlier Than Glucose Greater Than 600 within 1 Hour Prior To and 6 Hours After Encounter Start&quot;:\n  from\n    &quot;Initial Population&quot; InpatientHospitalization,\n    &quot;Glucose Greater Than 600 within 1 Hour Prior To and 6 Hours After Encounter Start&quot; GlucoseResult600,\n    [&quot;LaboratoryResultObservation&quot;: &quot;Glucose Lab Test Mass Per Volume&quot;] EarlierGlucoseTest\n    let HospitalizationInterval: CQMCommon.&quot;HospitalizationWithObservation&quot; ( InpatientHospitalization ),\n    GlucoseTest600Time: QICoreCommon.&quot;Earliest&quot; ( GlucoseResult600.effective ),\n    EarlierGlucoseTestTime: QICoreCommon.&quot;Earliest&quot; ( EarlierGlucoseTest.effective )\n    where GlucoseTest600Time during Interval[( start of HospitalizationInterval - 1 hour ), ( start of HospitalizationInterval + 6 hour )]\n      and EarlierGlucoseTestTime during Interval[( start of HospitalizationInterval - 1 hour ), GlucoseTest600Time )\n      and EarlierGlucoseTest.id !~ GlucoseResult600.id\n    return GlucoseResult600\n\ndefine &quot;Initial Glucose Greater Than 600 within 1 Hour Prior To and 6 Hours After Encounter Start&quot;:\n  &quot;Glucose Greater Than 600 within 1 Hour Prior To and 6 Hours After Encounter Start&quot; GlucoseResult600\n    where not ( GlucoseResult600.id in &quot;Glucose Tests Earlier Than Glucose Greater Than 600 within 1 Hour Prior To and 6 Hours After Encounter Start&quot;.id )\n\ndefine &quot;Initial Population&quot;:\n  &quot;Encounter with Existing Diabetes Diagnosis&quot;\n    union &quot;Encounter with Hypoglycemic Medication&quot;\n    union &quot;Encounter with Elevated Glucose Greater Than or Equal to 200&quot;\n\ndefine &quot;Measurement Population&quot;:\n  &quot;Denominator&quot;\n\ndefine &quot;Numerator&quot;:\n  &quot;Encounter with Hyperglycemic Events&quot;\n\ndefine &quot;Numerator Exclusions&quot;:\n  &quot;Encounter with Early Glucose Greater Than 600 or with Comfort or Hospice Care&quot;\n\ndefine &quot;Qualifying Encounter&quot;:\n  [&quot;Encounter&quot;: &quot;Encounter Inpatient&quot;] InpatientEncounter\n    where AgeInYearsAt(date from start of InpatientEncounter.period) &gt;= 18\n      and InpatientEncounter.period ends during day of &quot;Measurement Period&quot;\n      and InpatientEncounter.status = 'finished'\n\ndefine &quot;SDE Ethnicity&quot;:\n  SDE.&quot;SDE Ethnicity&quot;\n\ndefine &quot;SDE Payer&quot;:\n  SDE.&quot;SDE Payer&quot;\n\ndefine &quot;SDE Race&quot;:\n  SDE.&quot;SDE Race&quot;\n\ndefine &quot;SDE Sex&quot;:\n  SDE.&quot;SDE Sex&quot;\n\n/**\n * Crops an interval to a maximum length of 10 days.*/\n\n\ndefine function &quot;Hospital Days Max 10&quot;(Period Interval&lt;DateTime&gt;):\n  Interval[start of Period, Min({ \n    end of Period, start of Period + 10 days }\n  )]\n\n/**\n * Creates a list of integers from 1 to how many days are in the interval. Note, this wont create an index for\n * the final day if it is less than 24 hours. This also includes the first 24 hour period.*/\n\n\ndefine function &quot;Interval To Day Numbers&quot;(Period Interval&lt;DateTime&gt;):\n  ( expand { Interval[1, duration in days between start of Period and end of Period]} ) DayExpand\n    return end of DayExpand\n\n/**\n * Counts the number of eligible days in an encounter. This simply filters and counts the data built in\n * &quot;Relevant Encounters With Hyperglycemic Event Days&quot;.*/\n\n\ndefine function &quot;Denominator Observations&quot;(QualifyingEncounter Encounter):\n  if QualifyingEncounter.id in &quot;Denominator Exclusions&quot;.id then singleton from ( &quot;Days with Hyperglycemic Events&quot; EncounterWithEventDays\n      where EncounterWithEventDays.encounter = QualifyingEncounter\n      return 0\n  ) \n    else singleton from ( &quot;Days with Hyperglycemic Events&quot; EncounterWithEventDays\n      where EncounterWithEventDays.encounter = QualifyingEncounter\n      return Count(EncounterWithEventDays.eligibleEventDays)\n  )\n\n/**\n * Counts the number of eligible days with a hyperglycemic event in an encounter. This simply filters and counts the data built in\n * &quot;Relevant Encounters With Hyperglycemic Event Days&quot;.*/\n\n\ndefine function &quot;Numerator Observations&quot;(QualifyingEncounter Encounter):\n  if QualifyingEncounter.id in &quot;Denominator Exclusions&quot;.id then singleton from ( &quot;Days with Hyperglycemic Events&quot; EncounterWithEventDays\n      where EncounterWithEventDays.encounter = QualifyingEncounter\n      return 0\n  ) \n    else singleton from ( &quot;Days with Hyperglycemic Events&quot; EncounterWithEventDays\n      where EncounterWithEventDays.encounter = QualifyingEncounter\n      return Count(EncounterWithEventDays.eligibleEventDays EligibleEventDay\n          where EligibleEventDay.hasHyperglycemicEvent\n      )\n  )\n\n/**\n * Creates a list of 24 hour long intervals in an interval paired with the index (1 indexed) to which 24 hour interval it is.*/\n\n\ndefine function &quot;Days In Period&quot;(Period Interval&lt;DateTime&gt;):\n  ( &quot;Interval To Day Numbers&quot;(Period) ) DayNumber\n    let startPeriod: start of Period + ( 24 hours * ( DayNumber - 1 ) ),\n    endPeriod: if ( hours between startPeriod and end of Period &lt; 24 ) then startPeriod \n      else start of Period + ( 24 hours * DayNumber )\n    return Tuple {\n      dayNumber: DayNumber,\n      dayPeriod: Interval[startPeriod, endPeriod )\n    }</code></pre> \n                        </td> \n                     </tr> \n                  </table> \n               </td> \n            </tr> \n         </table> \n      </div>"},"contained":[{"resourceType":"Parameters","id":"options","parameter":[{"name":"translatorVersion","valueString":"3.25.0"},{"name":"option","valueString":"EnableAnnotations"},{"name":"option","valueString":"EnableLocators"},{"name":"option","valueString":"DisableListDemotion"},{"name":"option","valueString":"DisableListPromotion"},{"name":"format","valueString":"JSON"},{"name":"format","valueString":"XML"},{"name":"analyzeDataRequirements","valueBoolean":false},{"name":"collapseDataRequirements","valueBoolean":false},{"name":"compatibilityLevel","valueString":"1.5"},{"name":"enableCqlOnly","valueBoolean":false},{"name":"errorLevel","valueString":"Info"},{"name":"signatureLevel","valueString":"Overloads"},{"name":"validateUnits","valueBoolean":true},{"name":"verifyOnly","valueBoolean":false}]}],"extension":[{"url":"http://hl7.org/fhir/StructureDefinition/cqf-directReferenceCode","valueCoding":{"system":"http://loinc.org","code":"21112-8","display":"Birth date"}},{"url":"http://hl7.org/fhir/StructureDefinition/cqf-cqlOptions","valueReference":{"reference":"#options"}}],"url":"https://madie.cms.gov/Library/CMS871HHHyperFHIR","identifier":[{"use":"official","system":"https://madie.cms.gov/login","value":"CMS871HHHyperFHIR"}],"version":"0.3.000","name":"CMS871HHHyperFHIR","title":"CMS871HHHyperFHIR","status":"active","experimental":false,"type":{"coding":[{"system":"http://terminology.hl7.org/CodeSystem/library-type","code":"logic-library"}]},"date":"2025-05-23T20:52:30+00:00","publisher":"Centers for Medicare & Medicaid Services (CMS)","description":"CMS871HHHyperFHIR","content":[{"contentType":"text/cql","data":""}]},"request":{"method":"PUT","url":"Library/CMS871HHHyperFHIR"}},{"resource":{"resourceType":"Patient","id":"patient-113a6e72-7049-4a7f-90cf-5ec3435b0dee","meta":{"profile":["http://hl7.org/fhir/us/qicore/StructureDefinition/qicore-patient"]},"extension":[{"url":"http://hl7.org/fhir/us/core/StructureDefinition/us-core-race","extension":[{"url":"ombCategory","valueCoding":{"system":"urn:oid:2.16.840.1.113883.6.238","code":"2106-3","display":"White"}},{"url":"text","valueString":"White"}]},{"url":"http://hl7.org/fhir/us/core/StructureDefinition/us-core-ethnicity","extension":[{"url":"ombCategory","valueCoding":{"system":"urn:oid:2.16.840.1.113883.6.238","code":"2135-2","display":"Hispanic or Latino"}},{"url":"text","valueString":"Hispanic or Latino"}]},{"url":"http://hl7.org/fhir/us/core/StructureDefinition/us-core-sex","valueCode":"248153007"}],"identifier":[{"system":"http://hospital.smarthealthit.org","value":"999999999"}],"name":[{"family":"Example","given":["Patient"]}],"gender":"female","birthDate":"1956-01-01"},"request":{"method":"PUT","url":"Patient/patient-113a6e72-7049-4a7f-90cf-5ec3435b0dee"}},{"resource":{"resourceType":"Observation","id":"bdb874e4-964c-4166-b962-f77236262b73","meta":{"profile":["http://hl7.org/fhir/us/qicore/StructureDefinition/qicore-observation-lab"]},"status":"final","category":[{"coding":[{"system":"http://terminology.hl7.org/CodeSystem/observation-category","code":"laboratory","display":"Laboratory"}]}],"code":{"coding":[{"system":"http://loinc.org","version":"2.72","code":"1547-9","display":"Glucose Lab Test Mass Per Volume"}]},"subject":{"reference":"Patient/113a6e72-7049-4a7f-90cf-5ec3435b0dee"},"effectiveDateTime":"2026-07-14T08:00:00.000+00:00","valueQuantity":{"value":0,"unit":"mg/dL"}},"request":{"method":"PUT","url":"Observation/bdb874e4-964c-4166-b962-f77236262b73"}},{"resource":{"resourceType":"Condition","id":"04d0c839-48f3-4f0c-b1c0-4d008c5082a0","meta":{"profile":["http://hl7.org/fhir/us/qicore/StructureDefinition/qicore-condition-encounter-diagnosis"]},"clinicalStatus":{"coding":[{"system":"http://terminology.hl7.org/CodeSystem/condition-clinical","code":"active"}]},"verificationStatus":{"coding":[{"system":"http://terminology.hl7.org/CodeSystem/condition-ver-status","code":"confirmed"}]},"category":[{"coding":[{"system":"http://terminology.hl7.org/CodeSystem/condition-category","code":"encounter-diagnosis","display":"Encounter Diagnosis"}]}],"code":{"coding":[{"system":"http://snomed.info/sct","code":"46635009","display":"Diabetes Mellitus"}]},"subject":{"reference":"Patient/113a6e72-7049-4a7f-90cf-5ec3435b0dee"},"encounter":{"reference":"Encounter/3f896dce-7f09-4779-8b3b-4edb9592d854"},"onsetDateTime":"2026-07-09T08:00:00.000+00:00"},"request":{"method":"PUT","url":"Condition/04d0c839-48f3-4f0c-b1c0-4d008c5082a0"}},{"resource":{"resourceType":"Encounter","id":"3f896dce-7f09-4779-8b3b-4edb9592d854","meta":{"profile":["http://hl7.org/fhir/us/qicore/StructureDefinition/qicore-encounter"]},"status":"finished","class":{"system":"http://terminology.hl7.org/CodeSystem/v3-ActCode","code":"IMP","display":"inpatient encounter"},"type":[{"coding":[{"system":"http://snomed.info/sct","code":"183452005","display":"Inpatient encounter"}]}],"subject":{"reference":"Patient/113a6e72-7049-4a7f-90cf-5ec3435b0dee"},"period":{"start":"2026-07-11T08:00:00.000+00:00","end":"2026-07-16T09:00:00.000+00:00"}},"request":{"method":"PUT","url":"Encounter/3f896dce-7f09-4779-8b3b-4edb9592d854"}},{"resource":{"resourceType":"Observation","id":"d8113ca1-3dd4-40c9-8192-0887cb1b76ee","meta":{"profile":["http://hl7.org/fhir/us/qicore/StructureDefinition/qicore-observation-lab"]},"status":"final","category":[{"coding":[{"system":"http://terminology.hl7.org/CodeSystem/observation-category","code":"laboratory","display":"Laboratory"}]}],"code":{"coding":[{"system":"http://loinc.org","version":"2.72","code":"1547-9","display":"Glucose Lab Test Mass Per Volume"}]},"subject":{"reference":"Patient/113a6e72-7049-4a7f-90cf-5ec3435b0dee"},"effectiveDateTime":"2026-07-13T08:00:00.000+00:00","valueQuantity":{"value":201,"unit":"mg/dL"}},"request":{"method":"PUT","url":"Observation/d8113ca1-3dd4-40c9-8192-0887cb1b76ee"}},{"resource":{"resourceType":"MeasureReport","id":"a660dd1b-20ac-4e8c-8670-bf491cfb1dc2","meta":{"profile":["http://hl7.org/fhir/us/cqfmeasures/StructureDefinition/test-case-cqfm"]},"contained":[{"resourceType":"Parameters","id":"b70c70d9-213b-4c2b-adaa-b52e6cf75077-parameters","parameter":[{"name":"subject"}]}],"extension":[{"url":"http://hl7.org/fhir/StructureDefinition/cqf-inputParameters","valueReference":{"reference":"#b70c70d9-213b-4c2b-adaa-b52e6cf75077-parameters"}},{"url":"http://hl7.org/fhir/us/cqfmeasures/StructureDefinition/cqfm-testCaseDescription","valueMarkdown":"Encounter with diabetes dx. Glucose on day 4 has value = 0 mg/dL. Previous 2 days have values GT 200 mg/dL. Day 4 is NOT considered a \"no glucose day\". Numerator is therefore not met. Test is to validate CQM 6218 inquiry."}],"modifierExtension":[{"url":"http://hl7.org/fhir/us/cqfmeasures/StructureDefinition/cqfm-isTestCase","valueBoolean":true}],"status":"complete","type":"individual","measure":"https://madie.cms.gov/Measure/CMS871HHHyperFHIR","period":{"start":"2026-01-01","end":"2026-12-31"},"group":[{"id":"Group_1","population":[{"id":"InitialPopulation_1","code":{"coding":[{"system":"http://terminology.hl7.org/CodeSystem/measure-population","code":"initial-population","display":"Initial Population"}]},"count":1},{"id":"Denominator_1","code":{"coding":[{"system":"http://terminology.hl7.org/CodeSystem/measure-population","code":"denominator","display":"Denominator"}]},"count":1},{"id":"DenominatorExclusion_1","code":{"coding":[{"system":"http://terminology.hl7.org/CodeSystem/measure-population","code":"denominator-exclusion","display":"Denominator Exclusion"}]},"count":0},{"id":"Numerator_1","code":{"coding":[{"system":"http://terminology.hl7.org/CodeSystem/measure-population","code":"numerator","display":"Numerator"}]},"count":0},{"id":"NumeratorExclusion_1","code":{"coding":[{"system":"http://terminology.hl7.org/CodeSystem/measure-population","code":"numerator-exclusion","display":"Numerator Exclusion"}]},"count":0},{"id":"MeasureObservation_1_1_1","code":{"coding":[{"system":"http://terminology.hl7.org/CodeSystem/measure-population","code":"measure-observation","display":"Measure Observation"}]},"count":4}],"measureScore":{"value":0.0}}],"evaluatedResource":[{"reference":"Condition/04d0c839-48f3-4f0c-b1c0-4d008c5082a0"},{"reference":"Encounter/3f896dce-7f09-4779-8b3b-4edb9592d854"},{"reference":"Patient/null"},{"reference":"Observation/ccede7a7-52ae-4aa2-ae73-4ab8165b9597"},{"reference":"Observation/bdb874e4-964c-4166-b962-f77236262b73"},{"reference":"Observation/d8113ca1-3dd4-40c9-8192-0887cb1b76ee"}]},"request":{"method":"PUT","url":"MeasureReport/a660dd1b-20ac-4e8c-8670-bf491cfb1dc2"}},{"resource":{"resourceType":"Observation","id":"ccede7a7-52ae-4aa2-ae73-4ab8165b9597","meta":{"profile":["http://hl7.org/fhir/us/qicore/StructureDefinition/qicore-observation-lab"]},"status":"final","category":[{"coding":[{"system":"http://terminology.hl7.org/CodeSystem/observation-category","code":"laboratory","display":"Laboratory"}]}],"code":{"coding":[{"system":"http://loinc.org","version":"2.72","code":"1547-9","display":"Glucose Lab Test Mass Per Volume"}]},"subject":{"reference":"Patient/113a6e72-7049-4a7f-90cf-5ec3435b0dee"},"effectiveDateTime":"2026-07-12T08:00:00.000+00:00","valueQuantity":{"value":201,"unit":"mg/dL"}},"request":{"method":"PUT","url":"Observation/ccede7a7-52ae-4aa2-ae73-4ab8165b9597"}},{"resource":{"resourceType":"Condition","id":"c52f331f-84b9-43e2-8abc-9c6aaaf5f7e8","meta":{"profile":["http://hl7.org/fhir/us/qicore/StructureDefinition/qicore-condition-encounter-diagnosis"]},"clinicalStatus":{"coding":[{"system":"http://terminology.hl7.org/CodeSystem/condition-clinical","code":"active"}]},"verificationStatus":{"coding":[{"system":"http://terminology.hl7.org/CodeSystem/condition-ver-status","code":"confirmed"}]},"category":[{"coding":[{"system":"http://terminology.hl7.org/CodeSystem/condition-category","code":"encounter-diagnosis","display":"Encounter Diagnosis"}]}],"code":{"coding":[{"system":"http://snomed.info/sct","code":"46635009","display":"Diabetes Mellitus"}]},"subject":{"reference":"Patient/fd579f44-757b-4c98-9b09-27b17b935650"},"encounter":{"reference":"Encounter/3338d1b0-6e46-4e63-b1f5-f1a1648af168"},"onsetDateTime":"2025-07-11T08:00:00.000+00:00","abatementDateTime":"2026-07-31T08:00:00.000+00:00"},"request":{"method":"PUT","url":"Condition/c52f331f-84b9-43e2-8abc-9c6aaaf5f7e8"}},{"resource":{"resourceType":"Observation","id":"adb3f065-de13-4690-a62a-f84db83ec9e6","meta":{"profile":["http://hl7.org/fhir/us/qicore/StructureDefinition/qicore-observation-lab"]},"status":"final","category":[{"coding":[{"system":"http://terminology.hl7.org/CodeSystem/observation-category","code":"laboratory","display":"Laboratory"}]}],"code":{"coding":[{"system":"http://loinc.org","version":"2.72","code":"1547-9","display":"Glucose Lab Test Mass Per Volume"}]},"subject":{"reference":"Patient/fd579f44-757b-4c98-9b09-27b17b935650"},"effectiveDateTime":"2026-07-11T10:00:00.000+00:00","valueQuantity":{"value":301,"unit":"mg/dL"}},"request":{"method":"PUT","url":"Observation/adb3f065-de13-4690-a62a-f84db83ec9e6"}},{"resource":{"resourceType":"MeasureReport","id":"b90479da-9c78-4401-86ca-8045e4477274","meta":{"profile":["http://hl7.org/fhir/us/cqfmeasures/StructureDefinition/test-case-cqfm"]},"contained":[{"resourceType":"Parameters","id":"c84a390e-6e5e-430a-850c-9259fd01c670-parameters","parameter":[{"name":"subject","valueString":"fd579f44-757b-4c98-9b09-27b17b935650"}]}],"extension":[{"url":"http://hl7.org/fhir/StructureDefinition/cqf-inputParameters","valueReference":{"reference":"#c84a390e-6e5e-430a-850c-9259fd01c670-parameters"}},{"url":"http://hl7.org/fhir/us/cqfmeasures/StructureDefinition/cqfm-testCaseDescription","valueMarkdown":"Encounter less than a day, diagnosis, meds, and elevated lab test. Therefore Num not met, no MO."}],"modifierExtension":[{"url":"http://hl7.org/fhir/us/cqfmeasures/StructureDefinition/cqfm-isTestCase","valueBoolean":true}],"status":"complete","type":"individual","measure":"https://madie.cms.gov/Measure/CMS871HHHyperFHIR","period":{"start":"2026-01-01","end":"2026-12-31"},"group":[{"id":"Group_1","population":[{"id":"InitialPopulation_1","code":{"coding":[{"system":"http://terminology.hl7.org/CodeSystem/measure-population","code":"initial-population","display":"Initial Population"}]},"count":1},{"id":"Denominator_1","code":{"coding":[{"system":"http://terminology.hl7.org/CodeSystem/measure-population","code":"denominator","display":"Denominator"}]},"count":1},{"id":"DenominatorExclusion_1","code":{"coding":[{"system":"http://terminology.hl7.org/CodeSystem/measure-population","code":"denominator-exclusion","display":"Denominator Exclusion"}]},"count":0},{"id":"Numerator_1","code":{"coding":[{"system":"http://terminology.hl7.org/CodeSystem/measure-population","code":"numerator","display":"Numerator"}]},"count":0},{"id":"NumeratorExclusion_1","code":{"coding":[{"system":"http://terminology.hl7.org/CodeSystem/measure-population","code":"numerator-exclusion","display":"Numerator Exclusion"}]},"count":0},{"id":"MeasureObservation_1_1_1","code":{"coding":[{"system":"http://terminology.hl7.org/CodeSystem/measure-population","code":"measure-observation","display":"Measure Observation"}]},"count":0}],"measureScore":{"value":0.0}}],"evaluatedResource":[{"reference":"Condition/c52f331f-84b9-43e2-8abc-9c6aaaf5f7e8"},{"reference":"MedicationAdministration/c998821a-0261-4926-97c0-da9816c3da6d"},{"reference":"Encounter/3338d1b0-6e46-4e63-b1f5-f1a1648af168"},{"reference":"Patient/fd579f44-757b-4c98-9b09-27b17b935650"},{"reference":"Observation/adb3f065-de13-4690-a62a-f84db83ec9e6"}]},"request":{"method":"PUT","url":"MeasureReport/b90479da-9c78-4401-86ca-8045e4477274"}},{"resource":{"resourceType":"MedicationAdministration","id":"c998821a-0261-4926-97c0-da9816c3da6d","meta":{"profile":["http://hl7.org/fhir/us/qicore/StructureDefinition/qicore-medicationadministration"]},"status":"completed","medicationCodeableConcept":{"coding":[{"system":"http://www.nlm.nih.gov/research/umls/rxnorm","code":"1368018","display":"Hypoglycemics Treatment Medications"}]},"subject":{"reference":"Patient/fd579f44-757b-4c98-9b09-27b17b935650"},"context":{"reference":"Encounter/3338d1b0-6e46-4e63-b1f5-f1a1648af168"},"effectivePeriod":{"start":"2026-07-11T09:00:00.000+00:00","end":"2026-07-11T10:00:00.000+00:00"},"dosage":{"route":{"coding":[{"system":"http://terminology.hl7.org/CodeSystem/medication-route","code":"ORAL","display":"Oral"}]}}},"request":{"method":"PUT","url":"MedicationAdministration/c998821a-0261-4926-97c0-da9816c3da6d"}},{"resource":{"resourceType":"Patient","id":"fd579f44-757b-4c98-9b09-27b17b935650","meta":{"profile":["http://hl7.org/fhir/us/qicore/StructureDefinition/qicore-patient"]},"extension":[{"url":"http://hl7.org/fhir/us/core/StructureDefinition/us-core-race","extension":[{"url":"ombCategory","valueCoding":{"system":"urn:oid:2.16.840.1.113883.6.238","code":"2106-3","display":"White"}},{"url":"text","valueString":"White"}]},{"url":"http://hl7.org/fhir/us/core/StructureDefinition/us-core-ethnicity","extension":[{"url":"ombCategory","valueCoding":{"system":"urn:oid:2.16.840.1.113883.6.238","code":"2135-2","display":"Hispanic or Latino"}},{"url":"text","valueString":"Hispanic or Latino"}]},{"url":"http://hl7.org/fhir/us/core/StructureDefinition/us-core-sex","valueCode":"248153007"}],"identifier":[{"system":"http://hospital.smarthealthit.org","value":"999999999"}],"name":[{"family":"Example","given":["Patient"]}],"gender":"female","birthDate":"1956-01-01"},"request":{"method":"PUT","url":"Patient/fd579f44-757b-4c98-9b09-27b17b935650"}},{"resource":{"resourceType":"Encounter","id":"3338d1b0-6e46-4e63-b1f5-f1a1648af168","meta":{"profile":["http://hl7.org/fhir/us/qicore/StructureDefinition/qicore-encounter"]},"status":"finished","class":{"system":"http://terminology.hl7.org/CodeSystem/v3-ActCode","code":"IMP","display":"inpatient encounter"},"type":[{"coding":[{"system":"http://snomed.info/sct","code":"183452005","display":"Inpatient encounter"}]}],"subject":{"reference":"Patient/fd579f44-757b-4c98-9b09-27b17b935650"},"period":{"start":"2026-07-11T08:00:00.000+00:00","end":"2026-07-11T22:00:00.000+00:00"}},"request":{"method":"PUT","url":"Encounter/3338d1b0-6e46-4e63-b1f5-f1a1648af168"}},{"resource":{"resourceType":"Patient","id":"93c2a45f-f96e-4c48-a102-a35e38e8ec40","meta":{"profile":["http://hl7.org/fhir/us/qicore/StructureDefinition/qicore-patient"]},"extension":[{"url":"http://hl7.org/fhir/us/core/StructureDefinition/us-core-race","extension":[{"url":"ombCategory","valueCoding":{"system":"urn:oid:2.16.840.1.113883.6.238","code":"2106-3","display":"White"}},{"url":"text","valueString":"White"}]},{"url":"http://hl7.org/fhir/us/core/StructureDefinition/us-core-ethnicity","extension":[{"url":"ombCategory","valueCoding":{"system":"urn:oid:2.16.840.1.113883.6.238","code":"2135-2","display":"Hispanic or Latino"}},{"url":"detailed","valueCoding":{"system":"urn:oid:2.16.840.1.113883.6.238","code":"2184-0","display":"Dominican"}},{"url":"detailed","valueCoding":{"system":"urn:oid:2.16.840.1.113883.6.238","code":"2148-5","display":"Mexican"}},{"url":"text","valueString":"Hispanic or Latino"}]}],"identifier":[{"system":"http://hospital.smarthealthit.org","value":"999999999"}],"name":[{"family":"Example","given":["Patient"]}],"gender":"male","birthDate":"1956-01-01"},"request":{"method":"PUT","url":"Patient/93c2a45f-f96e-4c48-a102-a35e38e8ec40"}},{"resource":{"resourceType":"Condition","id":"63cd9722-36a3-419f-b315-491337937876","meta":{"profile":["http://hl7.org/fhir/us/qicore/StructureDefinition/qicore-condition-encounter-diagnosis"]},"clinicalStatus":{"coding":[{"system":"http://terminology.hl7.org/CodeSystem/condition-clinical","code":"active"}]},"category":[{"coding":[{"system":"http://terminology.hl7.org/CodeSystem/condition-category","code":"encounter-diagnosis","display":"Encounter Diagnosis"}]}],"code":{"coding":[{"system":"http://hl7.org/fhir/sid/icd-10-cm","code":"E10.21","display":"Type 1 diabetes mellitus with diabetic nephropathy"}]},"subject":{"reference":"Patient/93c2a45f-f96e-4c48-a102-a35e38e8ec40"},"onsetDateTime":"2011-01-02"},"request":{"method":"PUT","url":"Condition/63cd9722-36a3-419f-b315-491337937876"}},{"resource":{"resourceType":"Encounter","id":"c51ea804-78d6-45c9-9463-a8a10568eddc","meta":{"profile":["http://hl7.org/fhir/us/qicore/StructureDefinition/qicore-encounter"]},"status":"finished","class":{"system":"http://terminology.hl7.org/CodeSystem/v3-ActCode","code":"IMP","display":"inpatient encounter"},"type":[{"coding":[{"system":"http://snomed.info/sct","code":"183452005"}]}],"subject":{"reference":"Patient/93c2a45f-f96e-4c48-a102-a35e38e8ec40"},"period":{"start":"2026-04-07T08:00:00Z","end":"2026-04-11T08:15:00.000+00:00"},"hospitalization":{"dischargeDisposition":{"coding":[{"system":"http://snomed.info/sct","code":"428361000124107","display":"Discharge to home or self care"}]}}},"request":{"method":"PUT","url":"Encounter/c51ea804-78d6-45c9-9463-a8a10568eddc"}},{"resource":{"resourceType":"MeasureReport","id":"f374d500-4fc4-4f4c-b372-0fff3f3d9c35","meta":{"profile":["http://hl7.org/fhir/us/cqfmeasures/StructureDefinition/test-case-cqfm"]},"contained":[{"resourceType":"Parameters","id":"e730c515-21ca-497f-88e7-eaa2ec79f054-parameters","parameter":[{"name":"subject","valueString":"93c2a45f-f96e-4c48-a102-a35e38e8ec40"}]}],"extension":[{"url":"http://hl7.org/fhir/StructureDefinition/cqf-inputParameters","valueReference":{"reference":"#e730c515-21ca-497f-88e7-eaa2ec79f054-parameters"}},{"url":"http://hl7.org/fhir/us/cqfmeasures/StructureDefinition/cqfm-testCaseDescription","valueMarkdown":"Patient has a discharge to home with hospice care"}],"modifierExtension":[{"url":"http://hl7.org/fhir/us/cqfmeasures/StructureDefinition/cqfm-isTestCase","valueBoolean":true}],"status":"complete","type":"individual","measure":"https://madie.cms.gov/Measure/CMS871HHHyperFHIR","period":{"start":"2026-01-01","end":"2026-12-31"},"group":[{"id":"Group_1","population":[{"id":"InitialPopulation_1","code":{"coding":[{"system":"http://terminology.hl7.org/CodeSystem/measure-population","code":"initial-population","display":"Initial Population"}]},"count":1},{"id":"Denominator_1","code":{"coding":[{"system":"http://terminology.hl7.org/CodeSystem/measure-population","code":"denominator","display":"Denominator"}]},"count":1},{"id":"DenominatorExclusion_1","code":{"coding":[{"system":"http://terminology.hl7.org/CodeSystem/measure-population","code":"denominator-exclusion","display":"Denominator Exclusion"}]},"count":1},{"id":"Numerator_1","code":{"coding":[{"system":"http://terminology.hl7.org/CodeSystem/measure-population","code":"numerator","display":"Numerator"}]},"count":0},{"id":"NumeratorExclusion_1","code":{"coding":[{"system":"http://terminology.hl7.org/CodeSystem/measure-population","code":"numerator-exclusion","display":"Numerator Exclusion"}]},"count":0}],"measureScore":{"value":0.0}}],"evaluatedResource":[{"reference":"Patient/93c2a45f-f96e-4c48-a102-a35e38e8ec40"},{"reference":"Encounter/c51ea804-78d6-45c9-9463-a8a10568eddc"},{"reference":"Condition/63cd9722-36a3-419f-b315-491337937876"}]},"request":{"method":"PUT","url":"MeasureReport/f374d500-4fc4-4f4c-b372-0fff3f3d9c35"}},{"resource":{"resourceType":"MeasureReport","id":"71b069cf-3ba5-40a1-b442-527d8edeaabd","meta":{"profile":["http://hl7.org/fhir/us/cqfmeasures/StructureDefinition/test-case-cqfm"]},"contained":[{"resourceType":"Parameters","id":"b9294340-4479-4d26-909e-ab3080654229-parameters","parameter":[{"name":"subject","valueString":"48c2ed10-7c2d-4130-a215-a6f72b169111"}]}],"extension":[{"url":"http://hl7.org/fhir/StructureDefinition/cqf-inputParameters","valueReference":{"reference":"#b9294340-4479-4d26-909e-ab3080654229-parameters"}},{"url":"http://hl7.org/fhir/us/cqfmeasures/StructureDefinition/cqfm-testCaseDescription","valueMarkdown":"Enc starts in ED prior to IP. Has glucose >200 and >18 age so meets IPP. Has comfort care ordered one minute after end of encounter so does not meet Denom Exclusion."}],"modifierExtension":[{"url":"http://hl7.org/fhir/us/cqfmeasures/StructureDefinition/cqfm-isTestCase","valueBoolean":true}],"status":"complete","type":"individual","measure":"https://madie.cms.gov/Measure/CMS871HHHyperFHIR","period":{"start":"2026-01-01","end":"2026-12-31"},"group":[{"id":"Group_1","population":[{"id":"InitialPopulation_1","code":{"coding":[{"system":"http://terminology.hl7.org/CodeSystem/measure-population","code":"initial-population","display":"Initial Population"}]},"count":1},{"id":"Denominator_1","code":{"coding":[{"system":"http://terminology.hl7.org/CodeSystem/measure-population","code":"denominator","display":"Denominator"}]},"count":1},{"id":"DenominatorExclusion_1","code":{"coding":[{"system":"http://terminology.hl7.org/CodeSystem/measure-population","code":"denominator-exclusion","display":"Denominator Exclusion"}]},"count":0},{"id":"Numerator_1","code":{"coding":[{"system":"http://terminology.hl7.org/CodeSystem/measure-population","code":"numerator","display":"Numerator"}]},"count":0},{"id":"NumeratorExclusion_1","code":{"coding":[{"system":"http://terminology.hl7.org/CodeSystem/measure-population","code":"numerator-exclusion","display":"Numerator Exclusion"}]},"count":0},{"id":"MeasureObservation_1_1_1","code":{"coding":[{"system":"http://terminology.hl7.org/CodeSystem/measure-population","code":"measure-observation","display":"Measure Observation"}]},"count":1}],"measureScore":{"value":0.0}}],"evaluatedResource":[{"reference":"Condition/a32fb80a-19e6-44e7-9621-40750ffbf6af"},{"reference":"Encounter/9fc69614-ecc1-4af6-a648-f03edfcaab82"},{"reference":"Encounter/be53ad75-41ae-4cbf-8cbb-63314efe0666"},{"reference":"Patient/48c2ed10-7c2d-4130-a215-a6f72b169111"},{"reference":"ServiceRequest/2a824e68-ad14-4078-85fb-16d298c2eb5e"},{"reference":"Observation/9af6a80d-4611-448e-a85e-05de3a724872"}]},"request":{"method":"PUT","url":"MeasureReport/71b069cf-3ba5-40a1-b442-527d8edeaabd"}},{"resource":{"resourceType":"Observation","id":"9af6a80d-4611-448e-a85e-05de3a724872","meta":{"profile":["http://hl7.org/fhir/us/qicore/StructureDefinition/qicore-observation-lab"]},"status":"final","category":[{"coding":[{"system":"http://terminology.hl7.org/CodeSystem/observation-category","code":"laboratory","display":"Laboratory"}]}],"code":{"coding":[{"system":"http://loinc.org","version":"2.72","code":"1547-9","display":"Glucose Lab Test Mass Per Volume"}]},"subject":{"reference":"Patient/48c2ed10-7c2d-4130-a215-a6f72b169111"},"effectiveDateTime":"2026-10-18T09:15:00.000+00:00","valueQuantity":{"value":201,"unit":"mg/dL"}},"request":{"method":"PUT","url":"Observation/9af6a80d-4611-448e-a85e-05de3a724872"}},{"resource":{"resourceType":"Patient","id":"48c2ed10-7c2d-4130-a215-a6f72b169111","meta":{"profile":["http://hl7.org/fhir/us/qicore/StructureDefinition/qicore-patient"]},"extension":[{"url":"http://hl7.org/fhir/us/core/StructureDefinition/us-core-race","extension":[{"url":"ombCategory","valueCoding":{"system":"urn:oid:2.16.840.1.113883.6.238","code":"2106-3","display":"White"}},{"url":"text","valueString":"White"}]},{"url":"http://hl7.org/fhir/us/core/StructureDefinition/us-core-ethnicity","extension":[{"url":"ombCategory","valueCoding":{"system":"urn:oid:2.16.840.1.113883.6.238","code":"2135-2","display":"Hispanic or Latino"}},{"url":"text","valueString":"Hispanic or Latino"}]},{"url":"http://hl7.org/fhir/us/core/StructureDefinition/us-core-sex","valueCode":"248153007"}],"identifier":[{"system":"http://hospital.smarthealthit.org","value":"999999999"}],"name":[{"family":"Example","given":["Patient"]}],"gender":"female","birthDate":"1956-01-01"},"request":{"method":"PUT","url":"Patient/48c2ed10-7c2d-4130-a215-a6f72b169111"}},{"resource":{"resourceType":"Condition","id":"a32fb80a-19e6-44e7-9621-40750ffbf6af","meta":{"profile":["http://hl7.org/fhir/us/qicore/StructureDefinition/qicore-condition-encounter-diagnosis"]},"clinicalStatus":{"coding":[{"system":"http://terminology.hl7.org/CodeSystem/condition-clinical","code":"active"}]},"verificationStatus":{"coding":[{"system":"http://terminology.hl7.org/CodeSystem/condition-ver-status","code":"confirmed"}]},"category":[{"coding":[{"system":"http://terminology.hl7.org/CodeSystem/condition-category","code":"encounter-diagnosis","display":"Encounter Diagnosis"}]}],"code":{"coding":[{"system":"http://snomed.info/sct","code":"46635009","display":"Diabetes Mellitus"}]},"subject":{"reference":"Patient/48c2ed10-7c2d-4130-a215-a6f72b169111"},"encounter":{"reference":"Encounter/be53ad75-41ae-4cbf-8cbb-63314efe0666"},"onsetPeriod":{"start":"2026-07-09T08:00:00.000+00:00","end":"2026-07-11T08:00:00.000+00:00"}},"request":{"method":"PUT","url":"Condition/a32fb80a-19e6-44e7-9621-40750ffbf6af"}},{"resource":{"resourceType":"ServiceRequest","id":"2a824e68-ad14-4078-85fb-16d298c2eb5e","meta":{"profile":["http://hl7.org/fhir/us/qicore/StructureDefinition/qicore-servicerequest"]},"status":"active","intent":"order","priority":"routine","code":{"coding":[{"system":"http://snomed.info/sct","code":"133918004","display":"Comfort Measures"}]},"subject":{"reference":"Patient/48c2ed10-7c2d-4130-a215-a6f72b169111"},"authoredOn":"2026-10-21T08:16:00.000+00:00"},"request":{"method":"PUT","url":"ServiceRequest/2a824e68-ad14-4078-85fb-16d298c2eb5e"}},{"resource":{"resourceType":"Encounter","id":"be53ad75-41ae-4cbf-8cbb-63314efe0666","meta":{"profile":["http://hl7.org/fhir/us/qicore/StructureDefinition/qicore-encounter"]},"status":"finished","class":{"system":"http://terminology.hl7.org/CodeSystem/v3-ActCode","code":"EMER","display":"emergency encounter"},"type":[{"coding":[{"system":"http://snomed.info/sct","code":"4525004","display":"Emergency Department Visit"}]}],"subject":{"reference":"Patient/48c2ed10-7c2d-4130-a215-a6f72b169111"},"period":{"start":"2026-10-18T09:15:00.000+00:00","end":"2026-10-19T08:15:00.000+00:00"}},"request":{"method":"PUT","url":"Encounter/be53ad75-41ae-4cbf-8cbb-63314efe0666"}},{"resource":{"resourceType":"Encounter","id":"9fc69614-ecc1-4af6-a648-f03edfcaab82","meta":{"profile":["http://hl7.org/fhir/us/qicore/StructureDefinition/qicore-encounter"]},"status":"finished","class":{"system":"http://terminology.hl7.org/CodeSystem/v3-ActCode","code":"IMP","display":"inpatient encounter"},"type":[{"coding":[{"system":"http://snomed.info/sct","code":"183452005","display":"Inpatient encounter"}]}],"subject":{"reference":"Patient/48c2ed10-7c2d-4130-a215-a6f72b169111"},"period":{"start":"2026-10-19T08:30:00.000+00:00","end":"2026-10-21T08:15:00.000+00:00"}},"request":{"method":"PUT","url":"Encounter/9fc69614-ecc1-4af6-a648-f03edfcaab82"}},{"resource":{"resourceType":"MeasureReport","id":"88b64595-1869-4a19-9a50-2e818465cc10","meta":{"profile":["http://hl7.org/fhir/us/cqfmeasures/StructureDefinition/test-case-cqfm"]},"contained":[{"resourceType":"Parameters","id":"4306d210-0c64-4d44-a143-f87a1a29ebe8-parameters","parameter":[{"name":"subject","valueString":"98533ccd-24ee-41b3-aab2-ef6cbf89e00d"}]}],"extension":[{"url":"http://hl7.org/fhir/StructureDefinition/cqf-inputParameters","valueReference":{"reference":"#4306d210-0c64-4d44-a143-f87a1a29ebe8-parameters"}},{"url":"http://hl7.org/fhir/us/cqfmeasures/StructureDefinition/cqfm-testCaseDescription","valueMarkdown":"Enc with diabetes dx, encounter starts in Obs 3pm. Meets exclusion - initial test > 600 within 1 hour prior to start of encounter (Obs visit start of 3pm) to 6 hours after start of the enc. "}],"modifierExtension":[{"url":"http://hl7.org/fhir/us/cqfmeasures/StructureDefinition/cqfm-isTestCase","valueBoolean":true}],"status":"complete","type":"individual","measure":"https://madie.cms.gov/Measure/CMS871HHHyperFHIR","period":{"start":"2026-01-01","end":"2026-12-31"},"group":[{"id":"Group_1","population":[{"id":"InitialPopulation_1","code":{"coding":[{"system":"http://terminology.hl7.org/CodeSystem/measure-population","code":"initial-population","display":"Initial Population"}]},"count":1},{"id":"Denominator_1","code":{"coding":[{"system":"http://terminology.hl7.org/CodeSystem/measure-population","code":"denominator","display":"Denominator"}]},"count":1},{"id":"DenominatorExclusion_1","code":{"coding":[{"system":"http://terminology.hl7.org/CodeSystem/measure-population","code":"denominator-exclusion","display":"Denominator Exclusion"}]},"count":1},{"id":"Numerator_1","code":{"coding":[{"system":"http://terminology.hl7.org/CodeSystem/measure-population","code":"numerator","display":"Numerator"}]},"count":0},{"id":"NumeratorExclusion_1","code":{"coding":[{"system":"http://terminology.hl7.org/CodeSystem/measure-population","code":"numerator-exclusion","display":"Numerator Exclusion"}]},"count":0}],"measureScore":{"value":0.0}}],"evaluatedResource":[{"reference":"Condition/aa3ced1e-ac0d-4c2a-8b20-58278aff2958"},{"reference":"Encounter/72180243-cb18-4430-b1eb-6196c89f7e92"},{"reference":"Encounter/b386e918-f142-4e13-b49c-dbeff6b48733"},{"reference":"Patient/98533ccd-24ee-41b3-aab2-ef6cbf89e00d"},{"reference":"Observation/244a42bf-32de-4ca3-91b2-344d45321cd2"},{"reference":"Observation/1f48f513-2e27-4252-a3cb-203e90a7d93d"}]},"request":{"method":"PUT","url":"MeasureReport/88b64595-1869-4a19-9a50-2e818465cc10"}},{"resource":{"resourceType":"Observation","id":"244a42bf-32de-4ca3-91b2-344d45321cd2","meta":{"profile":["http://hl7.org/fhir/us/qicore/StructureDefinition/qicore-observation-lab"]},"status":"final","category":[{"coding":[{"system":"http://terminology.hl7.org/CodeSystem/observation-category","code":"laboratory","display":"Laboratory"}]}],"code":{"coding":[{"system":"http://loinc.org","version":"2.72","code":"1547-9","display":"Glucose [Mass/volume] in Serum or Plasma --baseline"}]},"subject":{"reference":"Patient/98533ccd-24ee-41b3-aab2-ef6cbf89e00d"},"effectiveDateTime":"2026-11-12T14:20:00+00:00","valueQuantity":{"value":610,"unit":"mg/dL"}},"request":{"method":"PUT","url":"Observation/244a42bf-32de-4ca3-91b2-344d45321cd2"}},{"resource":{"resourceType":"Encounter","id":"b386e918-f142-4e13-b49c-dbeff6b48733","meta":{"profile":["http://hl7.org/fhir/us/qicore/StructureDefinition/qicore-encounter"]},"status":"finished","class":{"system":"http://terminology.hl7.org/CodeSystem/v3-ActCode","code":"EMER","display":"emergency encounter"},"type":[{"coding":[{"system":"http://snomed.info/sct","code":"448951000124107","display":"Admission to department (procedure)"}]}],"subject":{"reference":"Patient/98533ccd-24ee-41b3-aab2-ef6cbf89e00d"},"period":{"start":"2026-11-12T15:00:00+00:00","end":"2026-11-12T15:45:00.000+00:00"}},"request":{"method":"PUT","url":"Encounter/b386e918-f142-4e13-b49c-dbeff6b48733"}},{"resource":{"resourceType":"Patient","id":"98533ccd-24ee-41b3-aab2-ef6cbf89e00d","meta":{"profile":["http://hl7.org/fhir/us/qicore/StructureDefinition/qicore-patient"]},"extension":[{"url":"http://hl7.org/fhir/us/core/StructureDefinition/us-core-race","extension":[{"url":"ombCategory","valueCoding":{"system":"urn:oid:2.16.840.1.113883.6.238","code":"2106-3","display":"White"}},{"url":"text","valueString":"White"}]},{"url":"http://hl7.org/fhir/us/core/StructureDefinition/us-core-ethnicity","extension":[{"url":"ombCategory","valueCoding":{"system":"urn:oid:2.16.840.1.113883.6.238","code":"2135-2","display":"Hispanic or Latino"}},{"url":"text","valueString":"Hispanic or Latino"}]},{"url":"http://hl7.org/fhir/us/core/StructureDefinition/us-core-sex","valueCode":"248153007"}],"identifier":[{"system":"http://hospital.smarthealthit.org","value":"999999999"}],"name":[{"family":"Example","given":["Patient"]}],"gender":"female","birthDate":"1956-01-01"},"request":{"method":"PUT","url":"Patient/98533ccd-24ee-41b3-aab2-ef6cbf89e00d"}},{"resource":{"resourceType":"Encounter","id":"72180243-cb18-4430-b1eb-6196c89f7e92","meta":{"profile":["http://hl7.org/fhir/us/qicore/StructureDefinition/qicore-encounter"]},"status":"finished","class":{"system":"http://terminology.hl7.org/CodeSystem/v3-ActCode","code":"IMP","display":"inpatient encounter"},"type":[{"coding":[{"system":"http://snomed.info/sct","code":"183452005","display":"Emergency hospital admission"}]}],"subject":{"reference":"Patient/98533ccd-24ee-41b3-aab2-ef6cbf89e00d"},"period":{"start":"2026-11-12T16:00:00+00:00","end":"2026-11-12T19:00:00.000+00:00"}},"request":{"method":"PUT","url":"Encounter/72180243-cb18-4430-b1eb-6196c89f7e92"}},{"resource":{"resourceType":"Observation","id":"1f48f513-2e27-4252-a3cb-203e90a7d93d","meta":{"profile":["http://hl7.org/fhir/us/qicore/StructureDefinition/qicore-observation-lab"]},"status":"final","category":[{"coding":[{"system":"http://terminology.hl7.org/CodeSystem/observation-category","code":"laboratory","display":"Laboratory"}]}],"code":{"coding":[{"system":"http://loinc.org","version":"2.72","code":"1547-9","display":"Glucose [Mass/volume] in Serum or Plasma --baseline"}]},"subject":{"reference":"Patient/98533ccd-24ee-41b3-aab2-ef6cbf89e00d"},"effectiveDateTime":"2026-11-12T14:30:00+00:00","valueQuantity":{"value":800,"unit":"mg/dL"}},"request":{"method":"PUT","url":"Observation/1f48f513-2e27-4252-a3cb-203e90a7d93d"}},{"resource":{"resourceType":"Condition","id":"aa3ced1e-ac0d-4c2a-8b20-58278aff2958","meta":{"profile":["http://hl7.org/fhir/us/qicore/StructureDefinition/qicore-condition-encounter-diagnosis"]},"clinicalStatus":{"coding":[{"system":"http://terminology.hl7.org/CodeSystem/condition-clinical","code":"active"}]},"verificationStatus":{"coding":[{"system":"http://terminology.hl7.org/CodeSystem/condition-ver-status","code":"confirmed"}]},"category":[{"coding":[{"system":"http://terminology.hl7.org/CodeSystem/condition-category","code":"encounter-diagnosis","display":"Encounter Diagnosis"}]}],"code":{"coding":[{"system":"http://snomed.info/sct","code":"46635009","display":"Diabetes mellitus type 1 (disorder)"}]},"subject":{"reference":"Patient/98533ccd-24ee-41b3-aab2-ef6cbf89e00d"},"encounter":{"reference":"Encounter/b386e918-f142-4e13-b49c-dbeff6b48733"},"onsetDateTime":"2026-07-11T08:00:00+00:00"},"request":{"method":"PUT","url":"Condition/aa3ced1e-ac0d-4c2a-8b20-58278aff2958"}},{"resource":{"resourceType":"Patient","id":"7507debb-a991-4de0-bd71-634a684ddcd7","meta":{"profile":["http://hl7.org/fhir/us/qicore/StructureDefinition/qicore-patient"]},"extension":[{"url":"http://hl7.org/fhir/us/core/StructureDefinition/us-core-race","extension":[{"url":"ombCategory","valueCoding":{"system":"urn:oid:2.16.840.1.113883.6.238","code":"2106-3","display":"White"}},{"url":"text","valueString":"White"}]},{"url":"http://hl7.org/fhir/us/core/StructureDefinition/us-core-ethnicity","extension":[{"url":"ombCategory","valueCoding":{"system":"urn:oid:2.16.840.1.113883.6.238","code":"2135-2","display":"Hispanic or Latino"}},{"url":"text","valueString":"Hispanic or Latino"}]},{"url":"http://hl7.org/fhir/us/core/StructureDefinition/us-core-sex","valueCode":"248153007"}],"identifier":[{"system":"http://hospital.smarthealthit.org","value":"999999999"}],"name":[{"family":"Example","given":["Patient"]}],"gender":"female","birthDate":"1956-01-01"},"request":{"method":"PUT","url":"Patient/7507debb-a991-4de0-bd71-634a684ddcd7"}},{"resource":{"resourceType":"Encounter","id":"d74e81cd-d39d-4ee4-b5cb-e597e734cfdf","meta":{"profile":["http://hl7.org/fhir/us/qicore/StructureDefinition/qicore-encounter"]},"status":"finished","class":{"system":"http://terminology.hl7.org/CodeSystem/v3-ActCode","code":"IMP","display":"inpatient encounter"},"type":[{"coding":[{"system":"http://snomed.info/sct","code":"183452005","display":"Inpatient encounter"}]}],"subject":{"reference":"Patient/7507debb-a991-4de0-bd71-634a684ddcd7"},"period":{"start":"2026-07-11T08:00:00.000+00:00","end":"2026-07-13T09:00:00.000+00:00"}},"request":{"method":"PUT","url":"Encounter/d74e81cd-d39d-4ee4-b5cb-e597e734cfdf"}},{"resource":{"resourceType":"MeasureReport","id":"a6502e47-2fd1-4c97-b722-179adf136585","meta":{"profile":["http://hl7.org/fhir/us/cqfmeasures/StructureDefinition/test-case-cqfm"]},"contained":[{"resourceType":"Parameters","id":"c39c3aad-70f1-4261-a2d5-e5c594cd99a7-parameters","parameter":[{"name":"subject","valueString":"7507debb-a991-4de0-bd71-634a684ddcd7"}]}],"extension":[{"url":"http://hl7.org/fhir/StructureDefinition/cqf-inputParameters","valueReference":{"reference":"#c39c3aad-70f1-4261-a2d5-e5c594cd99a7-parameters"}},{"url":"http://hl7.org/fhir/us/cqfmeasures/StructureDefinition/cqfm-testCaseDescription","valueMarkdown":"Encounter with diagnosis and meds, elevated lab occurs 1 minute after end of encounter so does not meet Numerator."}],"modifierExtension":[{"url":"http://hl7.org/fhir/us/cqfmeasures/StructureDefinition/cqfm-isTestCase","valueBoolean":true}],"status":"complete","type":"individual","measure":"https://madie.cms.gov/Measure/CMS871HHHyperFHIR","period":{"start":"2026-01-01","end":"2026-12-31"},"group":[{"id":"Group_1","population":[{"id":"InitialPopulation_1","code":{"coding":[{"system":"http://terminology.hl7.org/CodeSystem/measure-population","code":"initial-population","display":"Initial Population"}]},"count":1},{"id":"Denominator_1","code":{"coding":[{"system":"http://terminology.hl7.org/CodeSystem/measure-population","code":"denominator","display":"Denominator"}]},"count":1},{"id":"DenominatorExclusion_1","code":{"coding":[{"system":"http://terminology.hl7.org/CodeSystem/measure-population","code":"denominator-exclusion","display":"Denominator Exclusion"}]},"count":0},{"id":"Numerator_1","code":{"coding":[{"system":"http://terminology.hl7.org/CodeSystem/measure-population","code":"numerator","display":"Numerator"}]},"count":0},{"id":"NumeratorExclusion_1","code":{"coding":[{"system":"http://terminology.hl7.org/CodeSystem/measure-population","code":"numerator-exclusion","display":"Numerator Exclusion"}]},"count":0},{"id":"MeasureObservation_1_1_1","code":{"coding":[{"system":"http://terminology.hl7.org/CodeSystem/measure-population","code":"measure-observation","display":"Measure Observation"}]},"count":1}],"measureScore":{"value":0.0}}],"evaluatedResource":[{"reference":"Condition/184d2963-8600-4dfa-a56e-13c8ba0617db"},{"reference":"MedicationAdministration/f835aee9-6a6a-4b87-8a29-248b28c02ed4"},{"reference":"Encounter/d74e81cd-d39d-4ee4-b5cb-e597e734cfdf"},{"reference":"Patient/7507debb-a991-4de0-bd71-634a684ddcd7"},{"reference":"Observation/d7fb9197-e760-4541-99ca-ebd4f4725c9f"}]},"request":{"method":"PUT","url":"MeasureReport/a6502e47-2fd1-4c97-b722-179adf136585"}},{"resource":{"resourceType":"Condition","id":"184d2963-8600-4dfa-a56e-13c8ba0617db","meta":{"profile":["http://hl7.org/fhir/us/qicore/StructureDefinition/qicore-condition-encounter-diagnosis"]},"clinicalStatus":{"coding":[{"system":"http://terminology.hl7.org/CodeSystem/condition-clinical","code":"active"}]},"verificationStatus":{"coding":[{"system":"http://terminology.hl7.org/CodeSystem/condition-ver-status","code":"confirmed"}]},"category":[{"coding":[{"system":"http://terminology.hl7.org/CodeSystem/condition-category","code":"encounter-diagnosis","display":"Encounter Diagnosis"}]}],"code":{"coding":[{"system":"http://snomed.info/sct","code":"46635009","display":"Diabetes Mellitus"}]},"subject":{"reference":"Patient/7507debb-a991-4de0-bd71-634a684ddcd7"},"encounter":{"reference":"Encounter/d74e81cd-d39d-4ee4-b5cb-e597e734cfdf"},"onsetDateTime":"2025-10-02T08:00:00.000+00:00"},"request":{"method":"PUT","url":"Condition/184d2963-8600-4dfa-a56e-13c8ba0617db"}},{"resource":{"resourceType":"MedicationAdministration","id":"f835aee9-6a6a-4b87-8a29-248b28c02ed4","meta":{"profile":["http://hl7.org/fhir/us/qicore/StructureDefinition/qicore-medicationadministration"]},"status":"completed","medicationCodeableConcept":{"coding":[{"system":"http://www.nlm.nih.gov/research/umls/rxnorm","code":"1368385","display":"Hypoglycemics Treatment Medications"}]},"subject":{"reference":"Patient/7507debb-a991-4de0-bd71-634a684ddcd7"},"context":{"reference":"Encounter/d74e81cd-d39d-4ee4-b5cb-e597e734cfdf"},"effectivePeriod":{"start":"2026-07-11T08:00:00.000+00:00","end":"2026-07-11T09:00:00.000+00:00"},"dosage":{"route":{"coding":[{"system":"http://terminology.hl7.org/CodeSystem/medication-route","code":"ORAL","display":"Oral"}]}}},"request":{"method":"PUT","url":"MedicationAdministration/f835aee9-6a6a-4b87-8a29-248b28c02ed4"}},{"resource":{"resourceType":"Observation","id":"d7fb9197-e760-4541-99ca-ebd4f4725c9f","meta":{"profile":["http://hl7.org/fhir/us/qicore/StructureDefinition/qicore-observation-lab"]},"status":"final","category":[{"coding":[{"system":"http://terminology.hl7.org/CodeSystem/observation-category","code":"laboratory","display":"Laboratory"}]}],"code":{"coding":[{"system":"http://loinc.org","version":"2.72","code":"1547-9","display":"Glucose Lab Test Mass Per Volume"}]},"subject":{"reference":"Patient/7507debb-a991-4de0-bd71-634a684ddcd7"},"effectiveDateTime":"2026-07-13T09:01:00.000+00:00","valueQuantity":{"value":301,"unit":"mg/dL"}},"request":{"method":"PUT","url":"Observation/d7fb9197-e760-4541-99ca-ebd4f4725c9f"}},{"resource":{"resourceType":"Condition","id":"056c5782-9087-42bd-85c1-1b60a5b4a58c","meta":{"profile":["http://hl7.org/fhir/us/qicore/StructureDefinition/qicore-condition-encounter-diagnosis"]},"clinicalStatus":{"coding":[{"system":"http://terminology.hl7.org/CodeSystem/condition-clinical","code":"active"}]},"category":[{"coding":[{"system":"http://terminology.hl7.org/CodeSystem/condition-category","code":"encounter-diagnosis","display":"Encounter Diagnosis"}]}],"code":{"coding":[{"system":"http://hl7.org/fhir/sid/icd-10-cm","code":"E10.21","display":"Type 1 diabetes mellitus with diabetic nephropathy"}]},"subject":{"reference":"Patient/baf4bf9c-5aa3-422d-a5d2-fdb37b0c8f44"},"onsetDateTime":"2011-01-02"},"request":{"method":"PUT","url":"Condition/056c5782-9087-42bd-85c1-1b60a5b4a58c"}},{"resource":{"resourceType":"Encounter","id":"140f6834-9cb5-41ac-8cb4-caf5015d6199","meta":{"profile":["http://hl7.org/fhir/us/qicore/StructureDefinition/qicore-encounter"]},"status":"finished","class":{"system":"http://terminology.hl7.org/CodeSystem/v3-ActCode","code":"IMP","display":"inpatient encounter"},"type":[{"coding":[{"system":"http://snomed.info/sct","code":"183452005"}]}],"subject":{"reference":"Patient/baf4bf9c-5aa3-422d-a5d2-fdb37b0c8f44"},"period":{"start":"2026-04-07T08:00:00Z","end":"2026-04-11T08:15:00.000+00:00"},"hospitalization":{"dischargeDisposition":{"coding":[{"system":"http://snomed.info/sct","code":"428371000124100"}]}}},"request":{"method":"PUT","url":"Encounter/140f6834-9cb5-41ac-8cb4-caf5015d6199"}},{"resource":{"resourceType":"MeasureReport","id":"b482f271-25f5-4beb-94e7-c2e0fc7e4890","meta":{"profile":["http://hl7.org/fhir/us/cqfmeasures/StructureDefinition/test-case-cqfm"]},"contained":[{"resourceType":"Parameters","id":"5047f107-68b4-4b2f-b827-55b5a2b56ae3-parameters","parameter":[{"name":"subject","valueString":"baf4bf9c-5aa3-422d-a5d2-fdb37b0c8f44"}]}],"extension":[{"url":"http://hl7.org/fhir/StructureDefinition/cqf-inputParameters","valueReference":{"reference":"#5047f107-68b4-4b2f-b827-55b5a2b56ae3-parameters"}},{"url":"http://hl7.org/fhir/us/cqfmeasures/StructureDefinition/cqfm-testCaseDescription","valueMarkdown":"Patient has discharge disposition to healthcare facility with hospice care. Meets denom exclusion"}],"modifierExtension":[{"url":"http://hl7.org/fhir/us/cqfmeasures/StructureDefinition/cqfm-isTestCase","valueBoolean":true}],"status":"complete","type":"individual","measure":"https://madie.cms.gov/Measure/CMS871HHHyperFHIR","period":{"start":"2026-01-01","end":"2026-12-31"},"group":[{"id":"Group_1","population":[{"id":"InitialPopulation_1","code":{"coding":[{"system":"http://terminology.hl7.org/CodeSystem/measure-population","code":"initial-population","display":"Initial Population"}]},"count":1},{"id":"Denominator_1","code":{"coding":[{"system":"http://terminology.hl7.org/CodeSystem/measure-population","code":"denominator","display":"Denominator"}]},"count":1},{"id":"DenominatorExclusion_1","code":{"coding":[{"system":"http://terminology.hl7.org/CodeSystem/measure-population","code":"denominator-exclusion","display":"Denominator Exclusion"}]},"count":1},{"id":"Numerator_1","code":{"coding":[{"system":"http://terminology.hl7.org/CodeSystem/measure-population","code":"numerator","display":"Numerator"}]},"count":0},{"id":"NumeratorExclusion_1","code":{"coding":[{"system":"http://terminology.hl7.org/CodeSystem/measure-population","code":"numerator-exclusion","display":"Numerator Exclusion"}]},"count":0}],"measureScore":{"value":0.0}}],"evaluatedResource":[{"reference":"Patient/baf4bf9c-5aa3-422d-a5d2-fdb37b0c8f44"},{"reference":"Encounter/140f6834-9cb5-41ac-8cb4-caf5015d6199"},{"reference":"Condition/056c5782-9087-42bd-85c1-1b60a5b4a58c"}]},"request":{"method":"PUT","url":"MeasureReport/b482f271-25f5-4beb-94e7-c2e0fc7e4890"}},{"resource":{"resourceType":"Patient","id":"baf4bf9c-5aa3-422d-a5d2-fdb37b0c8f44","meta":{"profile":["http://hl7.org/fhir/us/qicore/StructureDefinition/qicore-patient"]},"extension":[{"url":"http://hl7.org/fhir/us/core/StructureDefinition/us-core-race","extension":[{"url":"ombCategory","valueCoding":{"system":"urn:oid:2.16.840.1.113883.6.238","code":"2106-3","display":"White"}},{"url":"text","valueString":"White"}]},{"url":"http://hl7.org/fhir/us/core/StructureDefinition/us-core-ethnicity","extension":[{"url":"ombCategory","valueCoding":{"system":"urn:oid:2.16.840.1.113883.6.238","code":"2135-2","display":"Hispanic or Latino"}},{"url":"text","valueString":"Hispanic or Latino"}]}],"identifier":[{"system":"http://hospital.smarthealthit.org","value":"999999999"}],"name":[{"family":"Example","given":["Patient"]}],"gender":"male","birthDate":"1956-01-01"},"request":{"method":"PUT","url":"Patient/baf4bf9c-5aa3-422d-a5d2-fdb37b0c8f44"}},{"resource":{"resourceType":"Observation","id":"451222da-5023-4436-ac12-116f891aa8e6","meta":{"profile":["http://hl7.org/fhir/us/qicore/StructureDefinition/qicore-observation-lab"]},"status":"final","category":[{"coding":[{"system":"http://terminology.hl7.org/CodeSystem/observation-category","code":"laboratory","display":"Laboratory"}]}],"code":{"coding":[{"system":"http://loinc.org","version":"2.72","code":"1547-9","display":"Glucose Lab Test Mass Per Volume"}]},"subject":{"reference":"Patient/79283b75-4588-428b-b4e6-50ebb9b9acf6"},"effectiveDateTime":"2026-10-19T09:15:00+00:00","valueQuantity":{"value":301,"unit":"mg/dL"}},"request":{"method":"PUT","url":"Observation/451222da-5023-4436-ac12-116f891aa8e6"}},{"resource":{"resourceType":"Procedure","id":"05f40999-1554-40e7-a0ef-f925a8de1c0c","meta":{"profile":["http://hl7.org/fhir/us/qicore/StructureDefinition/qicore-procedure"]},"status":"completed","code":{"coding":[{"system":"http://snomed.info/sct","code":"133918004","display":"Comfort Measures"}]},"subject":{"reference":"Patient/79283b75-4588-428b-b4e6-50ebb9b9acf6"},"performedDateTime":"2026-10-18T10:00:00+00:00"},"request":{"method":"PUT","url":"Procedure/05f40999-1554-40e7-a0ef-f925a8de1c0c"}},{"resource":{"resourceType":"Encounter","id":"a133b480-4aa6-400c-80ff-a91ce96d271a","meta":{"profile":["http://hl7.org/fhir/us/qicore/StructureDefinition/qicore-encounter"]},"status":"finished","class":{"system":"http://terminology.hl7.org/CodeSystem/v3-ActCode","code":"EMER","display":"emergency encounter"},"type":[{"coding":[{"system":"http://snomed.info/sct","code":"4525004","display":"Emergency Department Visit"}]}],"subject":{"reference":"Patient/79283b75-4588-428b-b4e6-50ebb9b9acf6"},"period":{"start":"2026-10-18T09:15:00+00:00","end":"2026-10-19T08:15:00.000+00:00"}},"request":{"method":"PUT","url":"Encounter/a133b480-4aa6-400c-80ff-a91ce96d271a"}},{"resource":{"resourceType":"MeasureReport","id":"69796f7a-b85e-4332-b992-25d3edd581c9","meta":{"profile":["http://hl7.org/fhir/us/cqfmeasures/StructureDefinition/test-case-cqfm"]},"contained":[{"resourceType":"Parameters","id":"61ddf2c0-568e-4aa3-8756-50678a612df8-parameters","parameter":[{"name":"subject","valueString":"79283b75-4588-428b-b4e6-50ebb9b9acf6"}]}],"extension":[{"url":"http://hl7.org/fhir/StructureDefinition/cqf-inputParameters","valueReference":{"reference":"#61ddf2c0-568e-4aa3-8756-50678a612df8-parameters"}},{"url":"http://hl7.org/fhir/us/cqfmeasures/StructureDefinition/cqfm-testCaseDescription","valueMarkdown":"Enc starts in ED prior to IP. Has glucose >200, meets IPP. \nHas comfort care while in ED. Meets Den Exclusion.\nHas hyper event (glucose 301 on 10/19) which meets Num criteria, but is excluded due to comfort care denom exclusion. \nMeets Numex."}],"modifierExtension":[{"url":"http://hl7.org/fhir/us/cqfmeasures/StructureDefinition/cqfm-isTestCase","valueBoolean":true}],"status":"complete","type":"individual","measure":"https://madie.cms.gov/Measure/CMS871HHHyperFHIR","period":{"start":"2026-01-01","end":"2026-12-31"},"group":[{"id":"Group_1","population":[{"id":"InitialPopulation_1","code":{"coding":[{"system":"http://terminology.hl7.org/CodeSystem/measure-population","code":"initial-population","display":"Initial Population"}]},"count":1},{"id":"Denominator_1","code":{"coding":[{"system":"http://terminology.hl7.org/CodeSystem/measure-population","code":"denominator","display":"Denominator"}]},"count":1},{"id":"DenominatorExclusion_1","code":{"coding":[{"system":"http://terminology.hl7.org/CodeSystem/measure-population","code":"denominator-exclusion","display":"Denominator Exclusion"}]},"count":1},{"id":"Numerator_1","code":{"coding":[{"system":"http://terminology.hl7.org/CodeSystem/measure-population","code":"numerator","display":"Numerator"}]},"count":1},{"id":"NumeratorExclusion_1","code":{"coding":[{"system":"http://terminology.hl7.org/CodeSystem/measure-population","code":"numerator-exclusion","display":"Numerator Exclusion"}]},"count":1}],"measureScore":{"value":0.0}}],"evaluatedResource":[{"reference":"Encounter/224cf51f-eeb9-4e73-bd33-24ed89903423"},{"reference":"Encounter/a133b480-4aa6-400c-80ff-a91ce96d271a"},{"reference":"Procedure/05f40999-1554-40e7-a0ef-f925a8de1c0c"},{"reference":"Patient/79283b75-4588-428b-b4e6-50ebb9b9acf6"},{"reference":"Observation/451222da-5023-4436-ac12-116f891aa8e6"}]},"request":{"method":"PUT","url":"MeasureReport/69796f7a-b85e-4332-b992-25d3edd581c9"}},{"resource":{"resourceType":"Patient","id":"79283b75-4588-428b-b4e6-50ebb9b9acf6","meta":{"profile":["http://hl7.org/fhir/us/qicore/StructureDefinition/qicore-patient"]},"extension":[{"url":"http://hl7.org/fhir/us/core/StructureDefinition/us-core-race","extension":[{"url":"ombCategory","valueCoding":{"system":"urn:oid:2.16.840.1.113883.6.238","code":"2106-3","display":"White"}},{"url":"text","valueString":"White"}]},{"url":"http://hl7.org/fhir/us/core/StructureDefinition/us-core-ethnicity","extension":[{"url":"ombCategory","valueCoding":{"system":"urn:oid:2.16.840.1.113883.6.238","code":"2135-2","display":"Hispanic or Latino"}},{"url":"text","valueString":"Hispanic or Latino"}]},{"url":"http://hl7.org/fhir/us/core/StructureDefinition/us-core-sex","valueCode":"248153007"}],"identifier":[{"system":"http://hospital.smarthealthit.org","value":"999999999"}],"name":[{"family":"Example","given":["Patient"]}],"gender":"female","birthDate":"1956-01-01"},"request":{"method":"PUT","url":"Patient/79283b75-4588-428b-b4e6-50ebb9b9acf6"}},{"resource":{"resourceType":"Encounter","id":"224cf51f-eeb9-4e73-bd33-24ed89903423","meta":{"profile":["http://hl7.org/fhir/us/qicore/StructureDefinition/qicore-encounter"]},"status":"finished","class":{"system":"http://terminology.hl7.org/CodeSystem/v3-ActCode","code":"IMP","display":"inpatient encounter"},"type":[{"coding":[{"system":"http://snomed.info/sct","code":"183452005","display":"Inpatient encounter"}]}],"subject":{"reference":"Patient/79283b75-4588-428b-b4e6-50ebb9b9acf6"},"period":{"start":"2026-10-19T08:30:00+00:00","end":"2026-10-21T08:15:00.000+00:00"}},"request":{"method":"PUT","url":"Encounter/224cf51f-eeb9-4e73-bd33-24ed89903423"}},{"resource":{"resourceType":"Observation","id":"7a5480ff-5fdf-48b1-bd58-1c6dd21eca59","meta":{"profile":["http://hl7.org/fhir/us/qicore/StructureDefinition/qicore-observation-lab"]},"status":"final","category":[{"coding":[{"system":"http://terminology.hl7.org/CodeSystem/observation-category","code":"laboratory","display":"Laboratory"}]}],"code":{"coding":[{"system":"http://loinc.org","version":"2.72","code":"1556-0","display":"Fasting glucose [Mass/volume] in Capillary blood"}]},"subject":{"reference":"Patient/76dc2b63-710c-4ac5-afef-f76c2ef07dcd"},"effectiveDateTime":"2026-10-16T09:00:00+00:00","valueQuantity":{"value":350,"unit":"mg/dL"}},"request":{"method":"PUT","url":"Observation/7a5480ff-5fdf-48b1-bd58-1c6dd21eca59"}},{"resource":{"resourceType":"Observation","id":"b5524985-990d-4636-a77b-166941a873cc","meta":{"profile":["http://hl7.org/fhir/us/qicore/StructureDefinition/qicore-observation-lab"]},"status":"final","category":[{"coding":[{"system":"http://terminology.hl7.org/CodeSystem/observation-category","code":"laboratory","display":"Laboratory"}]}],"code":{"coding":[{"system":"http://loinc.org","version":"2.72","code":"1556-0","display":"Fasting glucose [Mass/volume] in Capillary blood"}]},"subject":{"reference":"Patient/76dc2b63-710c-4ac5-afef-f76c2ef07dcd"},"effectiveDateTime":"2026-10-18T09:00:00+00:00","valueQuantity":{"value":400,"unit":"mg/dL"}},"request":{"method":"PUT","url":"Observation/b5524985-990d-4636-a77b-166941a873cc"}},{"resource":{"resourceType":"Observation","id":"b4f07020-4f0c-4855-9b07-8fb6f47f2723","meta":{"profile":["http://hl7.org/fhir/us/qicore/StructureDefinition/qicore-observation-lab"]},"status":"final","category":[{"coding":[{"system":"http://terminology.hl7.org/CodeSystem/observation-category","code":"laboratory","display":"Laboratory"}]}],"code":{"coding":[{"system":"http://loinc.org","version":"2.72","code":"1556-0","display":"Fasting glucose [Mass/volume] in Capillary blood"}]},"subject":{"reference":"Patient/76dc2b63-710c-4ac5-afef-f76c2ef07dcd"},"effectiveDateTime":"2026-10-15T09:00:00+00:00","valueQuantity":{"value":301,"unit":"mg/dL"}},"request":{"method":"PUT","url":"Observation/b4f07020-4f0c-4855-9b07-8fb6f47f2723"}},{"resource":{"resourceType":"MeasureReport","id":"0f80f005-e519-4bfb-b890-6045a45d94e5","meta":{"profile":["http://hl7.org/fhir/us/cqfmeasures/StructureDefinition/test-case-cqfm"]},"contained":[{"resourceType":"Parameters","id":"6fbc108c-6b7b-48aa-9973-8e77b70709ed-parameters","parameter":[{"name":"subject","valueString":"76dc2b63-710c-4ac5-afef-f76c2ef07dcd"}]}],"extension":[{"url":"http://hl7.org/fhir/StructureDefinition/cqf-inputParameters","valueReference":{"reference":"#6fbc108c-6b7b-48aa-9973-8e77b70709ed-parameters"}},{"url":"http://hl7.org/fhir/us/cqfmeasures/StructureDefinition/cqfm-testCaseDescription","valueMarkdown":"Enc start 10/14 at 8am. Glucose 1001 at 6:59am, more than 1 hour prior to enc start, so does not meet denom exclusion. There are 4 hyperglycemic event days, and num is not excluded since this case is not excluded from denom. \nDenex fails\nNumex fails"}],"modifierExtension":[{"url":"http://hl7.org/fhir/us/cqfmeasures/StructureDefinition/cqfm-isTestCase","valueBoolean":true}],"status":"complete","type":"individual","measure":"https://madie.cms.gov/Measure/CMS871HHHyperFHIR","period":{"start":"2026-01-01","end":"2026-12-31"},"group":[{"id":"Group_1","population":[{"id":"InitialPopulation_1","code":{"coding":[{"system":"http://terminology.hl7.org/CodeSystem/measure-population","code":"initial-population","display":"Initial Population"}]},"count":1},{"id":"Denominator_1","code":{"coding":[{"system":"http://terminology.hl7.org/CodeSystem/measure-population","code":"denominator","display":"Denominator"}]},"count":1},{"id":"MeasureObservation_1_1_1","code":{"coding":[{"system":"http://terminology.hl7.org/CodeSystem/measure-population","code":"measure-observation","display":"Measure Observation"}]},"count":6},{"id":"DenominatorExclusion_1","code":{"coding":[{"system":"http://terminology.hl7.org/CodeSystem/measure-population","code":"denominator-exclusion","display":"Denominator Exclusion"}]},"count":0},{"id":"Numerator_1","code":{"coding":[{"system":"http://terminology.hl7.org/CodeSystem/measure-population","code":"numerator","display":"Numerator"}]},"count":1},{"id":"MeasureObservation_1_2_1","code":{"coding":[{"system":"http://terminology.hl7.org/CodeSystem/measure-population","code":"measure-observation","display":"Measure Observation"}]},"count":4},{"id":"NumeratorExclusion_1","code":{"coding":[{"system":"http://terminology.hl7.org/CodeSystem/measure-population","code":"numerator-exclusion","display":"Numerator Exclusion"}]},"count":0}],"measureScore":{"value":0.0}}],"evaluatedResource":[{"reference":"Condition/ade60074-1f30-4d41-bd6d-5c129c07758c"},{"reference":"Encounter/8f26db12-8dcf-4727-9274-2b990a8755b0"},{"reference":"Patient/76dc2b63-710c-4ac5-afef-f76c2ef07dcd"},{"reference":"Observation/df2be101-f2b2-4b82-ad0f-7a65113e30f3"},{"reference":"Observation/7a5480ff-5fdf-48b1-bd58-1c6dd21eca59"},{"reference":"Observation/b4f07020-4f0c-4855-9b07-8fb6f47f2723"},{"reference":"Observation/b5524985-990d-4636-a77b-166941a873cc"}]},"request":{"method":"PUT","url":"MeasureReport/0f80f005-e519-4bfb-b890-6045a45d94e5"}},{"resource":{"resourceType":"Patient","id":"76dc2b63-710c-4ac5-afef-f76c2ef07dcd","meta":{"profile":["http://hl7.org/fhir/us/qicore/StructureDefinition/qicore-patient"]},"extension":[{"url":"http://hl7.org/fhir/us/core/StructureDefinition/us-core-race","extension":[{"url":"ombCategory","valueCoding":{"system":"urn:oid:2.16.840.1.113883.6.238","code":"2106-3","display":"White"}},{"url":"text","valueString":"White"}]},{"url":"http://hl7.org/fhir/us/core/StructureDefinition/us-core-ethnicity","extension":[{"url":"ombCategory","valueCoding":{"system":"urn:oid:2.16.840.1.113883.6.238","code":"2135-2","display":"Hispanic or Latino"}},{"url":"text","valueString":"Hispanic or Latino"}]},{"url":"http://hl7.org/fhir/us/core/StructureDefinition/us-core-sex","valueCode":"248153007"}],"identifier":[{"system":"http://hospital.smarthealthit.org","value":"999999999"}],"name":[{"family":"Example","given":["Patient"]}],"gender":"female","birthDate":"1956-01-01"},"request":{"method":"PUT","url":"Patient/76dc2b63-710c-4ac5-afef-f76c2ef07dcd"}},{"resource":{"resourceType":"Encounter","id":"8f26db12-8dcf-4727-9274-2b990a8755b0","meta":{"profile":["http://hl7.org/fhir/us/qicore/StructureDefinition/qicore-encounter"]},"status":"finished","class":{"system":"http://terminology.hl7.org/CodeSystem/v3-ActCode","code":"IMP","display":"inpatient encounter"},"type":[{"coding":[{"system":"http://snomed.info/sct","code":"183452005","display":"Inpatient encounter"}]}],"subject":{"reference":"Patient/76dc2b63-710c-4ac5-afef-f76c2ef07dcd"},"period":{"start":"2026-10-14T08:00:00+00:00","end":"2026-10-21T08:15:00.000+00:00"}},"request":{"method":"PUT","url":"Encounter/8f26db12-8dcf-4727-9274-2b990a8755b0"}},{"resource":{"resourceType":"Condition","id":"ade60074-1f30-4d41-bd6d-5c129c07758c","meta":{"profile":["http://hl7.org/fhir/us/qicore/StructureDefinition/qicore-condition-encounter-diagnosis"]},"clinicalStatus":{"coding":[{"system":"http://terminology.hl7.org/CodeSystem/condition-clinical","code":"active"}]},"verificationStatus":{"coding":[{"system":"http://terminology.hl7.org/CodeSystem/condition-ver-status","code":"confirmed"}]},"category":[{"coding":[{"system":"http://terminology.hl7.org/CodeSystem/condition-category","code":"encounter-diagnosis","display":"Encounter Diagnosis"}]}],"code":{"coding":[{"system":"http://snomed.info/sct","code":"102781000119107","display":"Diabetes"}]},"subject":{"reference":"Patient/76dc2b63-710c-4ac5-afef-f76c2ef07dcd"},"encounter":{"reference":"Encounter/8f26db12-8dcf-4727-9274-2b990a8755b0"},"onsetDateTime":"2026-10-14T08:00:00+00:00"},"request":{"method":"PUT","url":"Condition/ade60074-1f30-4d41-bd6d-5c129c07758c"}},{"resource":{"resourceType":"Observation","id":"df2be101-f2b2-4b82-ad0f-7a65113e30f3","meta":{"profile":["http://hl7.org/fhir/us/qicore/StructureDefinition/qicore-observation-lab"]},"status":"final","category":[{"coding":[{"system":"http://terminology.hl7.org/CodeSystem/observation-category","code":"laboratory","display":"Laboratory"}]}],"code":{"coding":[{"system":"http://loinc.org","version":"2.72","code":"1547-9","display":"Glucose Lab Test Mass Per Volume"}]},"subject":{"reference":"Patient/76dc2b63-710c-4ac5-afef-f76c2ef07dcd"},"effectiveDateTime":"2026-10-14T06:59:00+00:00","valueQuantity":{"value":1001,"unit":"mg/dL"}},"request":{"method":"PUT","url":"Observation/df2be101-f2b2-4b82-ad0f-7a65113e30f3"}},{"resource":{"resourceType":"MeasureReport","id":"22851354-0914-4605-ab82-3a266fac8505","meta":{"profile":["http://hl7.org/fhir/us/cqfmeasures/StructureDefinition/test-case-cqfm"]},"contained":[{"resourceType":"Parameters","id":"fa82bf48-b81b-4dbf-a2a0-2240a408b593-parameters","parameter":[{"name":"subject","valueString":"b61275a4-b5d3-4d47-8be2-9e6cfe03832c"}]}],"extension":[{"url":"http://hl7.org/fhir/StructureDefinition/cqf-inputParameters","valueReference":{"reference":"#fa82bf48-b81b-4dbf-a2a0-2240a408b593-parameters"}},{"url":"http://hl7.org/fhir/us/cqfmeasures/StructureDefinition/cqfm-testCaseDescription","valueMarkdown":"IP w/glucose 1200 same time as IP start, meets denom exc. Has high glucose of 400 on day 3 (numerator), but meets num exc. Num exc criteria is same as denom exc criteria. So if case hits denom exc, num is always excluded even if meets num criteria."}],"modifierExtension":[{"url":"http://hl7.org/fhir/us/cqfmeasures/StructureDefinition/cqfm-isTestCase","valueBoolean":true}],"status":"complete","type":"individual","measure":"https://madie.cms.gov/Measure/CMS871HHHyperFHIR","period":{"start":"2026-01-01","end":"2026-12-31"},"group":[{"id":"Group_1","population":[{"id":"InitialPopulation_1","code":{"coding":[{"system":"http://terminology.hl7.org/CodeSystem/measure-population","code":"initial-population","display":"Initial Population"}]},"count":1},{"id":"Denominator_1","code":{"coding":[{"system":"http://terminology.hl7.org/CodeSystem/measure-population","code":"denominator","display":"Denominator"}]},"count":1},{"id":"DenominatorExclusion_1","code":{"coding":[{"system":"http://terminology.hl7.org/CodeSystem/measure-population","code":"denominator-exclusion","display":"Denominator Exclusion"}]},"count":1},{"id":"Numerator_1","code":{"coding":[{"system":"http://terminology.hl7.org/CodeSystem/measure-population","code":"numerator","display":"Numerator"}]},"count":1},{"id":"NumeratorExclusion_1","code":{"coding":[{"system":"http://terminology.hl7.org/CodeSystem/measure-population","code":"numerator-exclusion","display":"Numerator Exclusion"}]},"count":1}],"measureScore":{"value":0.0}}],"evaluatedResource":[{"reference":"Patient/b61275a4-b5d3-4d47-8be2-9e6cfe03832c"},{"reference":"Condition/cac37e7f-0808-4042-af67-824621aa0233"},{"reference":"Encounter/c07babab-e076-4bfc-afb9-9d672ecc1d40"},{"reference":"Observation/9f310a09-d15e-4b6c-83e0-4dad11ecc23d"},{"reference":"Observation/e3af964a-fb8b-4b0d-9b61-049fa4099db0"}]},"request":{"method":"PUT","url":"MeasureReport/22851354-0914-4605-ab82-3a266fac8505"}},{"resource":{"resourceType":"Encounter","id":"c07babab-e076-4bfc-afb9-9d672ecc1d40","meta":{"profile":["http://hl7.org/fhir/us/qicore/StructureDefinition/qicore-encounter"]},"status":"finished","class":{"system":"http://terminology.hl7.org/CodeSystem/v3-ActCode","code":"IMP","display":"inpatient encounter"},"type":[{"coding":[{"system":"http://snomed.info/sct","code":"183452005","display":"Inpatient encounter"}]}],"subject":{"reference":"Patient/b61275a4-b5d3-4d47-8be2-9e6cfe03832c"},"period":{"start":"2026-11-25T08:00:00+00:00","end":"2026-11-30T08:15:00.000+00:00"}},"request":{"method":"PUT","url":"Encounter/c07babab-e076-4bfc-afb9-9d672ecc1d40"}},{"resource":{"resourceType":"Observation","id":"e3af964a-fb8b-4b0d-9b61-049fa4099db0","meta":{"profile":["http://hl7.org/fhir/us/qicore/StructureDefinition/qicore-observation-lab"]},"status":"final","category":[{"coding":[{"system":"http://terminology.hl7.org/CodeSystem/observation-category","code":"laboratory","display":"Laboratory"}]}],"code":{"coding":[{"system":"http://loinc.org","version":"2.72","code":"1556-0","display":"Fasting glucose [Mass/volume] in Capillary blood"}]},"subject":{"reference":"Patient/b61275a4-b5d3-4d47-8be2-9e6cfe03832c"},"effectiveDateTime":"2026-11-27T08:00:00+00:00","valueQuantity":{"value":400,"unit":"mg/dL"}},"request":{"method":"PUT","url":"Observation/e3af964a-fb8b-4b0d-9b61-049fa4099db0"}},{"resource":{"resourceType":"Patient","id":"b61275a4-b5d3-4d47-8be2-9e6cfe03832c","meta":{"profile":["http://hl7.org/fhir/us/qicore/StructureDefinition/qicore-patient"]},"extension":[{"url":"http://hl7.org/fhir/us/core/StructureDefinition/us-core-race","extension":[{"url":"ombCategory","valueCoding":{"system":"urn:oid:2.16.840.1.113883.6.238","code":"2106-3","display":"White"}},{"url":"text","valueString":"White"}]},{"url":"http://hl7.org/fhir/us/core/StructureDefinition/us-core-ethnicity","extension":[{"url":"ombCategory","valueCoding":{"system":"urn:oid:2.16.840.1.113883.6.238","code":"2135-2","display":"Hispanic or Latino"}},{"url":"text","valueString":"Hispanic or Latino"}]},{"url":"http://hl7.org/fhir/us/core/StructureDefinition/us-core-sex","valueCode":"248153007"}],"identifier":[{"system":"http://hospital.smarthealthit.org","value":"999999999"}],"name":[{"family":"Example","given":["Patient"]}],"gender":"female","birthDate":"1956-01-01"},"request":{"method":"PUT","url":"Patient/b61275a4-b5d3-4d47-8be2-9e6cfe03832c"}},{"resource":{"resourceType":"Condition","id":"cac37e7f-0808-4042-af67-824621aa0233","meta":{"profile":["http://hl7.org/fhir/us/qicore/StructureDefinition/qicore-condition-encounter-diagnosis"]},"clinicalStatus":{"coding":[{"system":"http://terminology.hl7.org/CodeSystem/condition-clinical","code":"active"}]},"verificationStatus":{"coding":[{"system":"http://terminology.hl7.org/CodeSystem/condition-ver-status","code":"confirmed"}]},"category":[{"coding":[{"system":"http://terminology.hl7.org/CodeSystem/condition-category","code":"encounter-diagnosis","display":"Encounter Diagnosis"}]}],"code":{"coding":[{"system":"http://snomed.info/sct","code":"102781000119107","display":"Diabetes"}]},"subject":{"reference":"Patient/b61275a4-b5d3-4d47-8be2-9e6cfe03832c"},"onsetPeriod":{"start":"2026-11-25T08:00:00+00:00","end":"2026-11-30T08:15:00.000+00:00"}},"request":{"method":"PUT","url":"Condition/cac37e7f-0808-4042-af67-824621aa0233"}},{"resource":{"resourceType":"Observation","id":"9f310a09-d15e-4b6c-83e0-4dad11ecc23d","meta":{"profile":["http://hl7.org/fhir/us/qicore/StructureDefinition/qicore-observation-lab"]},"status":"final","category":[{"coding":[{"system":"http://terminology.hl7.org/CodeSystem/observation-category","code":"laboratory","display":"Laboratory"}]}],"code":{"coding":[{"system":"http://loinc.org","version":"2.72","code":"1556-0","display":"Fasting glucose [Mass/volume] in Capillary blood"}]},"subject":{"reference":"Patient/b61275a4-b5d3-4d47-8be2-9e6cfe03832c"},"effectiveDateTime":"2026-11-25T08:00:00+00:00","issued":"2026-11-25T08:00:00.000+00:00","valueQuantity":{"value":1200,"unit":"mg/dL"}},"request":{"method":"PUT","url":"Observation/9f310a09-d15e-4b6c-83e0-4dad11ecc23d"}},{"resource":{"resourceType":"Measure","id":"CMS871HHHyperFHIR","meta":{"profile":["http://hl7.org/fhir/uv/crmi/StructureDefinition/crmi-shareablemeasure","http://hl7.org/fhir/us/cqfmeasures/StructureDefinition/computable-measure-cqfm","http://hl7.org/fhir/us/cqfmeasures/StructureDefinition/publishable-measure-cqfm","http://hl7.org/fhir/us/cqfmeasures/StructureDefinition/executable-measure-cqfm","http://hl7.org/fhir/us/cqfmeasures/StructureDefinition/cql-measure-cqfm","http://hl7.org/fhir/us/cqfmeasures/StructureDefinition/elm-measure-cqfm","http://hl7.org/fhir/us/cqfmeasures/StructureDefinition/ratio-measure-cqfm"]},"contained":[{"resourceType":"Library","id":"effective-data-requirements","extension":[{"url":"http://hl7.org/fhir/us/cqfmeasures/StructureDefinition/cqfm-directReferenceCode","valueCoding":{"system":"http://snomed.info/sct","code":"248153007","display":"Male (finding)"}},{"url":"http://hl7.org/fhir/us/cqfmeasures/StructureDefinition/cqfm-directReferenceCode","valueCoding":{"system":"http://snomed.info/sct","code":"248152002","display":"Female (finding)"}},{"url":"http://hl7.org/fhir/StructureDefinition/cqf-logicDefinition","extension":[{"url":"libraryName","valueString":"SupplementalDataElements"},{"url":"name","valueString":"SDE Sex"},{"url":"statement","valueString":"define \"SDE Sex\":\n  case\n    when Patient.sex = '248153007' then \"Male (finding)\"\n    when Patient.sex = '248152002' then \"Female (finding)\"\n    else null\n  end"},{"url":"displaySequence","valueInteger":0}]},{"url":"http://hl7.org/fhir/StructureDefinition/cqf-logicDefinition","extension":[{"url":"libraryName","valueString":"CMS871HHHyperFHIR"},{"url":"name","valueString":"SDE Sex"},{"url":"statement","valueString":"define \"SDE Sex\":\n  SDE.\"SDE Sex\""},{"url":"displaySequence","valueInteger":1}]},{"url":"http://hl7.org/fhir/StructureDefinition/cqf-logicDefinition","extension":[{"url":"libraryName","valueString":"CMS871HHHyperFHIR"},{"url":"name","valueString":"Qualifying Encounter"},{"url":"statement","valueString":"define \"Qualifying Encounter\":\n  [\"Encounter\": \"Encounter Inpatient\"] InpatientEncounter\n    where AgeInYearsAt(date from start of InpatientEncounter.period) >= 18\n      and InpatientEncounter.period ends during day of \"Measurement Period\"\n      and InpatientEncounter.status = 'finished'"},{"url":"displaySequence","valueInteger":2}]},{"url":"http://hl7.org/fhir/StructureDefinition/cqf-logicDefinition","extension":[{"url":"libraryName","valueString":"CMS871HHHyperFHIR"},{"url":"name","valueString":"Encounter with Hospitalization Period"},{"url":"statement","valueString":"/**\n * Create paring of encounters to hospitalization period so this calculation can be inspected and the result \n * can be reused, making the logic faster.*/\n\n\ndefine \"Encounter with Hospitalization Period\":\n  \"Qualifying Encounter\" QualifyingHospitalization\n    return Tuple {\n      encounter: QualifyingHospitalization,\n      hospitalizationPeriod: CQMCommon.\"HospitalizationWithObservation\" ( QualifyingHospitalization )\n    }"},{"url":"displaySequence","valueInteger":3}]},{"url":"http://hl7.org/fhir/StructureDefinition/cqf-logicDefinition","extension":[{"url":"libraryName","valueString":"CMS871HHHyperFHIR"},{"url":"name","valueString":"Encounter with Existing Diabetes Diagnosis"},{"url":"statement","valueString":"/**\n * Using the already calculated pairing of hospitalization periods with encounters, filter on ones with \n * diabetes and return the encounter.*/\n\n\ndefine \"Encounter with Existing Diabetes Diagnosis\":\n  \"Encounter with Hospitalization Period\" Hospitalization\n    with [\"ConditionEncounterDiagnosis\": \"Diabetes\"] Diabetes\n      such that ( QICoreCommon.\"ToPrevalenceInterval\" ( Diabetes ) starts before end of Hospitalization.hospitalizationPeriod )\n    return Hospitalization.encounter"},{"url":"displaySequence","valueInteger":4}]},{"url":"http://hl7.org/fhir/StructureDefinition/cqf-logicDefinition","extension":[{"url":"libraryName","valueString":"CMS871HHHyperFHIR"},{"url":"name","valueString":"Encounter with Hypoglycemic Medication"},{"url":"statement","valueString":"/**\n * Using the already calculated pairing of hospitalization periods with encounters, filter on ones with \n * hypoglycemic medicatons and return the encounter.*/\n\n\ndefine \"Encounter with Hypoglycemic Medication\":\n  from\n    \"Encounter with Hospitalization Period\" Hospitalization,\n    [\"MedicationAdministration\": \"Hypoglycemics Treatment Medications\"] HypoglycemicMed\n    where HypoglycemicMed.status in { 'completed', 'in-progress' }\n          //and HypoglycemicMed.status != 'not-done'\n      \n      and QICoreCommon.\"ToInterval\" ( HypoglycemicMed.effective ) during Hospitalization.hospitalizationPeriod\n    return Hospitalization.encounter"},{"url":"displaySequence","valueInteger":5}]},{"url":"http://hl7.org/fhir/StructureDefinition/cqf-logicDefinition","extension":[{"url":"libraryName","valueString":"CMS871HHHyperFHIR"},{"url":"name","valueString":"Encounter with Elevated Glucose Greater Than or Equal to 200"},{"url":"statement","valueString":"/**\n * Using the already calculated pairing of hospitalization periods with encounters, filter on ones with \n * any elevated (>= 200) blood glucose reading during the hospitalization*/\n\n\ndefine \"Encounter with Elevated Glucose Greater Than or Equal to 200\":\n  \"Encounter with Hospitalization Period\" Hospitalization\n    with [\"LaboratoryResultObservation\": \"Glucose Lab Test Mass Per Volume\"] GlucoseTest\n      such that QICoreCommon.\"Earliest\" ( GlucoseTest.effective ) during Hospitalization.hospitalizationPeriod\n        and GlucoseTest.status in { 'final', 'amended', 'corrected' }\n            //and GlucoseTest.status != 'cancelled'\n        \n        and GlucoseTest.value >= 200 'mg/dL'\n    return Hospitalization.encounter"},{"url":"displaySequence","valueInteger":6}]},{"url":"http://hl7.org/fhir/StructureDefinition/cqf-logicDefinition","extension":[{"url":"libraryName","valueString":"CMS871HHHyperFHIR"},{"url":"name","valueString":"Initial Population"},{"url":"statement","valueString":"define \"Initial Population\":\n  \"Encounter with Existing Diabetes Diagnosis\"\n    union \"Encounter with Hypoglycemic Medication\"\n    union \"Encounter with Elevated Glucose Greater Than or Equal to 200\""},{"url":"displaySequence","valueInteger":7}]},{"url":"http://hl7.org/fhir/StructureDefinition/cqf-logicDefinition","extension":[{"url":"libraryName","valueString":"CMS871HHHyperFHIR"},{"url":"name","valueString":"Denominator"},{"url":"statement","valueString":"define \"Denominator\":\n  \"Initial Population\""},{"url":"displaySequence","valueInteger":8}]},{"url":"http://hl7.org/fhir/StructureDefinition/cqf-logicDefinition","extension":[{"url":"libraryName","valueString":"CMS871HHHyperFHIR"},{"url":"name","valueString":"Measurement Population"},{"url":"statement","valueString":"define \"Measurement Population\":\n  \"Denominator\""},{"url":"displaySequence","valueInteger":9}]},{"url":"http://hl7.org/fhir/StructureDefinition/cqf-logicDefinition","extension":[{"url":"libraryName","valueString":"CMS871HHHyperFHIR"},{"url":"name","valueString":"Days in Hospitalization"},{"url":"statement","valueString":"define \"Days in Hospitalization\":\n  \"Measurement Population\" EligibleInpatientHospitalization\n    let period: CQMCommon.\"HospitalizationWithObservation\" ( EligibleInpatientHospitalization ),\n    relevantPeriod: \"Hospital Days Max 10\"(period)\n    return Tuple {\n      encounter: EligibleInpatientHospitalization,\n      hospitalizationPeriod: period,\n      relevantPeriod: relevantPeriod,\n      relevantDays: \"Days In Period\"(relevantPeriod)\n    }"},{"url":"displaySequence","valueInteger":10}]},{"url":"http://hl7.org/fhir/StructureDefinition/cqf-logicDefinition","extension":[{"url":"libraryName","valueString":"CMS871HHHyperFHIR"},{"url":"name","valueString":"Days with Glucose Results"},{"url":"statement","valueString":"define \"Days with Glucose Results\":\n  \"Days in Hospitalization\" InpatientHospitalDays\n    return Tuple {\n      encounter: InpatientHospitalDays.encounter,\n      relevantPeriod: InpatientHospitalDays.relevantPeriod,\n      relevantDays: ( InpatientHospitalDays.relevantDays EncounterDay\n          return Tuple {\n            dayNumber: EncounterDay.dayNumber,\n            dayPeriod: EncounterDay.dayPeriod,\n            hasSevereResult: exists ( [\"LaboratoryResultObservation\": \"Glucose Lab Test Mass Per Volume\"] GlucoseTest\n                where GlucoseTest.status in { 'final', 'amended', 'corrected' }\n                  and GlucoseTest.value > 300 'mg/dL'\n                  and QICoreCommon.\"Earliest\" ( GlucoseTest.effective ) during EncounterDay.dayPeriod\n            ),\n            hasElevatedResult: exists ( [\"LaboratoryResultObservation\": \"Glucose Lab Test Mass Per Volume\"] GlucoseTest\n                where GlucoseTest.status in { 'final', 'amended', 'corrected' }\n                  and GlucoseTest.value >= 200 'mg/dL'\n                  and QICoreCommon.\"Earliest\" ( GlucoseTest.effective ) during EncounterDay.dayPeriod\n            ),\n            hasNoGlucoseTest: not exists ( [\"LaboratoryResultObservation\": \"Glucose Lab Test Mass Per Volume\"] GlucoseTest\n                where GlucoseTest.status in { 'final', 'amended', 'corrected' }\n                  and QICoreCommon.\"Earliest\" ( GlucoseTest.effective ) during EncounterDay.dayPeriod\n            )\n          }\n      )\n    }"},{"url":"displaySequence","valueInteger":11}]},{"url":"http://hl7.org/fhir/StructureDefinition/cqf-logicDefinition","extension":[{"url":"libraryName","valueString":"CMS871HHHyperFHIR"},{"url":"name","valueString":"Days with Hyperglycemic Events"},{"url":"statement","valueString":"/*# hyper days uses \"Relevant Encounters With Glucose Result Days\" to find if hyper event on each day. Skips 1st day in 'RelevantDays`. Returns boolean based on: Today high result OR Today no result AND Yesterday high result AND 2 days ago high result*/\n\n\ndefine \"Days with Hyperglycemic Events\":\n  \"Days with Glucose Results\" EncounterWithResultDays\n    let eligibleEventDays: EncounterWithResultDays.relevantDays EncounterDay\n      where EncounterDay.dayNumber > 1\n      return Tuple {\n        dayIndex: EncounterDay.dayNumber,\n        dayPeriod: EncounterDay.dayPeriod,\n        hasHyperglycemicEvent: ( EncounterDay.hasSevereResult\n            or ( EncounterDay.hasNoGlucoseTest\n                and EncounterWithResultDays.relevantDays[EncounterDay.dayNumber - 2].hasElevatedResult\n                and EncounterWithResultDays.relevantDays[EncounterDay.dayNumber - 3].hasElevatedResult\n            )\n        )\n      }\n    return Tuple {\n      encounter: EncounterWithResultDays.encounter,\n      relevantPeriod: EncounterWithResultDays.relevantPeriod,\n      eligibleEventDays: eligibleEventDays\n    }"},{"url":"displaySequence","valueInteger":12}]},{"url":"http://hl7.org/fhir/StructureDefinition/cqf-logicDefinition","extension":[{"url":"libraryName","valueString":"CMS871HHHyperFHIR"},{"url":"name","valueString":"Encounter with Hyperglycemic Events"},{"url":"statement","valueString":"/***/\n\n\ndefine \"Encounter with Hyperglycemic Events\":\n  \"Days with Hyperglycemic Events\" HyperglycemicEventDays\n    where exists ( HyperglycemicEventDays.eligibleEventDays EligibleEventDay\n        where EligibleEventDay.hasHyperglycemicEvent\n    )\n    return HyperglycemicEventDays.encounter"},{"url":"displaySequence","valueInteger":13}]},{"url":"http://hl7.org/fhir/StructureDefinition/cqf-logicDefinition","extension":[{"url":"libraryName","valueString":"CMS871HHHyperFHIR"},{"url":"name","valueString":"Numerator"},{"url":"statement","valueString":"define \"Numerator\":\n  \"Encounter with Hyperglycemic Events\""},{"url":"displaySequence","valueInteger":14}]},{"url":"http://hl7.org/fhir/StructureDefinition/cqf-logicDefinition","extension":[{"url":"libraryName","valueString":"CMS871HHHyperFHIR"},{"url":"name","valueString":"Glucose Greater Than 600 within 1 Hour Prior To and 6 Hours After Encounter Start"},{"url":"statement","valueString":"define \"Glucose Greater Than 600 within 1 Hour Prior To and 6 Hours After Encounter Start\":\n  from\n    \"Initial Population\" InpatientHospitalization,\n    [\"LaboratoryResultObservation\": \"Glucose Lab Test Mass Per Volume\"] GlucoseTest\n    let HospitalizationInterval: CQMCommon.\"HospitalizationWithObservation\" ( InpatientHospitalization ),\n    GlucoseTestTime: QICoreCommon.\"Earliest\" ( GlucoseTest.effective )\n    where GlucoseTest.value as Quantity > 600 'mg/dL'\n      and GlucoseTest.status in { 'final', 'amended', 'corrected' }\n      and GlucoseTestTime during Interval[( start of HospitalizationInterval - 1 hour ), ( start of HospitalizationInterval + 6 hours )]\n    return GlucoseTest"},{"url":"displaySequence","valueInteger":15}]},{"url":"http://hl7.org/fhir/StructureDefinition/cqf-logicDefinition","extension":[{"url":"libraryName","valueString":"CMS871HHHyperFHIR"},{"url":"name","valueString":"Glucose Tests Earlier Than Glucose Greater Than 600 within 1 Hour Prior To and 6 Hours After Encounter Start"},{"url":"statement","valueString":"define \"Glucose Tests Earlier Than Glucose Greater Than 600 within 1 Hour Prior To and 6 Hours After Encounter Start\":\n  from\n    \"Initial Population\" InpatientHospitalization,\n    \"Glucose Greater Than 600 within 1 Hour Prior To and 6 Hours After Encounter Start\" GlucoseResult600,\n    [\"LaboratoryResultObservation\": \"Glucose Lab Test Mass Per Volume\"] EarlierGlucoseTest\n    let HospitalizationInterval: CQMCommon.\"HospitalizationWithObservation\" ( InpatientHospitalization ),\n    GlucoseTest600Time: QICoreCommon.\"Earliest\" ( GlucoseResult600.effective ),\n    EarlierGlucoseTestTime: QICoreCommon.\"Earliest\" ( EarlierGlucoseTest.effective )\n    where GlucoseTest600Time during Interval[( start of HospitalizationInterval - 1 hour ), ( start of HospitalizationInterval + 6 hour )]\n      and EarlierGlucoseTestTime during Interval[( start of HospitalizationInterval - 1 hour ), GlucoseTest600Time )\n      and EarlierGlucoseTest.id !~ GlucoseResult600.id\n    return GlucoseResult600"},{"url":"displaySequence","valueInteger":16}]},{"url":"http://hl7.org/fhir/StructureDefinition/cqf-logicDefinition","extension":[{"url":"libraryName","valueString":"CMS871HHHyperFHIR"},{"url":"name","valueString":"Initial Glucose Greater Than 600 within 1 Hour Prior To and 6 Hours After Encounter Start"},{"url":"statement","valueString":"define \"Initial Glucose Greater Than 600 within 1 Hour Prior To and 6 Hours After Encounter Start\":\n  \"Glucose Greater Than 600 within 1 Hour Prior To and 6 Hours After Encounter Start\" GlucoseResult600\n    where not ( GlucoseResult600.id in \"Glucose Tests Earlier Than Glucose Greater Than 600 within 1 Hour Prior To and 6 Hours After Encounter Start\".id )"},{"url":"displaySequence","valueInteger":17}]},{"url":"http://hl7.org/fhir/StructureDefinition/cqf-logicDefinition","extension":[{"url":"libraryName","valueString":"CMS871HHHyperFHIR"},{"url":"name","valueString":"Encounter with Glucose Greater Than 600 within 1 Hour Prior To and 6 Hours After Encounter Start"},{"url":"statement","valueString":"define \"Encounter with Glucose Greater Than 600 within 1 Hour Prior To and 6 Hours After Encounter Start\":\n  from\n    \"Initial Population\" InpatientHospitalization,\n    \"Initial Glucose Greater Than 600 within 1 Hour Prior To and 6 Hours After Encounter Start\" EarlyGlucoseResult\n    where EarlyGlucoseResult.value as Quantity > 600 'mg/dL'\n      and EarlyGlucoseResult.status in { 'final', 'amended', 'corrected' }\n      and QICoreCommon.\"Earliest\" ( EarlyGlucoseResult.effective ) during Interval[( start of CQMCommon.\"HospitalizationWithObservation\" ( InpatientHospitalization ) - 1 hour ), ( start of CQMCommon.\"HospitalizationWithObservation\" ( InpatientHospitalization ) + 6 hours )]\n    return InpatientHospitalization"},{"url":"displaySequence","valueInteger":18}]},{"url":"http://hl7.org/fhir/StructureDefinition/cqf-logicDefinition","extension":[{"url":"libraryName","valueString":"CMS871HHHyperFHIR"},{"url":"name","valueString":"Comfort Measures Care"},{"url":"statement","valueString":"/***/\n\n\ndefine \"Comfort Measures Care\":\n  [\"ServiceRequest\": \"Comfort Measures\"]\n    union [\"Procedure\": \"Comfort Measures\"]"},{"url":"displaySequence","valueInteger":19}]},{"url":"http://hl7.org/fhir/StructureDefinition/cqf-logicDefinition","extension":[{"url":"libraryName","valueString":"CMS871HHHyperFHIR"},{"url":"name","valueString":"Encounter with Comfort Measures during Hospitalization"},{"url":"statement","valueString":"define \"Encounter with Comfort Measures during Hospitalization\":\n  \"Initial Population\" InpatientHospitalization\n    with \"Comfort Measures Care\" ComfortCare\n      such that Coalesce(ComfortCare.performed.toInterval(), ComfortCare.authoredOn.toInterval()) during CQMCommon.\"HospitalizationWithObservation\" ( InpatientHospitalization )"},{"url":"displaySequence","valueInteger":20}]},{"url":"http://hl7.org/fhir/StructureDefinition/cqf-logicDefinition","extension":[{"url":"libraryName","valueString":"CMS871HHHyperFHIR"},{"url":"name","valueString":"Encounter with Discharge for Hospice Care"},{"url":"statement","valueString":"define \"Encounter with Discharge for Hospice Care\":\n  \"Initial Population\" InpatientHospitalization\n    where InpatientHospitalization.hospitalization.dischargeDisposition in \"Discharged to Home for Hospice Care\"\n      or InpatientHospitalization.hospitalization.dischargeDisposition in \"Discharged to Health Care Facility for Hospice Care\""},{"url":"displaySequence","valueInteger":21}]},{"url":"http://hl7.org/fhir/StructureDefinition/cqf-logicDefinition","extension":[{"url":"libraryName","valueString":"CMS871HHHyperFHIR"},{"url":"name","valueString":"Encounter with Early Glucose Greater Than 600 or with Comfort or Hospice Care"},{"url":"statement","valueString":"define \"Encounter with Early Glucose Greater Than 600 or with Comfort or Hospice Care\":\n  \"Encounter with Glucose Greater Than 600 within 1 Hour Prior To and 6 Hours After Encounter Start\"\n    union \"Encounter with Comfort Measures during Hospitalization\"\n    union \"Encounter with Discharge for Hospice Care\""},{"url":"displaySequence","valueInteger":22}]},{"url":"http://hl7.org/fhir/StructureDefinition/cqf-logicDefinition","extension":[{"url":"libraryName","valueString":"CMS871HHHyperFHIR"},{"url":"name","valueString":"Numerator Exclusions"},{"url":"statement","valueString":"define \"Numerator Exclusions\":\n  \"Encounter with Early Glucose Greater Than 600 or with Comfort or Hospice Care\""},{"url":"displaySequence","valueInteger":23}]},{"url":"http://hl7.org/fhir/StructureDefinition/cqf-logicDefinition","extension":[{"url":"libraryName","valueString":"SupplementalDataElements"},{"url":"name","valueString":"SDE Payer"},{"url":"statement","valueString":"define \"SDE Payer\":\n  [Coverage: type in \"Payer Type\"] Payer\n    return {\n      code: Payer.type,\n      period: Payer.period\n    }"},{"url":"displaySequence","valueInteger":24}]},{"url":"http://hl7.org/fhir/StructureDefinition/cqf-logicDefinition","extension":[{"url":"libraryName","valueString":"CMS871HHHyperFHIR"},{"url":"name","valueString":"SDE Payer"},{"url":"statement","valueString":"define \"SDE Payer\":\n  SDE.\"SDE Payer\""},{"url":"displaySequence","valueInteger":25}]},{"url":"http://hl7.org/fhir/StructureDefinition/cqf-logicDefinition","extension":[{"url":"libraryName","valueString":"SupplementalDataElements"},{"url":"name","valueString":"SDE Ethnicity"},{"url":"statement","valueString":"define \"SDE Ethnicity\":\n  Patient.ethnicity E\n    return Tuple {\n      codes: { E.ombCategory } union E.detailed,\n      display: E.text\n    }"},{"url":"displaySequence","valueInteger":26}]},{"url":"http://hl7.org/fhir/StructureDefinition/cqf-logicDefinition","extension":[{"url":"libraryName","valueString":"CMS871HHHyperFHIR"},{"url":"name","valueString":"SDE Ethnicity"},{"url":"statement","valueString":"define \"SDE Ethnicity\":\n  SDE.\"SDE Ethnicity\""},{"url":"displaySequence","valueInteger":27}]},{"url":"http://hl7.org/fhir/StructureDefinition/cqf-logicDefinition","extension":[{"url":"libraryName","valueString":"CMS871HHHyperFHIR"},{"url":"name","valueString":"Denominator Exclusions"},{"url":"statement","valueString":"define \"Denominator Exclusions\":\n  \"Encounter with Early Glucose Greater Than 600 or with Comfort or Hospice Care\""},{"url":"displaySequence","valueInteger":28}]},{"url":"http://hl7.org/fhir/StructureDefinition/cqf-logicDefinition","extension":[{"url":"libraryName","valueString":"SupplementalDataElements"},{"url":"name","valueString":"SDE Race"},{"url":"statement","valueString":"define \"SDE Race\":\n  Patient.race R\n    return Tuple {\n      codes: R.ombCategory union R.detailed,\n      display: R.text\n    }"},{"url":"displaySequence","valueInteger":29}]},{"url":"http://hl7.org/fhir/StructureDefinition/cqf-logicDefinition","extension":[{"url":"libraryName","valueString":"CMS871HHHyperFHIR"},{"url":"name","valueString":"SDE Race"},{"url":"statement","valueString":"define \"SDE Race\":\n  SDE.\"SDE Race\""},{"url":"displaySequence","valueInteger":30}]},{"url":"http://hl7.org/fhir/StructureDefinition/cqf-logicDefinition","extension":[{"url":"libraryName","valueString":"FHIRHelpers"},{"url":"name","valueString":"ToString"},{"url":"statement","valueString":"define function ToString(value uri): value.value"},{"url":"displaySequence","valueInteger":31}]},{"url":"http://hl7.org/fhir/StructureDefinition/cqf-logicDefinition","extension":[{"url":"libraryName","valueString":"FHIRHelpers"},{"url":"name","valueString":"ToInterval"},{"url":"statement","valueString":"/*\n@description: Converts the given [Period](https://hl7.org/fhir/datatypes.html#Period)\nvalue to a CQL DateTime Interval\n@comment: If the start value of the given period is unspecified, the starting\nboundary of the resulting interval will be open (meaning the start of the interval\nis unknown, as opposed to interpreted as the beginning of time).\n*/\ndefine function ToInterval(period FHIR.Period):\n    if period is null then\n        null\n    else\n        if period.\"start\" is null then\n            Interval(period.\"start\".value, period.\"end\".value]\n        else\n            Interval[period.\"start\".value, period.\"end\".value]"},{"url":"displaySequence","valueInteger":32}]},{"url":"http://hl7.org/fhir/StructureDefinition/cqf-logicDefinition","extension":[{"url":"libraryName","valueString":"CQMCommon"},{"url":"name","valueString":"HospitalizationWithObservation"},{"url":"statement","valueString":"/*\n@description: Hospitalization with Observation returns the total interval from the start of any immediately prior emergency department visit through the observation visit to the discharge of the given encounter\n@deprecated: This function is deprecated. Use the fluent function `hospitalizationWithObservation()` instead.\n*/\ndefine function \"HospitalizationWithObservation\"(TheEncounter Encounter ):\n  TheEncounter Visit\n  \t\tlet ObsVisit: Last([Encounter: \"Observation Services\"] LastObs\n  \t\t\t\twhere LastObs.status = 'finished'\n            and LastObs.period ends 1 hour or less on or before start of Visit.period\n  \t\t\t\tsort by end of period\n  \t\t\t),\n  \t\t\tVisitStart: Coalesce(start of ObsVisit.period, start of Visit.period),\n  \t\t\tEDVisit: Last([Encounter: \"Emergency Department Visit\"] LastED\n  \t\t\t\twhere LastED.status = 'finished'\n            and LastED.period ends 1 hour or less on or before VisitStart\n  \t\t\t\tsort by end of period\n  \t\t\t)\n  \t\treturn Interval[Coalesce(start of EDVisit.period, VisitStart), end of Visit.period]"},{"url":"displaySequence","valueInteger":33}]},{"url":"http://hl7.org/fhir/StructureDefinition/cqf-logicDefinition","extension":[{"url":"libraryName","valueString":"QICoreCommon"},{"url":"name","valueString":"ToPrevalenceInterval"},{"url":"statement","valueString":"/*\n@description: Returns an interval representing the normalized prevalence period of a given Condition.\n@comment: Uses the ToInterval and ToAbatementInterval functions to determine the widest potential interval from\nonset to abatement as specified in the given Condition. If the condition is active, or has an abatement date the resulting \ninterval will have a closed ending boundary. Otherwise, the resulting interval will have an open ending boundary.\n@deprecated: This function is deprecated. Use the `prevalenceInterval()` fluent function instead\n*/\ndefine function ToPrevalenceInterval(condition Choice<\"ConditionEncounterDiagnosis\", \"ConditionProblemsHealthConcerns\">):\nif condition.clinicalStatus ~ \"active\"\n  or condition.clinicalStatus ~ \"recurrence\"\n  or condition.clinicalStatus ~ \"relapse\" then\n  Interval[start of ToInterval(condition.onset), end of ToAbatementInterval(condition)]\nelse\n   (end of ToAbatementInterval(condition)) abatementDate\n    return if abatementDate is null then\n      Interval[start of ToInterval(condition.onset), abatementDate)\n    else\n      Interval[start of ToInterval(condition.onset), abatementDate]"},{"url":"displaySequence","valueInteger":34}]},{"url":"http://hl7.org/fhir/StructureDefinition/cqf-logicDefinition","extension":[{"url":"libraryName","valueString":"QICoreCommon"},{"url":"name","valueString":"Earliest"},{"url":"statement","valueString":"/*\n@description: Given an interval, return the starting point if the interval has a starting boundary specified,\notherwise, return the ending point\n@deprecated: This function is deprecated. Use the fluent function `earliest()` instead\n*/\ndefine function \"Earliest\"(choice Choice<DateTime, Quantity, Interval<DateTime>, Interval<Quantity>> ):\n  (choice.toInterval()) period\n    return\n      if (HasStart(period)) then start of period\n      else end of period"},{"url":"displaySequence","valueInteger":35}]},{"url":"http://hl7.org/fhir/StructureDefinition/cqf-logicDefinition","extension":[{"url":"libraryName","valueString":"CMS871HHHyperFHIR"},{"url":"name","valueString":"Hospital Days Max 10"},{"url":"statement","valueString":"/**\n * Crops an interval to a maximum length of 10 days.*/\n\n\ndefine function \"Hospital Days Max 10\"(Period Interval<DateTime>):\n  Interval[start of Period, Min({ \n    end of Period, start of Period + 10 days }\n  )]"},{"url":"displaySequence","valueInteger":36}]},{"url":"http://hl7.org/fhir/StructureDefinition/cqf-logicDefinition","extension":[{"url":"libraryName","valueString":"CMS871HHHyperFHIR"},{"url":"name","valueString":"Days In Period"},{"url":"statement","valueString":"/**\n * Creates a list of 24 hour long intervals in an interval paired with the index (1 indexed) to which 24 hour interval it is.*/\n\n\ndefine function \"Days In Period\"(Period Interval<DateTime>):\n  ( \"Interval To Day Numbers\"(Period) ) DayNumber\n    let startPeriod: start of Period + ( 24 hours * ( DayNumber - 1 ) ),\n    endPeriod: if ( hours between startPeriod and end of Period < 24 ) then startPeriod \n      else start of Period + ( 24 hours * DayNumber )\n    return Tuple {\n      dayNumber: DayNumber,\n      dayPeriod: Interval[startPeriod, endPeriod )\n    }"},{"url":"displaySequence","valueInteger":37}]},{"url":"http://hl7.org/fhir/StructureDefinition/cqf-logicDefinition","extension":[{"url":"libraryName","valueString":"CMS871HHHyperFHIR"},{"url":"name","valueString":"Interval To Day Numbers"},{"url":"statement","valueString":"/**\n * Creates a list of integers from 1 to how many days are in the interval. Note, this wont create an index for\n * the final day if it is less than 24 hours. This also includes the first 24 hour period.*/\n\n\ndefine function \"Interval To Day Numbers\"(Period Interval<DateTime>):\n  ( expand { Interval[1, duration in days between start of Period and end of Period]} ) DayExpand\n    return end of DayExpand"},{"url":"displaySequence","valueInteger":38}]},{"url":"http://hl7.org/fhir/StructureDefinition/cqf-logicDefinition","extension":[{"url":"libraryName","valueString":"QICoreCommon"},{"url":"name","valueString":"toInterval"},{"url":"statement","valueString":"/*\n@description: Normalizes a value that is a choice of timing-valued types to an equivalent interval\n@comment: Normalizes a choice type of DateTime, Quanitty, Interval<DateTime>, or Interval<Quantity> types\nto an equivalent interval. This selection of choice types is a superset of the majority of choice types that are used as possible\nrepresentations for timing-valued elements in QICore, allowing this function to be used across any resource.\nThe input can be provided as a DateTime, Quantity, Interval<DateTime> or Interval<Quantity>.\nThe intent of this function is to provide a clear and concise mechanism to treat single\nelements that have multiple possible representations as intervals so that logic doesn't have to account\nfor the variability. More complex calculations (such as medication request period or dispense period\ncalculation) need specific guidance and consideration. That guidance may make use of this function, but\nthe focus of this function is on single element calculations where the semantics are unambiguous.\nIf the input is a DateTime, the result a DateTime Interval beginning and ending on that DateTime.\nIf the input is a Quantity, the quantity is expected to be a calendar-duration interpreted as an Age,\nand the result is a DateTime Interval beginning on the Date the patient turned that age and ending immediately before one year later.\nIf the input is a DateTime Interval, the result is the input.\nIf the input is a Quantity Interval, the quantities are expected to be calendar-durations interpreted as an Age, and the result\nis a DateTime Interval beginning on the date the patient turned the age given as the start of the quantity interval, and ending\nimmediately before one year later than the date the patient turned the age given as the end of the quantity interval.\nIf the input is a Timing, an error will be thrown indicating that Timing calculations are not implemented. Any other input will reslt in a null DateTime Interval\n*/\ndefine fluent function toInterval(choice Choice<DateTime, Quantity, Interval<DateTime>, Interval<Quantity>, Timing>):\n  case\n\t  when choice is DateTime then\n    \tInterval[choice as DateTime, choice as DateTime]\n\t\twhen choice is Interval<DateTime> then\n  \t\tchoice as Interval<DateTime>\n\t\twhen choice is Quantity then\n\t\t  Interval[Patient.birthDate + (choice as Quantity),\n\t\t\t  Patient.birthDate + (choice as Quantity) + 1 year)\n\t\twhen choice is Interval<Quantity> then\n\t\t  Interval[Patient.birthDate + (choice.low as Quantity),\n\t\t\t  Patient.birthDate + (choice.high as Quantity) + 1 year)\n\t\twhen choice is Timing then\n      Message(null, true, 'NOT_IMPLEMENTED', 'Error', 'Calculation of an interval from a Timing value is not supported') as Interval<DateTime>\n\t\telse\n\t\t\tnull as Interval<DateTime>\n\tend"},{"url":"displaySequence","valueInteger":39}]},{"url":"http://hl7.org/fhir/StructureDefinition/cqf-logicDefinition","extension":[{"url":"libraryName","valueString":"CMS871HHHyperFHIR"},{"url":"name","valueString":"Denominator Observations"},{"url":"statement","valueString":"/**\n * Counts the number of eligible days in an encounter. This simply filters and counts the data built in\n * \"Relevant Encounters With Hyperglycemic Event Days\".*/\n\n\ndefine function \"Denominator Observations\"(QualifyingEncounter Encounter):\n  if QualifyingEncounter.id in \"Denominator Exclusions\".id then singleton from ( \"Days with Hyperglycemic Events\" EncounterWithEventDays\n      where EncounterWithEventDays.encounter = QualifyingEncounter\n      return 0\n  ) \n    else singleton from ( \"Days with Hyperglycemic Events\" EncounterWithEventDays\n      where EncounterWithEventDays.encounter = QualifyingEncounter\n      return Count(EncounterWithEventDays.eligibleEventDays)\n  )"},{"url":"displaySequence","valueInteger":40}]},{"url":"http://hl7.org/fhir/StructureDefinition/cqf-logicDefinition","extension":[{"url":"libraryName","valueString":"FHIRHelpers"},{"url":"name","valueString":"ToCode"},{"url":"statement","valueString":"/*\n@description: Converts the given FHIR [Coding](https://hl7.org/fhir/datatypes.html#Coding) value to a CQL Code.\n*/\ndefine function ToCode(coding FHIR.Coding):\n    if coding is null then\n        null\n    else\n        System.Code {\n          code: coding.code.value,\n          system: coding.system.value,\n          version: coding.version.value,\n          display: coding.display.value\n        }"},{"url":"displaySequence","valueInteger":41}]},{"url":"http://hl7.org/fhir/StructureDefinition/cqf-logicDefinition","extension":[{"url":"libraryName","valueString":"CMS871HHHyperFHIR"},{"url":"name","valueString":"Numerator Observations"},{"url":"statement","valueString":"/**\n * Counts the number of eligible days with a hyperglycemic event in an encounter. This simply filters and counts the data built in\n * \"Relevant Encounters With Hyperglycemic Event Days\".*/\n\n\ndefine function \"Numerator Observations\"(QualifyingEncounter Encounter):\n  if QualifyingEncounter.id in \"Denominator Exclusions\".id then singleton from ( \"Days with Hyperglycemic Events\" EncounterWithEventDays\n      where EncounterWithEventDays.encounter = QualifyingEncounter\n      return 0\n  ) \n    else singleton from ( \"Days with Hyperglycemic Events\" EncounterWithEventDays\n      where EncounterWithEventDays.encounter = QualifyingEncounter\n      return Count(EncounterWithEventDays.eligibleEventDays EligibleEventDay\n          where EligibleEventDay.hasHyperglycemicEvent\n      )\n  )"},{"url":"displaySequence","valueInteger":42}]}],"name":"EffectiveDataRequirements","status":"active","type":{"coding":[{"system":"http://terminology.hl7.org/CodeSystem/library-type","code":"module-definition"}]},"relatedArtifact":[{"type":"depends-on","display":"Library SDE","resource":"https://madie.cms.gov/Library/SupplementalDataElements|5.1.000"},{"type":"depends-on","display":"Library FHIRHelpers","resource":"https://madie.cms.gov/Library/FHIRHelpers|4.4.000"},{"type":"depends-on","display":"Library CQMCommon","resource":"https://madie.cms.gov/Library/CQMCommon|4.1.000"},{"type":"depends-on","display":"Library QICoreCommon","resource":"https://madie.cms.gov/Library/QICoreCommon|4.0.000"},{"type":"depends-on","display":"Code system SNOMEDCT","resource":"http://snomed.info/sct"},{"type":"depends-on","display":"Value set Encounter Inpatient","resource":"http://cts.nlm.nih.gov/fhir/ValueSet/2.16.840.1.113883.3.666.5.307"},{"type":"depends-on","display":"Value set Observation Services","resource":"http://cts.nlm.nih.gov/fhir/ValueSet/2.16.840.1.113762.1.4.1111.143"},{"type":"depends-on","display":"Value set Emergency Department Visit","resource":"http://cts.nlm.nih.gov/fhir/ValueSet/2.16.840.1.113883.3.117.1.7.1.292"},{"type":"depends-on","display":"Value set Diabetes","resource":"http://cts.nlm.nih.gov/fhir/ValueSet/2.16.840.1.113883.3.464.1003.103.12.1001"},{"type":"depends-on","display":"Value set Hypoglycemics Treatment Medications","resource":"http://cts.nlm.nih.gov/fhir/ValueSet/2.16.840.1.113762.1.4.1196.394"},{"type":"depends-on","display":"Value set Glucose Lab Test Mass Per Volume","resource":"http://cts.nlm.nih.gov/fhir/ValueSet/2.16.840.1.113762.1.4.1248.34"},{"type":"depends-on","display":"Value set Comfort Measures","resource":"http://cts.nlm.nih.gov/fhir/ValueSet/1.3.6.1.4.1.33895.1.3.0.45"},{"type":"depends-on","display":"Value set Discharged to Home for Hospice Care","resource":"http://cts.nlm.nih.gov/fhir/ValueSet/2.16.840.1.113883.3.117.1.7.1.209"},{"type":"depends-on","display":"Value set Discharged to Health Care Facility for Hospice Care","resource":"http://cts.nlm.nih.gov/fhir/ValueSet/2.16.840.1.113883.3.117.1.7.1.207"},{"type":"depends-on","display":"Value set Payer Type","resource":"http://cts.nlm.nih.gov/fhir/ValueSet/2.16.840.1.114222.4.11.3591"}],"parameter":[{"name":"Measurement Period","use":"in","min":0,"max":"1","type":"Period"},{"name":"SDE Sex","use":"out","min":0,"max":"1","type":"Coding"},{"name":"Numerator","use":"out","min":0,"max":"*","type":"Resource"},{"name":"Denominator","use":"out","min":0,"max":"*","type":"Resource"},{"name":"Numerator Exclusions","use":"out","min":0,"max":"*","type":"Resource"},{"name":"SDE Payer","use":"out","min":0,"max":"*","type":"Resource"},{"name":"Initial Population","use":"out","min":0,"max":"*","type":"Resource"},{"name":"SDE Ethnicity","use":"out","min":0,"max":"1","type":"Resource"},{"name":"Denominator Exclusions","use":"out","min":0,"max":"*","type":"Resource"},{"name":"SDE Race","use":"out","min":0,"max":"1","type":"Resource"}],"dataRequirement":[{"type":"Patient","profile":["http://hl7.org/fhir/us/qicore/StructureDefinition/qicore-patient"],"mustSupport":["extension","birthDate","birthDate.value","url"]},{"type":"Encounter","profile":["http://hl7.org/fhir/us/qicore/StructureDefinition/qicore-encounter"],"mustSupport":["type","status","status.value","period","hospitalization","hospitalization.dischargeDisposition"],"codeFilter":[{"path":"type","valueSet":"http://cts.nlm.nih.gov/fhir/ValueSet/2.16.840.1.113762.1.4.1111.143"}]},{"type":"Encounter","profile":["http://hl7.org/fhir/us/qicore/StructureDefinition/qicore-encounter"],"mustSupport":["type","status","status.value","period","hospitalization","hospitalization.dischargeDisposition"],"codeFilter":[{"path":"type","valueSet":"http://cts.nlm.nih.gov/fhir/ValueSet/2.16.840.1.113883.3.117.1.7.1.292"}]},{"type":"Encounter","profile":["http://hl7.org/fhir/us/qicore/StructureDefinition/qicore-encounter"],"mustSupport":["type","period","status","status.value","hospitalization","hospitalization.dischargeDisposition","hospitalizationPeriod","encounter"],"codeFilter":[{"path":"type","valueSet":"http://cts.nlm.nih.gov/fhir/ValueSet/2.16.840.1.113883.3.666.5.307"}]},{"type":"Condition","profile":["http://hl7.org/fhir/us/qicore/StructureDefinition/qicore-condition-encounter-diagnosis"],"mustSupport":["code"],"codeFilter":[{"path":"code","valueSet":"http://cts.nlm.nih.gov/fhir/ValueSet/2.16.840.1.113883.3.464.1003.103.12.1001"}]},{"type":"MedicationAdministration","profile":["http://hl7.org/fhir/us/qicore/StructureDefinition/qicore-medicationadministration"],"mustSupport":["medication","status","status.value","effective"],"codeFilter":[{"path":"medication","valueSet":"http://cts.nlm.nih.gov/fhir/ValueSet/2.16.840.1.113762.1.4.1196.394"}]},{"type":"MedicationAdministration","profile":["http://hl7.org/fhir/us/qicore/StructureDefinition/qicore-medicationadministration"],"mustSupport":["medication.reference.value","status","status.value","effective"]},{"type":"Medication","profile":["http://hl7.org/fhir/us/qicore/StructureDefinition/qicore-medication"],"mustSupport":["id.value","code"]},{"type":"Observation","profile":["http://hl7.org/fhir/us/qicore/StructureDefinition/qicore-observation-lab"],"mustSupport":["code","effective","status","status.value","value","id","id.value"],"codeFilter":[{"path":"code","valueSet":"http://cts.nlm.nih.gov/fhir/ValueSet/2.16.840.1.113762.1.4.1248.34"}]},{"type":"ServiceRequest","profile":["http://hl7.org/fhir/us/qicore/StructureDefinition/qicore-servicerequest"],"mustSupport":["code"],"codeFilter":[{"path":"code","valueSet":"http://cts.nlm.nih.gov/fhir/ValueSet/1.3.6.1.4.1.33895.1.3.0.45"}]},{"type":"Procedure","profile":["http://hl7.org/fhir/us/qicore/StructureDefinition/qicore-procedure"],"mustSupport":["code"],"codeFilter":[{"path":"code","valueSet":"http://cts.nlm.nih.gov/fhir/ValueSet/1.3.6.1.4.1.33895.1.3.0.45"}]},{"type":"Coverage","profile":["http://hl7.org/fhir/us/qicore/StructureDefinition/qicore-coverage"],"mustSupport":["type","period"],"codeFilter":[{"path":"type","valueSet":"http://cts.nlm.nih.gov/fhir/ValueSet/2.16.840.1.114222.4.11.3591"}]}]}],"extension":[{"id":"supplementalDataGuidance","url":"http://hl7.org/fhir/us/cqfmeasures/StructureDefinition/cqfm-supplementalDataGuidance","extension":[{"url":"guidance","valueString":"For every patient evaluated by this measure also identify payer, race, ethnicity and sex; SDE Ethnicity \n SDE Payer \n SDE Race \n SDE Sex \n "},{"url":"usage","valueCodeableConcept":{"coding":[{"system":"http://terminology.hl7.org/CodeSystem/measure-data-usage","code":"supplemental-data","display":"Supplemental Data"}],"text":"Supplemental Data Guidance"}}]},{"url":"http://hl7.org/fhir/uv/crmi/StructureDefinition/crmi-effectiveDataRequirements","valueReference":{"reference":"#effective-data-requirements"}},{"url":"http://hl7.org/fhir/uv/crmi/StructureDefinition/crmi-softwaresystem","valueReference":{"reference":"Device/cqf-tooling"}}],"url":"https://madie.cms.gov/Measure/CMS871HHHyperFHIR","identifier":[{"use":"usual","type":{"coding":[{"system":"http://terminology.hl7.org/CodeSystem/artifact-identifier-type","code":"short-name","display":"Short Name"}]},"system":"https://madie.cms.gov/measure/shortName","value":"CMS871FHIR"},{"use":"official","type":{"coding":[{"system":"http://terminology.hl7.org/CodeSystem/artifact-identifier-type","code":"version-independent","display":"Version Independent"}]},"system":"urn:ietf:rfc:3986","value":"urn:uuid:c44ca609-d795-4715-a8fc-1b0b30e46048"},{"use":"official","type":{"coding":[{"system":"http://terminology.hl7.org/CodeSystem/artifact-identifier-type","code":"version-specific","display":"Version Specific"}]},"system":"urn:ietf:rfc:3986","value":"urn:uuid:b85cda48-6920-482f-aa2f-16efa09efe3f"},{"use":"official","type":{"coding":[{"system":"http://terminology.hl7.org/CodeSystem/artifact-identifier-type","code":"endorser","display":"Endorser"}]},"system":"https://madie.cms.gov/measure/cbeId","value":"3533e","assigner":{"display":"CMS Consensus Based Entity"}},{"use":"official","type":{"coding":[{"system":"http://terminology.hl7.org/CodeSystem/artifact-identifier-type","code":"publisher","display":"Publisher"}]},"system":"https://madie.cms.gov/measure/cmsId","value":"871FHIR","assigner":{"display":"CMS"}}],"version":"0.3.000","name":"CMS871HHHyperFHIR","title":"Hospital Harm - Severe HyperglycemiaFHIR","status":"active","experimental":false,"date":"2025-05-23T20:52:29+00:00","publisher":"Centers for Medicare & Medicaid Services (CMS)","contact":[{"telecom":[{"system":"url","value":"https://www.cms.gov/"}]}],"description":"This measure assesses the number of inpatient hospital days for patients age 18 and older with a hyperglycemic event (harm) per the total qualifying inpatient hospital days for that encounter","usage":"The measure is using mg/dL as the unit of measurement for glucose results. Millimoles per liter (mmol/L) should be converted to milligrams per deciliter (mg/dL) for reporting this measure. \n\nWhen evaluating for days with a glucose level >300 mg/dL, the first 24-hour period after admission to the hospital is not evaluated to account for potentially poor glucose control outside of the hospital setting or that preceded the start of hospital care. The admission starts in the ED or observation when the transition between the ED encounter, observation encounter, and the inpatient encounter are within an hour or less of each other.\n\nThis measure evaluates the first 10 days of an eligible inpatient hospitalization in determining eligible days for the denominator and numerator (i.e., the length of stay is truncated to <=10 days when the length exceeds 10 days). Patients admitted for longer length of stays are more likely to have more complex medical conditions.  \n\nIn determining eligible days for the denominator and numerator, this measure does not evaluate the last day if it was less than a 24-hour period.  \n\nThe Days in Hospitalization logic within Measure Observation 1 (associated with the denominator), in conjunction with other logic, returns the day number (e.g., day 1 to day 10) for each day within the hospitalization period to determine the eligible hospital days (e.g., from day 2 to day 10). \n\nThe Days in Hospitalization logic within Measure Observation 2 (associated with the numerator), in conjunction with other logic, returns the day number (e.g., day 1 to day 10) for each day within the hospitalization period to determine the eligible hyperglycemic event days (e.g., from day 2 to day 10).\n\nSince the measure does not count any hyperglycemic events that occur in the first 24 hours, day 1 is not considered an eligible hospital day for the Measure Observations. Eligible days range from day 2 up to day 10. However, the measure does allow day 1 to be counted for the Numerator as one of the preceding days for a day where no glucose result is found. In this instance, the measure could evaluate day 1 as one of the two days preceding the day with no glucose result to see if there was a glucose value >=200 mg/dL on day 1. \n\nMultiple hyperglycemic events can occur during a day, but this is still considered one hyperglycemic event day.\n\nThe numerator returns the first eligible encounter that meets the qualifying criteria: an inpatient hospitalization with a hyperglycemic event. Only one numerator is counted per encounter. Note that the Numerator returns the encounters, not days, that meet the criteria. \n\nThis measure includes two measure observations used to calculate the ratio of the number of inpatient hospital days with a hyperglycemic (high blood glucose) event over the total number of eligible inpatient hospital days (<= 10 days) for that encounter.  \n\nIn ratio measures, both the denominator and numerator populations flow separately from the same initial population. Therefore, the same exclusion criteria must be applied to both the denominator and numerator to prevent excluded cases from being considered. \n\nThe specimen source for the glucose test is blood, serum, plasma, or interstitial fluid, and can be obtained by a laboratory test, a POC test, or a continuous glucose monitor (CGM). Glucose test results from urine specimens are not considered. \n\nThis eCQM is an episode-based measure. An episode is defined as each inpatient hospitalization or encounter that ends during the measurement period.\n\nThis FHIR-based measure has been derived from the QDM-based measure: CMS871v5. Please refer to the HL7 QI-Core Implementation Guide https://hl7.org/fhir/us/qicore/STU6/)for more information on QI-Core and mapping recommendations from QDM to QI-Core STU 6(https://hl7.org/fhir/us/qicore/STU6/qdm-to-qicore.html).","copyright":"Limited proprietary coding is contained in the Measure specifications for user convenience. Users of proprietary code sets should obtain all necessary licenses from the owners of the code sets. American Institutes for Research(R), formerly IMPAQ International, disclaims all liability for use or accuracy of any third party codes contained in the specifications.\n\nLOINC(R) copyright 2004-2024 Regenstrief Institute, Inc. This material contains SNOMED Clinical Terms(R) (SNOMED CT[R]) copyright 2004-2024 International Health Terminology Standards Development Organisation. ICD-10 copyright 2024 World Health Organization. All Rights Reserved.","effectivePeriod":{"start":"2026-01-01","end":"2026-12-31"},"author":[{"name":"Mathematica","telecom":[{"system":"url","value":"https://www.mathematica.org/"}]}],"relatedArtifact":[{"type":"citation","citation":"CITATION - American Diabetes Association Professional Practice Committee; 16. (2022). Diabetes Care in the Hospital: Standards of Medical Care in Diabetes2022. Diabetes Care 1 January 2022; 45 (Supplement_1): S244S253.  https://doi.org/10.2337/dc22-S016\n"},{"type":"citation","citation":"CITATION - Bersoux, S., Cook, C.B., Kongable, G.L., Shu, J. (2013). Trends in glycemic control over a 2-year period in 126 US hospitals. J Hosp Med. 2013;8(3):121-125. doi:10.1002/jhm.1997\n"},{"type":"citation","citation":"CITATION - Donihi, A.C., Gibson, J.M., Noschese, M.L., et al. (2011). Effect of targeted glycemic management program on provider response to inpatient hyperglycemia. Endocr Pract. 2011; (4)552-557\n"},{"type":"citation","citation":"CITATION - Gosmanov, A.R., Gosmanova, E.O., Kitabchi, A.E. (2021). Hyperglycemic Crises: Diabetic Ketoacidosis and Hyperglycemic Hyperosmolar State. [Updated 2021 May 9]. In: Feingold KR, Anawalt B, Boyce A, et al., editors. Endotext [Internet]. South Dartmouth (MA): MDText.com, Inc.; 2000-. Available from: https://www.ncbi.nlm.nih.gov/books/NBK279052/\n"},{"type":"citation","citation":"CITATION - Jamesen, E., Nevalainen, P.L., Eskelinen, A., et al. (2015). Risk factors for perioperative hyperglycemia in primary hip and knee replacements. Acta Orthop. 2015; 86(2):175-182\n"},{"type":"citation","citation":"CITATION - Korytkowski, M.T., Muniyappa, R., Antinori-Lent, K., Donihi, A.C., Drincic, A.T, Hirsch, I.B., Luger, A., McDonnell, M.E., Murad, M.H., Nielsen, C., Pegg, C., Rushakoff, R.J., Santesso, N., Umpierrez, G.E. (2022). Management of Hyperglycemia in Hospitalized Adult Patients in Non-Critical Care Settings: An Endocrine Society Clinical Practice Guideline, The Journal of Clinical Endocrinology & Metabolism, Volume 107, Issue 8, August 2022, Pages 21012128,  https://doi.org/10.1210/clinem/dgac278\n"},{"type":"citation","citation":"CITATION - Krinsley, J.S., Jones, R.L. (2016). Cost analysis of intensive glycemic control in critically ill adult patients. Chest. 2016;129(3)644-650\n"},{"type":"citation","citation":"CITATION - LeRoy, L.,  Richard, S. (2020). Harms Due to Diabetic Agents (Chapter 8), Making Healthcare Safer III: A Critical Analysis of Existing and Emerging Patient Safety Practices. Retrieved from: https://www.ahrq.gov/sites/default/files/wysiwyg/research/findings/making-healthcare-safer/mhs3/diabetes-1.pdf\n"},{"type":"citation","citation":"CITATION - Maynard, G., Kulasa, K., Ramos, P., et al. (2015). Impact of a hypoglycemic reduction bundle and a systems approach to inpatient glycemic management. Endocr Pract. 2015;21(4):355-367\n"},{"type":"citation","citation":"CITATION - Mendez, C.E., Ata, A., Rourke, J.M., et al. (2015). Daily inpatient glycemic survey (DINGS): A process to remotely identify and assist in the management of hospitalized patients with diabetes and hyperglycemia. Endocr Pract. 2015;21(8):927-935\n"},{"type":"citation","citation":"CITATION - Pasquel, F.J., Lansang, M.C., Dhatariya, K., Umpierrez, G.E. (2021). Management of diabetes and hyperglycaemia in the hospital. The Lancet Diabetes & Endocrinology. 2021; 9: 17488\n"},{"type":"citation","citation":"CITATION - Sathya, B., Davis, R., Taveira, T., et al. (2013). Intensity of peri-operative glycemic control and postoperative outcomes in patients with diabetes: a meta-analysis. Diabetes Res Clin Pract. 2013;102(1):815.10.1016/j.diabres.2013.05.003\n"},{"type":"citation","citation":"CITATION - Umpierrez, G., Cardona, S., Pasquel, F., et al. (2015). Randomized controlled trial of intensive versus conservative glucose control in patients undergoing coronary artery bypass graft surgery: gluco-CABG trial. Diabetes Care. 2015;38(9):1665-1672\n"},{"type":"citation","citation":"CITATION - Umpierrez, G.E., Hellman, R., Korytkowski, M.T., et al. (2012). Management of Hyperglycemia in Hospitalized Patients in Non-critical Care Setting: An Endocrine Society Clinical Practice Guideline. J Clin Endocrinol Metab. 2012;97, 16-38\n"}],"library":["https://madie.cms.gov/Library/CMS871HHHyperFHIR"],"disclaimer":"This performance measure is not a clinical guideline and does not establish a standard of medical care, and has not been tested for all potential applications.\n\nTHE MEASURES AND SPECIFICATIONS ARE PROVIDED \"AS IS\" WITHOUT WARRANTY OF ANY KIND.\n\nDue to technical limitations, registered trademarks are indicated by (R) or [R] and unregistered trademarks are indicated by (TM) or [TM].","rationale":"Hyperglycemia, i.e., elevated glucose level, is common among hospitalized patients, especially those with preexisting diabetes (Umpierrez et al., 2012) and accounts for over 30% of noncritically ill hospitalized patients (Korytkowski, 2022). Hyperglycemia can also affect individuals with no prior history of diabetes and may be induced by medications such as steroids or by parenteral (intravenous) or enteral (tube) feeding.\n\nSevere hyperglycemia, i.e., an extremely elevated glucose level, is significantly associated with a range of harms, including increased in-hospital mortality, infection rates, and hospital length of stay (Pasquel, et al., 2021; Umpierrez et al., 2012, 2015). Lower rates of inpatient severe hyperglycemia may not only improve care for patients but also may reduce costs for healthcare payers (Krinsley et al., 2016). The rate of hyperglycemia varies across hospitals, suggesting opportunities for improvement in inpatient glycemic management (Bersoux et al., 2013; Seisa et al., 2022). The rate of inpatient hyperglycemia can be considered a marker for quality of hospital care, since inpatient hyperglycemia is largely avoidable with proper glycemic management. The use of evidence-based standardized protocols and insulin management protocols have been shown to improve glycemic control and safety (Leroy et al., 2020; Maynard et al., 2015).\n\nIt should be noted that this measure does not aim to measure overall glucose control in hospitalized patients; rather, its goal is to assess the occurrence and extent of severe hyperglycemia. This measure is also intended to be used in combination with its companion measure of hypoglycemia (Hospital Harm  Hypoglycemia) to reduce unintended consequences of measurement.","clinicalRecommendationStatement":"Multiple guidelines address recommended levels of glycemic control, though these do not define severe hyperglycemia: \n\nFrom Section 16, Diabetes Care in the Hospital, in the Standards of Care in Diabetes by the American Diabetes Association (American Diabetes Association Professional Practice Committee, 2024): \n\n16.4 Insulin and/or other therapies should be initiated or intensified for treatment of persistent hyperglycemia starting at a threshold of 180 mg/dL (10.0 mmol/L) (confirmed on two occasions within 24 hours) for noncritically ill (non-ICU) individuals. \n\n16.5a Once therapy is initiated, a glycemic goal of 140180 mg/dL (7.810.0 mmol/L) is recommended for most critically ill (ICU) individuals with hyperglycemia.\n\n16.5 More stringent glycemic goals, such as 110140 mg/dL (6.17.8 mmol/L), may be appropriate for selected critically ill individuals and are acceptable if they can be achieved without significant hypoglycemia.\n\nFrom Management of Hyperglycemia in Hospitalized Adult Patients in Non-Critical Care Settings: An Endocrine Society Clinical Practice Guideline (Korytkowski et al., 2022): \n\nRecommendation 1.1\nIn adults with insulin-treated diabetes hospitalized for noncritical illness who are at high risk of hypoglycemia, we suggest the use of real-time continuous glucose monitoring (CGM) with confirmatory bedside point-of-care blood glucose (POC-BG) monitoring for adjustments in insulin dosing rather than point-of-care blood glucose (POC-BG) testing alone in hospital settings where resources and training are available.\n\nRecommendation 10.1\nIn adults with no prior history of diabetes hospitalized for noncritical illness with hyperglycemia [defined as blood glucose (BG) > 140 mg/dL (7.8 mmol/L)] during hospitalization, we suggest initial therapy with correctional insulin over scheduled insulin therapy (defined as basal or basal/bolus insulin) to maintain glucose targets in the range of 100 to 180 mg/dL (5.6 to 10.0 mmol/L). For patients with persistent hyperglycemia [2 point-of-care blood glucose (POC-BG) measurements  180 mg/dL (10.0 mmol/L) in a 24-hour period on correctional insulin alone], we suggest the addition of scheduled insulin therapy. \n\nRecommendation 10.2\nIn adults with diabetes treated with diet or noninsulin diabetes medications prior to admission, we suggest initial therapy with correctional insulin or scheduled insulin therapy to maintain glucose targets in the range of 100 to 180 mg/dL (5.6 to 10.0 mmol/L). For hospitalized adults started on correctional insulin alone and with persistent hyperglycemia [2 point-of-care blood glucose (POC-BG) measurements  180 mg/dL in a 24-hour period (10.0 mmol/L)], we suggest addition of scheduled insulin therapy. We suggest initiation of scheduled insulin therapy for patients with confirmed admission blood glucose (BG)  180 mg/dL (10.0 mmol/L). \n\nRecommendation 10.3\nIn adults with insulin-treated diabetes prior to admission who are hospitalized for noncritical illness, we recommend continuation of the scheduled insulin regimen modified for nutritional status and severity of illness to maintain glucose targets in the range of 100 to 180 mg/dL (5.6 to 10.0 mmol/L).\n\nRemarks\nReductions in the dose of basal insulin (by 10% to 20%) at time of hospitalization may be required for patients on basal heavy insulin regimens (defined as doses of basal insulin  0.6 to 1.0 units/kg/day), in which basal insulin is being used inappropriately to cover meal-related excursions in BG.\n\nThere is no clinically accepted cutoff for severe hyperglycemia. Studies have used thresholds of >140, >180, >300, >350 and >400 mg/dL, among other values (American Diabetes Association Professional Practice Committee, 2024; Umpierrez et al, 2012, 2015; Jamesen et al., 2015; Donihi et al., 2011; Mendez et al, 2015; Seisa et al., 2022). Blood glucose level <180 mg/dL is associated with lower rates of mortality and stroke compared with a target glucose <200 mg/dL (Sathya et al., 2013). Glycemic goals may also differ among hospitalized patients. For inpatient management of hyperglycemia in noncritical care, the expert consensus recommends a target range of 100180 mg/dL (5.610.0 mmol/L) for noncritically ill patients with new hyperglycemia as well as people with known diabetes prior to admission. Glycemic levels up to 250 mg/dL (13.9 mmol/L) may be acceptable in terminally ill patients with short life expectancy, patients with advanced kidney failure and/or on dialysis, patients at high risk for hypoglycemia, and/or patients with labile glycemic excursions. In these individuals, less aggressive treatment goals that would help avoid symptomatic hypoglycemia and/or hyperglycemia are often more appropriate (American Diabetes Association Professional Practice Committee, 2024). In an older patient with a prior history of severe hypoglycemia, some degree of hyperglycemia may be tolerated to maximize safety. Intensive insulin therapy to target glucose of 100 and 140mg/dL in the ICU did not significantly reduce perioperative complications compared with target glucose of 141 and 180mg/dL after coronary artery bypass surgery (Umpierrez et al., 2015). The current recommendation is to maintain a blood glucose level between 140-180 mg/dL (7.8-10.0 mmol/L) in both cardiac and non-cardiac ICU patients (Sreedharan et al., 2022). \n\nFor patients who present with hyperglycemic crises, neurologic status must be monitored closely, with frequent re-examination. Care should be taken to prevent over-correction of hyperglycemia and hyperosmolarity following initial uid resuscitation of these patients to prevent cerebral edema, which carries a high mortality rate (Gosmanov et al., 2021).","group":[{"id":"Group_1","extension":[{"url":"http://hl7.org/fhir/us/cqfmeasures/StructureDefinition/cqfm-scoring","valueCodeableConcept":{"coding":[{"system":"http://terminology.hl7.org/CodeSystem/measure-scoring","code":"ratio","display":"Ratio"}]}},{"url":"http://hl7.org/fhir/us/cqfmeasures/StructureDefinition/cqfm-populationBasis","valueCode":"Encounter"},{"url":"http://hl7.org/fhir/us/cqfmeasures/StructureDefinition/cqfm-type","valueCodeableConcept":{"coding":[{"system":"http://terminology.hl7.org/CodeSystem/measure-type","code":"outcome","display":"Outcome"}]}},{"url":"http://hl7.org/fhir/us/cqfmeasures/StructureDefinition/cqfm-rateAggregation","valueCode":"None"},{"url":"http://hl7.org/fhir/us/cqfmeasures/StructureDefinition/cqfm-improvementNotation","valueCodeableConcept":{"coding":[{"system":"http://terminology.hl7.org/CodeSystem/measure-improvement-notation","code":"decrease","display":"decrease"}]}}],"population":[{"id":"InitialPopulation_1","code":{"coding":[{"system":"http://terminology.hl7.org/CodeSystem/measure-population","code":"initial-population","display":"Initial Population"}]},"description":"Inpatient hospitalizations for patients age 18 and older that end during the measurement period, as well as either: \n\n - A diagnosis of diabetes that starts before or during the encounter; or \n - Administration of at least one dose of insulin or any hypoglycemic medication during the encounter; or \n - Presence of at least one glucose value >=200 mg/dL at any time during the encounter","criteria":{"language":"text/cql-identifier","expression":"Initial Population"}},{"id":"Denominator_1","code":{"coding":[{"system":"http://terminology.hl7.org/CodeSystem/measure-population","code":"denominator","display":"Denominator"}]},"description":"Equals Initial Population","criteria":{"language":"text/cql-identifier","expression":"Denominator"}},{"id":"DenominatorExclusion_1","code":{"coding":[{"system":"http://terminology.hl7.org/CodeSystem/measure-population","code":"denominator-exclusion","display":"Denominator Exclusion"}]},"description":"Inpatient hospitalizations for patients with a glucose result of >600 mg/dL anytime between 1 hour prior to the start of the encounter to 6 hours after the start of the encounter.\n\n-Inpatient hospitalizations for patients who have comfort care measures ordered or provided during the encounter.\n\n-Inpatient hospitalizations for patients who have a discharge disposition to hospice care at home or in a health care facility. \n","criteria":{"language":"text/cql-identifier","expression":"Denominator Exclusions"}},{"id":"Numerator_1","code":{"coding":[{"system":"http://terminology.hl7.org/CodeSystem/measure-population","code":"numerator","display":"Numerator"}]},"description":"Inpatient hospitalizations with a hyperglycemic event within the first 10 days of the encounter minus the first 24 hours, and minus the last period before discharge from the hospital if less than 24 hours\n\nA hyperglycemic event is defined as: \n\n - A day with at least one glucose value >300 mg/dL; \nOR\n - A day where a glucose test and result was not found, and it was preceded by two consecutive days where at least one glucose value during each of the two days was >=200 mg/dL","criteria":{"language":"text/cql-identifier","expression":"Numerator"}},{"id":"NumeratorExclusion_1","code":{"coding":[{"system":"http://terminology.hl7.org/CodeSystem/measure-population","code":"numerator-exclusion","display":"Numerator Exclusion"}]},"description":"Inpatient hospitalizations for patients with a glucose result of >600 mg/dL anytime between 1 hour prior to the start of the encounter to 6 hours after the start of the encounter.\n\n-Inpatient hospitalizations for patients who have comfort care measures ordered or provided during the encounter.\n\n-Inpatient hospitalizations for patients who have a discharge disposition to hospice care at home or in a health care facility. ","criteria":{"language":"text/cql-identifier","expression":"Numerator Exclusions"}},{"id":"MeasureObservation_1_1","extension":[{"url":"http://hl7.org/fhir/us/cqfmeasures/StructureDefinition/cqfm-aggregateMethod","valueString":"Sum"},{"url":"http://hl7.org/fhir/us/cqfmeasures/StructureDefinition/cqfm-criteriaReference","valueString":"6402512C-2305-42DC-B5F6-A226B5057B89"}],"code":{"coding":[{"system":"http://terminology.hl7.org/CodeSystem/measure-population","code":"measure-observation","display":"Measure Observation"}]},"description":"Measure Observation 1, associated with the denominator of the ratio: The total number of eligible days of the inpatient hospitalization which match the initial population/denominator criteria and did not meet the denominator exclusion criteria.","criteria":{"language":"text/cql-identifier","expression":"Denominator Observations"}},{"id":"MeasureObservation_1_2","extension":[{"url":"http://hl7.org/fhir/us/cqfmeasures/StructureDefinition/cqfm-aggregateMethod","valueString":"Sum"},{"url":"http://hl7.org/fhir/us/cqfmeasures/StructureDefinition/cqfm-criteriaReference","valueString":"340EA45E-2411-4192-9C9D-3DF8D89A1D97"}],"code":{"coding":[{"system":"http://terminology.hl7.org/CodeSystem/measure-population","code":"measure-observation","display":"Measure Observation"}]},"description":"Measure Observation 2, associated with the numerator of the ratio: The total number of hyperglycemic days during the inpatient hospitalization that meet the numerator criteria and did not meet the numerator exclusion criteria. Days with a hyperglycemic event are defined as: \n\n- All days with a glucose level >300 mg/dL (except those occurring in the first 24-hour period after admission to the hospital (including the emergency department and observation))\nOR\n- All days where a glucose was not measured, and it was immediately preceded by two contiguous, consecutive days where at least one glucose value during each of the two days was >=200 mg/dL.","criteria":{"language":"text/cql-identifier","expression":"Numerator Observations"}}]}],"supplementalData":[{"id":"sde-ethnicity","usage":[{"coding":[{"system":"http://terminology.hl7.org/CodeSystem/measure-data-usage","code":"supplemental-data"}]}],"description":"SDE Ethnicity","criteria":{"language":"text/cql-identifier","expression":"SDE Ethnicity"}},{"id":"sde-payer","usage":[{"coding":[{"system":"http://terminology.hl7.org/CodeSystem/measure-data-usage","code":"supplemental-data"}]}],"description":"SDE Payer","criteria":{"language":"text/cql-identifier","expression":"SDE Payer"}},{"id":"sde-race","usage":[{"coding":[{"system":"http://terminology.hl7.org/CodeSystem/measure-data-usage","code":"supplemental-data"}]}],"description":"SDE Race","criteria":{"language":"text/cql-identifier","expression":"SDE Race"}},{"id":"sde-sex","usage":[{"coding":[{"system":"http://terminology.hl7.org/CodeSystem/measure-data-usage","code":"supplemental-data"}]}],"description":"SDE Sex","criteria":{"language":"text/cql-identifier","expression":"SDE Sex"}}]},"request":{"method":"PUT","url":"Measure/CMS871HHHyperFHIR"}}]}