{
  "resourceType": "Bundle",
  "id": "61095b0998086b53805591a5",
  "type": "transaction",
  "entry": [ {
    "fullUrl": "https://madie.cms.gov/Patient/736df249-2ed8-43a8-afa5-c177a12cea82",
    "resource": {
      "resourceType": "Patient",
      "id": "736df249-2ed8-43a8-afa5-c177a12cea82",
      "meta": {
        "profile": [ "http://hl7.org/fhir/us/qicore/StructureDefinition/qicore-patient" ]
      },
      "text": {
        "status": "generated",
        "div": "<div xmlns=\"http://www.w3.org/1999/xhtml\"><div class=\"hapiHeaderText\">Age@18 <b>DENOMPASS </b></div><table class=\"hapiPropertyTable\"><tbody><tr><td>Identifier</td><td>67f3e33acf17bcb386e754d726ed064ccd48ba21ff0ffb2eb678740a684398be</td></tr><tr><td>Date of birth</td><td><span>01 January 1994</span></td></tr></tbody></table></div>"
      },
      "extension": [ {
        "url": "http://hl7.org/fhir/us/core/StructureDefinition/us-core-race",
        "extension": [ {
          "url": "ombCategory",
          "valueCoding": {
            "system": "urn:oid:2.16.840.1.113883.6.238",
            "code": "1002-5",
            "display": "American Indian or Alaska Native",
            "userSelected": true
          }
        }, {
          "url": "text",
          "valueString": "American Indian or Alaska Native"
        } ]
      }, {
        "url": "http://hl7.org/fhir/us/core/StructureDefinition/us-core-ethnicity",
        "extension": [ {
          "url": "ombCategory",
          "valueCoding": {
            "system": "urn:oid:2.16.840.1.113883.6.238",
            "code": "2135-2",
            "display": "Hispanic or Latino",
            "userSelected": true
          }
        }, {
          "url": "text",
          "valueString": "Hispanic or Latino"
        } ]
      } ],
      "identifier": [ {
        "type": {
          "coding": [ {
            "system": "http://terminology.hl7.org/CodeSystem/v2-0203",
            "code": "MR"
          } ]
        },
        "system": "https://bonnie-fhir.healthit.gov/",
        "value": "61095b0998086b53805591a5"
      } ],
      "active": true,
      "name": [ {
        "use": "usual",
        "family": "DENEXPASS",
        "given": [ "HereditaryRetinalDystrophiesWithCatSurg" ]
      } ],
      "gender": "female",
      "birthDate": "1996-01-01"
    },
    "request": {
      "method": "PUT",
      "url": "Patient/736df249-2ed8-43a8-afa5-c177a12cea82"
    }
  }, {
    "fullUrl": "https://madie.cms.gov/Observation/a5fa3e6d-dd0e-443e-b1ed-8dc61ae3b553",
    "resource": {
      "resourceType": "Observation",
      "id": "a5fa3e6d-dd0e-443e-b1ed-8dc61ae3b553",
      "meta": {
        "profile": [ "http://hl7.org/fhir/us/qicore/StructureDefinition/qicore-observation-clinical-result" ]
      },
      "status": "final",
      "category": [ {
        "coding": [ {
          "system": "http://terminology.hl7.org/CodeSystem/observation-category",
          "code": "exam",
          "display": "exam"
        } ]
      } ],
      "code": {
        "coding": [ {
          "system": "http://snomed.info/sct",
          "code": "419775003"
        } ]
      },
      "subject": {
        "reference": "Patient/736df249-2ed8-43a8-afa5-c177a12cea82"
      },
      "effectivePeriod": {
        "start": "2026-03-13T09:00:00+00:00",
        "end": "2026-03-13T09:30:00+00:00"
      }
    },
    "request": {
      "method": "PUT",
      "url": "Observation/a5fa3e6d-dd0e-443e-b1ed-8dc61ae3b553"
    }
  }, {
    "fullUrl": "https://madie.cms.gov/Procedure/4a1c1c61-5ecb-478a-af29-75b68f9ea6a2",
    "resource": {
      "resourceType": "Procedure",
      "id": "4a1c1c61-5ecb-478a-af29-75b68f9ea6a2",
      "meta": {
        "profile": [ "http://hl7.org/fhir/us/qicore/StructureDefinition/qicore-procedure" ]
      },
      "extension": [ {
        "url": "http://hl7.org/fhir/us/qicore/StructureDefinition/qicore-recorded",
        "valueDateTime": "2026-03-05T09:35:00-04:00"
      } ],
      "status": "completed",
      "code": {
        "coding": [ {
          "system": "http://snomed.info/sct",
          "code": "84149000"
        } ]
      },
      "subject": {
        "reference": "Patient/736df249-2ed8-43a8-afa5-c177a12cea82"
      },
      "performedPeriod": {
        "start": "2026-03-05T09:20:00-04:00",
        "end": "2026-04-05T10:30:00-04:00"
      }
    },
    "request": {
      "method": "PUT",
      "url": "Procedure/4a1c1c61-5ecb-478a-af29-75b68f9ea6a2"
    }
  }, {
    "fullUrl": "https://madie.cms.gov/Condition/887efa78-43e2-40bc-b574-c324aac8cde8",
    "resource": {
      "resourceType": "Condition",
      "id": "887efa78-43e2-40bc-b574-c324aac8cde8",
      "meta": {
        "profile": [ "http://hl7.org/fhir/us/qicore/StructureDefinition/qicore-condition-problems-health-concerns" ]
      },
      "clinicalStatus": {
        "coding": [ {
          "system": "http://terminology.hl7.org/CodeSystem/condition-clinical",
          "code": "active",
          "display": "active",
          "userSelected": true
        } ]
      },
      "category": [ {
        "coding": [ {
          "system": "http://terminology.hl7.org/CodeSystem/condition-clinical",
          "code": "active",
          "display": "active",
          "userSelected": true
        } ]
      } ],
      "code": {
        "coding": [ {
          "system": "http://hl7.org/fhir/sid/icd-10-cm",
          "code": "H35.50",
          "userSelected": true
        }, {
          "system": "http://snomed.info/sct",
          "code": "15059000",
          "userSelected": true
        } ]
      },
      "subject": {
        "reference": "Patient/736df249-2ed8-43a8-afa5-c177a12cea82"
      },
      "onsetDateTime": "2024-11-01T08:00:00.000+00:00"
    },
    "request": {
      "method": "PUT",
      "url": "Condition/887efa78-43e2-40bc-b574-c324aac8cde8"
    }
  }, {
    "fullUrl": "https://madie.cms.gov/Coverage/cb6a5947-da75-45ac-ba50-bcdebbda92c4",
    "resource": {
      "resourceType": "Coverage",
      "id": "cb6a5947-da75-45ac-ba50-bcdebbda92c4",
      "meta": {
        "profile": [ "http://hl7.org/fhir/us/qicore/StructureDefinition/qicore-coverage" ]
      },
      "status": "active",
      "beneficiary": {
        "reference": "Patient/736df249-2ed8-43a8-afa5-c177a12cea82"
      },
      "payor": [ {
        "reference": "Organization/9d808a2e-0ed9-4adf-9215-94fd80ef340a"
      } ]
    },
    "request": {
      "method": "PUT",
      "url": "Coverage/cb6a5947-da75-45ac-ba50-bcdebbda92c4"
    }
  }, {
    "fullUrl": "https://madie.cms.gov/Organization/9d808a2e-0ed9-4adf-9215-94fd80ef340a",
    "resource": {
      "resourceType": "Organization",
      "id": "9d808a2e-0ed9-4adf-9215-94fd80ef340a",
      "meta": {
        "profile": [ "http://hl7.org/fhir/us/qicore/StructureDefinition/qicore-organization" ]
      },
      "identifier": [ {
        "use": "temp",
        "system": "urn:oid:2.16.840.1.113883.4.4",
        "value": "21-3259825"
      } ],
      "active": true,
      "type": [ {
        "coding": [ {
          "system": "http://terminology.hl7.org/CodeSystem/organization-type",
          "code": "pay",
          "display": "Payer"
        } ]
      } ],
      "name": "Blue Cross Blue Shield of Texas",
      "telecom": [ {
        "system": "phone",
        "value": "(+1) 972-766-6900"
      } ],
      "address": [ {
        "use": "billing",
        "type": "postal",
        "line": [ "P.O. Box 660044" ],
        "city": "Dallas",
        "state": "TX",
        "postalCode": "75266-0044",
        "country": "USA"
      } ]
    },
    "request": {
      "method": "PUT",
      "url": "Organization/9d808a2e-0ed9-4adf-9215-94fd80ef340a"
    }
  }, {
    "fullUrl": "https://madie.cms.gov/Practitioner/55afd2ff-025e-4d82-888f-9f6cd736c2bb",
    "resource": {
      "resourceType": "Practitioner",
      "id": "55afd2ff-025e-4d82-888f-9f6cd736c2bb",
      "meta": {
        "profile": [ "http://hl7.org/fhir/us/qicore/StructureDefinition/qicore-practitioner" ]
      },
      "identifier": [ {
        "system": "http://hl7.org/fhir/sid/us-npi",
        "value": "123456"
      } ],
      "name": [ {
        "family": "Evil",
        "prefix": [ "Dr" ]
      } ]
    },
    "request": {
      "method": "PUT",
      "url": "Practitioner/55afd2ff-025e-4d82-888f-9f6cd736c2bb"
    }
  }, {
    "fullUrl": "https://madie.cms.gov/MeasureReport/91ecb8b7-48e6-4b90-a06b-935baef5b658",
    "resource": {
      "resourceType": "MeasureReport",
      "id": "91ecb8b7-48e6-4b90-a06b-935baef5b658",
      "meta": {
        "profile": [ "http://hl7.org/fhir/us/cqfmeasures/StructureDefinition/test-case-cqfm" ]
      },
      "contained": [ {
        "resourceType": "Parameters",
        "id": "abf5fabc-cd93-47c4-b074-53afe4005586-parameters",
        "parameter": [ {
          "name": "subject",
          "valueString": "736df249-2ed8-43a8-afa5-c177a12cea82"
        } ]
      } ],
      "extension": [ {
        "url": "http://hl7.org/fhir/StructureDefinition/cqf-inputParameters",
        "valueReference": {
          "reference": "#abf5fabc-cd93-47c4-b074-53afe4005586-parameters"
        }
      }, {
        "url": "http://hl7.org/fhir/us/cqfmeasures/StructureDefinition/cqfm-testCaseDescription",
        "valueMarkdown": "Patient with Hereditary Retinal Dystrophiest with cataract surgery. "
      } ],
      "modifierExtension": [ {
        "url": "http://hl7.org/fhir/us/cqfmeasures/StructureDefinition/cqfm-isTestCase",
        "valueBoolean": true
      } ],
      "status": "complete",
      "type": "individual",
      "measure": "https://madie.cms.gov/Measure/CMS133FHIRCataracts2040BCVAwithin90Days",
      "period": {
        "start": "2026-01-01",
        "end": "2026-12-31"
      },
      "group": [ {
        "id": "Group_1",
        "population": [ {
          "id": "InitialPopulation_1",
          "code": {
            "coding": [ {
              "system": "http://terminology.hl7.org/CodeSystem/measure-population",
              "code": "initial-population",
              "display": "Initial Population"
            } ]
          },
          "count": 1
        }, {
          "id": "Denominator_1",
          "code": {
            "coding": [ {
              "system": "http://terminology.hl7.org/CodeSystem/measure-population",
              "code": "denominator",
              "display": "Denominator"
            } ]
          },
          "count": 1
        }, {
          "id": "DenominatorExclusion_1",
          "code": {
            "coding": [ {
              "system": "http://terminology.hl7.org/CodeSystem/measure-population",
              "code": "denominator-exclusion",
              "display": "Denominator Exclusion"
            } ]
          },
          "count": 1
        }, {
          "id": "Numerator_1",
          "code": {
            "coding": [ {
              "system": "http://terminology.hl7.org/CodeSystem/measure-population",
              "code": "numerator",
              "display": "Numerator"
            } ]
          },
          "count": 0
        } ],
        "measureScore": {
          "value": 0.0
        }
      } ],
      "evaluatedResource": [ {
        "reference": "Patient/736df249-2ed8-43a8-afa5-c177a12cea82"
      }, {
        "reference": "Observation/a5fa3e6d-dd0e-443e-b1ed-8dc61ae3b553"
      }, {
        "reference": "Procedure/4a1c1c61-5ecb-478a-af29-75b68f9ea6a2"
      }, {
        "reference": "Condition/887efa78-43e2-40bc-b574-c324aac8cde8"
      }, {
        "reference": "Coverage/cb6a5947-da75-45ac-ba50-bcdebbda92c4"
      }, {
        "reference": "Organization/9d808a2e-0ed9-4adf-9215-94fd80ef340a"
      }, {
        "reference": "Practitioner/55afd2ff-025e-4d82-888f-9f6cd736c2bb"
      } ]
    },
    "request": {
      "method": "PUT",
      "url": "MeasureReport/91ecb8b7-48e6-4b90-a06b-935baef5b658"
    }
  } ]
}