{
  "resourceType": "Bundle",
  "id": "612e6a7202c62a011f2ea1b5",
  "type": "transaction",
  "entry": [ {
    "fullUrl": "https://madie.cms.gov/Patient/d7f4c185-c735-4827-9ab8-b7f1f882f206",
    "resource": {
      "resourceType": "Patient",
      "id": "d7f4c185-c735-4827-9ab8-b7f1f882f206",
      "meta": {
        "profile": [ "http://hl7.org/fhir/us/qicore/StructureDefinition/qicore-patient" ]
      },
      "text": {
        "status": "generated",
        "div": "<div xmlns=\"http://www.w3.org/1999/xhtml\"><div class=\"hapiHeaderText\">PtRef_MA_LDUHep_IPEnc <b>NUMERPASS </b></div><table class=\"hapiPropertyTable\"><tbody><tr><td>Identifier</td><td>809833d2a174c1ec259d0188ba65e72e</td></tr><tr><td>Date of birth</td><td><span>02 January 1974</span></td></tr></tbody></table></div>"
      },
      "extension": [ {
        "url": "http://hl7.org/fhir/us/core/StructureDefinition/us-core-race",
        "extension": [ {
          "url": "ombCategory",
          "valueCoding": {
            "system": "urn:oid:2.16.840.1.113883.6.238",
            "code": "1002-5",
            "display": "American Indian or Alaska Native",
            "userSelected": true
          }
        }, {
          "url": "text",
          "valueString": "American Indian or Alaska Native"
        } ]
      }, {
        "url": "http://hl7.org/fhir/us/core/StructureDefinition/us-core-ethnicity",
        "extension": [ {
          "url": "ombCategory",
          "valueCoding": {
            "system": "urn:oid:2.16.840.1.113883.6.238",
            "code": "2135-2",
            "display": "Hispanic or Latino",
            "userSelected": true
          }
        }, {
          "url": "text",
          "valueString": "Hispanic or Latino"
        } ]
      } ],
      "identifier": [ {
        "type": {
          "coding": [ {
            "system": "http://terminology.hl7.org/CodeSystem/v2-0203",
            "code": "MR"
          } ]
        },
        "system": "https://bonnie-fhir.healthit.gov/",
        "value": "612e6a7202c62a011f2ea1b5"
      } ],
      "active": true,
      "name": [ {
        "use": "usual",
        "family": "NUMERPass",
        "given": [ "PtRefMALDUHepIPEnc" ]
      } ],
      "gender": "male",
      "birthDate": "1975-01-02"
    },
    "request": {
      "method": "PUT",
      "url": "Patient/d7f4c185-c735-4827-9ab8-b7f1f882f206"
    }
  }, {
    "fullUrl": "https://madie.cms.gov/Encounter/65595eb9-dc79-40e2-8a4a-9232eecfde1d",
    "resource": {
      "resourceType": "Encounter",
      "id": "65595eb9-dc79-40e2-8a4a-9232eecfde1d",
      "meta": {
        "profile": [ "http://hl7.org/fhir/us/qicore/StructureDefinition/qicore-encounter" ]
      },
      "status": "finished",
      "class": {
        "system": "http://terminology.hl7.org/CodeSystem/v3-ActCode",
        "code": "IMP",
        "display": "inpatient encounter"
      },
      "type": [ {
        "coding": [ {
          "system": "http://snomed.info/sct",
          "code": "8715000"
        } ]
      } ],
      "subject": {
        "reference": "Patient/d7f4c185-c735-4827-9ab8-b7f1f882f206"
      },
      "period": {
        "start": "2026-11-01T08:00:00.000+00:00",
        "end": "2026-11-26T08:15:00.000+00:00"
      },
      "length": {
        "value": 25,
        "unit": "days"
      }
    },
    "request": {
      "method": "PUT",
      "url": "Encounter/65595eb9-dc79-40e2-8a4a-9232eecfde1d"
    }
  }, {
    "fullUrl": "https://madie.cms.gov/Coverage/77f9eb9a-3021-441c-b17f-ff4b2b244dad",
    "resource": {
      "resourceType": "Coverage",
      "id": "77f9eb9a-3021-441c-b17f-ff4b2b244dad",
      "status": "active",
      "beneficiary": {
        "reference": "Patient/d7f4c185-c735-4827-9ab8-b7f1f882f206"
      },
      "period": {
        "start": "1975-01-02T08:00:00.000+00:00"
      },
      "payor": [ {
        "reference": "Organization/869f9c83-599a-4d83-a17d-f6299caafb1a"
      } ]
    },
    "request": {
      "method": "PUT",
      "url": "Coverage/77f9eb9a-3021-441c-b17f-ff4b2b244dad"
    }
  }, {
    "fullUrl": "https://madie.cms.gov/MedicationAdministration/3b1d094c-b98b-403c-a9bf-0d04130d3ad7",
    "resource": {
      "resourceType": "MedicationAdministration",
      "id": "3b1d094c-b98b-403c-a9bf-0d04130d3ad7",
      "meta": {
        "profile": [ "http://hl7.org/fhir/us/qicore/StructureDefinition/qicore-medicationadministrationnotdone" ]
      },
      "extension": [ {
        "url": "http://hl7.org/fhir/us/qicore/StructureDefinition/qicore-recorded",
        "valueDateTime": "2026-11-02T09:00:00.000+00:00"
      } ],
      "status": "not-done",
      "statusReason": [ {
        "coding": [ {
          "system": "http://snomed.info/sct",
          "code": "443390004",
          "display": "Refusal of treatment by patient (situation)"
        } ]
      } ],
      "medicationCodeableConcept": {
        "coding": [ {
          "system": "http://www.nlm.nih.gov/research/umls/rxnorm",
          "code": "1361574"
        } ]
      },
      "subject": {
        "reference": "Patient/d7f4c185-c735-4827-9ab8-b7f1f882f206"
      },
      "effectivePeriod": {
        "start": "2026-11-02T09:00:00.000+00:00"
      }
    },
    "request": {
      "method": "PUT",
      "url": "MedicationAdministration/3b1d094c-b98b-403c-a9bf-0d04130d3ad7"
    }
  }, {
    "fullUrl": "https://madie.cms.gov/Organization/869f9c83-599a-4d83-a17d-f6299caafb1a",
    "resource": {
      "resourceType": "Organization",
      "id": "869f9c83-599a-4d83-a17d-f6299caafb1a",
      "meta": {
        "profile": [ "http://hl7.org/fhir/us/qicore/StructureDefinition/qicore-organization" ]
      },
      "identifier": [ {
        "use": "temp",
        "system": "urn:oid:2.16.840.1.113883.4.4",
        "value": "21-3259825"
      } ],
      "active": true,
      "type": [ {
        "coding": [ {
          "system": "http://terminology.hl7.org/CodeSystem/organization-type",
          "code": "pay",
          "display": "Payer"
        } ]
      } ],
      "name": "Blue Cross Blue Shield of Texas",
      "telecom": [ {
        "system": "phone",
        "value": "(+1) 972-766-6900"
      } ],
      "address": [ {
        "use": "billing",
        "type": "postal",
        "line": [ "P.O. Box 660044" ],
        "city": "Dallas",
        "state": "TX",
        "postalCode": "75266-0044",
        "country": "USA"
      } ]
    },
    "request": {
      "method": "PUT",
      "url": "Organization/869f9c83-599a-4d83-a17d-f6299caafb1a"
    }
  }, {
    "fullUrl": "https://madie.cms.gov/Practitioner/0ef4a0d2-aea5-4923-a62a-c31fd3b6b80d",
    "resource": {
      "resourceType": "Practitioner",
      "id": "0ef4a0d2-aea5-4923-a62a-c31fd3b6b80d",
      "identifier": [ {
        "system": "http://hl7.org/fhir/sid/us-npi",
        "value": "123456"
      } ],
      "name": [ {
        "family": "Evil",
        "prefix": [ "Dr" ]
      } ]
    },
    "request": {
      "method": "PUT",
      "url": "Practitioner/0ef4a0d2-aea5-4923-a62a-c31fd3b6b80d"
    }
  }, {
    "fullUrl": "https://madie.cms.gov/MeasureReport/096e9e5a-96fe-4697-bd90-86456d71563d",
    "resource": {
      "resourceType": "MeasureReport",
      "id": "096e9e5a-96fe-4697-bd90-86456d71563d",
      "meta": {
        "profile": [ "http://hl7.org/fhir/us/cqfmeasures/StructureDefinition/test-case-cqfm" ]
      },
      "contained": [ {
        "resourceType": "Parameters",
        "id": "f0e081f0-843a-4f44-b391-a2fcc7798d5d-parameters",
        "parameter": [ {
          "name": "subject",
          "valueString": "d7f4c185-c735-4827-9ab8-b7f1f882f206"
        } ]
      } ],
      "extension": [ {
        "url": "http://hl7.org/fhir/StructureDefinition/cqf-inputParameters",
        "valueReference": {
          "reference": "#f0e081f0-843a-4f44-b391-a2fcc7798d5d-parameters"
        }
      }, {
        "url": "http://hl7.org/fhir/us/cqfmeasures/StructureDefinition/cqfm-testCaseDescription",
        "valueMarkdown": "unfractionated heparin not given due to patient refusal <= 1 day after start of IP encounter\n"
      } ],
      "modifierExtension": [ {
        "url": "http://hl7.org/fhir/us/cqfmeasures/StructureDefinition/cqfm-isTestCase",
        "valueBoolean": true
      } ],
      "status": "complete",
      "type": "individual",
      "measure": "https://madie.cms.gov/Measure/CMS108FHIRVTEProphylaxis",
      "period": {
        "start": "2026-01-01",
        "end": "2026-12-31"
      },
      "group": [ {
        "id": "Group_1",
        "population": [ {
          "id": "InitialPopulation_1",
          "code": {
            "coding": [ {
              "system": "http://terminology.hl7.org/CodeSystem/measure-population",
              "code": "initial-population",
              "display": "Initial Population"
            } ]
          },
          "count": 1
        }, {
          "id": "Denominator_1",
          "code": {
            "coding": [ {
              "system": "http://terminology.hl7.org/CodeSystem/measure-population",
              "code": "denominator",
              "display": "Denominator"
            } ]
          },
          "count": 1
        }, {
          "id": "DenominatorExclusion_1",
          "code": {
            "coding": [ {
              "system": "http://terminology.hl7.org/CodeSystem/measure-population",
              "code": "denominator-exclusion",
              "display": "Denominator Exclusion"
            } ]
          },
          "count": 0
        }, {
          "id": "Numerator_1",
          "code": {
            "coding": [ {
              "system": "http://terminology.hl7.org/CodeSystem/measure-population",
              "code": "numerator",
              "display": "Numerator"
            } ]
          },
          "count": 1
        } ],
        "measureScore": {
          "value": 0.0
        }
      } ],
      "evaluatedResource": [ {
        "reference": "Patient/d7f4c185-c735-4827-9ab8-b7f1f882f206"
      }, {
        "reference": "Encounter/65595eb9-dc79-40e2-8a4a-9232eecfde1d"
      }, {
        "reference": "Coverage/77f9eb9a-3021-441c-b17f-ff4b2b244dad"
      }, {
        "reference": "MedicationAdministration/3b1d094c-b98b-403c-a9bf-0d04130d3ad7"
      }, {
        "reference": "Organization/869f9c83-599a-4d83-a17d-f6299caafb1a"
      }, {
        "reference": "Practitioner/0ef4a0d2-aea5-4923-a62a-c31fd3b6b80d"
      } ]
    },
    "request": {
      "method": "PUT",
      "url": "MeasureReport/096e9e5a-96fe-4697-bd90-86456d71563d"
    }
  } ]
}