{
  "resourceType": "Bundle",
  "id": "Patient-9-DENEXPass-FrailtyDeviceRequestNoPerformedModExt",
  "type": "transaction",
  "entry": [ {
    "fullUrl": "https://madie.cms.gov/Patient/7e69124d-ff34-4daf-b626-08d1283f71ba",
    "resource": {
      "resourceType": "Patient",
      "id": "7e69124d-ff34-4daf-b626-08d1283f71ba",
      "meta": {
        "profile": [ "http://hl7.org/fhir/us/qicore/StructureDefinition/qicore-patient" ]
      },
      "extension": [ {
        "url": "http://hl7.org/fhir/us/core/StructureDefinition/us-core-race",
        "extension": [ {
          "url": "ombCategory",
          "valueCoding": {
            "system": "urn:oid:2.16.840.1.113883.6.238",
            "code": "2028-9",
            "display": "Asian"
          }
        }, {
          "url": "text",
          "valueString": "Asian"
        } ]
      }, {
        "url": "http://hl7.org/fhir/us/core/StructureDefinition/us-core-ethnicity",
        "extension": [ {
          "url": "ombCategory",
          "valueCoding": {
            "system": "urn:oid:2.16.840.1.113883.6.238",
            "code": "2135-2",
            "display": "Hispanic or Latino"
          }
        }, {
          "url": "text",
          "valueString": "Hispanic or Latino"
        } ]
      } ],
      "identifier": [ {
        "system": "http://hospital.smarthealthit.org",
        "value": "999999995"
      } ],
      "name": [ {
        "family": "Bertha",
        "given": [ "Betty" ]
      } ],
      "gender": "female",
      "birthDate": "1958-12-31"
    },
    "request": {
      "method": "PUT",
      "url": "Patient/7e69124d-ff34-4daf-b626-08d1283f71ba"
    }
  }, {
    "fullUrl": "https://madie.cms.gov/Encounter/bd28c358-0eb7-4785-8eb4-24439a546266",
    "resource": {
      "resourceType": "Encounter",
      "id": "bd28c358-0eb7-4785-8eb4-24439a546266",
      "meta": {
        "profile": [ "http://hl7.org/fhir/us/qicore/StructureDefinition/qicore-encounter" ]
      },
      "status": "finished",
      "class": {
        "system": "http://terminology.hl7.org/CodeSystem/v3-ActCode",
        "code": "AMB",
        "display": "ambulatory"
      },
      "type": [ {
        "coding": [ {
          "system": "http://snomed.info/sct",
          "code": "185460008",
          "display": "Home visit request by patient (procedure)"
        } ]
      } ],
      "subject": {
        "reference": "Patient/7e69124d-ff34-4daf-b626-08d1283f71ba"
      },
      "period": {
        "start": "2026-01-01T00:00:00.000+00:00",
        "end": "2026-01-01T00:15:00.000+00:00"
      }
    },
    "request": {
      "method": "PUT",
      "url": "Encounter/bd28c358-0eb7-4785-8eb4-24439a546266"
    }
  }, {
    "fullUrl": "https://madie.cms.gov/Condition/ca6c570f-b76c-4261-8375-5c8df0851898",
    "resource": {
      "resourceType": "Condition",
      "id": "ca6c570f-b76c-4261-8375-5c8df0851898",
      "meta": {
        "profile": [ "http://hl7.org/fhir/us/qicore/StructureDefinition/qicore-condition-encounter-diagnosis" ]
      },
      "clinicalStatus": {
        "coding": [ {
          "system": "http://terminology.hl7.org/CodeSystem/condition-clinical",
          "code": "active"
        } ]
      },
      "category": [ {
        "coding": [ {
          "system": "http://terminology.hl7.org/CodeSystem/condition-category",
          "code": "encounter-diagnosis",
          "display": "Encounter Diagnosis"
        } ]
      } ],
      "code": {
        "coding": [ {
          "system": "http://snomed.info/sct",
          "code": "102781000119107",
          "display": "Sensory neuropathy due to type 1 diabetes mellitus (disorder)"
        } ]
      },
      "subject": {
        "reference": "Patient/7e69124d-ff34-4daf-b626-08d1283f71ba"
      },
      "onsetDateTime": "2026-01-01T23:59:00.000+00:00"
    },
    "request": {
      "method": "PUT",
      "url": "Condition/ca6c570f-b76c-4261-8375-5c8df0851898"
    }
  }, {
    "fullUrl": "https://madie.cms.gov/Condition/6b3e2790-9326-48d3-a349-9999ea25ff83",
    "resource": {
      "resourceType": "Condition",
      "id": "6b3e2790-9326-48d3-a349-9999ea25ff83",
      "meta": {
        "profile": [ "http://hl7.org/fhir/us/qicore/StructureDefinition/qicore-condition-encounter-diagnosis" ]
      },
      "clinicalStatus": {
        "coding": [ {
          "system": "http://terminology.hl7.org/CodeSystem/condition-clinical",
          "code": "active"
        } ]
      },
      "category": [ {
        "coding": [ {
          "system": "http://terminology.hl7.org/CodeSystem/condition-category",
          "code": "encounter-diagnosis",
          "display": "Encounter Diagnosis"
        } ]
      } ],
      "code": {
        "coding": [ {
          "system": "http://snomed.info/sct",
          "code": "101421000119107",
          "display": "Dementia due to Parkinson's disease (disorder)"
        } ]
      },
      "subject": {
        "reference": "Patient/7e69124d-ff34-4daf-b626-08d1283f71ba"
      },
      "onsetDateTime": "2025-12-31T23:59:00.000+00:00"
    },
    "request": {
      "method": "PUT",
      "url": "Condition/6b3e2790-9326-48d3-a349-9999ea25ff83"
    }
  }, {
    "fullUrl": "https://madie.cms.gov/Encounter/5dba2670-27fb-4df4-8e60-f0aa3febaf41",
    "resource": {
      "resourceType": "Encounter",
      "id": "5dba2670-27fb-4df4-8e60-f0aa3febaf41",
      "meta": {
        "profile": [ "http://hl7.org/fhir/us/qicore/StructureDefinition/qicore-encounter" ]
      },
      "status": "finished",
      "class": {
        "system": "http://terminology.hl7.org/CodeSystem/v3-ActCode",
        "code": "AMB",
        "display": "ambulatory"
      },
      "type": [ {
        "coding": [ {
          "system": "http://snomed.info/sct",
          "code": "4525004",
          "display": "Emergency department patient visit (procedure)"
        } ]
      } ],
      "subject": {
        "reference": "Patient/7e69124d-ff34-4daf-b626-08d1283f71ba"
      },
      "period": {
        "start": "2025-12-31T00:00:00.000+00:00",
        "end": "2026-01-01T01:00:00.000+00:00"
      },
      "diagnosis": [ {
        "condition": {
          "reference": "Condition/6b3e2790-9326-48d3-a349-9999ea25ff83"
        }
      } ]
    },
    "request": {
      "method": "PUT",
      "url": "Encounter/5dba2670-27fb-4df4-8e60-f0aa3febaf41"
    }
  }, {
    "fullUrl": "https://madie.cms.gov/Encounter/f9ab8fa2-9e04-4b85-961f-8b5ea76074f0",
    "resource": {
      "resourceType": "Encounter",
      "id": "f9ab8fa2-9e04-4b85-961f-8b5ea76074f0",
      "meta": {
        "profile": [ "http://hl7.org/fhir/us/qicore/StructureDefinition/qicore-encounter" ]
      },
      "status": "finished",
      "class": {
        "system": "http://terminology.hl7.org/CodeSystem/v3-ActCode",
        "code": "AMB",
        "display": "ambulatory"
      },
      "type": [ {
        "coding": [ {
          "system": "http://snomed.info/sct",
          "code": "4525004",
          "display": "Emergency department patient visit (procedure)"
        } ]
      } ],
      "subject": {
        "reference": "Patient/7e69124d-ff34-4daf-b626-08d1283f71ba"
      },
      "period": {
        "start": "2026-05-01T00:00:00.000+00:00",
        "end": "2026-05-01T01:00:00.000+00:00"
      },
      "diagnosis": [ {
        "condition": {
          "reference": "Condition/6b3e2790-9326-48d3-a349-9999ea25ff83"
        }
      } ]
    },
    "request": {
      "method": "PUT",
      "url": "Encounter/f9ab8fa2-9e04-4b85-961f-8b5ea76074f0"
    }
  }, {
    "fullUrl": "https://madie.cms.gov/DeviceRequest/39d5bbb1-29bc-44ad-9d7d-57977b1e051a",
    "resource": {
      "resourceType": "DeviceRequest",
      "id": "39d5bbb1-29bc-44ad-9d7d-57977b1e051a",
      "meta": {
        "profile": [ "http://hl7.org/fhir/us/qicore/StructureDefinition/qicore-devicerequest" ]
      },
      "status": "completed",
      "intent": "order",
      "codeCodeableConcept": {
        "coding": [ {
          "system": "http://snomed.info/sct",
          "code": "183240000",
          "display": "Self-propelled wheelchair (physical object)"
        } ]
      },
      "subject": {
        "reference": "Patient/7e69124d-ff34-4daf-b626-08d1283f71ba"
      },
      "authoredOn": "2026-11-01T23:59:00.000+00:00"
    },
    "request": {
      "method": "PUT",
      "url": "DeviceRequest/39d5bbb1-29bc-44ad-9d7d-57977b1e051a"
    }
  }, {
    "fullUrl": "https://madie.cms.gov/MeasureReport/ee01357e-04f3-4008-b237-fd4cfb903aea",
    "resource": {
      "resourceType": "MeasureReport",
      "id": "ee01357e-04f3-4008-b237-fd4cfb903aea",
      "meta": {
        "profile": [ "http://hl7.org/fhir/us/cqfmeasures/StructureDefinition/test-case-cqfm" ]
      },
      "contained": [ {
        "resourceType": "Parameters",
        "id": "ec2e11fd-b60b-466e-ad58-d903fd3681dd-parameters",
        "parameter": [ {
          "name": "subject",
          "valueString": "7e69124d-ff34-4daf-b626-08d1283f71ba"
        } ]
      } ],
      "extension": [ {
        "url": "http://hl7.org/fhir/StructureDefinition/cqf-inputParameters",
        "valueReference": {
          "reference": "#ec2e11fd-b60b-466e-ad58-d903fd3681dd-parameters"
        }
      }, {
        "url": "http://hl7.org/fhir/us/cqfmeasures/StructureDefinition/cqfm-testCaseDescription",
        "valueMarkdown": "Frailty device request and mod ext not performed"
      } ],
      "modifierExtension": [ {
        "url": "http://hl7.org/fhir/us/cqfmeasures/StructureDefinition/cqfm-isTestCase",
        "valueBoolean": true
      } ],
      "status": "complete",
      "type": "individual",
      "measure": "https://madie.cms.gov/Measure/CMS122FHIRDiabetesAssessGreaterThan9Percent",
      "period": {
        "start": "2026-01-01",
        "end": "2026-12-31"
      },
      "group": [ {
        "id": "Group_1",
        "population": [ {
          "id": "InitialPopulation_1",
          "code": {
            "coding": [ {
              "system": "http://terminology.hl7.org/CodeSystem/measure-population",
              "code": "initial-population",
              "display": "Initial Population"
            } ]
          },
          "count": 1
        }, {
          "id": "Denominator_1",
          "code": {
            "coding": [ {
              "system": "http://terminology.hl7.org/CodeSystem/measure-population",
              "code": "denominator",
              "display": "Denominator"
            } ]
          },
          "count": 1
        }, {
          "id": "DenominatorExclusion_1",
          "code": {
            "coding": [ {
              "system": "http://terminology.hl7.org/CodeSystem/measure-population",
              "code": "denominator-exclusion",
              "display": "Denominator Exclusion"
            } ]
          },
          "count": 1
        }, {
          "id": "Numerator_1",
          "code": {
            "coding": [ {
              "system": "http://terminology.hl7.org/CodeSystem/measure-population",
              "code": "numerator",
              "display": "Numerator"
            } ]
          },
          "count": 0
        } ],
        "measureScore": {
          "value": 1.0
        }
      } ],
      "evaluatedResource": [ {
        "reference": "Patient/7e69124d-ff34-4daf-b626-08d1283f71ba"
      }, {
        "reference": "Encounter/bd28c358-0eb7-4785-8eb4-24439a546266"
      }, {
        "reference": "Condition/ca6c570f-b76c-4261-8375-5c8df0851898"
      }, {
        "reference": "Condition/6b3e2790-9326-48d3-a349-9999ea25ff83"
      }, {
        "reference": "Encounter/5dba2670-27fb-4df4-8e60-f0aa3febaf41"
      }, {
        "reference": "Encounter/f9ab8fa2-9e04-4b85-961f-8b5ea76074f0"
      }, {
        "reference": "DeviceRequest/39d5bbb1-29bc-44ad-9d7d-57977b1e051a"
      } ]
    },
    "request": {
      "method": "PUT",
      "url": "MeasureReport/ee01357e-04f3-4008-b237-fd4cfb903aea"
    }
  } ]
}