{
  "resourceType": "Bundle",
  "id": "633b3f9f0968f80122503ce7",
  "type": "transaction",
  "entry": [ {
    "fullUrl": "https://madie.cms.gov/Patient/a3a2f4a5-849f-4ecb-9e20-2b6c65eb1fab",
    "resource": {
      "resourceType": "Patient",
      "id": "a3a2f4a5-849f-4ecb-9e20-2b6c65eb1fab",
      "meta": {
        "profile": [ "http://hl7.org/fhir/us/qicore/StructureDefinition/qicore-patient" ]
      },
      "text": {
        "status": "generated",
        "div": "<div xmlns=\"http://www.w3.org/1999/xhtml\"><div class=\"hapiHeaderText\">DelProcMissing<b>IPFAIL</b></div><table class=\"hapiPropertyTable\"><tbody><tr><td>Date of birth</td><td><span>31 January 2004</span></td></tr></tbody></table></div>"
      },
      "extension": [ {
        "url": "http://hl7.org/fhir/us/core/StructureDefinition/us-core-race",
        "extension": [ {
          "url": "ombCategory",
          "valueCoding": {
            "system": "urn:oid:2.16.840.1.113883.6.238",
            "code": "1002-5",
            "display": "American Indian or Alaska Native",
            "userSelected": true
          }
        }, {
          "url": "text",
          "valueString": "American Indian or Alaska Native"
        } ]
      }, {
        "url": "http://hl7.org/fhir/us/core/StructureDefinition/us-core-ethnicity",
        "extension": [ {
          "url": "ombCategory",
          "valueCoding": {
            "system": "urn:oid:2.16.840.1.113883.6.238",
            "code": "2135-2",
            "display": "Hispanic or Latino",
            "userSelected": true
          }
        }, {
          "url": "text",
          "valueString": "Hispanic or Latino"
        } ]
      } ],
      "identifier": [ {
        "type": {
          "coding": [ {
            "system": "http://terminology.hl7.org/CodeSystem/v2-0203",
            "code": "MR"
          } ]
        },
        "system": "https://bonnie-fhir.healthit.gov/",
        "value": "633b3f9f0968f80122503ce7"
      } ],
      "active": true,
      "name": [ {
        "use": "usual",
        "family": "IPFail",
        "given": [ "DelProcMissing" ]
      } ],
      "gender": "female",
      "birthDate": "2005-01-31"
    },
    "request": {
      "method": "PUT",
      "url": "Patient/a3a2f4a5-849f-4ecb-9e20-2b6c65eb1fab"
    }
  }, {
    "fullUrl": "https://madie.cms.gov/Encounter/68666803-8a49-4429-8c48-cd6f6bdf38b8",
    "resource": {
      "resourceType": "Encounter",
      "id": "68666803-8a49-4429-8c48-cd6f6bdf38b8",
      "meta": {
        "profile": [ "http://hl7.org/fhir/us/qicore/StructureDefinition/qicore-encounter" ]
      },
      "status": "finished",
      "class": {
        "system": "http://terminology.hl7.org/CodeSystem/v3-ActCode",
        "code": "IMP",
        "display": "inpatient encounter"
      },
      "type": [ {
        "coding": [ {
          "system": "http://snomed.info/sct",
          "code": "183452005"
        } ]
      } ],
      "subject": {
        "reference": "Patient/a3a2f4a5-849f-4ecb-9e20-2b6c65eb1fab"
      },
      "period": {
        "start": "2026-02-01T08:00:00Z",
        "end": "2026-02-05T08:15:00.000+00:00"
      }
    },
    "request": {
      "method": "PUT",
      "url": "Encounter/68666803-8a49-4429-8c48-cd6f6bdf38b8"
    }
  }, {
    "fullUrl": "https://madie.cms.gov/Coverage/f20233b3-505d-4b0c-b983-9f2589fcd84b",
    "resource": {
      "resourceType": "Coverage",
      "id": "f20233b3-505d-4b0c-b983-9f2589fcd84b",
      "meta": {
        "profile": [ "http://hl7.org/fhir/us/qicore/StructureDefinition/qicore-coverage" ]
      },
      "status": "active",
      "beneficiary": {
        "reference": "Patient/a3a2f4a5-849f-4ecb-9e20-2b6c65eb1fab"
      },
      "payor": [ {
        "reference": "Organization/945f683e-d83c-4ec0-8c22-268232c53d5c"
      } ]
    },
    "request": {
      "method": "PUT",
      "url": "Coverage/f20233b3-505d-4b0c-b983-9f2589fcd84b"
    }
  }, {
    "fullUrl": "https://madie.cms.gov/Organization/945f683e-d83c-4ec0-8c22-268232c53d5c",
    "resource": {
      "resourceType": "Organization",
      "id": "945f683e-d83c-4ec0-8c22-268232c53d5c",
      "meta": {
        "profile": [ "http://hl7.org/fhir/us/qicore/StructureDefinition/qicore-organization" ]
      },
      "identifier": [ {
        "use": "temp",
        "system": "urn:oid:2.16.840.1.113883.4.4",
        "value": "21-3259825"
      } ],
      "active": true,
      "type": [ {
        "coding": [ {
          "system": "http://terminology.hl7.org/CodeSystem/organization-type",
          "code": "pay",
          "display": "Payer"
        } ]
      } ],
      "name": "Blue Cross Blue Shield of Texas",
      "telecom": [ {
        "system": "phone",
        "value": "(+1) 972-766-6900"
      } ],
      "address": [ {
        "use": "billing",
        "type": "postal",
        "line": [ "P.O. Box 660044" ],
        "city": "Dallas",
        "state": "TX",
        "postalCode": "75266-0044",
        "country": "USA"
      } ]
    },
    "request": {
      "method": "PUT",
      "url": "Organization/945f683e-d83c-4ec0-8c22-268232c53d5c"
    }
  }, {
    "fullUrl": "https://madie.cms.gov/Practitioner/2a9c2f6e-39d3-429a-852c-bc9f3fd4c14e",
    "resource": {
      "resourceType": "Practitioner",
      "id": "2a9c2f6e-39d3-429a-852c-bc9f3fd4c14e",
      "identifier": [ {
        "system": "http://hl7.org/fhir/sid/us-npi",
        "value": "123456"
      } ],
      "name": [ {
        "family": "Evil",
        "prefix": [ "Dr" ]
      } ]
    },
    "request": {
      "method": "PUT",
      "url": "Practitioner/2a9c2f6e-39d3-429a-852c-bc9f3fd4c14e"
    }
  }, {
    "fullUrl": "https://madie.cms.gov/MeasureReport/a70d931d-73a3-4dce-8a87-42adbe024799",
    "resource": {
      "resourceType": "MeasureReport",
      "id": "a70d931d-73a3-4dce-8a87-42adbe024799",
      "meta": {
        "profile": [ "http://hl7.org/fhir/us/cqfmeasures/StructureDefinition/test-case-cqfm" ]
      },
      "contained": [ {
        "resourceType": "Parameters",
        "id": "f2e6b9a2-dd2e-4bd9-b282-15ec210712e9-parameters",
        "parameter": [ {
          "name": "subject",
          "valueString": "a3a2f4a5-849f-4ecb-9e20-2b6c65eb1fab"
        } ]
      } ],
      "extension": [ {
        "url": "http://hl7.org/fhir/StructureDefinition/cqf-inputParameters",
        "valueReference": {
          "reference": "#f2e6b9a2-dd2e-4bd9-b282-15ec210712e9-parameters"
        }
      }, {
        "url": "http://hl7.org/fhir/us/cqfmeasures/StructureDefinition/cqfm-testCaseDescription",
        "valueMarkdown": "Patient is 8 years of age on day before encounter starts.  No delivery procedure\n"
      } ],
      "modifierExtension": [ {
        "url": "http://hl7.org/fhir/us/cqfmeasures/StructureDefinition/cqfm-isTestCase",
        "valueBoolean": true
      } ],
      "status": "complete",
      "type": "individual",
      "measure": "https://madie.cms.gov/Measure/CMS1028FHIRPCSevereOBComps",
      "period": {
        "start": "2026-01-01",
        "end": "2026-12-31"
      },
      "group": [ {
        "id": "Group_1",
        "population": [ {
          "id": "InitialPopulation_1",
          "code": {
            "coding": [ {
              "system": "http://terminology.hl7.org/CodeSystem/measure-population",
              "code": "initial-population",
              "display": "Initial Population"
            } ]
          },
          "count": 0
        }, {
          "id": "Denominator_1",
          "code": {
            "coding": [ {
              "system": "http://terminology.hl7.org/CodeSystem/measure-population",
              "code": "denominator",
              "display": "Denominator"
            } ]
          },
          "count": 0
        }, {
          "id": "Numerator_1",
          "code": {
            "coding": [ {
              "system": "http://terminology.hl7.org/CodeSystem/measure-population",
              "code": "numerator",
              "display": "Numerator"
            } ]
          },
          "count": 0
        }, {
          "id": "NumeratorExclusion_1",
          "code": {
            "coding": [ {
              "system": "http://terminology.hl7.org/CodeSystem/measure-population",
              "code": "numerator-exclusion",
              "display": "Numerator Exclusion"
            } ]
          },
          "count": 0
        } ],
        "measureScore": {
          "value": 0.0
        }
      }, {
        "id": "Group_2",
        "population": [ {
          "id": "InitialPopulation_2",
          "code": {
            "coding": [ {
              "system": "http://terminology.hl7.org/CodeSystem/measure-population",
              "code": "initial-population",
              "display": "Initial Population"
            } ]
          },
          "count": 0
        }, {
          "id": "Denominator_2",
          "code": {
            "coding": [ {
              "system": "http://terminology.hl7.org/CodeSystem/measure-population",
              "code": "denominator",
              "display": "Denominator"
            } ]
          },
          "count": 0
        }, {
          "id": "Numerator_2",
          "code": {
            "coding": [ {
              "system": "http://terminology.hl7.org/CodeSystem/measure-population",
              "code": "numerator",
              "display": "Numerator"
            } ]
          },
          "count": 0
        }, {
          "id": "NumeratorExclusion_2",
          "code": {
            "coding": [ {
              "system": "http://terminology.hl7.org/CodeSystem/measure-population",
              "code": "numerator-exclusion",
              "display": "Numerator Exclusion"
            } ]
          },
          "count": 0
        } ],
        "measureScore": {
          "value": 0.0
        }
      } ],
      "evaluatedResource": [ {
        "reference": "Patient/a3a2f4a5-849f-4ecb-9e20-2b6c65eb1fab"
      }, {
        "reference": "Encounter/68666803-8a49-4429-8c48-cd6f6bdf38b8"
      }, {
        "reference": "Coverage/f20233b3-505d-4b0c-b983-9f2589fcd84b"
      }, {
        "reference": "Organization/945f683e-d83c-4ec0-8c22-268232c53d5c"
      }, {
        "reference": "Practitioner/2a9c2f6e-39d3-429a-852c-bc9f3fd4c14e"
      } ]
    },
    "request": {
      "method": "PUT",
      "url": "MeasureReport/a70d931d-73a3-4dce-8a87-42adbe024799"
    }
  } ]
}