{"resourceType":"Bundle","id":"tests-02d5c5f5-9487-42af-bb5e-dfc3aaeb70eb-bundle","type":"transaction","entry":[{"fullUrl":"MeasureReport/b89135b7-8b8c-483c-b679-3b4b3362b313","resource":{"resourceType":"MeasureReport","id":"b89135b7-8b8c-483c-b679-3b4b3362b313","meta":{"profile":["http://hl7.org/fhir/us/cqfmeasures/StructureDefinition/test-case-cqfm"]},"contained":[{"resourceType":"Parameters","id":"17b21198-e9bc-4665-9467-e77598408aea-parameters","parameter":[{"name":"subject","valueString":"02d5c5f5-9487-42af-bb5e-dfc3aaeb70eb"}]}],"extension":[{"url":"http://hl7.org/fhir/StructureDefinition/cqf-inputParameters","valueReference":{"reference":"#17b21198-e9bc-4665-9467-e77598408aea-parameters"}},{"url":"http://hl7.org/fhir/us/cqfmeasures/StructureDefinition/cqfm-testCaseDescription","valueMarkdown":"RVariable Encounter With Diuretics Order At Admission"}],"modifierExtension":[{"url":"http://hl7.org/fhir/us/cqfmeasures/StructureDefinition/cqfm-isTestCase","valueBoolean":true}],"status":"complete","type":"individual","measure":"https://madie.cms.gov/Measure/CMS1017FHIRHHFI","period":{"start":"2026-01-01","end":"2026-12-31"},"group":[{"id":"Group_1","population":[{"id":"InitialPopulation_1","code":{"coding":[{"system":"http://terminology.hl7.org/CodeSystem/measure-population","code":"initial-population","display":"Initial Population"}]},"count":1},{"id":"Denominator_1","code":{"coding":[{"system":"http://terminology.hl7.org/CodeSystem/measure-population","code":"denominator","display":"Denominator"}]},"count":1},{"id":"DenominatorExclusion_1","code":{"coding":[{"system":"http://terminology.hl7.org/CodeSystem/measure-population","code":"denominator-exclusion","display":"Denominator Exclusion"}]},"count":0},{"id":"Numerator_1","code":{"coding":[{"system":"http://terminology.hl7.org/CodeSystem/measure-population","code":"numerator","display":"Numerator"}]},"count":1},{"id":"NumeratorExclusion_1","code":{"coding":[{"system":"http://terminology.hl7.org/CodeSystem/measure-population","code":"numerator-exclusion","display":"Numerator Exclusion"}]},"count":0},{"id":"MeasureObservation_1_1_1","code":{"coding":[{"system":"http://terminology.hl7.org/CodeSystem/measure-population","code":"measure-observation","display":"Measure Observation"}]},"count":12},{"id":"MeasureObservation_1_2_1","code":{"coding":[{"system":"http://terminology.hl7.org/CodeSystem/measure-population","code":"measure-observation","display":"Measure Observation"}]},"count":1}],"measureScore":{"value":0.0}}],"evaluatedResource":[{"reference":"Encounter/ef488622-d61b-4baf-adb6-8c506aaa93f3"},{"reference":"Encounter/d9f49268-035e-4631-87c6-8f4a3be2646e"},{"reference":"Patient/02d5c5f5-9487-42af-bb5e-dfc3aaeb70eb"},{"reference":"Claim/145c09c1-1187-490e-89d2-79889bc7d8fe"},{"reference":"Claim/87463ce4-a907-46cf-be08-0e960869441a"},{"reference":"MedicationRequest/82a2a098-9762-45e0-9e8d-77131f6dbcff"},{"reference":"Observation/a78fb34a-a712-4837-9879-2bfdb0f6ab80"}]},"request":{"method":"PUT","url":"MeasureReport/b89135b7-8b8c-483c-b679-3b4b3362b313"}},{"fullUrl":"Encounter/d9f49268-035e-4631-87c6-8f4a3be2646e","resource":{"resourceType":"Encounter","id":"d9f49268-035e-4631-87c6-8f4a3be2646e","meta":{"profile":["http://hl7.org/fhir/us/qicore/StructureDefinition/qicore-encounter"]},"status":"finished","class":{"system":"http://terminology.hl7.org/CodeSystem/v3-ActCode","code":"EMER","display":"emergency encounter"},"type":[{"coding":[{"system":"http://snomed.info/sct","code":"4525004","display":"Emergency Department Visit"}]}],"subject":{"reference":"Patient/02d5c5f5-9487-42af-bb5e-dfc3aaeb70eb"},"period":{"start":"2026-10-18T09:15:00.000+00:00","end":"2026-10-19T08:15:00.000+00:00"}},"request":{"method":"PUT","url":"Encounter/d9f49268-035e-4631-87c6-8f4a3be2646e"}},{"fullUrl":"MedicationRequest/82a2a098-9762-45e0-9e8d-77131f6dbcff","resource":{"resourceType":"MedicationRequest","id":"82a2a098-9762-45e0-9e8d-77131f6dbcff","meta":{"profile":["http://hl7.org/fhir/us/qicore/StructureDefinition/qicore-medicationrequest"]},"status":"active","intent":"order","category":[{"coding":[{"system":"http://terminology.hl7.org/CodeSystem/medicationrequest-category","code":"community","display":"Community"}]}],"medicationCodeableConcept":{"coding":[{"system":"http://www.nlm.nih.gov/research/umls/rxnorm","code":"1251903"}]},"subject":{"reference":"Patient/02d5c5f5-9487-42af-bb5e-dfc3aaeb70eb"},"authoredOn":"2026-10-15","dispenseRequest":{"quantity":{"value":14,"unit":"tablet","system":"http://unitsofmeasure.org","code":"{tablet}"},"expectedSupplyDuration":{"value":14,"unit":"days","system":"http://unitsofmeasure.org","code":"d"}}},"request":{"method":"PUT","url":"MedicationRequest/82a2a098-9762-45e0-9e8d-77131f6dbcff"}},{"fullUrl":"Observation/a78fb34a-a712-4837-9879-2bfdb0f6ab80","resource":{"resourceType":"Observation","id":"a78fb34a-a712-4837-9879-2bfdb0f6ab80","meta":{"profile":["http://hl7.org/fhir/us/core/StructureDefinition/us-core-bmi"]},"status":"final","category":[{"coding":[{"system":"http://terminology.hl7.org/CodeSystem/observation-category","code":"vital-signs","display":"Vital Signs"}]}],"code":{"coding":[{"system":"http://loinc.org","code":"39156-5","display":"Body mass index (BMI) [Ratio]"}],"text":"BMI"},"subject":{"reference":"Patient/02d5c5f5-9487-42af-bb5e-dfc3aaeb70eb"},"effectiveDateTime":"2026-10-20T08:00:00.000+00:00","valueQuantity":{"value":28.3,"unit":"kg/m2","system":"http://unitsofmeasure.org","code":"kg/m2"}},"request":{"method":"PUT","url":"Observation/a78fb34a-a712-4837-9879-2bfdb0f6ab80"}},{"fullUrl":"Bundle/tests-NumerPass-RVwithDiureticsOrderAtAdmission-bundle","resource":{"resourceType":"Bundle","id":"tests-NumerPass-RVwithDiureticsOrderAtAdmission-bundle","type":"transaction","entry":[{"fullUrl":"https://madie.cms.gov/Encounter/ef488622-d61b-4baf-adb6-8c506aaa93f3","resource":{"resourceType":"Encounter","id":"ef488622-d61b-4baf-adb6-8c506aaa93f3","meta":{"profile":["http://hl7.org/fhir/us/qicore/StructureDefinition/qicore-encounter"]},"status":"finished","class":{"system":"http://terminology.hl7.org/CodeSystem/v3-ActCode","code":"IMP","display":"inpatient encounter"},"type":[{"coding":[{"system":"http://snomed.info/sct","code":"183452005","display":"Inpatient encounter"}]}],"subject":{"reference":"Patient/02d5c5f5-9487-42af-bb5e-dfc3aaeb70eb"},"period":{"start":"2026-10-19T08:30:00.000+00:00","end":"2026-10-31T08:15:00.000+00:00"},"reasonCode":[{"coding":[{"system":"http://snomed.info/sct","code":"14047009"}]},{"coding":[{"system":"http://snomed.info/sct","code":"64859006"}]}]},"request":{"method":"PUT","url":"Encounter/ef488622-d61b-4baf-adb6-8c506aaa93f3"}},{"fullUrl":"https://madie.cms.gov/Encounter/d9f49268-035e-4631-87c6-8f4a3be2646e","resource":{"resourceType":"Encounter","id":"d9f49268-035e-4631-87c6-8f4a3be2646e","meta":{"profile":["http://hl7.org/fhir/us/qicore/StructureDefinition/qicore-encounter"]},"status":"finished","class":{"system":"http://terminology.hl7.org/CodeSystem/v3-ActCode","code":"EMER","display":"emergency encounter"},"type":[{"coding":[{"system":"http://snomed.info/sct","code":"4525004","display":"Emergency Department Visit"}]}],"subject":{"reference":"Patient/02d5c5f5-9487-42af-bb5e-dfc3aaeb70eb"},"period":{"start":"2026-10-18T09:15:00.000+00:00","end":"2026-10-19T08:15:00.000+00:00"}},"request":{"method":"PUT","url":"Encounter/d9f49268-035e-4631-87c6-8f4a3be2646e"}},{"fullUrl":"https://madie.cms.gov/Patient/02d5c5f5-9487-42af-bb5e-dfc3aaeb70eb","resource":{"resourceType":"Patient","id":"02d5c5f5-9487-42af-bb5e-dfc3aaeb70eb","meta":{"profile":["http://hl7.org/fhir/us/qicore/StructureDefinition/qicore-patient"]},"extension":[{"url":"http://hl7.org/fhir/us/core/StructureDefinition/us-core-race","extension":[{"url":"ombCategory","valueCoding":{"system":"urn:oid:2.16.840.1.113883.6.238","code":"2106-3","display":"White"}},{"url":"text","valueString":"White"}]},{"url":"http://hl7.org/fhir/us/core/StructureDefinition/us-core-ethnicity","extension":[{"url":"ombCategory","valueCoding":{"system":"urn:oid:2.16.840.1.113883.6.238","code":"2135-2","display":"Hispanic or Latino"}},{"url":"text","valueString":"Hispanic or Latino"}]},{"url":"http://hl7.org/fhir/us/core/StructureDefinition/us-core-sex","valueCode":"248153007"}],"identifier":[{"system":"http://hospital.smarthealthit.org","value":"999999999"}],"name":[{"family":"Example","given":["Patient"]}],"gender":"female","birthDate":"1956-01-01"},"request":{"method":"PUT","url":"Patient/02d5c5f5-9487-42af-bb5e-dfc3aaeb70eb"}},{"fullUrl":"https://madie.cms.gov/Claim/145c09c1-1187-490e-89d2-79889bc7d8fe","resource":{"resourceType":"Claim","id":"145c09c1-1187-490e-89d2-79889bc7d8fe","meta":{"profile":["http://hl7.org/fhir/us/qicore/StructureDefinition/qicore-claim"]},"status":"active","type":{"coding":[{"system":"http://terminology.hl7.org/CodeSystem/claim-type","code":"institutional","display":"Institutional"}]},"use":"claim","patient":{"reference":"Patient/02d5c5f5-9487-42af-bb5e-dfc3aaeb70eb"},"created":"2026-10-22","priority":{"coding":[{"system":"http://terminology.hl7.org/CodeSystem/processpriority","code":"normal"}]},"diagnosis":[{"sequence":1,"diagnosisCodeableConcept":{"coding":[{"system":"http://snomed.info/sct","code":"14047009"}]}}],"item":[{"sequence":1,"diagnosisSequence":[1,2],"encounter":[{"reference":"Encounter/ef488622-d61b-4baf-adb6-8c506aaa93f3"}]}]},"request":{"method":"PUT","url":"Claim/145c09c1-1187-490e-89d2-79889bc7d8fe"}},{"fullUrl":"https://madie.cms.gov/Claim/87463ce4-a907-46cf-be08-0e960869441a","resource":{"resourceType":"Claim","id":"87463ce4-a907-46cf-be08-0e960869441a","meta":{"profile":["http://hl7.org/fhir/us/qicore/StructureDefinition/qicore-claim"]},"status":"active","type":{"coding":[{"system":"http://terminology.hl7.org/CodeSystem/claim-type","code":"institutional","display":"Institutional"}]},"use":"claim","patient":{"reference":"Patient/02d5c5f5-9487-42af-bb5e-dfc3aaeb70eb"},"created":"2026-11-01","provider":{"reference":"Organization/Organization-1"},"priority":{"coding":[{"system":"http://terminology.hl7.org/CodeSystem/processpriority","code":"normal"}]},"diagnosis":[{"sequence":1,"diagnosisCodeableConcept":{"coding":[{"system":"http://hl7.org/fhir/sid/icd-10-cm","code":"M80.00XA","display":"Age-related osteoporosis with current pathological fracture, unspecified site, initial encounter for fracture"}]}}],"item":[{"sequence":1,"diagnosisSequence":[1,2],"encounter":[{"reference":"Encounter/ef488622-d61b-4baf-adb6-8c506aaa93f3"}]}]},"request":{"method":"PUT","url":"Claim/87463ce4-a907-46cf-be08-0e960869441a"}},{"fullUrl":"https://madie.cms.gov/MedicationRequest/82a2a098-9762-45e0-9e8d-77131f6dbcff","resource":{"resourceType":"MedicationRequest","id":"82a2a098-9762-45e0-9e8d-77131f6dbcff","meta":{"profile":["http://hl7.org/fhir/us/qicore/StructureDefinition/qicore-medicationrequest"]},"status":"active","intent":"order","category":[{"coding":[{"system":"http://terminology.hl7.org/CodeSystem/medicationrequest-category","code":"community","display":"Community"}]}],"medicationCodeableConcept":{"coding":[{"system":"http://www.nlm.nih.gov/research/umls/rxnorm","code":"1251903"}]},"subject":{"reference":"Patient/02d5c5f5-9487-42af-bb5e-dfc3aaeb70eb"},"authoredOn":"2026-10-15","dispenseRequest":{"quantity":{"value":14,"unit":"tablet","system":"http://unitsofmeasure.org","code":"{tablet}"},"expectedSupplyDuration":{"value":14,"unit":"days","system":"http://unitsofmeasure.org","code":"d"}}},"request":{"method":"PUT","url":"MedicationRequest/82a2a098-9762-45e0-9e8d-77131f6dbcff"}},{"fullUrl":"https://madie.cms.gov/Observation/a78fb34a-a712-4837-9879-2bfdb0f6ab80","resource":{"resourceType":"Observation","id":"a78fb34a-a712-4837-9879-2bfdb0f6ab80","meta":{"profile":["http://hl7.org/fhir/us/core/StructureDefinition/us-core-bmi"]},"status":"final","category":[{"coding":[{"system":"http://terminology.hl7.org/CodeSystem/observation-category","code":"vital-signs","display":"Vital Signs"}]}],"code":{"coding":[{"system":"http://loinc.org","code":"39156-5","display":"Body mass index (BMI) [Ratio]"}],"text":"BMI"},"subject":{"reference":"Patient/02d5c5f5-9487-42af-bb5e-dfc3aaeb70eb"},"effectiveDateTime":"2026-10-20T08:00:00.000+00:00","valueQuantity":{"value":28.3,"unit":"kg/m2","system":"http://unitsofmeasure.org","code":"kg/m2"}},"request":{"method":"PUT","url":"Observation/a78fb34a-a712-4837-9879-2bfdb0f6ab80"}},{"fullUrl":"https://madie.cms.gov/MeasureReport/b89135b7-8b8c-483c-b679-3b4b3362b313","resource":{"resourceType":"MeasureReport","id":"b89135b7-8b8c-483c-b679-3b4b3362b313","meta":{"profile":["http://hl7.org/fhir/us/cqfmeasures/StructureDefinition/test-case-cqfm"]},"contained":[{"resourceType":"Parameters","id":"17b21198-e9bc-4665-9467-e77598408aea-parameters","parameter":[{"name":"subject","valueString":"02d5c5f5-9487-42af-bb5e-dfc3aaeb70eb"}]}],"extension":[{"url":"http://hl7.org/fhir/StructureDefinition/cqf-inputParameters","valueReference":{"reference":"#17b21198-e9bc-4665-9467-e77598408aea-parameters"}},{"url":"http://hl7.org/fhir/us/cqfmeasures/StructureDefinition/cqfm-testCaseDescription","valueMarkdown":"RVariable Encounter With Diuretics Order At Admission"}],"modifierExtension":[{"url":"http://hl7.org/fhir/us/cqfmeasures/StructureDefinition/cqfm-isTestCase","valueBoolean":true}],"status":"complete","type":"individual","measure":"https://madie.cms.gov/Measure/CMS1017FHIRHHFI","period":{"start":"2026-01-01","end":"2026-12-31"},"group":[{"id":"Group_1","population":[{"id":"InitialPopulation_1","code":{"coding":[{"system":"http://terminology.hl7.org/CodeSystem/measure-population","code":"initial-population","display":"Initial Population"}]},"count":1},{"id":"Denominator_1","code":{"coding":[{"system":"http://terminology.hl7.org/CodeSystem/measure-population","code":"denominator","display":"Denominator"}]},"count":1},{"id":"DenominatorExclusion_1","code":{"coding":[{"system":"http://terminology.hl7.org/CodeSystem/measure-population","code":"denominator-exclusion","display":"Denominator Exclusion"}]},"count":0},{"id":"Numerator_1","code":{"coding":[{"system":"http://terminology.hl7.org/CodeSystem/measure-population","code":"numerator","display":"Numerator"}]},"count":1},{"id":"NumeratorExclusion_1","code":{"coding":[{"system":"http://terminology.hl7.org/CodeSystem/measure-population","code":"numerator-exclusion","display":"Numerator Exclusion"}]},"count":0},{"id":"MeasureObservation_1_1_1","code":{"coding":[{"system":"http://terminology.hl7.org/CodeSystem/measure-population","code":"measure-observation","display":"Measure Observation"}]},"count":12},{"id":"MeasureObservation_1_2_1","code":{"coding":[{"system":"http://terminology.hl7.org/CodeSystem/measure-population","code":"measure-observation","display":"Measure Observation"}]},"count":1}],"measureScore":{"value":0.0}}],"evaluatedResource":[{"reference":"Encounter/ef488622-d61b-4baf-adb6-8c506aaa93f3"},{"reference":"Encounter/d9f49268-035e-4631-87c6-8f4a3be2646e"},{"reference":"Patient/02d5c5f5-9487-42af-bb5e-dfc3aaeb70eb"},{"reference":"Claim/145c09c1-1187-490e-89d2-79889bc7d8fe"},{"reference":"Claim/87463ce4-a907-46cf-be08-0e960869441a"},{"reference":"MedicationRequest/82a2a098-9762-45e0-9e8d-77131f6dbcff"},{"reference":"Observation/a78fb34a-a712-4837-9879-2bfdb0f6ab80"}]},"request":{"method":"PUT","url":"MeasureReport/b89135b7-8b8c-483c-b679-3b4b3362b313"}}]},"request":{"method":"PUT","url":"Bundle/tests-NumerPass-RVwithDiureticsOrderAtAdmission-bundle"}},{"fullUrl":"Claim/87463ce4-a907-46cf-be08-0e960869441a","resource":{"resourceType":"Claim","id":"87463ce4-a907-46cf-be08-0e960869441a","meta":{"profile":["http://hl7.org/fhir/us/qicore/StructureDefinition/qicore-claim"]},"status":"active","type":{"coding":[{"system":"http://terminology.hl7.org/CodeSystem/claim-type","code":"institutional","display":"Institutional"}]},"use":"claim","patient":{"reference":"Patient/02d5c5f5-9487-42af-bb5e-dfc3aaeb70eb"},"created":"2026-11-01","provider":{"reference":"Organization/Organization-1"},"priority":{"coding":[{"system":"http://terminology.hl7.org/CodeSystem/processpriority","code":"normal"}]},"diagnosis":[{"sequence":1,"diagnosisCodeableConcept":{"coding":[{"system":"http://hl7.org/fhir/sid/icd-10-cm","code":"M80.00XA","display":"Age-related osteoporosis with current pathological fracture, unspecified site, initial encounter for fracture"}]}}],"item":[{"sequence":1,"diagnosisSequence":[1,2],"encounter":[{"reference":"Encounter/ef488622-d61b-4baf-adb6-8c506aaa93f3"}]}]},"request":{"method":"PUT","url":"Claim/87463ce4-a907-46cf-be08-0e960869441a"}},{"fullUrl":"Encounter/ef488622-d61b-4baf-adb6-8c506aaa93f3","resource":{"resourceType":"Encounter","id":"ef488622-d61b-4baf-adb6-8c506aaa93f3","meta":{"profile":["http://hl7.org/fhir/us/qicore/StructureDefinition/qicore-encounter"]},"status":"finished","class":{"system":"http://terminology.hl7.org/CodeSystem/v3-ActCode","code":"IMP","display":"inpatient encounter"},"type":[{"coding":[{"system":"http://snomed.info/sct","code":"183452005","display":"Inpatient encounter"}]}],"subject":{"reference":"Patient/02d5c5f5-9487-42af-bb5e-dfc3aaeb70eb"},"period":{"start":"2026-10-19T08:30:00.000+00:00","end":"2026-10-31T08:15:00.000+00:00"},"reasonCode":[{"coding":[{"system":"http://snomed.info/sct","code":"14047009"}]},{"coding":[{"system":"http://snomed.info/sct","code":"64859006"}]}]},"request":{"method":"PUT","url":"Encounter/ef488622-d61b-4baf-adb6-8c506aaa93f3"}},{"fullUrl":"Patient/02d5c5f5-9487-42af-bb5e-dfc3aaeb70eb","resource":{"resourceType":"Patient","id":"02d5c5f5-9487-42af-bb5e-dfc3aaeb70eb","meta":{"profile":["http://hl7.org/fhir/us/qicore/StructureDefinition/qicore-patient"]},"extension":[{"url":"http://hl7.org/fhir/us/core/StructureDefinition/us-core-race","extension":[{"url":"ombCategory","valueCoding":{"system":"urn:oid:2.16.840.1.113883.6.238","code":"2106-3","display":"White"}},{"url":"text","valueString":"White"}]},{"url":"http://hl7.org/fhir/us/core/StructureDefinition/us-core-ethnicity","extension":[{"url":"ombCategory","valueCoding":{"system":"urn:oid:2.16.840.1.113883.6.238","code":"2135-2","display":"Hispanic or Latino"}},{"url":"text","valueString":"Hispanic or Latino"}]},{"url":"http://hl7.org/fhir/us/core/StructureDefinition/us-core-sex","valueCode":"248153007"}],"identifier":[{"system":"http://hospital.smarthealthit.org","value":"999999999"}],"name":[{"family":"Example","given":["Patient"]}],"gender":"female","birthDate":"1956-01-01"},"request":{"method":"PUT","url":"Patient/02d5c5f5-9487-42af-bb5e-dfc3aaeb70eb"}},{"fullUrl":"Claim/145c09c1-1187-490e-89d2-79889bc7d8fe","resource":{"resourceType":"Claim","id":"145c09c1-1187-490e-89d2-79889bc7d8fe","meta":{"profile":["http://hl7.org/fhir/us/qicore/StructureDefinition/qicore-claim"]},"status":"active","type":{"coding":[{"system":"http://terminology.hl7.org/CodeSystem/claim-type","code":"institutional","display":"Institutional"}]},"use":"claim","patient":{"reference":"Patient/02d5c5f5-9487-42af-bb5e-dfc3aaeb70eb"},"created":"2026-10-22","priority":{"coding":[{"system":"http://terminology.hl7.org/CodeSystem/processpriority","code":"normal"}]},"diagnosis":[{"sequence":1,"diagnosisCodeableConcept":{"coding":[{"system":"http://snomed.info/sct","code":"14047009"}]}}],"item":[{"sequence":1,"diagnosisSequence":[1,2],"encounter":[{"reference":"Encounter/ef488622-d61b-4baf-adb6-8c506aaa93f3"}]}]},"request":{"method":"PUT","url":"Claim/145c09c1-1187-490e-89d2-79889bc7d8fe"}}]}