{"resourceType":"Bundle","id":"tests-21d7f7e1-3977-4227-8792-2e316460326f-bundle","type":"transaction","entry":[{"fullUrl":"Bundle/NUMERFail-FallPOAModInjuryNPOA","resource":{"resourceType":"Bundle","id":"NUMERFail-FallPOAModInjuryNPOA","type":"transaction","entry":[{"fullUrl":"https://madie.cms.gov/Encounter/746765dd-1843-40d8-b4e1-05fa6e055525","resource":{"resourceType":"Encounter","id":"746765dd-1843-40d8-b4e1-05fa6e055525","meta":{"profile":["http://hl7.org/fhir/us/qicore/StructureDefinition/qicore-encounter"]},"status":"finished","class":{"system":"http://terminology.hl7.org/CodeSystem/v3-ActCode","code":"IMP","display":"inpatient encounter"},"type":[{"coding":[{"system":"http://snomed.info/sct","code":"183452005"}]}],"subject":{"reference":"Patient/21d7f7e1-3977-4227-8792-2e316460326f"},"period":{"start":"2026-11-09T11:00:00.000+00:00","end":"2026-11-12T08:15:00.000+00:00"},"reasonReference":[{"reference":"Condition/eba8fb2c-2489-4368-994a-a426e3b21cd8"},{"reference":"Condition/378cefa1-73a0-47de-8b1d-c044316e4463"}]},"request":{"method":"PUT","url":"Encounter/746765dd-1843-40d8-b4e1-05fa6e055525"}},{"fullUrl":"https://madie.cms.gov/Encounter/e8553330-2ac3-42e9-9559-5b830145a37c","resource":{"resourceType":"Encounter","id":"e8553330-2ac3-42e9-9559-5b830145a37c","meta":{"profile":["http://hl7.org/fhir/us/qicore/StructureDefinition/qicore-encounter"]},"status":"finished","class":{"system":"http://terminology.hl7.org/CodeSystem/v3-ActCode","code":"IMP","display":"inpatient encounter"},"type":[{"coding":[{"system":"http://snomed.info/sct","code":"4525004"}]}],"subject":{"reference":"Patient/21d7f7e1-3977-4227-8792-2e316460326f"},"period":{"start":"2026-11-09T08:00:00.000+00:00","end":"2026-11-09T10:15:00.000+00:00"}},"request":{"method":"PUT","url":"Encounter/e8553330-2ac3-42e9-9559-5b830145a37c"}},{"fullUrl":"https://madie.cms.gov/Condition/378cefa1-73a0-47de-8b1d-c044316e4463","resource":{"resourceType":"Condition","id":"378cefa1-73a0-47de-8b1d-c044316e4463","meta":{"profile":["http://hl7.org/fhir/us/qicore/StructureDefinition/qicore-condition"]},"clinicalStatus":{"coding":[{"system":"http://terminology.hl7.org/CodeSystem/condition-clinical","code":"active"}]},"verificationStatus":{"coding":[{"system":"http://terminology.hl7.org/CodeSystem/condition-ver-status","code":"confirmed"}]},"category":[{"coding":[{"system":"http://terminology.hl7.org/CodeSystem/condition-category","code":"encounter-diagnosis","display":"Encounter Diagnosis"}]}],"code":{"coding":[{"system":"http://snomed.info/sct","code":"56307009"}]},"subject":{"reference":"Patient/21d7f7e1-3977-4227-8792-2e316460326f"},"encounter":{"reference":"Encounter/746765dd-1843-40d8-b4e1-05fa6e055525"}},"request":{"method":"PUT","url":"Condition/378cefa1-73a0-47de-8b1d-c044316e4463"}},{"fullUrl":"https://madie.cms.gov/Condition/eba8fb2c-2489-4368-994a-a426e3b21cd8","resource":{"resourceType":"Condition","id":"eba8fb2c-2489-4368-994a-a426e3b21cd8","meta":{"profile":["http://hl7.org/fhir/us/qicore/StructureDefinition/qicore-condition"]},"clinicalStatus":{"coding":[{"system":"http://terminology.hl7.org/CodeSystem/condition-clinical","code":"active"}]},"verificationStatus":{"coding":[{"system":"http://terminology.hl7.org/CodeSystem/condition-ver-status","code":"confirmed"}]},"category":[{"coding":[{"system":"http://terminology.hl7.org/CodeSystem/condition-category","code":"encounter-diagnosis","display":"Encounter Diagnosis"}]}],"code":{"coding":[{"system":"http://hl7.org/fhir/sid/icd-10-cm","code":"W08.XXXA"}]},"subject":{"reference":"Patient/21d7f7e1-3977-4227-8792-2e316460326f"},"encounter":{"reference":"Encounter/746765dd-1843-40d8-b4e1-05fa6e055525"}},"request":{"method":"PUT","url":"Condition/eba8fb2c-2489-4368-994a-a426e3b21cd8"}},{"fullUrl":"https://madie.cms.gov/Patient/21d7f7e1-3977-4227-8792-2e316460326f","resource":{"resourceType":"Patient","id":"21d7f7e1-3977-4227-8792-2e316460326f","meta":{"profile":["http://hl7.org/fhir/us/qicore/StructureDefinition/qicore-patient"]},"extension":[{"url":"http://hl7.org/fhir/us/core/StructureDefinition/us-core-race","extension":[{"url":"ombCategory","valueCoding":{"system":"urn:oid:2.16.840.1.113883.6.238","code":"2054-5","display":"Black or African American","userSelected":true}},{"url":"text","valueString":"Black or African American"}]},{"url":"http://hl7.org/fhir/us/core/StructureDefinition/us-core-ethnicity","extension":[{"url":"ombCategory","valueCoding":{"system":"urn:oid:2.16.840.1.113883.6.238","code":"2186-5","display":"Not Hispanic or Latino","userSelected":true}},{"url":"text","valueString":"Not Hispanic or Latino"}]}],"identifier":[{"type":{"coding":[{"system":"http://terminology.hl7.org/CodeSystem/v2-0203","code":"MR"}]},"system":"https://bonnie-fhir.healthit.gov/","value":"61152a3b98086b7a79cbd7c1"}],"active":true,"name":[{"use":"usual","family":"NUMERFail","given":["FallPOAModInjuryNPOA"]}],"gender":"male","birthDate":"1964-12-11"},"request":{"method":"PUT","url":"Patient/21d7f7e1-3977-4227-8792-2e316460326f"}},{"fullUrl":"https://madie.cms.gov/Claim/71caf61e-079a-4222-a1ca-cb9bdcf636bb","resource":{"resourceType":"Claim","id":"71caf61e-079a-4222-a1ca-cb9bdcf636bb","meta":{"profile":["http://hl7.org/fhir/us/qicore/StructureDefinition/qicore-claim"]},"status":"active","type":{"coding":[{"system":"http://terminology.hl7.org/CodeSystem/claim-type","code":"professional","display":"Professional"}]},"use":"claim","patient":{"reference":"Patient/0dfafc1a-cf94-4ca1-becf-c1b843896810"},"created":"2026-11-12","priority":{"coding":[{"system":"http://terminology.hl7.org/CodeSystem/processpriority","code":"normal"}]},"diagnosis":[{"sequence":1,"diagnosisCodeableConcept":{"coding":[{"system":"http://snomed.info/sct","code":"14047009"}]},"onAdmission":{"coding":[{"system":"https://www.cms.gov/Medicare/Medicare-Fee-for-Service-Payment/HospitalAcqCond/Coding","code":"Y"}]}}],"item":[{"sequence":1,"diagnosisSequence":[1,2],"encounter":[{"reference":"Encounter/746765dd-1843-40d8-b4e1-05fa6e055525"}]}]},"request":{"method":"PUT","url":"Claim/71caf61e-079a-4222-a1ca-cb9bdcf636bb"}},{"fullUrl":"https://madie.cms.gov/Claim/30085e72-83b2-48dd-aa67-7176c985c35a","resource":{"resourceType":"Claim","id":"30085e72-83b2-48dd-aa67-7176c985c35a","meta":{"profile":["http://hl7.org/fhir/us/qicore/StructureDefinition/qicore-claim"]},"status":"active","type":{"coding":[{"system":"http://terminology.hl7.org/CodeSystem/claim-type","code":"professional","display":"Professional"}]},"use":"claim","patient":{"reference":"Patient/972573e8-bd51-4b77-a954-39babec1a055"},"created":"2026-11-12","priority":{"coding":[{"system":"http://terminology.hl7.org/CodeSystem/processpriority","code":"normal"}]},"diagnosis":[{"sequence":1,"diagnosisCodeableConcept":{"coding":[{"system":"http://hl7.org/fhir/sid/icd-10-cm","code":"S01.00XA"}]},"onAdmission":{"coding":[{"system":"https://www.cms.gov/Medicare/Medicare-Fee-for-Service-Payment/HospitalAcqCond/Coding","code":"N"}]}}],"item":[{"sequence":1,"diagnosisSequence":[1,2],"encounter":[{"reference":"Encounter/746765dd-1843-40d8-b4e1-05fa6e055525"}]}]},"request":{"method":"PUT","url":"Claim/30085e72-83b2-48dd-aa67-7176c985c35a"}},{"fullUrl":"https://madie.cms.gov/AdverseEvent/f596c10a-5f4f-48af-8115-e49fd75a0349","resource":{"resourceType":"AdverseEvent","id":"f596c10a-5f4f-48af-8115-e49fd75a0349","meta":{"profile":["http://hl7.org/fhir/us/qicore/StructureDefinition/qicore-adverseevent"]},"actuality":"actual","event":{"coding":[{"system":"http://snomed.info/sct","code":"14047009"}]},"subject":{"reference":"Patient/0dfafc1a-cf94-4ca1-becf-c1b843896810"},"date":"2026-11-11T08:00:00.000+00:00"},"request":{"method":"PUT","url":"AdverseEvent/f596c10a-5f4f-48af-8115-e49fd75a0349"}},{"fullUrl":"https://madie.cms.gov/MeasureReport/217e0e29-034d-4a9e-9d20-85b4fa4b56f9","resource":{"resourceType":"MeasureReport","id":"217e0e29-034d-4a9e-9d20-85b4fa4b56f9","meta":{"profile":["http://hl7.org/fhir/us/cqfmeasures/StructureDefinition/test-case-cqfm"]},"contained":[{"resourceType":"Parameters","id":"640595ee-75f1-45e8-9d75-a4ed4d38e444-parameters","parameter":[{"name":"subject","valueString":"21d7f7e1-3977-4227-8792-2e316460326f"}]}],"extension":[{"url":"http://hl7.org/fhir/StructureDefinition/cqf-inputParameters","valueReference":{"reference":"#640595ee-75f1-45e8-9d75-a4ed4d38e444-parameters"}},{"url":"http://hl7.org/fhir/us/cqfmeasures/StructureDefinition/cqfm-testCaseDescription","valueMarkdown":"Encounter diagnoses include: Fall POA and Moderate injury NPOA. Fall POA meets fails to meet Numerator"}],"modifierExtension":[{"url":"http://hl7.org/fhir/us/cqfmeasures/StructureDefinition/cqfm-isTestCase","valueBoolean":true}],"status":"complete","type":"individual","measure":"https://madie.cms.gov/Measure/CMS1017FHIRHHFI","period":{"start":"2026-01-01","end":"2026-12-31"},"group":[{"id":"Group_1","population":[{"id":"InitialPopulation_1","code":{"coding":[{"system":"http://terminology.hl7.org/CodeSystem/measure-population","code":"initial-population","display":"Initial Population"}]},"count":1},{"id":"Denominator_1","code":{"coding":[{"system":"http://terminology.hl7.org/CodeSystem/measure-population","code":"denominator","display":"Denominator"}]},"count":1},{"id":"DenominatorExclusion_1","code":{"coding":[{"system":"http://terminology.hl7.org/CodeSystem/measure-population","code":"denominator-exclusion","display":"Denominator Exclusion"}]},"count":1},{"id":"Numerator_1","code":{"coding":[{"system":"http://terminology.hl7.org/CodeSystem/measure-population","code":"numerator","display":"Numerator"}]},"count":0},{"id":"NumeratorExclusion_1","code":{"coding":[{"system":"http://terminology.hl7.org/CodeSystem/measure-population","code":"numerator-exclusion","display":"Numerator Exclusion"}]},"count":0}],"measureScore":{"value":0.0}}],"evaluatedResource":[{"reference":"Encounter/746765dd-1843-40d8-b4e1-05fa6e055525"},{"reference":"Encounter/e8553330-2ac3-42e9-9559-5b830145a37c"},{"reference":"Condition/378cefa1-73a0-47de-8b1d-c044316e4463"},{"reference":"Condition/eba8fb2c-2489-4368-994a-a426e3b21cd8"},{"reference":"Patient/21d7f7e1-3977-4227-8792-2e316460326f"},{"reference":"Claim/71caf61e-079a-4222-a1ca-cb9bdcf636bb"},{"reference":"Claim/30085e72-83b2-48dd-aa67-7176c985c35a"},{"reference":"AdverseEvent/f596c10a-5f4f-48af-8115-e49fd75a0349"}]},"request":{"method":"PUT","url":"MeasureReport/217e0e29-034d-4a9e-9d20-85b4fa4b56f9"}}]},"request":{"method":"PUT","url":"Bundle/NUMERFail-FallPOAModInjuryNPOA"}},{"fullUrl":"Condition/378cefa1-73a0-47de-8b1d-c044316e4463","resource":{"resourceType":"Condition","id":"378cefa1-73a0-47de-8b1d-c044316e4463","meta":{"profile":["http://hl7.org/fhir/us/qicore/StructureDefinition/qicore-condition"]},"clinicalStatus":{"coding":[{"system":"http://terminology.hl7.org/CodeSystem/condition-clinical","code":"active"}]},"verificationStatus":{"coding":[{"system":"http://terminology.hl7.org/CodeSystem/condition-ver-status","code":"confirmed"}]},"category":[{"coding":[{"system":"http://terminology.hl7.org/CodeSystem/condition-category","code":"encounter-diagnosis","display":"Encounter Diagnosis"}]}],"code":{"coding":[{"system":"http://snomed.info/sct","code":"56307009"}]},"subject":{"reference":"Patient/21d7f7e1-3977-4227-8792-2e316460326f"},"encounter":{"reference":"Encounter/746765dd-1843-40d8-b4e1-05fa6e055525"}},"request":{"method":"PUT","url":"Condition/378cefa1-73a0-47de-8b1d-c044316e4463"}},{"fullUrl":"AdverseEvent/f596c10a-5f4f-48af-8115-e49fd75a0349","resource":{"resourceType":"AdverseEvent","id":"f596c10a-5f4f-48af-8115-e49fd75a0349","meta":{"profile":["http://hl7.org/fhir/us/qicore/StructureDefinition/qicore-adverseevent"]},"actuality":"actual","event":{"coding":[{"system":"http://snomed.info/sct","code":"14047009"}]},"subject":{"reference":"Patient/0dfafc1a-cf94-4ca1-becf-c1b843896810"},"date":"2026-11-11T08:00:00.000+00:00"},"request":{"method":"PUT","url":"AdverseEvent/f596c10a-5f4f-48af-8115-e49fd75a0349"}},{"fullUrl":"Encounter/e8553330-2ac3-42e9-9559-5b830145a37c","resource":{"resourceType":"Encounter","id":"e8553330-2ac3-42e9-9559-5b830145a37c","meta":{"profile":["http://hl7.org/fhir/us/qicore/StructureDefinition/qicore-encounter"]},"status":"finished","class":{"system":"http://terminology.hl7.org/CodeSystem/v3-ActCode","code":"IMP","display":"inpatient encounter"},"type":[{"coding":[{"system":"http://snomed.info/sct","code":"4525004"}]}],"subject":{"reference":"Patient/21d7f7e1-3977-4227-8792-2e316460326f"},"period":{"start":"2026-11-09T08:00:00.000+00:00","end":"2026-11-09T10:15:00.000+00:00"}},"request":{"method":"PUT","url":"Encounter/e8553330-2ac3-42e9-9559-5b830145a37c"}},{"fullUrl":"Condition/eba8fb2c-2489-4368-994a-a426e3b21cd8","resource":{"resourceType":"Condition","id":"eba8fb2c-2489-4368-994a-a426e3b21cd8","meta":{"profile":["http://hl7.org/fhir/us/qicore/StructureDefinition/qicore-condition"]},"clinicalStatus":{"coding":[{"system":"http://terminology.hl7.org/CodeSystem/condition-clinical","code":"active"}]},"verificationStatus":{"coding":[{"system":"http://terminology.hl7.org/CodeSystem/condition-ver-status","code":"confirmed"}]},"category":[{"coding":[{"system":"http://terminology.hl7.org/CodeSystem/condition-category","code":"encounter-diagnosis","display":"Encounter Diagnosis"}]}],"code":{"coding":[{"system":"http://hl7.org/fhir/sid/icd-10-cm","code":"W08.XXXA"}]},"subject":{"reference":"Patient/21d7f7e1-3977-4227-8792-2e316460326f"},"encounter":{"reference":"Encounter/746765dd-1843-40d8-b4e1-05fa6e055525"}},"request":{"method":"PUT","url":"Condition/eba8fb2c-2489-4368-994a-a426e3b21cd8"}},{"fullUrl":"Encounter/746765dd-1843-40d8-b4e1-05fa6e055525","resource":{"resourceType":"Encounter","id":"746765dd-1843-40d8-b4e1-05fa6e055525","meta":{"profile":["http://hl7.org/fhir/us/qicore/StructureDefinition/qicore-encounter"]},"status":"finished","class":{"system":"http://terminology.hl7.org/CodeSystem/v3-ActCode","code":"IMP","display":"inpatient encounter"},"type":[{"coding":[{"system":"http://snomed.info/sct","code":"183452005"}]}],"subject":{"reference":"Patient/21d7f7e1-3977-4227-8792-2e316460326f"},"period":{"start":"2026-11-09T11:00:00.000+00:00","end":"2026-11-12T08:15:00.000+00:00"},"reasonReference":[{"reference":"Condition/eba8fb2c-2489-4368-994a-a426e3b21cd8"},{"reference":"Condition/378cefa1-73a0-47de-8b1d-c044316e4463"}]},"request":{"method":"PUT","url":"Encounter/746765dd-1843-40d8-b4e1-05fa6e055525"}},{"fullUrl":"Claim/71caf61e-079a-4222-a1ca-cb9bdcf636bb","resource":{"resourceType":"Claim","id":"71caf61e-079a-4222-a1ca-cb9bdcf636bb","meta":{"profile":["http://hl7.org/fhir/us/qicore/StructureDefinition/qicore-claim"]},"status":"active","type":{"coding":[{"system":"http://terminology.hl7.org/CodeSystem/claim-type","code":"professional","display":"Professional"}]},"use":"claim","patient":{"reference":"Patient/0dfafc1a-cf94-4ca1-becf-c1b843896810"},"created":"2026-11-12","priority":{"coding":[{"system":"http://terminology.hl7.org/CodeSystem/processpriority","code":"normal"}]},"diagnosis":[{"sequence":1,"diagnosisCodeableConcept":{"coding":[{"system":"http://snomed.info/sct","code":"14047009"}]},"onAdmission":{"coding":[{"system":"https://www.cms.gov/Medicare/Medicare-Fee-for-Service-Payment/HospitalAcqCond/Coding","code":"Y"}]}}],"item":[{"sequence":1,"diagnosisSequence":[1,2],"encounter":[{"reference":"Encounter/746765dd-1843-40d8-b4e1-05fa6e055525"}]}]},"request":{"method":"PUT","url":"Claim/71caf61e-079a-4222-a1ca-cb9bdcf636bb"}},{"fullUrl":"Patient/21d7f7e1-3977-4227-8792-2e316460326f","resource":{"resourceType":"Patient","id":"21d7f7e1-3977-4227-8792-2e316460326f","meta":{"profile":["http://hl7.org/fhir/us/qicore/StructureDefinition/qicore-patient"]},"extension":[{"url":"http://hl7.org/fhir/us/core/StructureDefinition/us-core-race","extension":[{"url":"ombCategory","valueCoding":{"system":"urn:oid:2.16.840.1.113883.6.238","code":"2054-5","display":"Black or African American","userSelected":true}},{"url":"text","valueString":"Black or African American"}]},{"url":"http://hl7.org/fhir/us/core/StructureDefinition/us-core-ethnicity","extension":[{"url":"ombCategory","valueCoding":{"system":"urn:oid:2.16.840.1.113883.6.238","code":"2186-5","display":"Not Hispanic or Latino","userSelected":true}},{"url":"text","valueString":"Not Hispanic or Latino"}]}],"identifier":[{"type":{"coding":[{"system":"http://terminology.hl7.org/CodeSystem/v2-0203","code":"MR"}]},"system":"https://bonnie-fhir.healthit.gov/","value":"61152a3b98086b7a79cbd7c1"}],"active":true,"name":[{"use":"usual","family":"NUMERFail","given":["FallPOAModInjuryNPOA"]}],"gender":"male","birthDate":"1964-12-11"},"request":{"method":"PUT","url":"Patient/21d7f7e1-3977-4227-8792-2e316460326f"}},{"fullUrl":"Claim/30085e72-83b2-48dd-aa67-7176c985c35a","resource":{"resourceType":"Claim","id":"30085e72-83b2-48dd-aa67-7176c985c35a","meta":{"profile":["http://hl7.org/fhir/us/qicore/StructureDefinition/qicore-claim"]},"status":"active","type":{"coding":[{"system":"http://terminology.hl7.org/CodeSystem/claim-type","code":"professional","display":"Professional"}]},"use":"claim","patient":{"reference":"Patient/972573e8-bd51-4b77-a954-39babec1a055"},"created":"2026-11-12","priority":{"coding":[{"system":"http://terminology.hl7.org/CodeSystem/processpriority","code":"normal"}]},"diagnosis":[{"sequence":1,"diagnosisCodeableConcept":{"coding":[{"system":"http://hl7.org/fhir/sid/icd-10-cm","code":"S01.00XA"}]},"onAdmission":{"coding":[{"system":"https://www.cms.gov/Medicare/Medicare-Fee-for-Service-Payment/HospitalAcqCond/Coding","code":"N"}]}}],"item":[{"sequence":1,"diagnosisSequence":[1,2],"encounter":[{"reference":"Encounter/746765dd-1843-40d8-b4e1-05fa6e055525"}]}]},"request":{"method":"PUT","url":"Claim/30085e72-83b2-48dd-aa67-7176c985c35a"}},{"fullUrl":"MeasureReport/217e0e29-034d-4a9e-9d20-85b4fa4b56f9","resource":{"resourceType":"MeasureReport","id":"217e0e29-034d-4a9e-9d20-85b4fa4b56f9","meta":{"profile":["http://hl7.org/fhir/us/cqfmeasures/StructureDefinition/test-case-cqfm"]},"contained":[{"resourceType":"Parameters","id":"640595ee-75f1-45e8-9d75-a4ed4d38e444-parameters","parameter":[{"name":"subject","valueString":"21d7f7e1-3977-4227-8792-2e316460326f"}]}],"extension":[{"url":"http://hl7.org/fhir/StructureDefinition/cqf-inputParameters","valueReference":{"reference":"#640595ee-75f1-45e8-9d75-a4ed4d38e444-parameters"}},{"url":"http://hl7.org/fhir/us/cqfmeasures/StructureDefinition/cqfm-testCaseDescription","valueMarkdown":"Encounter diagnoses include: Fall POA and Moderate injury NPOA. Fall POA meets fails to meet Numerator"}],"modifierExtension":[{"url":"http://hl7.org/fhir/us/cqfmeasures/StructureDefinition/cqfm-isTestCase","valueBoolean":true}],"status":"complete","type":"individual","measure":"https://madie.cms.gov/Measure/CMS1017FHIRHHFI","period":{"start":"2026-01-01","end":"2026-12-31"},"group":[{"id":"Group_1","population":[{"id":"InitialPopulation_1","code":{"coding":[{"system":"http://terminology.hl7.org/CodeSystem/measure-population","code":"initial-population","display":"Initial Population"}]},"count":1},{"id":"Denominator_1","code":{"coding":[{"system":"http://terminology.hl7.org/CodeSystem/measure-population","code":"denominator","display":"Denominator"}]},"count":1},{"id":"DenominatorExclusion_1","code":{"coding":[{"system":"http://terminology.hl7.org/CodeSystem/measure-population","code":"denominator-exclusion","display":"Denominator Exclusion"}]},"count":1},{"id":"Numerator_1","code":{"coding":[{"system":"http://terminology.hl7.org/CodeSystem/measure-population","code":"numerator","display":"Numerator"}]},"count":0},{"id":"NumeratorExclusion_1","code":{"coding":[{"system":"http://terminology.hl7.org/CodeSystem/measure-population","code":"numerator-exclusion","display":"Numerator Exclusion"}]},"count":0}],"measureScore":{"value":0.0}}],"evaluatedResource":[{"reference":"Encounter/746765dd-1843-40d8-b4e1-05fa6e055525"},{"reference":"Encounter/e8553330-2ac3-42e9-9559-5b830145a37c"},{"reference":"Condition/378cefa1-73a0-47de-8b1d-c044316e4463"},{"reference":"Condition/eba8fb2c-2489-4368-994a-a426e3b21cd8"},{"reference":"Patient/21d7f7e1-3977-4227-8792-2e316460326f"},{"reference":"Claim/71caf61e-079a-4222-a1ca-cb9bdcf636bb"},{"reference":"Claim/30085e72-83b2-48dd-aa67-7176c985c35a"},{"reference":"AdverseEvent/f596c10a-5f4f-48af-8115-e49fd75a0349"}]},"request":{"method":"PUT","url":"MeasureReport/217e0e29-034d-4a9e-9d20-85b4fa4b56f9"}}]}