{"resourceType":"Bundle","id":"tests-56d5fe48-53b2-4599-870c-58bfc4ba0145-bundle","type":"transaction","entry":[{"fullUrl":"Encounter/9579847e-0d8d-4aa7-bde2-d900521e23c3","resource":{"resourceType":"Encounter","id":"9579847e-0d8d-4aa7-bde2-d900521e23c3","meta":{"profile":["http://hl7.org/fhir/us/qicore/StructureDefinition/qicore-encounter"]},"status":"finished","class":{"system":"http://terminology.hl7.org/CodeSystem/v3-ActCode","code":"IMP","display":"inpatient encounter"},"type":[{"coding":[{"system":"http://snomed.info/sct","code":"183452005","display":"Inpatient encounter"}]}],"subject":{"reference":"Patient/56d5fe48-53b2-4599-870c-58bfc4ba0145"},"period":{"start":"2026-10-19T08:30:00.000+00:00","end":"2026-10-31T08:15:00.000+00:00"},"reasonCode":[{"coding":[{"system":"http://snomed.info/sct","code":"14047009"}]},{"coding":[{"system":"http://snomed.info/sct","code":"64859006"}]}]},"request":{"method":"PUT","url":"Encounter/9579847e-0d8d-4aa7-bde2-d900521e23c3"}},{"fullUrl":"MeasureReport/47bfdddb-f94e-4d22-94cf-d0912b836e8f","resource":{"resourceType":"MeasureReport","id":"47bfdddb-f94e-4d22-94cf-d0912b836e8f","meta":{"profile":["http://hl7.org/fhir/us/cqfmeasures/StructureDefinition/test-case-cqfm"]},"contained":[{"resourceType":"Parameters","id":"a4240573-cdc3-4585-b4a3-64fde5a2095f-parameters","parameter":[{"name":"subject","valueString":"56d5fe48-53b2-4599-870c-58bfc4ba0145"}]}],"extension":[{"url":"http://hl7.org/fhir/StructureDefinition/cqf-inputParameters","valueReference":{"reference":"#a4240573-cdc3-4585-b4a3-64fde5a2095f-parameters"}},{"url":"http://hl7.org/fhir/us/cqfmeasures/StructureDefinition/cqfm-testCaseDescription","valueMarkdown":"RVariable Encounter With Antihypertensive Order At Admission"}],"modifierExtension":[{"url":"http://hl7.org/fhir/us/cqfmeasures/StructureDefinition/cqfm-isTestCase","valueBoolean":true}],"status":"complete","type":"individual","measure":"https://madie.cms.gov/Measure/CMS1017FHIRHHFI","period":{"start":"2026-01-01","end":"2026-12-31"},"group":[{"id":"Group_1","population":[{"id":"InitialPopulation_1","code":{"coding":[{"system":"http://terminology.hl7.org/CodeSystem/measure-population","code":"initial-population","display":"Initial Population"}]},"count":1},{"id":"Denominator_1","code":{"coding":[{"system":"http://terminology.hl7.org/CodeSystem/measure-population","code":"denominator","display":"Denominator"}]},"count":1},{"id":"DenominatorExclusion_1","code":{"coding":[{"system":"http://terminology.hl7.org/CodeSystem/measure-population","code":"denominator-exclusion","display":"Denominator Exclusion"}]},"count":0},{"id":"Numerator_1","code":{"coding":[{"system":"http://terminology.hl7.org/CodeSystem/measure-population","code":"numerator","display":"Numerator"}]},"count":1},{"id":"NumeratorExclusion_1","code":{"coding":[{"system":"http://terminology.hl7.org/CodeSystem/measure-population","code":"numerator-exclusion","display":"Numerator Exclusion"}]},"count":0},{"id":"MeasureObservation_1_1_1","code":{"coding":[{"system":"http://terminology.hl7.org/CodeSystem/measure-population","code":"measure-observation","display":"Measure Observation"}]},"count":12},{"id":"MeasureObservation_1_2_1","code":{"coding":[{"system":"http://terminology.hl7.org/CodeSystem/measure-population","code":"measure-observation","display":"Measure Observation"}]},"count":1}],"measureScore":{"value":0.0}}],"evaluatedResource":[{"reference":"Encounter/9579847e-0d8d-4aa7-bde2-d900521e23c3"},{"reference":"Encounter/e5b1e85f-bf2c-493f-92cc-8287827ef504"},{"reference":"Patient/56d5fe48-53b2-4599-870c-58bfc4ba0145"},{"reference":"Claim/f5da5c12-ae54-46e6-b58a-128f756d5216"},{"reference":"Claim/ea8e3c49-7c8c-4e94-9a3a-f6b0f4adfabc"},{"reference":"MedicationRequest/f0cb93da-f35a-4ade-8f84-82f5c8fc0188"},{"reference":"Observation/30cc1c82-791e-4ae0-a932-e8f34e987d6a"}]},"request":{"method":"PUT","url":"MeasureReport/47bfdddb-f94e-4d22-94cf-d0912b836e8f"}},{"fullUrl":"Bundle/tests-NumerPass-RVwithAntihypertensiveOrderAtAdmission-bundle","resource":{"resourceType":"Bundle","id":"tests-NumerPass-RVwithAntihypertensiveOrderAtAdmission-bundle","type":"transaction","entry":[{"fullUrl":"https://madie.cms.gov/Encounter/9579847e-0d8d-4aa7-bde2-d900521e23c3","resource":{"resourceType":"Encounter","id":"9579847e-0d8d-4aa7-bde2-d900521e23c3","meta":{"profile":["http://hl7.org/fhir/us/qicore/StructureDefinition/qicore-encounter"]},"status":"finished","class":{"system":"http://terminology.hl7.org/CodeSystem/v3-ActCode","code":"IMP","display":"inpatient encounter"},"type":[{"coding":[{"system":"http://snomed.info/sct","code":"183452005","display":"Inpatient encounter"}]}],"subject":{"reference":"Patient/56d5fe48-53b2-4599-870c-58bfc4ba0145"},"period":{"start":"2026-10-19T08:30:00.000+00:00","end":"2026-10-31T08:15:00.000+00:00"},"reasonCode":[{"coding":[{"system":"http://snomed.info/sct","code":"14047009"}]},{"coding":[{"system":"http://snomed.info/sct","code":"64859006"}]}]},"request":{"method":"PUT","url":"Encounter/9579847e-0d8d-4aa7-bde2-d900521e23c3"}},{"fullUrl":"https://madie.cms.gov/Encounter/e5b1e85f-bf2c-493f-92cc-8287827ef504","resource":{"resourceType":"Encounter","id":"e5b1e85f-bf2c-493f-92cc-8287827ef504","meta":{"profile":["http://hl7.org/fhir/us/qicore/StructureDefinition/qicore-encounter"]},"status":"finished","class":{"system":"http://terminology.hl7.org/CodeSystem/v3-ActCode","code":"EMER","display":"emergency encounter"},"type":[{"coding":[{"system":"http://snomed.info/sct","code":"4525004","display":"Emergency Department Visit"}]}],"subject":{"reference":"Patient/56d5fe48-53b2-4599-870c-58bfc4ba0145"},"period":{"start":"2026-10-18T09:15:00.000+00:00","end":"2026-10-19T08:15:00.000+00:00"}},"request":{"method":"PUT","url":"Encounter/e5b1e85f-bf2c-493f-92cc-8287827ef504"}},{"fullUrl":"https://madie.cms.gov/Patient/56d5fe48-53b2-4599-870c-58bfc4ba0145","resource":{"resourceType":"Patient","id":"56d5fe48-53b2-4599-870c-58bfc4ba0145","meta":{"profile":["http://hl7.org/fhir/us/qicore/StructureDefinition/qicore-patient"]},"extension":[{"url":"http://hl7.org/fhir/us/core/StructureDefinition/us-core-race","extension":[{"url":"ombCategory","valueCoding":{"system":"urn:oid:2.16.840.1.113883.6.238","code":"2106-3","display":"White"}},{"url":"text","valueString":"White"}]},{"url":"http://hl7.org/fhir/us/core/StructureDefinition/us-core-ethnicity","extension":[{"url":"ombCategory","valueCoding":{"system":"urn:oid:2.16.840.1.113883.6.238","code":"2135-2","display":"Hispanic or Latino"}},{"url":"text","valueString":"Hispanic or Latino"}]},{"url":"http://hl7.org/fhir/us/core/StructureDefinition/us-core-sex","valueCode":"248153007"}],"identifier":[{"system":"http://hospital.smarthealthit.org","value":"999999999"}],"name":[{"family":"Example","given":["Patient"]}],"gender":"female","birthDate":"1956-01-01"},"request":{"method":"PUT","url":"Patient/56d5fe48-53b2-4599-870c-58bfc4ba0145"}},{"fullUrl":"https://madie.cms.gov/Claim/f5da5c12-ae54-46e6-b58a-128f756d5216","resource":{"resourceType":"Claim","id":"f5da5c12-ae54-46e6-b58a-128f756d5216","meta":{"profile":["http://hl7.org/fhir/us/qicore/StructureDefinition/qicore-claim"]},"status":"active","type":{"coding":[{"system":"http://terminology.hl7.org/CodeSystem/claim-type","code":"institutional","display":"Institutional"}]},"use":"claim","patient":{"reference":"Patient/56d5fe48-53b2-4599-870c-58bfc4ba0145"},"created":"2026-10-22","priority":{"coding":[{"system":"http://terminology.hl7.org/CodeSystem/processpriority","code":"normal"}]},"diagnosis":[{"sequence":1,"diagnosisCodeableConcept":{"coding":[{"system":"http://snomed.info/sct","code":"14047009"}]}}],"item":[{"sequence":1,"diagnosisSequence":[1,2],"encounter":[{"reference":"Encounter/9579847e-0d8d-4aa7-bde2-d900521e23c3"}]}]},"request":{"method":"PUT","url":"Claim/f5da5c12-ae54-46e6-b58a-128f756d5216"}},{"fullUrl":"https://madie.cms.gov/Claim/ea8e3c49-7c8c-4e94-9a3a-f6b0f4adfabc","resource":{"resourceType":"Claim","id":"ea8e3c49-7c8c-4e94-9a3a-f6b0f4adfabc","meta":{"profile":["http://hl7.org/fhir/us/qicore/StructureDefinition/qicore-claim"]},"status":"active","type":{"coding":[{"system":"http://terminology.hl7.org/CodeSystem/claim-type","code":"institutional","display":"Institutional"}]},"use":"claim","patient":{"reference":"Patient/56d5fe48-53b2-4599-870c-58bfc4ba0145"},"created":"2026-11-01","provider":{"reference":"Organization/Organization-1"},"priority":{"coding":[{"system":"http://terminology.hl7.org/CodeSystem/processpriority","code":"normal"}]},"diagnosis":[{"sequence":1,"diagnosisCodeableConcept":{"coding":[{"system":"http://hl7.org/fhir/sid/icd-10-cm","code":"M80.00XA","display":"Age-related osteoporosis with current pathological fracture, unspecified site, initial encounter for fracture"}]}}],"item":[{"sequence":1,"diagnosisSequence":[1,2],"encounter":[{"reference":"Encounter/9579847e-0d8d-4aa7-bde2-d900521e23c3"}]}]},"request":{"method":"PUT","url":"Claim/ea8e3c49-7c8c-4e94-9a3a-f6b0f4adfabc"}},{"fullUrl":"https://madie.cms.gov/MedicationRequest/f0cb93da-f35a-4ade-8f84-82f5c8fc0188","resource":{"resourceType":"MedicationRequest","id":"f0cb93da-f35a-4ade-8f84-82f5c8fc0188","meta":{"profile":["http://hl7.org/fhir/us/qicore/StructureDefinition/qicore-medicationrequest"]},"status":"active","intent":"order","category":[{"coding":[{"system":"http://terminology.hl7.org/CodeSystem/medicationrequest-category","code":"community","display":"Community"}]}],"medicationCodeableConcept":{"coding":[{"system":"http://www.nlm.nih.gov/research/umls/rxnorm","code":"1000001"}]},"subject":{"reference":"Patient/56d5fe48-53b2-4599-870c-58bfc4ba0145"},"authoredOn":"2026-10-15","dispenseRequest":{"quantity":{"value":14,"unit":"tablet","system":"http://unitsofmeasure.org","code":"{tablet}"},"expectedSupplyDuration":{"value":14,"unit":"days","system":"http://unitsofmeasure.org","code":"d"}}},"request":{"method":"PUT","url":"MedicationRequest/f0cb93da-f35a-4ade-8f84-82f5c8fc0188"}},{"fullUrl":"https://madie.cms.gov/Observation/30cc1c82-791e-4ae0-a932-e8f34e987d6a","resource":{"resourceType":"Observation","id":"30cc1c82-791e-4ae0-a932-e8f34e987d6a","meta":{"profile":["http://hl7.org/fhir/us/core/StructureDefinition/us-core-bmi"]},"status":"final","category":[{"coding":[{"system":"http://terminology.hl7.org/CodeSystem/observation-category","code":"vital-signs","display":"Vital Signs"}]}],"code":{"coding":[{"system":"http://loinc.org","code":"39156-5","display":"Body mass index (BMI) [Ratio]"}],"text":"BMI"},"subject":{"reference":"Patient/56d5fe48-53b2-4599-870c-58bfc4ba0145"},"effectiveDateTime":"2026-10-20T08:00:00.000+00:00","valueQuantity":{"value":28.3,"unit":"kg/m2","system":"http://unitsofmeasure.org","code":"kg/m2"}},"request":{"method":"PUT","url":"Observation/30cc1c82-791e-4ae0-a932-e8f34e987d6a"}},{"fullUrl":"https://madie.cms.gov/MeasureReport/47bfdddb-f94e-4d22-94cf-d0912b836e8f","resource":{"resourceType":"MeasureReport","id":"47bfdddb-f94e-4d22-94cf-d0912b836e8f","meta":{"profile":["http://hl7.org/fhir/us/cqfmeasures/StructureDefinition/test-case-cqfm"]},"contained":[{"resourceType":"Parameters","id":"a4240573-cdc3-4585-b4a3-64fde5a2095f-parameters","parameter":[{"name":"subject","valueString":"56d5fe48-53b2-4599-870c-58bfc4ba0145"}]}],"extension":[{"url":"http://hl7.org/fhir/StructureDefinition/cqf-inputParameters","valueReference":{"reference":"#a4240573-cdc3-4585-b4a3-64fde5a2095f-parameters"}},{"url":"http://hl7.org/fhir/us/cqfmeasures/StructureDefinition/cqfm-testCaseDescription","valueMarkdown":"RVariable Encounter With Antihypertensive Order At Admission"}],"modifierExtension":[{"url":"http://hl7.org/fhir/us/cqfmeasures/StructureDefinition/cqfm-isTestCase","valueBoolean":true}],"status":"complete","type":"individual","measure":"https://madie.cms.gov/Measure/CMS1017FHIRHHFI","period":{"start":"2026-01-01","end":"2026-12-31"},"group":[{"id":"Group_1","population":[{"id":"InitialPopulation_1","code":{"coding":[{"system":"http://terminology.hl7.org/CodeSystem/measure-population","code":"initial-population","display":"Initial Population"}]},"count":1},{"id":"Denominator_1","code":{"coding":[{"system":"http://terminology.hl7.org/CodeSystem/measure-population","code":"denominator","display":"Denominator"}]},"count":1},{"id":"DenominatorExclusion_1","code":{"coding":[{"system":"http://terminology.hl7.org/CodeSystem/measure-population","code":"denominator-exclusion","display":"Denominator Exclusion"}]},"count":0},{"id":"Numerator_1","code":{"coding":[{"system":"http://terminology.hl7.org/CodeSystem/measure-population","code":"numerator","display":"Numerator"}]},"count":1},{"id":"NumeratorExclusion_1","code":{"coding":[{"system":"http://terminology.hl7.org/CodeSystem/measure-population","code":"numerator-exclusion","display":"Numerator Exclusion"}]},"count":0},{"id":"MeasureObservation_1_1_1","code":{"coding":[{"system":"http://terminology.hl7.org/CodeSystem/measure-population","code":"measure-observation","display":"Measure Observation"}]},"count":12},{"id":"MeasureObservation_1_2_1","code":{"coding":[{"system":"http://terminology.hl7.org/CodeSystem/measure-population","code":"measure-observation","display":"Measure Observation"}]},"count":1}],"measureScore":{"value":0.0}}],"evaluatedResource":[{"reference":"Encounter/9579847e-0d8d-4aa7-bde2-d900521e23c3"},{"reference":"Encounter/e5b1e85f-bf2c-493f-92cc-8287827ef504"},{"reference":"Patient/56d5fe48-53b2-4599-870c-58bfc4ba0145"},{"reference":"Claim/f5da5c12-ae54-46e6-b58a-128f756d5216"},{"reference":"Claim/ea8e3c49-7c8c-4e94-9a3a-f6b0f4adfabc"},{"reference":"MedicationRequest/f0cb93da-f35a-4ade-8f84-82f5c8fc0188"},{"reference":"Observation/30cc1c82-791e-4ae0-a932-e8f34e987d6a"}]},"request":{"method":"PUT","url":"MeasureReport/47bfdddb-f94e-4d22-94cf-d0912b836e8f"}}]},"request":{"method":"PUT","url":"Bundle/tests-NumerPass-RVwithAntihypertensiveOrderAtAdmission-bundle"}},{"fullUrl":"Claim/ea8e3c49-7c8c-4e94-9a3a-f6b0f4adfabc","resource":{"resourceType":"Claim","id":"ea8e3c49-7c8c-4e94-9a3a-f6b0f4adfabc","meta":{"profile":["http://hl7.org/fhir/us/qicore/StructureDefinition/qicore-claim"]},"status":"active","type":{"coding":[{"system":"http://terminology.hl7.org/CodeSystem/claim-type","code":"institutional","display":"Institutional"}]},"use":"claim","patient":{"reference":"Patient/56d5fe48-53b2-4599-870c-58bfc4ba0145"},"created":"2026-11-01","provider":{"reference":"Organization/Organization-1"},"priority":{"coding":[{"system":"http://terminology.hl7.org/CodeSystem/processpriority","code":"normal"}]},"diagnosis":[{"sequence":1,"diagnosisCodeableConcept":{"coding":[{"system":"http://hl7.org/fhir/sid/icd-10-cm","code":"M80.00XA","display":"Age-related osteoporosis with current pathological fracture, unspecified site, initial encounter for fracture"}]}}],"item":[{"sequence":1,"diagnosisSequence":[1,2],"encounter":[{"reference":"Encounter/9579847e-0d8d-4aa7-bde2-d900521e23c3"}]}]},"request":{"method":"PUT","url":"Claim/ea8e3c49-7c8c-4e94-9a3a-f6b0f4adfabc"}},{"fullUrl":"Patient/56d5fe48-53b2-4599-870c-58bfc4ba0145","resource":{"resourceType":"Patient","id":"56d5fe48-53b2-4599-870c-58bfc4ba0145","meta":{"profile":["http://hl7.org/fhir/us/qicore/StructureDefinition/qicore-patient"]},"extension":[{"url":"http://hl7.org/fhir/us/core/StructureDefinition/us-core-race","extension":[{"url":"ombCategory","valueCoding":{"system":"urn:oid:2.16.840.1.113883.6.238","code":"2106-3","display":"White"}},{"url":"text","valueString":"White"}]},{"url":"http://hl7.org/fhir/us/core/StructureDefinition/us-core-ethnicity","extension":[{"url":"ombCategory","valueCoding":{"system":"urn:oid:2.16.840.1.113883.6.238","code":"2135-2","display":"Hispanic or Latino"}},{"url":"text","valueString":"Hispanic or Latino"}]},{"url":"http://hl7.org/fhir/us/core/StructureDefinition/us-core-sex","valueCode":"248153007"}],"identifier":[{"system":"http://hospital.smarthealthit.org","value":"999999999"}],"name":[{"family":"Example","given":["Patient"]}],"gender":"female","birthDate":"1956-01-01"},"request":{"method":"PUT","url":"Patient/56d5fe48-53b2-4599-870c-58bfc4ba0145"}},{"fullUrl":"Observation/30cc1c82-791e-4ae0-a932-e8f34e987d6a","resource":{"resourceType":"Observation","id":"30cc1c82-791e-4ae0-a932-e8f34e987d6a","meta":{"profile":["http://hl7.org/fhir/us/core/StructureDefinition/us-core-bmi"]},"status":"final","category":[{"coding":[{"system":"http://terminology.hl7.org/CodeSystem/observation-category","code":"vital-signs","display":"Vital Signs"}]}],"code":{"coding":[{"system":"http://loinc.org","code":"39156-5","display":"Body mass index (BMI) [Ratio]"}],"text":"BMI"},"subject":{"reference":"Patient/56d5fe48-53b2-4599-870c-58bfc4ba0145"},"effectiveDateTime":"2026-10-20T08:00:00.000+00:00","valueQuantity":{"value":28.3,"unit":"kg/m2","system":"http://unitsofmeasure.org","code":"kg/m2"}},"request":{"method":"PUT","url":"Observation/30cc1c82-791e-4ae0-a932-e8f34e987d6a"}},{"fullUrl":"MedicationRequest/f0cb93da-f35a-4ade-8f84-82f5c8fc0188","resource":{"resourceType":"MedicationRequest","id":"f0cb93da-f35a-4ade-8f84-82f5c8fc0188","meta":{"profile":["http://hl7.org/fhir/us/qicore/StructureDefinition/qicore-medicationrequest"]},"status":"active","intent":"order","category":[{"coding":[{"system":"http://terminology.hl7.org/CodeSystem/medicationrequest-category","code":"community","display":"Community"}]}],"medicationCodeableConcept":{"coding":[{"system":"http://www.nlm.nih.gov/research/umls/rxnorm","code":"1000001"}]},"subject":{"reference":"Patient/56d5fe48-53b2-4599-870c-58bfc4ba0145"},"authoredOn":"2026-10-15","dispenseRequest":{"quantity":{"value":14,"unit":"tablet","system":"http://unitsofmeasure.org","code":"{tablet}"},"expectedSupplyDuration":{"value":14,"unit":"days","system":"http://unitsofmeasure.org","code":"d"}}},"request":{"method":"PUT","url":"MedicationRequest/f0cb93da-f35a-4ade-8f84-82f5c8fc0188"}},{"fullUrl":"Claim/f5da5c12-ae54-46e6-b58a-128f756d5216","resource":{"resourceType":"Claim","id":"f5da5c12-ae54-46e6-b58a-128f756d5216","meta":{"profile":["http://hl7.org/fhir/us/qicore/StructureDefinition/qicore-claim"]},"status":"active","type":{"coding":[{"system":"http://terminology.hl7.org/CodeSystem/claim-type","code":"institutional","display":"Institutional"}]},"use":"claim","patient":{"reference":"Patient/56d5fe48-53b2-4599-870c-58bfc4ba0145"},"created":"2026-10-22","priority":{"coding":[{"system":"http://terminology.hl7.org/CodeSystem/processpriority","code":"normal"}]},"diagnosis":[{"sequence":1,"diagnosisCodeableConcept":{"coding":[{"system":"http://snomed.info/sct","code":"14047009"}]}}],"item":[{"sequence":1,"diagnosisSequence":[1,2],"encounter":[{"reference":"Encounter/9579847e-0d8d-4aa7-bde2-d900521e23c3"}]}]},"request":{"method":"PUT","url":"Claim/f5da5c12-ae54-46e6-b58a-128f756d5216"}},{"fullUrl":"Encounter/e5b1e85f-bf2c-493f-92cc-8287827ef504","resource":{"resourceType":"Encounter","id":"e5b1e85f-bf2c-493f-92cc-8287827ef504","meta":{"profile":["http://hl7.org/fhir/us/qicore/StructureDefinition/qicore-encounter"]},"status":"finished","class":{"system":"http://terminology.hl7.org/CodeSystem/v3-ActCode","code":"EMER","display":"emergency encounter"},"type":[{"coding":[{"system":"http://snomed.info/sct","code":"4525004","display":"Emergency Department Visit"}]}],"subject":{"reference":"Patient/56d5fe48-53b2-4599-870c-58bfc4ba0145"},"period":{"start":"2026-10-18T09:15:00.000+00:00","end":"2026-10-19T08:15:00.000+00:00"}},"request":{"method":"PUT","url":"Encounter/e5b1e85f-bf2c-493f-92cc-8287827ef504"}}]}