{"resourceType":"Bundle","id":"tests-3279a237-292f-47b1-9039-ba46b57e765a-bundle","type":"transaction","entry":[{"fullUrl":"Bundle/NUMERFail-FallNPOANoInjury","resource":{"resourceType":"Bundle","id":"NUMERFail-FallNPOANoInjury","type":"transaction","entry":[{"fullUrl":"https://madie.cms.gov/Encounter/e65e5437-2e3f-4e3d-b36f-99221b1292b7","resource":{"resourceType":"Encounter","id":"e65e5437-2e3f-4e3d-b36f-99221b1292b7","meta":{"profile":["http://hl7.org/fhir/us/qicore/StructureDefinition/qicore-encounter"]},"status":"finished","class":{"system":"http://terminology.hl7.org/CodeSystem/v3-ActCode","code":"IMP","display":"inpatient encounter"},"type":[{"coding":[{"system":"http://snomed.info/sct","code":"183452005"}]}],"subject":{"reference":"Patient/3279a237-292f-47b1-9039-ba46b57e765a"},"period":{"start":"2026-11-09T11:00:00.000+00:00","end":"2026-11-12T08:15:00.000+00:00"},"diagnosis":[{"extension":[{"url":"http://hl7.org/fhir/us/qicore/StructureDefinition/qicore-encounter-diagnosisPresentOnAdmission","valueCodeableConcept":{"coding":[{"system":"https://www.cms.gov/Medicare/Medicare-Fee-for-Service-Payment/HospitalAcqCond/Coding","code":"N"}]}}],"condition":{"reference":"Condition/b84a70b3-84b5-4555-9f5c-a239f8dc6a4e"}}]},"request":{"method":"PUT","url":"Encounter/e65e5437-2e3f-4e3d-b36f-99221b1292b7"}},{"fullUrl":"https://madie.cms.gov/Encounter/5eeb1652-6464-4b25-aecb-d393d906aed4","resource":{"resourceType":"Encounter","id":"5eeb1652-6464-4b25-aecb-d393d906aed4","meta":{"profile":["http://hl7.org/fhir/us/qicore/StructureDefinition/qicore-encounter"]},"status":"finished","class":{"system":"http://terminology.hl7.org/CodeSystem/v3-ActCode","code":"IMP","display":"inpatient encounter"},"type":[{"coding":[{"system":"http://snomed.info/sct","code":"4525004"}]}],"subject":{"reference":"Patient/3279a237-292f-47b1-9039-ba46b57e765a"},"period":{"start":"2026-11-08T08:00:00.000+00:00","end":"2026-11-09T10:15:00.000+00:00"}},"request":{"method":"PUT","url":"Encounter/5eeb1652-6464-4b25-aecb-d393d906aed4"}},{"fullUrl":"https://madie.cms.gov/Condition/b84a70b3-84b5-4555-9f5c-a239f8dc6a4e","resource":{"resourceType":"Condition","id":"b84a70b3-84b5-4555-9f5c-a239f8dc6a4e","meta":{"profile":["http://hl7.org/fhir/us/qicore/StructureDefinition/qicore-condition"]},"clinicalStatus":{"coding":[{"system":"http://terminology.hl7.org/CodeSystem/condition-clinical","code":"active"}]},"verificationStatus":{"coding":[{"system":"http://terminology.hl7.org/CodeSystem/condition-ver-status","code":"confirmed"}]},"category":[{"coding":[{"system":"http://terminology.hl7.org/CodeSystem/condition-category","code":"encounter-diagnosis","display":"Encounter Diagnosis"}]}],"code":{"coding":[{"system":"http://snomed.info/sct","code":"242390007"}]},"subject":{"reference":"Patient/3279a237-292f-47b1-9039-ba46b57e765a"},"encounter":{"reference":"Encounter/e65e5437-2e3f-4e3d-b36f-99221b1292b7"}},"request":{"method":"PUT","url":"Condition/b84a70b3-84b5-4555-9f5c-a239f8dc6a4e"}},{"fullUrl":"https://madie.cms.gov/Patient/3279a237-292f-47b1-9039-ba46b57e765a","resource":{"resourceType":"Patient","id":"3279a237-292f-47b1-9039-ba46b57e765a","meta":{"profile":["http://hl7.org/fhir/us/qicore/StructureDefinition/qicore-patient"]},"extension":[{"url":"http://hl7.org/fhir/us/core/StructureDefinition/us-core-race","extension":[{"url":"ombCategory","valueCoding":{"system":"urn:oid:2.16.840.1.113883.6.238","code":"2054-5","display":"Black or African American","userSelected":true}},{"url":"text","valueString":"Black or African American"}]},{"url":"http://hl7.org/fhir/us/core/StructureDefinition/us-core-ethnicity","extension":[{"url":"ombCategory","valueCoding":{"system":"urn:oid:2.16.840.1.113883.6.238","code":"2186-5","display":"Not Hispanic or Latino","userSelected":true}},{"url":"text","valueString":"Not Hispanic or Latino"}]}],"identifier":[{"type":{"coding":[{"system":"http://terminology.hl7.org/CodeSystem/v2-0203","code":"MR"}]},"system":"https://bonnie-fhir.healthit.gov/","value":"61152a3b98086b7a79cbd7c1"}],"active":true,"name":[{"use":"usual","family":"NUMERFail","given":["FallNPOANoInjury"]}],"gender":"male","birthDate":"1964-12-11"},"request":{"method":"PUT","url":"Patient/3279a237-292f-47b1-9039-ba46b57e765a"}},{"fullUrl":"https://madie.cms.gov/MeasureReport/bb0dd7be-5646-4e19-831d-060662cc4940","resource":{"resourceType":"MeasureReport","id":"bb0dd7be-5646-4e19-831d-060662cc4940","meta":{"profile":["http://hl7.org/fhir/us/cqfmeasures/StructureDefinition/test-case-cqfm"]},"contained":[{"resourceType":"Parameters","id":"b85fc845-f892-4cf5-b9ae-20ae76adb8ad-parameters","parameter":[{"name":"subject","valueString":"3279a237-292f-47b1-9039-ba46b57e765a"}]}],"extension":[{"url":"http://hl7.org/fhir/StructureDefinition/cqf-inputParameters","valueReference":{"reference":"#b85fc845-f892-4cf5-b9ae-20ae76adb8ad-parameters"}},{"url":"http://hl7.org/fhir/us/cqfmeasures/StructureDefinition/cqfm-testCaseDescription","valueMarkdown":"Encounter diagnoses include a fall NPOA but no injury. Numerator fails"}],"modifierExtension":[{"url":"http://hl7.org/fhir/us/cqfmeasures/StructureDefinition/cqfm-isTestCase","valueBoolean":true}],"status":"complete","type":"individual","measure":"https://madie.cms.gov/Measure/CMS1017FHIRHHFI","period":{"start":"2026-01-01","end":"2026-12-31"},"group":[{"id":"Group_1","population":[{"id":"InitialPopulation_1","code":{"coding":[{"system":"http://terminology.hl7.org/CodeSystem/measure-population","code":"initial-population","display":"Initial Population"}]},"count":1},{"id":"Denominator_1","code":{"coding":[{"system":"http://terminology.hl7.org/CodeSystem/measure-population","code":"denominator","display":"Denominator"}]},"count":1},{"id":"DenominatorExclusion_1","code":{"coding":[{"system":"http://terminology.hl7.org/CodeSystem/measure-population","code":"denominator-exclusion","display":"Denominator Exclusion"}]},"count":0},{"id":"Numerator_1","code":{"coding":[{"system":"http://terminology.hl7.org/CodeSystem/measure-population","code":"numerator","display":"Numerator"}]},"count":0},{"id":"NumeratorExclusion_1","code":{"coding":[{"system":"http://terminology.hl7.org/CodeSystem/measure-population","code":"numerator-exclusion","display":"Numerator Exclusion"}]},"count":0},{"id":"MeasureObservation_1_1_1","code":{"coding":[{"system":"http://terminology.hl7.org/CodeSystem/measure-population","code":"measure-observation","display":"Measure Observation"}]},"count":4}],"measureScore":{"value":0.0}}],"evaluatedResource":[{"reference":"Encounter/e65e5437-2e3f-4e3d-b36f-99221b1292b7"},{"reference":"Encounter/5eeb1652-6464-4b25-aecb-d393d906aed4"},{"reference":"Condition/b84a70b3-84b5-4555-9f5c-a239f8dc6a4e"},{"reference":"Patient/3279a237-292f-47b1-9039-ba46b57e765a"}]},"request":{"method":"PUT","url":"MeasureReport/bb0dd7be-5646-4e19-831d-060662cc4940"}}]},"request":{"method":"PUT","url":"Bundle/NUMERFail-FallNPOANoInjury"}},{"fullUrl":"Encounter/e65e5437-2e3f-4e3d-b36f-99221b1292b7","resource":{"resourceType":"Encounter","id":"e65e5437-2e3f-4e3d-b36f-99221b1292b7","meta":{"profile":["http://hl7.org/fhir/us/qicore/StructureDefinition/qicore-encounter"]},"status":"finished","class":{"system":"http://terminology.hl7.org/CodeSystem/v3-ActCode","code":"IMP","display":"inpatient encounter"},"type":[{"coding":[{"system":"http://snomed.info/sct","code":"183452005"}]}],"subject":{"reference":"Patient/3279a237-292f-47b1-9039-ba46b57e765a"},"period":{"start":"2026-11-09T11:00:00.000+00:00","end":"2026-11-12T08:15:00.000+00:00"},"diagnosis":[{"extension":[{"url":"http://hl7.org/fhir/us/qicore/StructureDefinition/qicore-encounter-diagnosisPresentOnAdmission","valueCodeableConcept":{"coding":[{"system":"https://www.cms.gov/Medicare/Medicare-Fee-for-Service-Payment/HospitalAcqCond/Coding","code":"N"}]}}],"condition":{"reference":"Condition/b84a70b3-84b5-4555-9f5c-a239f8dc6a4e"}}]},"request":{"method":"PUT","url":"Encounter/e65e5437-2e3f-4e3d-b36f-99221b1292b7"}},{"fullUrl":"MeasureReport/bb0dd7be-5646-4e19-831d-060662cc4940","resource":{"resourceType":"MeasureReport","id":"bb0dd7be-5646-4e19-831d-060662cc4940","meta":{"profile":["http://hl7.org/fhir/us/cqfmeasures/StructureDefinition/test-case-cqfm"]},"contained":[{"resourceType":"Parameters","id":"b85fc845-f892-4cf5-b9ae-20ae76adb8ad-parameters","parameter":[{"name":"subject","valueString":"3279a237-292f-47b1-9039-ba46b57e765a"}]}],"extension":[{"url":"http://hl7.org/fhir/StructureDefinition/cqf-inputParameters","valueReference":{"reference":"#b85fc845-f892-4cf5-b9ae-20ae76adb8ad-parameters"}},{"url":"http://hl7.org/fhir/us/cqfmeasures/StructureDefinition/cqfm-testCaseDescription","valueMarkdown":"Encounter diagnoses include a fall NPOA but no injury. Numerator fails"}],"modifierExtension":[{"url":"http://hl7.org/fhir/us/cqfmeasures/StructureDefinition/cqfm-isTestCase","valueBoolean":true}],"status":"complete","type":"individual","measure":"https://madie.cms.gov/Measure/CMS1017FHIRHHFI","period":{"start":"2026-01-01","end":"2026-12-31"},"group":[{"id":"Group_1","population":[{"id":"InitialPopulation_1","code":{"coding":[{"system":"http://terminology.hl7.org/CodeSystem/measure-population","code":"initial-population","display":"Initial Population"}]},"count":1},{"id":"Denominator_1","code":{"coding":[{"system":"http://terminology.hl7.org/CodeSystem/measure-population","code":"denominator","display":"Denominator"}]},"count":1},{"id":"DenominatorExclusion_1","code":{"coding":[{"system":"http://terminology.hl7.org/CodeSystem/measure-population","code":"denominator-exclusion","display":"Denominator Exclusion"}]},"count":0},{"id":"Numerator_1","code":{"coding":[{"system":"http://terminology.hl7.org/CodeSystem/measure-population","code":"numerator","display":"Numerator"}]},"count":0},{"id":"NumeratorExclusion_1","code":{"coding":[{"system":"http://terminology.hl7.org/CodeSystem/measure-population","code":"numerator-exclusion","display":"Numerator Exclusion"}]},"count":0},{"id":"MeasureObservation_1_1_1","code":{"coding":[{"system":"http://terminology.hl7.org/CodeSystem/measure-population","code":"measure-observation","display":"Measure Observation"}]},"count":4}],"measureScore":{"value":0.0}}],"evaluatedResource":[{"reference":"Encounter/e65e5437-2e3f-4e3d-b36f-99221b1292b7"},{"reference":"Encounter/5eeb1652-6464-4b25-aecb-d393d906aed4"},{"reference":"Condition/b84a70b3-84b5-4555-9f5c-a239f8dc6a4e"},{"reference":"Patient/3279a237-292f-47b1-9039-ba46b57e765a"}]},"request":{"method":"PUT","url":"MeasureReport/bb0dd7be-5646-4e19-831d-060662cc4940"}},{"fullUrl":"Encounter/5eeb1652-6464-4b25-aecb-d393d906aed4","resource":{"resourceType":"Encounter","id":"5eeb1652-6464-4b25-aecb-d393d906aed4","meta":{"profile":["http://hl7.org/fhir/us/qicore/StructureDefinition/qicore-encounter"]},"status":"finished","class":{"system":"http://terminology.hl7.org/CodeSystem/v3-ActCode","code":"IMP","display":"inpatient encounter"},"type":[{"coding":[{"system":"http://snomed.info/sct","code":"4525004"}]}],"subject":{"reference":"Patient/3279a237-292f-47b1-9039-ba46b57e765a"},"period":{"start":"2026-11-08T08:00:00.000+00:00","end":"2026-11-09T10:15:00.000+00:00"}},"request":{"method":"PUT","url":"Encounter/5eeb1652-6464-4b25-aecb-d393d906aed4"}},{"fullUrl":"Patient/3279a237-292f-47b1-9039-ba46b57e765a","resource":{"resourceType":"Patient","id":"3279a237-292f-47b1-9039-ba46b57e765a","meta":{"profile":["http://hl7.org/fhir/us/qicore/StructureDefinition/qicore-patient"]},"extension":[{"url":"http://hl7.org/fhir/us/core/StructureDefinition/us-core-race","extension":[{"url":"ombCategory","valueCoding":{"system":"urn:oid:2.16.840.1.113883.6.238","code":"2054-5","display":"Black or African American","userSelected":true}},{"url":"text","valueString":"Black or African American"}]},{"url":"http://hl7.org/fhir/us/core/StructureDefinition/us-core-ethnicity","extension":[{"url":"ombCategory","valueCoding":{"system":"urn:oid:2.16.840.1.113883.6.238","code":"2186-5","display":"Not Hispanic or Latino","userSelected":true}},{"url":"text","valueString":"Not Hispanic or Latino"}]}],"identifier":[{"type":{"coding":[{"system":"http://terminology.hl7.org/CodeSystem/v2-0203","code":"MR"}]},"system":"https://bonnie-fhir.healthit.gov/","value":"61152a3b98086b7a79cbd7c1"}],"active":true,"name":[{"use":"usual","family":"NUMERFail","given":["FallNPOANoInjury"]}],"gender":"male","birthDate":"1964-12-11"},"request":{"method":"PUT","url":"Patient/3279a237-292f-47b1-9039-ba46b57e765a"}},{"fullUrl":"Condition/b84a70b3-84b5-4555-9f5c-a239f8dc6a4e","resource":{"resourceType":"Condition","id":"b84a70b3-84b5-4555-9f5c-a239f8dc6a4e","meta":{"profile":["http://hl7.org/fhir/us/qicore/StructureDefinition/qicore-condition"]},"clinicalStatus":{"coding":[{"system":"http://terminology.hl7.org/CodeSystem/condition-clinical","code":"active"}]},"verificationStatus":{"coding":[{"system":"http://terminology.hl7.org/CodeSystem/condition-ver-status","code":"confirmed"}]},"category":[{"coding":[{"system":"http://terminology.hl7.org/CodeSystem/condition-category","code":"encounter-diagnosis","display":"Encounter Diagnosis"}]}],"code":{"coding":[{"system":"http://snomed.info/sct","code":"242390007"}]},"subject":{"reference":"Patient/3279a237-292f-47b1-9039-ba46b57e765a"},"encounter":{"reference":"Encounter/e65e5437-2e3f-4e3d-b36f-99221b1292b7"}},"request":{"method":"PUT","url":"Condition/b84a70b3-84b5-4555-9f5c-a239f8dc6a4e"}}]}