{"resourceType":"Bundle","id":"tests-951a2d40-7274-4820-bfa5-51d28cfd91ab-bundle","type":"transaction","entry":[{"fullUrl":"Encounter/91d4fa61-ab5f-4233-8a39-445590f81af8","resource":{"resourceType":"Encounter","id":"91d4fa61-ab5f-4233-8a39-445590f81af8","meta":{"profile":["http://hl7.org/fhir/us/qicore/StructureDefinition/qicore-encounter"]},"status":"finished","class":{"system":"http://terminology.hl7.org/CodeSystem/v3-ActCode","code":"IMP","display":"inpatient encounter"},"type":[{"coding":[{"system":"http://snomed.info/sct","code":"4525004"}]}],"subject":{"reference":"Patient/951a2d40-7274-4820-bfa5-51d28cfd91ab"},"period":{"start":"2026-11-09T08:00:00.000+00:00","end":"2026-11-09T10:15:00.000+00:00"}},"request":{"method":"PUT","url":"Encounter/91d4fa61-ab5f-4233-8a39-445590f81af8"}},{"fullUrl":"Encounter/86f46dca-acd1-4319-9448-e17be62b4598","resource":{"resourceType":"Encounter","id":"86f46dca-acd1-4319-9448-e17be62b4598","meta":{"profile":["http://hl7.org/fhir/us/qicore/StructureDefinition/qicore-encounter"]},"status":"finished","class":{"system":"http://terminology.hl7.org/CodeSystem/v3-ActCode","code":"IMP","display":"inpatient encounter"},"type":[{"coding":[{"system":"http://snomed.info/sct","code":"448951000124107"}]}],"subject":{"reference":"Patient/951a2d40-7274-4820-bfa5-51d28cfd91ab"},"period":{"start":"2026-11-09T11:00:00.000+00:00","end":"2026-11-09T22:15:00.000+00:00"},"reasonReference":[{"reference":"Condition/50e605f0-3ddb-42c0-aa5a-020ede2ad231"}]},"request":{"method":"PUT","url":"Encounter/86f46dca-acd1-4319-9448-e17be62b4598"}},{"fullUrl":"Bundle/DENEXPass-FallPOAisW","resource":{"resourceType":"Bundle","id":"DENEXPass-FallPOAisW","type":"transaction","entry":[{"fullUrl":"https://madie.cms.gov/Patient/951a2d40-7274-4820-bfa5-51d28cfd91ab","resource":{"resourceType":"Patient","id":"951a2d40-7274-4820-bfa5-51d28cfd91ab","meta":{"profile":["http://hl7.org/fhir/us/qicore/StructureDefinition/qicore-patient"]},"extension":[{"url":"http://hl7.org/fhir/us/core/StructureDefinition/us-core-race","extension":[{"url":"ombCategory","valueCoding":{"system":"urn:oid:2.16.840.1.113883.6.238","code":"1002-5","display":"American Indian or Alaska Native","userSelected":true}},{"url":"text","valueString":"American Indian or Alaska Native"}]},{"url":"http://hl7.org/fhir/us/core/StructureDefinition/us-core-ethnicity","extension":[{"url":"ombCategory","valueCoding":{"system":"urn:oid:2.16.840.1.113883.6.238","code":"2135-2","display":"Hispanic or Latino","userSelected":true}},{"url":"text","valueString":"Hispanic or Latino"}]}],"identifier":[{"type":{"coding":[{"system":"http://terminology.hl7.org/CodeSystem/v2-0203","code":"MR"}]},"system":"https://bonnie-fhir.healthit.gov/","value":"61152a3b98086b7a79cbd7c1"}],"active":true,"name":[{"use":"usual","family":"DENEXPass","given":["FallPOAisW"]}],"gender":"female","birthDate":"1964-12-11"},"request":{"method":"PUT","url":"Patient/951a2d40-7274-4820-bfa5-51d28cfd91ab"}},{"fullUrl":"https://madie.cms.gov/Encounter/91d4fa61-ab5f-4233-8a39-445590f81af8","resource":{"resourceType":"Encounter","id":"91d4fa61-ab5f-4233-8a39-445590f81af8","meta":{"profile":["http://hl7.org/fhir/us/qicore/StructureDefinition/qicore-encounter"]},"status":"finished","class":{"system":"http://terminology.hl7.org/CodeSystem/v3-ActCode","code":"IMP","display":"inpatient encounter"},"type":[{"coding":[{"system":"http://snomed.info/sct","code":"4525004"}]}],"subject":{"reference":"Patient/951a2d40-7274-4820-bfa5-51d28cfd91ab"},"period":{"start":"2026-11-09T08:00:00.000+00:00","end":"2026-11-09T10:15:00.000+00:00"}},"request":{"method":"PUT","url":"Encounter/91d4fa61-ab5f-4233-8a39-445590f81af8"}},{"fullUrl":"https://madie.cms.gov/Encounter/c78458ad-e4e9-4994-8aa6-210253569b6f","resource":{"resourceType":"Encounter","id":"c78458ad-e4e9-4994-8aa6-210253569b6f","meta":{"profile":["http://hl7.org/fhir/us/qicore/StructureDefinition/qicore-encounter"]},"status":"finished","class":{"system":"http://terminology.hl7.org/CodeSystem/v3-ActCode","code":"IMP","display":"inpatient encounter"},"type":[{"coding":[{"system":"http://snomed.info/sct","code":"183452005"}]}],"subject":{"reference":"Patient/951a2d40-7274-4820-bfa5-51d28cfd91ab"},"period":{"start":"2026-11-09T11:00:00.000+00:00","end":"2026-11-12T08:15:00.000+00:00"}},"request":{"method":"PUT","url":"Encounter/c78458ad-e4e9-4994-8aa6-210253569b6f"}},{"fullUrl":"https://madie.cms.gov/Encounter/86f46dca-acd1-4319-9448-e17be62b4598","resource":{"resourceType":"Encounter","id":"86f46dca-acd1-4319-9448-e17be62b4598","meta":{"profile":["http://hl7.org/fhir/us/qicore/StructureDefinition/qicore-encounter"]},"status":"finished","class":{"system":"http://terminology.hl7.org/CodeSystem/v3-ActCode","code":"IMP","display":"inpatient encounter"},"type":[{"coding":[{"system":"http://snomed.info/sct","code":"448951000124107"}]}],"subject":{"reference":"Patient/951a2d40-7274-4820-bfa5-51d28cfd91ab"},"period":{"start":"2026-11-09T11:00:00.000+00:00","end":"2026-11-09T22:15:00.000+00:00"},"reasonReference":[{"reference":"Condition/50e605f0-3ddb-42c0-aa5a-020ede2ad231"}]},"request":{"method":"PUT","url":"Encounter/86f46dca-acd1-4319-9448-e17be62b4598"}},{"fullUrl":"https://madie.cms.gov/Condition/50e605f0-3ddb-42c0-aa5a-020ede2ad231","resource":{"resourceType":"Condition","id":"50e605f0-3ddb-42c0-aa5a-020ede2ad231","meta":{"profile":["http://hl7.org/fhir/us/qicore/StructureDefinition/qicore-condition-encounter-diagnosis"]},"clinicalStatus":{"coding":[{"system":"http://terminology.hl7.org/CodeSystem/condition-clinical","code":"active"}]},"verificationStatus":{"coding":[{"system":"http://terminology.hl7.org/CodeSystem/condition-ver-status","code":"confirmed"}]},"category":[{"coding":[{"system":"http://terminology.hl7.org/CodeSystem/condition-category","code":"encounter-diagnosis","display":"Encounter Diagnosis"}]}],"code":{"coding":[{"system":"http://snomed.info/sct","code":"56307009"}]},"subject":{"reference":"Patient/951a2d40-7274-4820-bfa5-51d28cfd91ab"},"encounter":{"reference":"Encounter/c78458ad-e4e9-4994-8aa6-210253569b6f"}},"request":{"method":"PUT","url":"Condition/50e605f0-3ddb-42c0-aa5a-020ede2ad231"}},{"fullUrl":"https://madie.cms.gov/Claim/5a8c6273-04f7-49f0-a803-2071919e8701","resource":{"resourceType":"Claim","id":"5a8c6273-04f7-49f0-a803-2071919e8701","meta":{"profile":["http://hl7.org/fhir/us/qicore/StructureDefinition/qicore-claim"]},"status":"active","type":{"coding":[{"system":"http://terminology.hl7.org/CodeSystem/claim-type","code":"professional","display":"Professional"}]},"use":"claim","patient":{"reference":"Patient/0dfafc1a-cf94-4ca1-becf-c1b843896810"},"created":"2026-11-10","priority":{"coding":[{"system":"http://terminology.hl7.org/CodeSystem/processpriority","code":"normal"}]},"diagnosis":[{"sequence":1,"diagnosisCodeableConcept":{"coding":[{"system":"http://snomed.info/sct","code":"56307009"}]},"onAdmission":{"coding":[{"system":"https://www.cms.gov/Medicare/Medicare-Fee-for-Service-Payment/HospitalAcqCond/Coding","code":"W"}]}}],"item":[{"sequence":1,"diagnosisSequence":[1,2],"encounter":[{"reference":"Encounter/c78458ad-e4e9-4994-8aa6-210253569b6f"}]}]},"request":{"method":"PUT","url":"Claim/5a8c6273-04f7-49f0-a803-2071919e8701"}},{"fullUrl":"https://madie.cms.gov/MeasureReport/e6dd666e-53a3-47e2-9ba5-f291857277c1","resource":{"resourceType":"MeasureReport","id":"e6dd666e-53a3-47e2-9ba5-f291857277c1","meta":{"profile":["http://hl7.org/fhir/us/cqfmeasures/StructureDefinition/test-case-cqfm"]},"contained":[{"resourceType":"Parameters","id":"3d6e22ad-b4ad-4cba-96f0-da289ea88c24-parameters","parameter":[{"name":"subject","valueString":"951a2d40-7274-4820-bfa5-51d28cfd91ab"}]}],"extension":[{"url":"http://hl7.org/fhir/StructureDefinition/cqf-inputParameters","valueReference":{"reference":"#3d6e22ad-b4ad-4cba-96f0-da289ea88c24-parameters"}},{"url":"http://hl7.org/fhir/us/cqfmeasures/StructureDefinition/cqfm-testCaseDescription","valueMarkdown":"Encounter starts in ED, then Observation, then IP with a fall POA (ind = W). Denom excluded\n"}],"modifierExtension":[{"url":"http://hl7.org/fhir/us/cqfmeasures/StructureDefinition/cqfm-isTestCase","valueBoolean":true}],"status":"complete","type":"individual","measure":"https://madie.cms.gov/Measure/CMS1017FHIRHHFI","period":{"start":"2026-01-01","end":"2026-12-31"},"group":[{"id":"Group_1","population":[{"id":"InitialPopulation_1","code":{"coding":[{"system":"http://terminology.hl7.org/CodeSystem/measure-population","code":"initial-population","display":"Initial Population"}]},"count":1},{"id":"Denominator_1","code":{"coding":[{"system":"http://terminology.hl7.org/CodeSystem/measure-population","code":"denominator","display":"Denominator"}]},"count":1},{"id":"DenominatorExclusion_1","code":{"coding":[{"system":"http://terminology.hl7.org/CodeSystem/measure-population","code":"denominator-exclusion","display":"Denominator Exclusion"}]},"count":1},{"id":"Numerator_1","code":{"coding":[{"system":"http://terminology.hl7.org/CodeSystem/measure-population","code":"numerator","display":"Numerator"}]},"count":0},{"id":"NumeratorExclusion_1","code":{"coding":[{"system":"http://terminology.hl7.org/CodeSystem/measure-population","code":"numerator-exclusion","display":"Numerator Exclusion"}]},"count":0}],"measureScore":{"value":0.0}}],"evaluatedResource":[{"reference":"Patient/951a2d40-7274-4820-bfa5-51d28cfd91ab"},{"reference":"Encounter/91d4fa61-ab5f-4233-8a39-445590f81af8"},{"reference":"Encounter/c78458ad-e4e9-4994-8aa6-210253569b6f"},{"reference":"Encounter/86f46dca-acd1-4319-9448-e17be62b4598"},{"reference":"Condition/50e605f0-3ddb-42c0-aa5a-020ede2ad231"},{"reference":"Claim/5a8c6273-04f7-49f0-a803-2071919e8701"}]},"request":{"method":"PUT","url":"MeasureReport/e6dd666e-53a3-47e2-9ba5-f291857277c1"}}]},"request":{"method":"PUT","url":"Bundle/DENEXPass-FallPOAisW"}},{"fullUrl":"Condition/50e605f0-3ddb-42c0-aa5a-020ede2ad231","resource":{"resourceType":"Condition","id":"50e605f0-3ddb-42c0-aa5a-020ede2ad231","meta":{"profile":["http://hl7.org/fhir/us/qicore/StructureDefinition/qicore-condition-encounter-diagnosis"]},"clinicalStatus":{"coding":[{"system":"http://terminology.hl7.org/CodeSystem/condition-clinical","code":"active"}]},"verificationStatus":{"coding":[{"system":"http://terminology.hl7.org/CodeSystem/condition-ver-status","code":"confirmed"}]},"category":[{"coding":[{"system":"http://terminology.hl7.org/CodeSystem/condition-category","code":"encounter-diagnosis","display":"Encounter Diagnosis"}]}],"code":{"coding":[{"system":"http://snomed.info/sct","code":"56307009"}]},"subject":{"reference":"Patient/951a2d40-7274-4820-bfa5-51d28cfd91ab"},"encounter":{"reference":"Encounter/c78458ad-e4e9-4994-8aa6-210253569b6f"}},"request":{"method":"PUT","url":"Condition/50e605f0-3ddb-42c0-aa5a-020ede2ad231"}},{"fullUrl":"Encounter/c78458ad-e4e9-4994-8aa6-210253569b6f","resource":{"resourceType":"Encounter","id":"c78458ad-e4e9-4994-8aa6-210253569b6f","meta":{"profile":["http://hl7.org/fhir/us/qicore/StructureDefinition/qicore-encounter"]},"status":"finished","class":{"system":"http://terminology.hl7.org/CodeSystem/v3-ActCode","code":"IMP","display":"inpatient encounter"},"type":[{"coding":[{"system":"http://snomed.info/sct","code":"183452005"}]}],"subject":{"reference":"Patient/951a2d40-7274-4820-bfa5-51d28cfd91ab"},"period":{"start":"2026-11-09T11:00:00.000+00:00","end":"2026-11-12T08:15:00.000+00:00"}},"request":{"method":"PUT","url":"Encounter/c78458ad-e4e9-4994-8aa6-210253569b6f"}},{"fullUrl":"Claim/5a8c6273-04f7-49f0-a803-2071919e8701","resource":{"resourceType":"Claim","id":"5a8c6273-04f7-49f0-a803-2071919e8701","meta":{"profile":["http://hl7.org/fhir/us/qicore/StructureDefinition/qicore-claim"]},"status":"active","type":{"coding":[{"system":"http://terminology.hl7.org/CodeSystem/claim-type","code":"professional","display":"Professional"}]},"use":"claim","patient":{"reference":"Patient/0dfafc1a-cf94-4ca1-becf-c1b843896810"},"created":"2026-11-10","priority":{"coding":[{"system":"http://terminology.hl7.org/CodeSystem/processpriority","code":"normal"}]},"diagnosis":[{"sequence":1,"diagnosisCodeableConcept":{"coding":[{"system":"http://snomed.info/sct","code":"56307009"}]},"onAdmission":{"coding":[{"system":"https://www.cms.gov/Medicare/Medicare-Fee-for-Service-Payment/HospitalAcqCond/Coding","code":"W"}]}}],"item":[{"sequence":1,"diagnosisSequence":[1,2],"encounter":[{"reference":"Encounter/c78458ad-e4e9-4994-8aa6-210253569b6f"}]}]},"request":{"method":"PUT","url":"Claim/5a8c6273-04f7-49f0-a803-2071919e8701"}},{"fullUrl":"Patient/951a2d40-7274-4820-bfa5-51d28cfd91ab","resource":{"resourceType":"Patient","id":"951a2d40-7274-4820-bfa5-51d28cfd91ab","meta":{"profile":["http://hl7.org/fhir/us/qicore/StructureDefinition/qicore-patient"]},"extension":[{"url":"http://hl7.org/fhir/us/core/StructureDefinition/us-core-race","extension":[{"url":"ombCategory","valueCoding":{"system":"urn:oid:2.16.840.1.113883.6.238","code":"1002-5","display":"American Indian or Alaska Native","userSelected":true}},{"url":"text","valueString":"American Indian or Alaska Native"}]},{"url":"http://hl7.org/fhir/us/core/StructureDefinition/us-core-ethnicity","extension":[{"url":"ombCategory","valueCoding":{"system":"urn:oid:2.16.840.1.113883.6.238","code":"2135-2","display":"Hispanic or Latino","userSelected":true}},{"url":"text","valueString":"Hispanic or Latino"}]}],"identifier":[{"type":{"coding":[{"system":"http://terminology.hl7.org/CodeSystem/v2-0203","code":"MR"}]},"system":"https://bonnie-fhir.healthit.gov/","value":"61152a3b98086b7a79cbd7c1"}],"active":true,"name":[{"use":"usual","family":"DENEXPass","given":["FallPOAisW"]}],"gender":"female","birthDate":"1964-12-11"},"request":{"method":"PUT","url":"Patient/951a2d40-7274-4820-bfa5-51d28cfd91ab"}},{"fullUrl":"MeasureReport/e6dd666e-53a3-47e2-9ba5-f291857277c1","resource":{"resourceType":"MeasureReport","id":"e6dd666e-53a3-47e2-9ba5-f291857277c1","meta":{"profile":["http://hl7.org/fhir/us/cqfmeasures/StructureDefinition/test-case-cqfm"]},"contained":[{"resourceType":"Parameters","id":"3d6e22ad-b4ad-4cba-96f0-da289ea88c24-parameters","parameter":[{"name":"subject","valueString":"951a2d40-7274-4820-bfa5-51d28cfd91ab"}]}],"extension":[{"url":"http://hl7.org/fhir/StructureDefinition/cqf-inputParameters","valueReference":{"reference":"#3d6e22ad-b4ad-4cba-96f0-da289ea88c24-parameters"}},{"url":"http://hl7.org/fhir/us/cqfmeasures/StructureDefinition/cqfm-testCaseDescription","valueMarkdown":"Encounter starts in ED, then Observation, then IP with a fall POA (ind = W). Denom excluded\n"}],"modifierExtension":[{"url":"http://hl7.org/fhir/us/cqfmeasures/StructureDefinition/cqfm-isTestCase","valueBoolean":true}],"status":"complete","type":"individual","measure":"https://madie.cms.gov/Measure/CMS1017FHIRHHFI","period":{"start":"2026-01-01","end":"2026-12-31"},"group":[{"id":"Group_1","population":[{"id":"InitialPopulation_1","code":{"coding":[{"system":"http://terminology.hl7.org/CodeSystem/measure-population","code":"initial-population","display":"Initial Population"}]},"count":1},{"id":"Denominator_1","code":{"coding":[{"system":"http://terminology.hl7.org/CodeSystem/measure-population","code":"denominator","display":"Denominator"}]},"count":1},{"id":"DenominatorExclusion_1","code":{"coding":[{"system":"http://terminology.hl7.org/CodeSystem/measure-population","code":"denominator-exclusion","display":"Denominator Exclusion"}]},"count":1},{"id":"Numerator_1","code":{"coding":[{"system":"http://terminology.hl7.org/CodeSystem/measure-population","code":"numerator","display":"Numerator"}]},"count":0},{"id":"NumeratorExclusion_1","code":{"coding":[{"system":"http://terminology.hl7.org/CodeSystem/measure-population","code":"numerator-exclusion","display":"Numerator Exclusion"}]},"count":0}],"measureScore":{"value":0.0}}],"evaluatedResource":[{"reference":"Patient/951a2d40-7274-4820-bfa5-51d28cfd91ab"},{"reference":"Encounter/91d4fa61-ab5f-4233-8a39-445590f81af8"},{"reference":"Encounter/c78458ad-e4e9-4994-8aa6-210253569b6f"},{"reference":"Encounter/86f46dca-acd1-4319-9448-e17be62b4598"},{"reference":"Condition/50e605f0-3ddb-42c0-aa5a-020ede2ad231"},{"reference":"Claim/5a8c6273-04f7-49f0-a803-2071919e8701"}]},"request":{"method":"PUT","url":"MeasureReport/e6dd666e-53a3-47e2-9ba5-f291857277c1"}}]}