{"resourceType":"Bundle","id":"tests-f771a339-74f0-4651-90f3-1c820edea547-bundle","type":"transaction","entry":[{"fullUrl":"Bundle/tests-NumerPass-RVwithAntidepressantPlanAtAdmission-bundle","resource":{"resourceType":"Bundle","id":"tests-NumerPass-RVwithAntidepressantPlanAtAdmission-bundle","type":"transaction","entry":[{"fullUrl":"https://madie.cms.gov/Encounter/e7d47bf1-4a59-4464-8cbe-43533f176c46","resource":{"resourceType":"Encounter","id":"e7d47bf1-4a59-4464-8cbe-43533f176c46","meta":{"profile":["http://hl7.org/fhir/us/qicore/StructureDefinition/qicore-encounter"]},"status":"finished","class":{"system":"http://terminology.hl7.org/CodeSystem/v3-ActCode","code":"IMP","display":"inpatient encounter"},"type":[{"coding":[{"system":"http://snomed.info/sct","code":"183452005","display":"Inpatient encounter"}]}],"subject":{"reference":"Patient/f771a339-74f0-4651-90f3-1c820edea547"},"period":{"start":"2026-10-19T08:30:00.000+00:00","end":"2026-10-21T08:15:00.000+00:00"},"reasonCode":[{"coding":[{"system":"http://snomed.info/sct","code":"14047009"}]},{"coding":[{"system":"http://snomed.info/sct","code":"64859006"}]}]},"request":{"method":"PUT","url":"Encounter/e7d47bf1-4a59-4464-8cbe-43533f176c46"}},{"fullUrl":"https://madie.cms.gov/Encounter/b0035c73-1998-4947-b28f-4af50072c0b4","resource":{"resourceType":"Encounter","id":"b0035c73-1998-4947-b28f-4af50072c0b4","meta":{"profile":["http://hl7.org/fhir/us/qicore/StructureDefinition/qicore-encounter"]},"status":"finished","class":{"system":"http://terminology.hl7.org/CodeSystem/v3-ActCode","code":"EMER","display":"emergency encounter"},"type":[{"coding":[{"system":"http://snomed.info/sct","code":"4525004","display":"Emergency Department Visit"}]}],"subject":{"reference":"Patient/f771a339-74f0-4651-90f3-1c820edea547"},"period":{"start":"2026-10-18T09:15:00.000+00:00","end":"2026-10-19T08:15:00.000+00:00"}},"request":{"method":"PUT","url":"Encounter/b0035c73-1998-4947-b28f-4af50072c0b4"}},{"fullUrl":"https://madie.cms.gov/Patient/f771a339-74f0-4651-90f3-1c820edea547","resource":{"resourceType":"Patient","id":"f771a339-74f0-4651-90f3-1c820edea547","meta":{"profile":["http://hl7.org/fhir/us/qicore/StructureDefinition/qicore-patient"]},"extension":[{"url":"http://hl7.org/fhir/us/core/StructureDefinition/us-core-race","extension":[{"url":"ombCategory","valueCoding":{"system":"urn:oid:2.16.840.1.113883.6.238","code":"2106-3","display":"White"}},{"url":"text","valueString":"White"}]},{"url":"http://hl7.org/fhir/us/core/StructureDefinition/us-core-ethnicity","extension":[{"url":"ombCategory","valueCoding":{"system":"urn:oid:2.16.840.1.113883.6.238","code":"2135-2","display":"Hispanic or Latino"}},{"url":"text","valueString":"Hispanic or Latino"}]},{"url":"http://hl7.org/fhir/us/core/StructureDefinition/us-core-sex","valueCode":"248153007"}],"identifier":[{"system":"http://hospital.smarthealthit.org","value":"999999999"}],"name":[{"family":"Example","given":["Patient"]}],"gender":"female","birthDate":"1956-01-01"},"request":{"method":"PUT","url":"Patient/f771a339-74f0-4651-90f3-1c820edea547"}},{"fullUrl":"https://madie.cms.gov/Claim/d467b6a0-b1d0-4224-bbc9-5fe1093158ba","resource":{"resourceType":"Claim","id":"d467b6a0-b1d0-4224-bbc9-5fe1093158ba","meta":{"profile":["http://hl7.org/fhir/us/qicore/StructureDefinition/qicore-claim"]},"status":"active","type":{"coding":[{"system":"http://terminology.hl7.org/CodeSystem/claim-type","code":"institutional","display":"Institutional"}]},"use":"claim","patient":{"reference":"Patient/f771a339-74f0-4651-90f3-1c820edea547"},"created":"2026-10-22","priority":{"coding":[{"system":"http://terminology.hl7.org/CodeSystem/processpriority","code":"normal"}]},"diagnosis":[{"sequence":1,"diagnosisCodeableConcept":{"coding":[{"system":"http://snomed.info/sct","code":"14047009"}]}}],"item":[{"sequence":1,"diagnosisSequence":[1,2],"encounter":[{"reference":"Encounter/e7d47bf1-4a59-4464-8cbe-43533f176c46"}]}]},"request":{"method":"PUT","url":"Claim/d467b6a0-b1d0-4224-bbc9-5fe1093158ba"}},{"fullUrl":"https://madie.cms.gov/Claim/792646be-17cb-416f-9686-f88d8a4bfa4f","resource":{"resourceType":"Claim","id":"792646be-17cb-416f-9686-f88d8a4bfa4f","meta":{"profile":["http://hl7.org/fhir/us/qicore/StructureDefinition/qicore-claim"]},"status":"active","type":{"coding":[{"system":"http://terminology.hl7.org/CodeSystem/claim-type","code":"institutional","display":"Institutional"}]},"use":"claim","patient":{"reference":"Patient/f771a339-74f0-4651-90f3-1c820edea547"},"created":"2026-11-01","provider":{"reference":"Organization/Organization-1"},"priority":{"coding":[{"system":"http://terminology.hl7.org/CodeSystem/processpriority","code":"normal"}]},"diagnosis":[{"sequence":1,"diagnosisCodeableConcept":{"coding":[{"system":"http://hl7.org/fhir/sid/icd-10-cm","code":"M80.00XA","display":"Age-related osteoporosis with current pathological fracture, unspecified site, initial encounter for fracture"}]}}],"item":[{"sequence":1,"diagnosisSequence":[1,2],"encounter":[{"reference":"Encounter/e7d47bf1-4a59-4464-8cbe-43533f176c46"}]}]},"request":{"method":"PUT","url":"Claim/792646be-17cb-416f-9686-f88d8a4bfa4f"}},{"fullUrl":"https://madie.cms.gov/MedicationRequest/d19541f5-71bc-4e18-b749-e3701d115b4b","resource":{"resourceType":"MedicationRequest","id":"d19541f5-71bc-4e18-b749-e3701d115b4b","meta":{"profile":["http://hl7.org/fhir/us/qicore/StructureDefinition/qicore-medicationrequest"]},"status":"active","intent":"plan","category":[{"coding":[{"system":"http://terminology.hl7.org/CodeSystem/medicationrequest-category","code":"community","display":"Community"}]}],"reportedReference":{"reference":"Patient/f771a339-74f0-4651-90f3-1c820edea547"},"medicationCodeableConcept":{"coding":[{"system":"http://www.nlm.nih.gov/research/umls/rxnorm","code":"1000048"}]},"subject":{"reference":"Patient/f771a339-74f0-4651-90f3-1c820edea547"},"authoredOn":"2026-10-15","requester":{"reference":"Practitioner/Practitioner-1"},"dispenseRequest":{"quantity":{"value":14,"unit":"tablet","system":"http://unitsofmeasure.org","code":"{tablet}"},"expectedSupplyDuration":{"value":14,"unit":"days","system":"http://unitsofmeasure.org","code":"d"}}},"request":{"method":"PUT","url":"MedicationRequest/d19541f5-71bc-4e18-b749-e3701d115b4b"}},{"fullUrl":"https://madie.cms.gov/Observation/a8cbe68f-7205-4716-a326-4b6de54e8378","resource":{"resourceType":"Observation","id":"a8cbe68f-7205-4716-a326-4b6de54e8378","meta":{"profile":["http://hl7.org/fhir/us/core/StructureDefinition/us-core-bmi"]},"status":"final","category":[{"coding":[{"system":"http://terminology.hl7.org/CodeSystem/observation-category","code":"vital-signs","display":"Vital Signs"}]}],"code":{"coding":[{"system":"http://loinc.org","code":"39156-5","display":"Body mass index (BMI) [Ratio]"}],"text":"BMI"},"subject":{"reference":"Patient/f771a339-74f0-4651-90f3-1c820edea547"},"effectiveDateTime":"2026-10-20T08:00:00.000+00:00","valueQuantity":{"value":28.3,"unit":"kg/m2","system":"http://unitsofmeasure.org","code":"kg/m2"}},"request":{"method":"PUT","url":"Observation/a8cbe68f-7205-4716-a326-4b6de54e8378"}},{"fullUrl":"https://madie.cms.gov/MeasureReport/ee94e4a2-7709-4107-8a2d-33aa226c9c11","resource":{"resourceType":"MeasureReport","id":"ee94e4a2-7709-4107-8a2d-33aa226c9c11","meta":{"profile":["http://hl7.org/fhir/us/cqfmeasures/StructureDefinition/test-case-cqfm"]},"contained":[{"resourceType":"Parameters","id":"85ea8676-fa3d-49fe-b31a-9174c336653e-parameters","parameter":[{"name":"subject","valueString":"f771a339-74f0-4651-90f3-1c820edea547"}]}],"extension":[{"url":"http://hl7.org/fhir/StructureDefinition/cqf-inputParameters","valueReference":{"reference":"#85ea8676-fa3d-49fe-b31a-9174c336653e-parameters"}},{"url":"http://hl7.org/fhir/us/cqfmeasures/StructureDefinition/cqfm-testCaseDescription","valueMarkdown":"RVariable Encounter With CNSdepressant/Antidepressant Plan At Admission"}],"modifierExtension":[{"url":"http://hl7.org/fhir/us/cqfmeasures/StructureDefinition/cqfm-isTestCase","valueBoolean":true}],"status":"complete","type":"individual","measure":"https://madie.cms.gov/Measure/CMS1017FHIRHHFI","period":{"start":"2026-01-01","end":"2026-12-31"},"group":[{"id":"Group_1","population":[{"id":"InitialPopulation_1","code":{"coding":[{"system":"http://terminology.hl7.org/CodeSystem/measure-population","code":"initial-population","display":"Initial Population"}]},"count":1},{"id":"Denominator_1","code":{"coding":[{"system":"http://terminology.hl7.org/CodeSystem/measure-population","code":"denominator","display":"Denominator"}]},"count":1},{"id":"DenominatorExclusion_1","code":{"coding":[{"system":"http://terminology.hl7.org/CodeSystem/measure-population","code":"denominator-exclusion","display":"Denominator Exclusion"}]},"count":0},{"id":"Numerator_1","code":{"coding":[{"system":"http://terminology.hl7.org/CodeSystem/measure-population","code":"numerator","display":"Numerator"}]},"count":1},{"id":"NumeratorExclusion_1","code":{"coding":[{"system":"http://terminology.hl7.org/CodeSystem/measure-population","code":"numerator-exclusion","display":"Numerator Exclusion"}]},"count":0},{"id":"MeasureObservation_1_1_1","code":{"coding":[{"system":"http://terminology.hl7.org/CodeSystem/measure-population","code":"measure-observation","display":"Measure Observation"}]},"count":2},{"id":"MeasureObservation_1_2_1","code":{"coding":[{"system":"http://terminology.hl7.org/CodeSystem/measure-population","code":"measure-observation","display":"Measure Observation"}]},"count":1}],"measureScore":{"value":0.0}}],"evaluatedResource":[{"reference":"Encounter/e7d47bf1-4a59-4464-8cbe-43533f176c46"},{"reference":"Encounter/b0035c73-1998-4947-b28f-4af50072c0b4"},{"reference":"Patient/f771a339-74f0-4651-90f3-1c820edea547"},{"reference":"Claim/d467b6a0-b1d0-4224-bbc9-5fe1093158ba"},{"reference":"Claim/792646be-17cb-416f-9686-f88d8a4bfa4f"},{"reference":"MedicationRequest/d19541f5-71bc-4e18-b749-e3701d115b4b"},{"reference":"Observation/a8cbe68f-7205-4716-a326-4b6de54e8378"}]},"request":{"method":"PUT","url":"MeasureReport/ee94e4a2-7709-4107-8a2d-33aa226c9c11"}}]},"request":{"method":"PUT","url":"Bundle/tests-NumerPass-RVwithAntidepressantPlanAtAdmission-bundle"}},{"fullUrl":"Claim/d467b6a0-b1d0-4224-bbc9-5fe1093158ba","resource":{"resourceType":"Claim","id":"d467b6a0-b1d0-4224-bbc9-5fe1093158ba","meta":{"profile":["http://hl7.org/fhir/us/qicore/StructureDefinition/qicore-claim"]},"status":"active","type":{"coding":[{"system":"http://terminology.hl7.org/CodeSystem/claim-type","code":"institutional","display":"Institutional"}]},"use":"claim","patient":{"reference":"Patient/f771a339-74f0-4651-90f3-1c820edea547"},"created":"2026-10-22","priority":{"coding":[{"system":"http://terminology.hl7.org/CodeSystem/processpriority","code":"normal"}]},"diagnosis":[{"sequence":1,"diagnosisCodeableConcept":{"coding":[{"system":"http://snomed.info/sct","code":"14047009"}]}}],"item":[{"sequence":1,"diagnosisSequence":[1,2],"encounter":[{"reference":"Encounter/e7d47bf1-4a59-4464-8cbe-43533f176c46"}]}]},"request":{"method":"PUT","url":"Claim/d467b6a0-b1d0-4224-bbc9-5fe1093158ba"}},{"fullUrl":"Claim/792646be-17cb-416f-9686-f88d8a4bfa4f","resource":{"resourceType":"Claim","id":"792646be-17cb-416f-9686-f88d8a4bfa4f","meta":{"profile":["http://hl7.org/fhir/us/qicore/StructureDefinition/qicore-claim"]},"status":"active","type":{"coding":[{"system":"http://terminology.hl7.org/CodeSystem/claim-type","code":"institutional","display":"Institutional"}]},"use":"claim","patient":{"reference":"Patient/f771a339-74f0-4651-90f3-1c820edea547"},"created":"2026-11-01","provider":{"reference":"Organization/Organization-1"},"priority":{"coding":[{"system":"http://terminology.hl7.org/CodeSystem/processpriority","code":"normal"}]},"diagnosis":[{"sequence":1,"diagnosisCodeableConcept":{"coding":[{"system":"http://hl7.org/fhir/sid/icd-10-cm","code":"M80.00XA","display":"Age-related osteoporosis with current pathological fracture, unspecified site, initial encounter for fracture"}]}}],"item":[{"sequence":1,"diagnosisSequence":[1,2],"encounter":[{"reference":"Encounter/e7d47bf1-4a59-4464-8cbe-43533f176c46"}]}]},"request":{"method":"PUT","url":"Claim/792646be-17cb-416f-9686-f88d8a4bfa4f"}},{"fullUrl":"Encounter/b0035c73-1998-4947-b28f-4af50072c0b4","resource":{"resourceType":"Encounter","id":"b0035c73-1998-4947-b28f-4af50072c0b4","meta":{"profile":["http://hl7.org/fhir/us/qicore/StructureDefinition/qicore-encounter"]},"status":"finished","class":{"system":"http://terminology.hl7.org/CodeSystem/v3-ActCode","code":"EMER","display":"emergency encounter"},"type":[{"coding":[{"system":"http://snomed.info/sct","code":"4525004","display":"Emergency Department Visit"}]}],"subject":{"reference":"Patient/f771a339-74f0-4651-90f3-1c820edea547"},"period":{"start":"2026-10-18T09:15:00.000+00:00","end":"2026-10-19T08:15:00.000+00:00"}},"request":{"method":"PUT","url":"Encounter/b0035c73-1998-4947-b28f-4af50072c0b4"}},{"fullUrl":"Patient/f771a339-74f0-4651-90f3-1c820edea547","resource":{"resourceType":"Patient","id":"f771a339-74f0-4651-90f3-1c820edea547","meta":{"profile":["http://hl7.org/fhir/us/qicore/StructureDefinition/qicore-patient"]},"extension":[{"url":"http://hl7.org/fhir/us/core/StructureDefinition/us-core-race","extension":[{"url":"ombCategory","valueCoding":{"system":"urn:oid:2.16.840.1.113883.6.238","code":"2106-3","display":"White"}},{"url":"text","valueString":"White"}]},{"url":"http://hl7.org/fhir/us/core/StructureDefinition/us-core-ethnicity","extension":[{"url":"ombCategory","valueCoding":{"system":"urn:oid:2.16.840.1.113883.6.238","code":"2135-2","display":"Hispanic or Latino"}},{"url":"text","valueString":"Hispanic or Latino"}]},{"url":"http://hl7.org/fhir/us/core/StructureDefinition/us-core-sex","valueCode":"248153007"}],"identifier":[{"system":"http://hospital.smarthealthit.org","value":"999999999"}],"name":[{"family":"Example","given":["Patient"]}],"gender":"female","birthDate":"1956-01-01"},"request":{"method":"PUT","url":"Patient/f771a339-74f0-4651-90f3-1c820edea547"}},{"fullUrl":"Encounter/e7d47bf1-4a59-4464-8cbe-43533f176c46","resource":{"resourceType":"Encounter","id":"e7d47bf1-4a59-4464-8cbe-43533f176c46","meta":{"profile":["http://hl7.org/fhir/us/qicore/StructureDefinition/qicore-encounter"]},"status":"finished","class":{"system":"http://terminology.hl7.org/CodeSystem/v3-ActCode","code":"IMP","display":"inpatient encounter"},"type":[{"coding":[{"system":"http://snomed.info/sct","code":"183452005","display":"Inpatient encounter"}]}],"subject":{"reference":"Patient/f771a339-74f0-4651-90f3-1c820edea547"},"period":{"start":"2026-10-19T08:30:00.000+00:00","end":"2026-10-21T08:15:00.000+00:00"},"reasonCode":[{"coding":[{"system":"http://snomed.info/sct","code":"14047009"}]},{"coding":[{"system":"http://snomed.info/sct","code":"64859006"}]}]},"request":{"method":"PUT","url":"Encounter/e7d47bf1-4a59-4464-8cbe-43533f176c46"}},{"fullUrl":"Observation/a8cbe68f-7205-4716-a326-4b6de54e8378","resource":{"resourceType":"Observation","id":"a8cbe68f-7205-4716-a326-4b6de54e8378","meta":{"profile":["http://hl7.org/fhir/us/core/StructureDefinition/us-core-bmi"]},"status":"final","category":[{"coding":[{"system":"http://terminology.hl7.org/CodeSystem/observation-category","code":"vital-signs","display":"Vital Signs"}]}],"code":{"coding":[{"system":"http://loinc.org","code":"39156-5","display":"Body mass index (BMI) [Ratio]"}],"text":"BMI"},"subject":{"reference":"Patient/f771a339-74f0-4651-90f3-1c820edea547"},"effectiveDateTime":"2026-10-20T08:00:00.000+00:00","valueQuantity":{"value":28.3,"unit":"kg/m2","system":"http://unitsofmeasure.org","code":"kg/m2"}},"request":{"method":"PUT","url":"Observation/a8cbe68f-7205-4716-a326-4b6de54e8378"}},{"fullUrl":"MeasureReport/ee94e4a2-7709-4107-8a2d-33aa226c9c11","resource":{"resourceType":"MeasureReport","id":"ee94e4a2-7709-4107-8a2d-33aa226c9c11","meta":{"profile":["http://hl7.org/fhir/us/cqfmeasures/StructureDefinition/test-case-cqfm"]},"contained":[{"resourceType":"Parameters","id":"85ea8676-fa3d-49fe-b31a-9174c336653e-parameters","parameter":[{"name":"subject","valueString":"f771a339-74f0-4651-90f3-1c820edea547"}]}],"extension":[{"url":"http://hl7.org/fhir/StructureDefinition/cqf-inputParameters","valueReference":{"reference":"#85ea8676-fa3d-49fe-b31a-9174c336653e-parameters"}},{"url":"http://hl7.org/fhir/us/cqfmeasures/StructureDefinition/cqfm-testCaseDescription","valueMarkdown":"RVariable Encounter With CNSdepressant/Antidepressant Plan At Admission"}],"modifierExtension":[{"url":"http://hl7.org/fhir/us/cqfmeasures/StructureDefinition/cqfm-isTestCase","valueBoolean":true}],"status":"complete","type":"individual","measure":"https://madie.cms.gov/Measure/CMS1017FHIRHHFI","period":{"start":"2026-01-01","end":"2026-12-31"},"group":[{"id":"Group_1","population":[{"id":"InitialPopulation_1","code":{"coding":[{"system":"http://terminology.hl7.org/CodeSystem/measure-population","code":"initial-population","display":"Initial Population"}]},"count":1},{"id":"Denominator_1","code":{"coding":[{"system":"http://terminology.hl7.org/CodeSystem/measure-population","code":"denominator","display":"Denominator"}]},"count":1},{"id":"DenominatorExclusion_1","code":{"coding":[{"system":"http://terminology.hl7.org/CodeSystem/measure-population","code":"denominator-exclusion","display":"Denominator Exclusion"}]},"count":0},{"id":"Numerator_1","code":{"coding":[{"system":"http://terminology.hl7.org/CodeSystem/measure-population","code":"numerator","display":"Numerator"}]},"count":1},{"id":"NumeratorExclusion_1","code":{"coding":[{"system":"http://terminology.hl7.org/CodeSystem/measure-population","code":"numerator-exclusion","display":"Numerator Exclusion"}]},"count":0},{"id":"MeasureObservation_1_1_1","code":{"coding":[{"system":"http://terminology.hl7.org/CodeSystem/measure-population","code":"measure-observation","display":"Measure Observation"}]},"count":2},{"id":"MeasureObservation_1_2_1","code":{"coding":[{"system":"http://terminology.hl7.org/CodeSystem/measure-population","code":"measure-observation","display":"Measure Observation"}]},"count":1}],"measureScore":{"value":0.0}}],"evaluatedResource":[{"reference":"Encounter/e7d47bf1-4a59-4464-8cbe-43533f176c46"},{"reference":"Encounter/b0035c73-1998-4947-b28f-4af50072c0b4"},{"reference":"Patient/f771a339-74f0-4651-90f3-1c820edea547"},{"reference":"Claim/d467b6a0-b1d0-4224-bbc9-5fe1093158ba"},{"reference":"Claim/792646be-17cb-416f-9686-f88d8a4bfa4f"},{"reference":"MedicationRequest/d19541f5-71bc-4e18-b749-e3701d115b4b"},{"reference":"Observation/a8cbe68f-7205-4716-a326-4b6de54e8378"}]},"request":{"method":"PUT","url":"MeasureReport/ee94e4a2-7709-4107-8a2d-33aa226c9c11"}},{"fullUrl":"MedicationRequest/d19541f5-71bc-4e18-b749-e3701d115b4b","resource":{"resourceType":"MedicationRequest","id":"d19541f5-71bc-4e18-b749-e3701d115b4b","meta":{"profile":["http://hl7.org/fhir/us/qicore/StructureDefinition/qicore-medicationrequest"]},"status":"active","intent":"plan","category":[{"coding":[{"system":"http://terminology.hl7.org/CodeSystem/medicationrequest-category","code":"community","display":"Community"}]}],"reportedReference":{"reference":"Patient/f771a339-74f0-4651-90f3-1c820edea547"},"medicationCodeableConcept":{"coding":[{"system":"http://www.nlm.nih.gov/research/umls/rxnorm","code":"1000048"}]},"subject":{"reference":"Patient/f771a339-74f0-4651-90f3-1c820edea547"},"authoredOn":"2026-10-15","requester":{"reference":"Practitioner/Practitioner-1"},"dispenseRequest":{"quantity":{"value":14,"unit":"tablet","system":"http://unitsofmeasure.org","code":"{tablet}"},"expectedSupplyDuration":{"value":14,"unit":"days","system":"http://unitsofmeasure.org","code":"d"}}},"request":{"method":"PUT","url":"MedicationRequest/d19541f5-71bc-4e18-b749-e3701d115b4b"}}]}