{"resourceType":"Bundle","id":"tests-e287cd76-85bd-4f51-9c41-f19551e83c14-bundle","type":"transaction","entry":[{"fullUrl":"MeasureReport/ff3c3c13-03a7-4ab9-9169-76dc99c8811a","resource":{"resourceType":"MeasureReport","id":"ff3c3c13-03a7-4ab9-9169-76dc99c8811a","meta":{"profile":["http://hl7.org/fhir/us/cqfmeasures/StructureDefinition/test-case-cqfm"]},"contained":[{"resourceType":"Parameters","id":"ca91d6b1-13ff-43f4-993b-c91bc7465903-parameters","parameter":[{"name":"subject","valueString":"e287cd76-85bd-4f51-9c41-f19551e83c14"}]}],"extension":[{"url":"http://hl7.org/fhir/StructureDefinition/cqf-inputParameters","valueReference":{"reference":"#ca91d6b1-13ff-43f4-993b-c91bc7465903-parameters"}},{"url":"http://hl7.org/fhir/us/cqfmeasures/StructureDefinition/cqfm-testCaseDescription","valueMarkdown":"Encounter diagnosis (ICD-10-CM E83.01) with rank = 1 (Principal diagnosis). Meets RV logic to display rank for \"Risk Variable All Encounter Diagnoses with Rank and POA Indication\""}],"modifierExtension":[{"url":"http://hl7.org/fhir/us/cqfmeasures/StructureDefinition/cqfm-isTestCase","valueBoolean":true}],"status":"complete","type":"individual","measure":"https://madie.cms.gov/Measure/CMS1017FHIRHHFI","period":{"start":"2026-01-01","end":"2026-12-31"},"group":[{"id":"Group_1","population":[{"id":"InitialPopulation_1","code":{"coding":[{"system":"http://terminology.hl7.org/CodeSystem/measure-population","code":"initial-population","display":"Initial Population"}]},"count":1},{"id":"Denominator_1","code":{"coding":[{"system":"http://terminology.hl7.org/CodeSystem/measure-population","code":"denominator","display":"Denominator"}]},"count":1},{"id":"DenominatorExclusion_1","code":{"coding":[{"system":"http://terminology.hl7.org/CodeSystem/measure-population","code":"denominator-exclusion","display":"Denominator Exclusion"}]},"count":0},{"id":"Numerator_1","code":{"coding":[{"system":"http://terminology.hl7.org/CodeSystem/measure-population","code":"numerator","display":"Numerator"}]},"count":0},{"id":"NumeratorExclusion_1","code":{"coding":[{"system":"http://terminology.hl7.org/CodeSystem/measure-population","code":"numerator-exclusion","display":"Numerator Exclusion"}]},"count":0},{"id":"MeasureObservation_1_1_1","code":{"coding":[{"system":"http://terminology.hl7.org/CodeSystem/measure-population","code":"measure-observation","display":"Measure Observation"}]},"count":6}],"measureScore":{"value":0.0}}],"evaluatedResource":[{"reference":"Patient/e287cd76-85bd-4f51-9c41-f19551e83c14"},{"reference":"Encounter/13dcff4b-b3ce-47a4-8fc6-45b5ac2a112a"},{"reference":"Condition/b9ec1c1f-3efa-47f6-80e7-c773d0339504"}]},"request":{"method":"PUT","url":"MeasureReport/ff3c3c13-03a7-4ab9-9169-76dc99c8811a"}},{"fullUrl":"Bundle/DENOMPass-RVPrincipalDiagnosis","resource":{"resourceType":"Bundle","id":"DENOMPass-RVPrincipalDiagnosis","type":"transaction","entry":[{"fullUrl":"https://madie.cms.gov/Patient/e287cd76-85bd-4f51-9c41-f19551e83c14","resource":{"resourceType":"Patient","id":"e287cd76-85bd-4f51-9c41-f19551e83c14","meta":{"profile":["http://hl7.org/fhir/us/qicore/StructureDefinition/qicore-patient"]},"extension":[{"url":"http://hl7.org/fhir/us/core/StructureDefinition/us-core-race","extension":[{"url":"ombCategory","valueCoding":{"system":"urn:oid:2.16.840.1.113883.6.238","code":"1002-5","display":"American Indian or Alaska Native","userSelected":true}},{"url":"text","valueString":"American Indian or Alaska Native"}]},{"url":"http://hl7.org/fhir/us/core/StructureDefinition/us-core-ethnicity","extension":[{"url":"ombCategory","valueCoding":{"system":"urn:oid:2.16.840.1.113883.6.238","code":"2135-2","display":"Hispanic or Latino","userSelected":true}},{"url":"text","valueString":"Hispanic or Latino"}]}],"identifier":[{"type":{"coding":[{"system":"http://terminology.hl7.org/CodeSystem/v2-0203","code":"MR"}]},"system":"https://bonnie-fhir.healthit.gov/","value":"61152a3b98086b7a79cbd7c1"}],"active":true,"name":[{"use":"usual","family":"DENOMPass","given":["RVPrincipalDiagnosis"]}],"gender":"female","birthDate":"1964-12-11"},"request":{"method":"PUT","url":"Patient/e287cd76-85bd-4f51-9c41-f19551e83c14"}},{"fullUrl":"https://madie.cms.gov/Encounter/13dcff4b-b3ce-47a4-8fc6-45b5ac2a112a","resource":{"resourceType":"Encounter","id":"13dcff4b-b3ce-47a4-8fc6-45b5ac2a112a","meta":{"profile":["http://hl7.org/fhir/us/qicore/StructureDefinition/qicore-encounter"]},"status":"finished","class":{"system":"http://terminology.hl7.org/CodeSystem/v3-ActCode","code":"IMP","display":"inpatient encounter"},"type":[{"coding":[{"system":"http://snomed.info/sct","code":"183452005","display":"Emergency hospital admission"}]}],"subject":{"reference":"Patient/e287cd76-85bd-4f51-9c41-f19551e83c14"},"period":{"start":"2026-11-12T08:00:00.000+00:00","end":"2026-11-18T08:01:00.000+00:00"},"length":{"value":6,"unit":"days"},"diagnosis":[{"condition":{"reference":"Condition/b9ec1c1f-3efa-47f6-80e7-c773d0339504"},"rank":1}]},"request":{"method":"PUT","url":"Encounter/13dcff4b-b3ce-47a4-8fc6-45b5ac2a112a"}},{"fullUrl":"https://madie.cms.gov/Condition/b9ec1c1f-3efa-47f6-80e7-c773d0339504","resource":{"resourceType":"Condition","id":"b9ec1c1f-3efa-47f6-80e7-c773d0339504","meta":{"profile":["http://hl7.org/fhir/us/qicore/StructureDefinition/qicore-condition"]},"clinicalStatus":{"coding":[{"system":"http://terminology.hl7.org/CodeSystem/condition-clinical","code":"active"}]},"verificationStatus":{"coding":[{"system":"http://terminology.hl7.org/CodeSystem/condition-ver-status","code":"confirmed"}]},"category":[{"coding":[{"system":"http://terminology.hl7.org/CodeSystem/condition-category","code":"encounter-diagnosis","display":"Encounter Diagnosis"}]}],"code":{"coding":[{"system":"http://hl7.org/fhir/sid/icd-10-cm","code":"E83.01","display":"Disorders of copper metabolism"}]},"subject":{"reference":"Patient/e287cd76-85bd-4f51-9c41-f19551e83c14"},"encounter":{"reference":"Encounter/13dcff4b-b3ce-47a4-8fc6-45b5ac2a112a"},"onsetDateTime":"2026-11-12T00:00:00.000+00:00","recordedDate":"2026-11-12T00:00:00.000+00:00"},"request":{"method":"PUT","url":"Condition/b9ec1c1f-3efa-47f6-80e7-c773d0339504"}},{"fullUrl":"https://madie.cms.gov/MeasureReport/ff3c3c13-03a7-4ab9-9169-76dc99c8811a","resource":{"resourceType":"MeasureReport","id":"ff3c3c13-03a7-4ab9-9169-76dc99c8811a","meta":{"profile":["http://hl7.org/fhir/us/cqfmeasures/StructureDefinition/test-case-cqfm"]},"contained":[{"resourceType":"Parameters","id":"ca91d6b1-13ff-43f4-993b-c91bc7465903-parameters","parameter":[{"name":"subject","valueString":"e287cd76-85bd-4f51-9c41-f19551e83c14"}]}],"extension":[{"url":"http://hl7.org/fhir/StructureDefinition/cqf-inputParameters","valueReference":{"reference":"#ca91d6b1-13ff-43f4-993b-c91bc7465903-parameters"}},{"url":"http://hl7.org/fhir/us/cqfmeasures/StructureDefinition/cqfm-testCaseDescription","valueMarkdown":"Encounter diagnosis (ICD-10-CM E83.01) with rank = 1 (Principal diagnosis). Meets RV logic to display rank for \"Risk Variable All Encounter Diagnoses with Rank and POA Indication\""}],"modifierExtension":[{"url":"http://hl7.org/fhir/us/cqfmeasures/StructureDefinition/cqfm-isTestCase","valueBoolean":true}],"status":"complete","type":"individual","measure":"https://madie.cms.gov/Measure/CMS1017FHIRHHFI","period":{"start":"2026-01-01","end":"2026-12-31"},"group":[{"id":"Group_1","population":[{"id":"InitialPopulation_1","code":{"coding":[{"system":"http://terminology.hl7.org/CodeSystem/measure-population","code":"initial-population","display":"Initial Population"}]},"count":1},{"id":"Denominator_1","code":{"coding":[{"system":"http://terminology.hl7.org/CodeSystem/measure-population","code":"denominator","display":"Denominator"}]},"count":1},{"id":"DenominatorExclusion_1","code":{"coding":[{"system":"http://terminology.hl7.org/CodeSystem/measure-population","code":"denominator-exclusion","display":"Denominator Exclusion"}]},"count":0},{"id":"Numerator_1","code":{"coding":[{"system":"http://terminology.hl7.org/CodeSystem/measure-population","code":"numerator","display":"Numerator"}]},"count":0},{"id":"NumeratorExclusion_1","code":{"coding":[{"system":"http://terminology.hl7.org/CodeSystem/measure-population","code":"numerator-exclusion","display":"Numerator Exclusion"}]},"count":0},{"id":"MeasureObservation_1_1_1","code":{"coding":[{"system":"http://terminology.hl7.org/CodeSystem/measure-population","code":"measure-observation","display":"Measure Observation"}]},"count":6}],"measureScore":{"value":0.0}}],"evaluatedResource":[{"reference":"Patient/e287cd76-85bd-4f51-9c41-f19551e83c14"},{"reference":"Encounter/13dcff4b-b3ce-47a4-8fc6-45b5ac2a112a"},{"reference":"Condition/b9ec1c1f-3efa-47f6-80e7-c773d0339504"}]},"request":{"method":"PUT","url":"MeasureReport/ff3c3c13-03a7-4ab9-9169-76dc99c8811a"}}]},"request":{"method":"PUT","url":"Bundle/DENOMPass-RVPrincipalDiagnosis"}},{"fullUrl":"Condition/b9ec1c1f-3efa-47f6-80e7-c773d0339504","resource":{"resourceType":"Condition","id":"b9ec1c1f-3efa-47f6-80e7-c773d0339504","meta":{"profile":["http://hl7.org/fhir/us/qicore/StructureDefinition/qicore-condition"]},"clinicalStatus":{"coding":[{"system":"http://terminology.hl7.org/CodeSystem/condition-clinical","code":"active"}]},"verificationStatus":{"coding":[{"system":"http://terminology.hl7.org/CodeSystem/condition-ver-status","code":"confirmed"}]},"category":[{"coding":[{"system":"http://terminology.hl7.org/CodeSystem/condition-category","code":"encounter-diagnosis","display":"Encounter Diagnosis"}]}],"code":{"coding":[{"system":"http://hl7.org/fhir/sid/icd-10-cm","code":"E83.01","display":"Disorders of copper metabolism"}]},"subject":{"reference":"Patient/e287cd76-85bd-4f51-9c41-f19551e83c14"},"encounter":{"reference":"Encounter/13dcff4b-b3ce-47a4-8fc6-45b5ac2a112a"},"onsetDateTime":"2026-11-12T00:00:00.000+00:00","recordedDate":"2026-11-12T00:00:00.000+00:00"},"request":{"method":"PUT","url":"Condition/b9ec1c1f-3efa-47f6-80e7-c773d0339504"}},{"fullUrl":"Encounter/13dcff4b-b3ce-47a4-8fc6-45b5ac2a112a","resource":{"resourceType":"Encounter","id":"13dcff4b-b3ce-47a4-8fc6-45b5ac2a112a","meta":{"profile":["http://hl7.org/fhir/us/qicore/StructureDefinition/qicore-encounter"]},"status":"finished","class":{"system":"http://terminology.hl7.org/CodeSystem/v3-ActCode","code":"IMP","display":"inpatient encounter"},"type":[{"coding":[{"system":"http://snomed.info/sct","code":"183452005","display":"Emergency hospital admission"}]}],"subject":{"reference":"Patient/e287cd76-85bd-4f51-9c41-f19551e83c14"},"period":{"start":"2026-11-12T08:00:00.000+00:00","end":"2026-11-18T08:01:00.000+00:00"},"length":{"value":6,"unit":"days"},"diagnosis":[{"condition":{"reference":"Condition/b9ec1c1f-3efa-47f6-80e7-c773d0339504"},"rank":1}]},"request":{"method":"PUT","url":"Encounter/13dcff4b-b3ce-47a4-8fc6-45b5ac2a112a"}},{"fullUrl":"Patient/e287cd76-85bd-4f51-9c41-f19551e83c14","resource":{"resourceType":"Patient","id":"e287cd76-85bd-4f51-9c41-f19551e83c14","meta":{"profile":["http://hl7.org/fhir/us/qicore/StructureDefinition/qicore-patient"]},"extension":[{"url":"http://hl7.org/fhir/us/core/StructureDefinition/us-core-race","extension":[{"url":"ombCategory","valueCoding":{"system":"urn:oid:2.16.840.1.113883.6.238","code":"1002-5","display":"American Indian or Alaska Native","userSelected":true}},{"url":"text","valueString":"American Indian or Alaska Native"}]},{"url":"http://hl7.org/fhir/us/core/StructureDefinition/us-core-ethnicity","extension":[{"url":"ombCategory","valueCoding":{"system":"urn:oid:2.16.840.1.113883.6.238","code":"2135-2","display":"Hispanic or Latino","userSelected":true}},{"url":"text","valueString":"Hispanic or Latino"}]}],"identifier":[{"type":{"coding":[{"system":"http://terminology.hl7.org/CodeSystem/v2-0203","code":"MR"}]},"system":"https://bonnie-fhir.healthit.gov/","value":"61152a3b98086b7a79cbd7c1"}],"active":true,"name":[{"use":"usual","family":"DENOMPass","given":["RVPrincipalDiagnosis"]}],"gender":"female","birthDate":"1964-12-11"},"request":{"method":"PUT","url":"Patient/e287cd76-85bd-4f51-9c41-f19551e83c14"}}]}