{
    "entry": [
        {
            "request": {
                "method": "PUT",
                "url": "Patient/747b1de3-7e95-46b4-add2-29377e45cc4f"
            },
            "resource": {
                "identifier": [{
                    "system": "https://bonnie-fhir.healthit.gov/",
                    "type": {"coding": [{
                        "system": "http://terminology.hl7.org/CodeSystem/v2-0203",
                        "code": "MR"
                    }]},
                    "value": "62cc347a67cd2f796b838aaf"
                }],
                "extension": [
                    {
                        "extension": [
                            {
                                "valueCoding": {
                                    "system": "urn:oid:2.16.840.1.113883.6.238",
                                    "code": "2076-8",
                                    "userSelected": true,
                                    "display": "Native Hawaiian or Other Pacific Islander"
                                },
                                "url": "ombCategory"
                            },
                            {
                                "valueString": "Native Hawaiian or Other Pacific Islander",
                                "url": "text"
                            }
                        ],
                        "url": "http://hl7.org/fhir/us/core/StructureDefinition/us-core-race"
                    },
                    {
                        "extension": [
                            {
                                "valueCoding": {
                                    "system": "urn:oid:2.16.840.1.113883.6.238",
                                    "code": "2186-5",
                                    "userSelected": true,
                                    "display": "Not Hispanic or Latino"
                                },
                                "url": "ombCategory"
                            },
                            {
                                "valueString": "Not Hispanic or Latino",
                                "url": "text"
                            }
                        ],
                        "url": "http://hl7.org/fhir/us/core/StructureDefinition/us-core-ethnicity"
                    }
                ],
                "gender": "female",
                "meta": {"profile": ["http://hl7.org/fhir/us/qicore/StructureDefinition/qicore-patient"]},
                "name": [{
                    "given": ["FirstHTNWeightFU"],
                    "family": "NUMERPass"
                }],
                "id": "747b1de3-7e95-46b4-add2-29377e45cc4f",
                "birthDate": "2006-01-31",
                "resourceType": "Patient"
            },
            "fullUrl": "https://madie.cms.gov/Patient/747b1de3-7e95-46b4-add2-29377e45cc4f"
        },
        {
            "request": {
                "method": "PUT",
                "url": "Encounter/d29170a5-9acc-4c87-a711-4c6ecd6eb77b"
            },
            "resource": {
                "period": {
                    "start": "2026-01-01T08:00:00.000+00:00",
                    "end": "2026-01-01T08:30:00.000+00:00"
                },
                "meta": {"profile": ["http://hl7.org/fhir/us/qicore/StructureDefinition/qicore-encounter"]},
                "subject": {"reference": "Patient/747b1de3-7e95-46b4-add2-29377e45cc4f"},
                "id": "d29170a5-9acc-4c87-a711-4c6ecd6eb77b",
                "type": [{"coding": [{
                    "system": "http://snomed.info/sct",
                    "code": "103705002",
                    "userSelected": true,
                    "display": "Patient status observation (procedure)",
                    "version": "2022-03"
                }]}],
                "class": {
                    "system": "http://terminology.hl7.org/CodeSystem/v3-ActCode",
                    "code": "AMB",
                    "display": "ambulatory"
                },
                "resourceType": "Encounter",
                "status": "finished"
            },
            "fullUrl": "https://madie.cms.gov/Encounter/d29170a5-9acc-4c87-a711-4c6ecd6eb77b"
        },
        {
            "request": {
                "method": "PUT",
                "url": "Observation/3d4ca676-dbe3-4de7-92a4-7b5cc8312c68"
            },
            "resource": {
                "component": [
                    {
                        "code": {"coding": [{
                            "system": "http://loinc.org",
                            "code": "8480-6",
                            "display": "Systolic blood pressure"
                        }]},
                        "valueQuantity": {
                            "unit": "mmHg",
                            "system": "http://unitsofmeasure.org",
                            "code": "mm[Hg]",
                            "value": 130
                        }
                    },
                    {
                        "code": {"coding": [{
                            "system": "http://loinc.org",
                            "code": "8462-4",
                            "display": "Diastolic blood pressure"
                        }]},
                        "valueQuantity": {
                            "unit": "mmHg",
                            "system": "http://unitsofmeasure.org",
                            "code": "mm[Hg]",
                            "value": 80
                        }
                    }
                ],
                "code": {"coding": [{
                    "system": "http://loinc.org",
                    "code": "85354-9",
                    "display": "Blood pressure panel"
                }]},
                "effectiveDateTime": "2026-01-01T08:01:00.000+00:00",
                "meta": {"profile": ["http://hl7.org/fhir/us/core/StructureDefinition/us-core-blood-pressure"]},
                "subject": {"reference": "Patient/747b1de3-7e95-46b4-add2-29377e45cc4f"},
                "id": "3d4ca676-dbe3-4de7-92a4-7b5cc8312c68",
                "category": [{
                    "coding": [{
                        "system": "http://terminology.hl7.org/CodeSystem/observation-category",
                        "code": "vital-signs",
                        "display": "Vital Signs"
                    }],
                    "text": "Vital Signs"
                }],
                "resourceType": "Observation",
                "status": "amended"
            },
            "fullUrl": "https://madie.cms.gov/Observation/3d4ca676-dbe3-4de7-92a4-7b5cc8312c68"
        },
        {
            "request": {
                "method": "PUT",
                "url": "ServiceRequest/bde593a6-992f-4fc3-868f-dd95b19a2514"
            },
            "resource": {
                "code": {"coding": [{
                    "system": "http://snomed.info/sct",
                    "code": "183617005",
                    "userSelected": true,
                    "display": "Follow-up 1 day (finding)",
                    "version": "2022-03"
                }]},
                "authoredOn": "2026-01-01T08:29:00.000+00:00",
                "meta": {"profile": ["http://hl7.org/fhir/us/qicore/StructureDefinition/qicore-servicerequest"]},
                "subject": {"reference": "Patient/747b1de3-7e95-46b4-add2-29377e45cc4f"},
                "id": "bde593a6-992f-4fc3-868f-dd95b19a2514",
                "intent": "order",
                "resourceType": "ServiceRequest",
                "status": "active"
            },
            "fullUrl": "https://madie.cms.gov/ServiceRequest/bde593a6-992f-4fc3-868f-dd95b19a2514"
        },
        {
            "request": {
                "method": "PUT",
                "url": "ServiceRequest/85baac55-a7c2-4860-bc8e-5fe58b86a15f"
            },
            "resource": {
                "code": {"coding": [{
                    "system": "http://snomed.info/sct",
                    "code": "1181000175107",
                    "userSelected": true,
                    "display": "Recommendation to lose weight (procedure)",
                    "version": "2022-03"
                }]},
                "authoredOn": "2026-01-01T08:29:00.000+00:00",
                "meta": {"profile": ["http://hl7.org/fhir/us/qicore/StructureDefinition/qicore-servicerequest"]},
                "subject": {"reference": "Patient/747b1de3-7e95-46b4-add2-29377e45cc4f"},
                "id": "85baac55-a7c2-4860-bc8e-5fe58b86a15f",
                "intent": "order",
                "resourceType": "ServiceRequest",
                "status": "active"
            },
            "fullUrl": "https://madie.cms.gov/ServiceRequest/85baac55-a7c2-4860-bc8e-5fe58b86a15f"
        },
        {
            "request": {
                "method": "PUT",
                "url": "Coverage/e3ad455c-7ebc-4aca-bbab-f46a4107c0da"
            },
            "resource": {
                "payor": [{"reference": "Organization/45258e7b-b992-4140-87dd-9f2cc1214cbb"}],
                "beneficiary": {"reference": "Patient/747b1de3-7e95-46b4-add2-29377e45cc4f"},
                "meta": {"profile": ["http://hl7.org/fhir/us/qicore/StructureDefinition/qicore-coverage"]},
                "id": "e3ad455c-7ebc-4aca-bbab-f46a4107c0da",
                "resourceType": "Coverage",
                "status": "active"
            },
            "fullUrl": "https://madie.cms.gov/Coverage/e3ad455c-7ebc-4aca-bbab-f46a4107c0da"
        },
        {
            "request": {
                "method": "PUT",
                "url": "Organization/45258e7b-b992-4140-87dd-9f2cc1214cbb"
            },
            "resource": {
                "identifier": [{
                    "system": "urn:oid:2.16.840.1.113883.4.4",
                    "use": "temp",
                    "value": "21-3259825"
                }],
                "address": [{
                    "country": "USA",
                    "city": "Dallas",
                    "use": "billing",
                    "line": ["P.O. Box 660044"],
                    "postalCode": "75266-0044",
                    "state": "TX",
                    "type": "postal"
                }],
                "meta": {"profile": ["http://hl7.org/fhir/us/qicore/StructureDefinition/qicore-organization"]},
                "name": "Blue Cross Blue Shield of Texas",
                "active": true,
                "telecom": [{
                    "system": "phone",
                    "value": "(+1) 972-766-6900"
                }],
                "id": "45258e7b-b992-4140-87dd-9f2cc1214cbb",
                "type": [{"coding": [{
                    "system": "http://terminology.hl7.org/CodeSystem/organization-type",
                    "code": "pay",
                    "display": "Payer"
                }]}],
                "resourceType": "Organization"
            },
            "fullUrl": "https://madie.cms.gov/Organization/45258e7b-b992-4140-87dd-9f2cc1214cbb"
        },
        {
            "request": {
                "method": "PUT",
                "url": "MeasureReport/2f2c0281-ef2e-47c5-b518-0b488eca7097"
            },
            "resource": {
                "contained": [{
                    "parameter": [{
                        "valueString": "747b1de3-7e95-46b4-add2-29377e45cc4f",
                        "name": "subject"
                    }],
                    "id": "547e0136-b574-430b-b628-1dec2bba969b-parameters",
                    "resourceType": "Parameters"
                }],
                "extension": [
                    {
                        "valueReference": {"reference": "#547e0136-b574-430b-b628-1dec2bba969b-parameters"},
                        "url": "http://hl7.org/fhir/StructureDefinition/cqf-inputParameters"
                    },
                    {
                        "valueMarkdown": "Enc. 01/01 0800-0830 during MP, First HTN reading, 130/80 at 0801  (amended) with an intervention of follow up appt in 1 day authored at 0829 and recommendation to lose weight at 0829- should meet numerator criteria. ",
                        "url": "http://hl7.org/fhir/us/cqfmeasures/StructureDefinition/cqfm-testCaseDescription"
                    }
                ],
                "period": {
                    "start": "2026-01-01",
                    "end": "2026-12-31"
                },
                "measure": "https://madie.cms.gov/Measure/CMS22FHIRPCSBPScreeningFollowUp",
                "meta": {"profile": ["http://hl7.org/fhir/us/cqfmeasures/StructureDefinition/test-case-cqfm"]},
                "modifierExtension": [{
                    "valueBoolean": true,
                    "url": "http://hl7.org/fhir/us/cqfmeasures/StructureDefinition/cqfm-isTestCase"
                }],
                "id": "2f2c0281-ef2e-47c5-b518-0b488eca7097",
                "evaluatedResource": [
                    {"reference": "Patient/747b1de3-7e95-46b4-add2-29377e45cc4f"},
                    {"reference": "Encounter/d29170a5-9acc-4c87-a711-4c6ecd6eb77b"},
                    {"reference": "Observation/3d4ca676-dbe3-4de7-92a4-7b5cc8312c68"},
                    {"reference": "ServiceRequest/bde593a6-992f-4fc3-868f-dd95b19a2514"},
                    {"reference": "ServiceRequest/85baac55-a7c2-4860-bc8e-5fe58b86a15f"},
                    {"reference": "Coverage/e3ad455c-7ebc-4aca-bbab-f46a4107c0da"},
                    {"reference": "Organization/45258e7b-b992-4140-87dd-9f2cc1214cbb"}
                ],
                "type": "individual",
                "resourceType": "MeasureReport",
                "status": "complete",
                "group": [{
                    "id": "Group_1",
                    "measureScore": {"value": 0},
                    "population": [
                        {
                            "code": {"coding": [{
                                "system": "http://terminology.hl7.org/CodeSystem/measure-population",
                                "code": "initial-population",
                                "display": "Initial Population"
                            }]},
                            "count": 1,
                            "id": "InitialPopulation_1"
                        },
                        {
                            "code": {"coding": [{
                                "system": "http://terminology.hl7.org/CodeSystem/measure-population",
                                "code": "denominator",
                                "display": "Denominator"
                            }]},
                            "count": 1,
                            "id": "Denominator_1"
                        },
                        {
                            "code": {"coding": [{
                                "system": "http://terminology.hl7.org/CodeSystem/measure-population",
                                "code": "denominator-exclusion",
                                "display": "Denominator Exclusion"
                            }]},
                            "count": 0,
                            "id": "DenominatorExclusion_1"
                        },
                        {
                            "code": {"coding": [{
                                "system": "http://terminology.hl7.org/CodeSystem/measure-population",
                                "code": "numerator",
                                "display": "Numerator"
                            }]},
                            "count": 1,
                            "id": "Numerator_1"
                        },
                        {
                            "code": {"coding": [{
                                "system": "http://terminology.hl7.org/CodeSystem/measure-population",
                                "code": "denominator-exception",
                                "display": "Denominator Exception"
                            }]},
                            "count": 0,
                            "id": "DenominatorException_1"
                        }
                    ]
                }]
            },
            "fullUrl": "https://madie.cms.gov/MeasureReport/2f2c0281-ef2e-47c5-b518-0b488eca7097"
        }
    ],
    "id": "62cc347a67cd2f796b838aaf",
    "type": "transaction",
    "resourceType": "Bundle"
}