{
  "resourceType": "Bundle",
  "id": "633b3f9f0968f80122503cdb",
  "type": "transaction",
  "entry": [ {
    "fullUrl": "https://madie.cms.gov/Patient/29393933-85b6-48d5-865f-ac206a753b26",
    "resource": {
      "resourceType": "Patient",
      "id": "29393933-85b6-48d5-865f-ac206a753b26",
      "meta": {
        "profile": [ "http://hl7.org/fhir/us/qicore/StructureDefinition/qicore-patient" ]
      },
      "text": {
        "status": "generated",
        "div": "<div xmlns=\"http://www.w3.org/1999/xhtml\"><div class=\"hapiHeaderText\">EncProcEQSevereMatMorbidity<b>NUMPass</b></div><table class=\"hapiPropertyTable\"><tbody><tr><td>Date of birth</td><td><span>01 February 2004</span></td></tr></tbody></table></div>"
      },
      "extension": [ {
        "url": "http://hl7.org/fhir/us/core/StructureDefinition/us-core-race",
        "extension": [ {
          "url": "ombCategory",
          "valueCoding": {
            "system": "urn:oid:2.16.840.1.113883.6.238",
            "code": "1002-5",
            "display": "American Indian or Alaska Native",
            "userSelected": true
          }
        }, {
          "url": "text",
          "valueString": "American Indian or Alaska Native"
        } ]
      }, {
        "url": "http://hl7.org/fhir/us/core/StructureDefinition/us-core-ethnicity",
        "extension": [ {
          "url": "ombCategory",
          "valueCoding": {
            "system": "urn:oid:2.16.840.1.113883.6.238",
            "code": "2135-2",
            "display": "Hispanic or Latino",
            "userSelected": true
          }
        }, {
          "url": "text",
          "valueString": "Hispanic or Latino"
        } ]
      } ],
      "identifier": [ {
        "type": {
          "coding": [ {
            "system": "http://terminology.hl7.org/CodeSystem/v2-0203",
            "code": "MR"
          } ]
        },
        "system": "https://bonnie-fhir.healthit.gov/",
        "value": "633b3f9f0968f80122503cdb"
      } ],
      "active": true,
      "name": [ {
        "use": "usual",
        "family": "NUMPass",
        "given": [ "EncProcEQSevereMatMorbidity" ]
      } ],
      "gender": "female",
      "birthDate": "2005-02-01"
    },
    "request": {
      "method": "PUT",
      "url": "Patient/29393933-85b6-48d5-865f-ac206a753b26"
    }
  }, {
    "fullUrl": "https://madie.cms.gov/Observation/ac04306f-7b3a-4d0b-a325-eca7da78de9e",
    "resource": {
      "resourceType": "Observation",
      "id": "ac04306f-7b3a-4d0b-a325-eca7da78de9e",
      "meta": {
        "profile": [ "http://hl7.org/fhir/us/qicore/StructureDefinition/qicore-simple-observation" ]
      },
      "status": "final",
      "category": [ {
        "coding": [ {
          "system": "http://terminology.hl7.org/CodeSystem/observation-category",
          "code": "exam",
          "display": "exam",
          "userSelected": true
        } ]
      } ],
      "code": {
        "coding": [ {
          "system": "http://loinc.org",
          "code": "93857-1"
        } ]
      },
      "subject": {
        "reference": "Patient/29393933-85b6-48d5-865f-ac206a753b26"
      },
      "effectiveDateTime": "2026-02-01T08:00:00Z",
      "performer": [ {
        "reference": "Organization/example1",
        "display": "Hendricks Country Hospital"
      } ],
      "valueDateTime": "2026-02-01T08:00:00.000+00:00"
    },
    "request": {
      "method": "PUT",
      "url": "Observation/ac04306f-7b3a-4d0b-a325-eca7da78de9e"
    }
  }, {
    "fullUrl": "https://madie.cms.gov/Observation/f694c4f7-d53d-449c-b5ac-2e6a91f42f89",
    "resource": {
      "resourceType": "Observation",
      "id": "f694c4f7-d53d-449c-b5ac-2e6a91f42f89",
      "meta": {
        "profile": [ "http://hl7.org/fhir/us/qicore/StructureDefinition/qicore-simple-observation" ]
      },
      "status": "final",
      "category": [ {
        "coding": [ {
          "system": "http://terminology.hl7.org/CodeSystem/observation-category",
          "code": "exam",
          "display": "exam",
          "userSelected": true
        } ]
      } ],
      "code": {
        "coding": [ {
          "system": "http://loinc.org",
          "code": "11884-4"
        } ]
      },
      "subject": {
        "reference": "Patient/29393933-85b6-48d5-865f-ac206a753b26"
      },
      "effectiveDateTime": "2026-02-01T08:00:00Z",
      "performer": [ {
        "reference": "Organization/example1",
        "display": "Hendricks Country Hospital"
      } ],
      "valueQuantity": {
        "value": 20,
        "system": "http://unitsofmeasure.org",
        "code": "wk"
      }
    },
    "request": {
      "method": "PUT",
      "url": "Observation/f694c4f7-d53d-449c-b5ac-2e6a91f42f89"
    }
  }, {
    "fullUrl": "https://madie.cms.gov/Observation/9f24fb32-1023-44d0-a2d7-1bd41283ee1b",
    "resource": {
      "resourceType": "Observation",
      "id": "9f24fb32-1023-44d0-a2d7-1bd41283ee1b",
      "meta": {
        "profile": [ "http://hl7.org/fhir/us/qicore/StructureDefinition/qicore-simple-observation" ]
      },
      "status": "final",
      "category": [ {
        "coding": [ {
          "system": "http://terminology.hl7.org/CodeSystem/observation-category",
          "code": "exam",
          "display": "exam",
          "userSelected": true
        } ]
      } ],
      "code": {
        "coding": [ {
          "system": "http://loinc.org",
          "code": "11884-4"
        } ]
      },
      "subject": {
        "reference": "Patient/29393933-85b6-48d5-865f-ac206a753b26"
      },
      "effectiveDateTime": "2026-02-01T08:01:00Z",
      "performer": [ {
        "reference": "Organization/example1",
        "display": "Hendricks Country Hospital"
      } ]
    },
    "request": {
      "method": "PUT",
      "url": "Observation/9f24fb32-1023-44d0-a2d7-1bd41283ee1b"
    }
  }, {
    "fullUrl": "https://madie.cms.gov/Encounter/c2dd7f1b-dd8d-4dc1-8acb-fdb81574319e",
    "resource": {
      "resourceType": "Encounter",
      "id": "c2dd7f1b-dd8d-4dc1-8acb-fdb81574319e",
      "meta": {
        "profile": [ "http://hl7.org/fhir/us/qicore/StructureDefinition/qicore-encounter" ]
      },
      "status": "finished",
      "class": {
        "system": "http://terminology.hl7.org/CodeSystem/v3-ActCode",
        "code": "IMP",
        "display": "inpatient encounter"
      },
      "type": [ {
        "coding": [ {
          "system": "http://snomed.info/sct",
          "code": "183452005"
        } ]
      } ],
      "subject": {
        "reference": "Patient/29393933-85b6-48d5-865f-ac206a753b26"
      },
      "period": {
        "start": "2026-02-01T08:00:00Z",
        "end": "2026-02-05T08:15:00.000+00:00"
      }
    },
    "request": {
      "method": "PUT",
      "url": "Encounter/c2dd7f1b-dd8d-4dc1-8acb-fdb81574319e"
    }
  }, {
    "fullUrl": "https://madie.cms.gov/Coverage/4d88536c-94bc-4d56-b331-6076aa4e1c9b",
    "resource": {
      "resourceType": "Coverage",
      "id": "4d88536c-94bc-4d56-b331-6076aa4e1c9b",
      "status": "active",
      "subscriberId": "523435",
      "beneficiary": {
        "reference": "Patient/29393933-85b6-48d5-865f-ac206a753b26"
      },
      "relationship": {
        "coding": [ {
          "system": "http://terminology.hl7.org/CodeSystem/subscriber-relationship",
          "code": "self"
        } ]
      },
      "period": {
        "start": "2005-02-01T08:00:00Z"
      },
      "payor": [ {
        "reference": "Organization/0a502f0e-b92d-4f29-b211-0bc3644aa8aa"
      } ]
    },
    "request": {
      "method": "PUT",
      "url": "Coverage/4d88536c-94bc-4d56-b331-6076aa4e1c9b"
    }
  }, {
    "fullUrl": "https://madie.cms.gov/Procedure/9b1f6bda-e873-4d9c-8e7d-445632f8d982",
    "resource": {
      "resourceType": "Procedure",
      "id": "9b1f6bda-e873-4d9c-8e7d-445632f8d982",
      "meta": {
        "profile": [ "http://hl7.org/fhir/us/qicore/StructureDefinition/qicore-procedure" ]
      },
      "extension": [ {
        "url": "http://hl7.org/fhir/us/qicore/StructureDefinition/qicore-recorded",
        "valueDateTime": "2014-04-05T13:35:00Z"
      } ],
      "status": "completed",
      "code": {
        "coding": [ {
          "system": "http://snomed.info/sct",
          "code": "10745001"
        } ]
      },
      "subject": {
        "reference": "Patient/29393933-85b6-48d5-865f-ac206a753b26"
      },
      "performedPeriod": {
        "start": "2026-02-01T08:00:00Z",
        "end": "2026-02-05T08:15:00.000+00:00"
      }
    },
    "request": {
      "method": "PUT",
      "url": "Procedure/9b1f6bda-e873-4d9c-8e7d-445632f8d982"
    }
  }, {
    "fullUrl": "https://madie.cms.gov/Procedure/1c1d62da-1c92-4b26-8d46-3b964227464e",
    "resource": {
      "resourceType": "Procedure",
      "id": "1c1d62da-1c92-4b26-8d46-3b964227464e",
      "meta": {
        "profile": [ "http://hl7.org/fhir/us/qicore/StructureDefinition/qicore-procedure" ]
      },
      "extension": [ {
        "url": "http://hl7.org/fhir/us/qicore/StructureDefinition/qicore-recorded",
        "valueDateTime": "2026-02-01T04:01:00Z"
      } ],
      "status": "completed",
      "code": {
        "coding": [ {
          "system": "http://snomed.info/sct",
          "code": "11050006"
        } ]
      },
      "subject": {
        "reference": "Patient/29393933-85b6-48d5-865f-ac206a753b26"
      },
      "performedPeriod": {
        "start": "2026-02-04T00:00:00Z",
        "end": "2026-02-04T11:59:00.000+00:00"
      }
    },
    "request": {
      "method": "PUT",
      "url": "Procedure/1c1d62da-1c92-4b26-8d46-3b964227464e"
    }
  }, {
    "fullUrl": "https://madie.cms.gov/Organization/0a502f0e-b92d-4f29-b211-0bc3644aa8aa",
    "resource": {
      "resourceType": "Organization",
      "id": "0a502f0e-b92d-4f29-b211-0bc3644aa8aa",
      "meta": {
        "profile": [ "http://hl7.org/fhir/us/qicore/StructureDefinition/qicore-organization" ]
      },
      "identifier": [ {
        "use": "temp",
        "system": "urn:oid:2.16.840.1.113883.4.4",
        "value": "21-3259825"
      } ],
      "active": true,
      "type": [ {
        "coding": [ {
          "system": "http://terminology.hl7.org/CodeSystem/organization-type",
          "code": "pay",
          "display": "Payer"
        } ]
      } ],
      "name": "Blue Cross Blue Shield of Texas",
      "telecom": [ {
        "system": "phone",
        "value": "(+1) 972-766-6900"
      } ],
      "address": [ {
        "use": "billing",
        "type": "postal",
        "line": [ "P.O. Box 660044" ],
        "city": "Dallas",
        "state": "TX",
        "postalCode": "75266-0044",
        "country": "USA"
      } ]
    },
    "request": {
      "method": "PUT",
      "url": "Organization/0a502f0e-b92d-4f29-b211-0bc3644aa8aa"
    }
  }, {
    "fullUrl": "https://madie.cms.gov/Practitioner/713c6e50-a1ac-4a6d-8c1f-007f03a9297d",
    "resource": {
      "resourceType": "Practitioner",
      "id": "713c6e50-a1ac-4a6d-8c1f-007f03a9297d",
      "meta": {
        "profile": [ "http://hl7.org/fhir/us/qicore/StructureDefinition/qicore-practitioner" ]
      },
      "identifier": [ {
        "system": "http://hl7.org/fhir/sid/us-npi",
        "value": "9999999896"
      } ],
      "name": [ {
        "family": "Evil",
        "prefix": [ "Dr" ]
      } ]
    },
    "request": {
      "method": "PUT",
      "url": "Practitioner/713c6e50-a1ac-4a6d-8c1f-007f03a9297d"
    }
  }, {
    "fullUrl": "https://madie.cms.gov/MeasureReport/b1835ef6-7eae-494c-8448-5844161464fb",
    "resource": {
      "resourceType": "MeasureReport",
      "id": "b1835ef6-7eae-494c-8448-5844161464fb",
      "meta": {
        "profile": [ "http://hl7.org/fhir/us/cqfmeasures/StructureDefinition/test-case-cqfm" ]
      },
      "contained": [ {
        "resourceType": "Parameters",
        "id": "5210e7aa-fa8b-4215-9a20-7a41a22e9c9b-parameters",
        "parameter": [ {
          "name": "subject",
          "valueString": "29393933-85b6-48d5-865f-ac206a753b26"
        } ]
      } ],
      "extension": [ {
        "url": "http://hl7.org/fhir/StructureDefinition/cqf-inputParameters",
        "valueReference": {
          "reference": "#5210e7aa-fa8b-4215-9a20-7a41a22e9c9b-parameters"
        }
      }, {
        "url": "http://hl7.org/fhir/us/cqfmeasures/StructureDefinition/cqfm-testCaseDescription",
        "valueMarkdown": "Encounter Procedure = Severe Maternal Morbidity Procedure\n"
      } ],
      "modifierExtension": [ {
        "url": "http://hl7.org/fhir/us/cqfmeasures/StructureDefinition/cqfm-isTestCase",
        "valueBoolean": true
      } ],
      "status": "complete",
      "type": "individual",
      "measure": "https://madie.cms.gov/Measure/CMS1028FHIRPCSevereOBComps",
      "period": {
        "start": "2026-01-01",
        "end": "2026-12-31"
      },
      "group": [ {
        "id": "Group_1",
        "population": [ {
          "id": "InitialPopulation_1",
          "code": {
            "coding": [ {
              "system": "http://terminology.hl7.org/CodeSystem/measure-population",
              "code": "initial-population",
              "display": "Initial Population"
            } ]
          },
          "count": 1
        }, {
          "id": "Denominator_1",
          "code": {
            "coding": [ {
              "system": "http://terminology.hl7.org/CodeSystem/measure-population",
              "code": "denominator",
              "display": "Denominator"
            } ]
          },
          "count": 1
        }, {
          "id": "Numerator_1",
          "code": {
            "coding": [ {
              "system": "http://terminology.hl7.org/CodeSystem/measure-population",
              "code": "numerator",
              "display": "Numerator"
            } ]
          },
          "count": 1
        }, {
          "id": "NumeratorExclusion_1",
          "code": {
            "coding": [ {
              "system": "http://terminology.hl7.org/CodeSystem/measure-population",
              "code": "numerator-exclusion",
              "display": "Numerator Exclusion"
            } ]
          },
          "count": 0
        } ],
        "measureScore": {
          "value": 0.0
        }
      }, {
        "id": "Group_2",
        "population": [ {
          "id": "InitialPopulation_2",
          "code": {
            "coding": [ {
              "system": "http://terminology.hl7.org/CodeSystem/measure-population",
              "code": "initial-population",
              "display": "Initial Population"
            } ]
          },
          "count": 1
        }, {
          "id": "Denominator_2",
          "code": {
            "coding": [ {
              "system": "http://terminology.hl7.org/CodeSystem/measure-population",
              "code": "denominator",
              "display": "Denominator"
            } ]
          },
          "count": 1
        }, {
          "id": "Numerator_2",
          "code": {
            "coding": [ {
              "system": "http://terminology.hl7.org/CodeSystem/measure-population",
              "code": "numerator",
              "display": "Numerator"
            } ]
          },
          "count": 1
        }, {
          "id": "NumeratorExclusion_2",
          "code": {
            "coding": [ {
              "system": "http://terminology.hl7.org/CodeSystem/measure-population",
              "code": "numerator-exclusion",
              "display": "Numerator Exclusion"
            } ]
          },
          "count": 0
        } ],
        "measureScore": {
          "value": 0.0
        }
      } ],
      "evaluatedResource": [ {
        "reference": "Patient/29393933-85b6-48d5-865f-ac206a753b26"
      }, {
        "reference": "Observation/ac04306f-7b3a-4d0b-a325-eca7da78de9e"
      }, {
        "reference": "Observation/f694c4f7-d53d-449c-b5ac-2e6a91f42f89"
      }, {
        "reference": "Observation/9f24fb32-1023-44d0-a2d7-1bd41283ee1b"
      }, {
        "reference": "Encounter/c2dd7f1b-dd8d-4dc1-8acb-fdb81574319e"
      }, {
        "reference": "Coverage/4d88536c-94bc-4d56-b331-6076aa4e1c9b"
      }, {
        "reference": "Procedure/9b1f6bda-e873-4d9c-8e7d-445632f8d982"
      }, {
        "reference": "Procedure/1c1d62da-1c92-4b26-8d46-3b964227464e"
      }, {
        "reference": "Organization/0a502f0e-b92d-4f29-b211-0bc3644aa8aa"
      }, {
        "reference": "Practitioner/713c6e50-a1ac-4a6d-8c1f-007f03a9297d"
      } ]
    },
    "request": {
      "method": "PUT",
      "url": "MeasureReport/b1835ef6-7eae-494c-8448-5844161464fb"
    }
  } ]
}