{
  "resourceType": "Bundle",
  "id": "657cbdc9b4f1f0343662347a",
  "type": "transaction",
  "entry": [ {
    "fullUrl": "https://madie.cms.gov/Patient/6e88eab1-b0a7-42b6-a257-253da0447fc5",
    "resource": {
      "resourceType": "Patient",
      "id": "6e88eab1-b0a7-42b6-a257-253da0447fc5",
      "meta": {
        "profile": [ "http://hl7.org/fhir/us/qicore/StructureDefinition/qicore-patient" ]
      },
      "extension": [ {
        "url": "http://hl7.org/fhir/us/core/StructureDefinition/us-core-race",
        "extension": [ {
          "url": "ombCategory",
          "valueCoding": {
            "system": "urn:oid:2.16.840.1.113883.6.238",
            "code": "2106-3",
            "display": "White",
            "userSelected": true
          }
        }, {
          "url": "text",
          "valueString": "White"
        } ]
      }, {
        "url": "http://hl7.org/fhir/us/core/StructureDefinition/us-core-ethnicity",
        "extension": [ {
          "url": "ombCategory",
          "valueCoding": {
            "system": "urn:oid:2.16.840.1.113883.6.238",
            "code": "2186-5",
            "display": "Not Hispanic or Latino",
            "userSelected": true
          }
        }, {
          "url": "text",
          "valueString": "Not Hispanic or Latino"
        } ]
      } ],
      "identifier": [ {
        "type": {
          "coding": [ {
            "system": "http://terminology.hl7.org/CodeSystem/v2-0203",
            "code": "MR"
          } ]
        },
        "system": "https://bonnie-fhir.healthit.gov/",
        "value": "657cbdc9b4f1f0343662347a"
      } ],
      "name": [ {
        "family": "IPOPPass",
        "given": [ "InptEncStatusTriaged" ]
      } ],
      "gender": "female",
      "birthDate": "2008-01-01"
    },
    "request": {
      "method": "PUT",
      "url": "Patient/6e88eab1-b0a7-42b6-a257-253da0447fc5"
    }
  }, {
    "fullUrl": "https://madie.cms.gov/Encounter/76d05b3b-7f1f-4ccb-8e1a-6d23e9ee6572",
    "resource": {
      "resourceType": "Encounter",
      "id": "76d05b3b-7f1f-4ccb-8e1a-6d23e9ee6572",
      "meta": {
        "profile": [ "http://hl7.org/fhir/us/qicore/StructureDefinition/qicore-encounter" ]
      },
      "status": "triaged",
      "class": {
        "system": "http://terminology.hl7.org/CodeSystem/v3-ActCode",
        "code": "ACUTE",
        "display": "inpatient acute"
      },
      "type": [ {
        "coding": [ {
          "system": "http://snomed.info/sct",
          "version": "2024",
          "code": "32485007",
          "display": "Hospital admission (procedure)",
          "userSelected": true
        } ]
      } ],
      "subject": {
        "reference": "Patient/6e88eab1-b0a7-42b6-a257-253da0447fc5"
      },
      "period": {
        "start": "2026-01-01T08:00:00Z",
        "end": "2026-01-02T09:15:00Z"
      }
    },
    "request": {
      "method": "PUT",
      "url": "Encounter/76d05b3b-7f1f-4ccb-8e1a-6d23e9ee6572"
    }
  }, {
    "fullUrl": "https://madie.cms.gov/Location/764159bf-a917-46f0-81eb-c949bfaafdec",
    "resource": {
      "resourceType": "Location",
      "id": "764159bf-a917-46f0-81eb-c949bfaafdec",
      "meta": {
        "profile": [ "http://hl7.org/fhir/us/qicore/StructureDefinition/qicore-location" ]
      },
      "identifier": [ {
        "use": "usual",
        "system": "http://exampleoflocation.com",
        "value": "B1-S.F2"
      } ],
      "name": "Medical Surgical East, first floor",
      "type": [ {
        "coding": [ {
          "system": "https://www.cdc.gov/nhsn/cdaportal/terminology/codesystem/hsloc.html",
          "code": "1028-0",
          "display": "Medical Cardiac Critical Care",
          "userSelected": true
        } ]
      } ]
    },
    "request": {
      "method": "PUT",
      "url": "Location/764159bf-a917-46f0-81eb-c949bfaafdec"
    }
  }, {
    "fullUrl": "https://madie.cms.gov/MedicationRequest/fffd0db7-8230-4032-9a8d-fe312c9eedd2",
    "resource": {
      "resourceType": "MedicationRequest",
      "id": "fffd0db7-8230-4032-9a8d-fe312c9eedd2",
      "meta": {
        "profile": [ "http://hl7.org/fhir/us/qicore/StructureDefinition/qicore-medicationrequest" ]
      },
      "status": "completed",
      "intent": "order",
      "medicationCodeableConcept": {
        "coding": [ {
          "system": "http://www.nlm.nih.gov/research/umls/rxnorm",
          "version": "06052023",
          "code": "1007184"
        } ]
      },
      "subject": {
        "reference": "Patient/6e88eab1-b0a7-42b6-a257-253da0447fc5"
      },
      "authoredOn": "2026-01-01T08:15:00Z",
      "requester": {
        "reference": "Practitioner/33d87640-6b2a-40b0-ab11-542478a88d5a"
      },
      "dosageInstruction": [ {
        "timing": {
          "repeat": {
            "boundsPeriod": {
              "start": "2025-01-01T08:15:00Z"
            }
          }
        }
      } ]
    },
    "request": {
      "method": "PUT",
      "url": "MedicationRequest/fffd0db7-8230-4032-9a8d-fe312c9eedd2"
    }
  }, {
    "fullUrl": "https://madie.cms.gov/Coverage/8e6132d5-653f-4049-87fe-0e782ab14ac4",
    "resource": {
      "resourceType": "Coverage",
      "id": "8e6132d5-653f-4049-87fe-0e782ab14ac4",
      "meta": {
        "profile": [ "http://hl7.org/fhir/us/qicore/StructureDefinition/qicore-coverage" ]
      },
      "identifier": [ {
        "system": "http://benefitsinc.com/certificate",
        "value": "12345"
      } ],
      "status": "active",
      "type": {
        "coding": [ {
          "system": "https://nahdo.org/sopt",
          "version": "1.0.1",
          "code": "1",
          "display": "MEDICARE",
          "userSelected": true
        } ]
      },
      "subscriberId": "AB9876",
      "beneficiary": {
        "reference": "Patient/6e88eab1-b0a7-42b6-a257-253da0447fc5"
      },
      "relationship": {
        "coding": [ {
          "system": "http://terminology.hl7.org/CodeSystem/subscriber-relationship",
          "code": "self"
        } ]
      },
      "payor": [ {
        "reference": "Organization/9bf4ef7b-733d-4251-b28d-8140c922c208"
      } ]
    },
    "request": {
      "method": "PUT",
      "url": "Coverage/8e6132d5-653f-4049-87fe-0e782ab14ac4"
    }
  }, {
    "fullUrl": "https://madie.cms.gov/Organization/9bf4ef7b-733d-4251-b28d-8140c922c208",
    "resource": {
      "resourceType": "Organization",
      "id": "9bf4ef7b-733d-4251-b28d-8140c922c208",
      "meta": {
        "profile": [ "http://hl7.org/fhir/us/qicore/StructureDefinition/qicore-organization" ]
      },
      "identifier": [ {
        "use": "temp",
        "system": "urn:oid:2.16.840.1.113883.4.4",
        "value": "21-3259825"
      } ],
      "active": true,
      "type": [ {
        "coding": [ {
          "system": "http://terminology.hl7.org/CodeSystem/organization-type",
          "code": "pay",
          "display": "Payer"
        } ]
      } ],
      "name": "Blue Cross Blue Shield of Texas",
      "telecom": [ {
        "system": "phone",
        "value": "(+1) 972-766-6900"
      } ],
      "address": [ {
        "use": "billing",
        "type": "postal",
        "line": [ "P.O. Box 660044" ],
        "city": "Dallas",
        "state": "TX",
        "postalCode": "75266-0044",
        "country": "USA"
      } ]
    },
    "request": {
      "method": "PUT",
      "url": "Organization/9bf4ef7b-733d-4251-b28d-8140c922c208"
    }
  }, {
    "fullUrl": "https://madie.cms.gov/Practitioner/b598b0d7-ce32-4fed-ad9d-27d48878031d",
    "resource": {
      "resourceType": "Practitioner",
      "id": "b598b0d7-ce32-4fed-ad9d-27d48878031d",
      "meta": {
        "profile": [ "http://hl7.org/fhir/us/qicore/StructureDefinition/qicore-practitioner" ]
      },
      "identifier": [ {
        "system": "http://hl7.org/fhir/sid/us-npi",
        "value": "0723660813"
      } ],
      "name": [ {
        "family": "Evil",
        "prefix": [ "Dr" ]
      } ]
    },
    "request": {
      "method": "PUT",
      "url": "Practitioner/b598b0d7-ce32-4fed-ad9d-27d48878031d"
    }
  }, {
    "fullUrl": "https://madie.cms.gov/MeasureReport/653cc06a-cb93-4d64-ae54-8e38e5449539",
    "resource": {
      "resourceType": "MeasureReport",
      "id": "653cc06a-cb93-4d64-ae54-8e38e5449539",
      "meta": {
        "profile": [ "http://hl7.org/fhir/us/cqfmeasures/StructureDefinition/test-case-cqfm" ]
      },
      "contained": [ {
        "resourceType": "Parameters",
        "id": "da128287-f0f3-4612-b212-9edacc4c0e0a-parameters",
        "parameter": [ {
          "name": "subject",
          "valueString": "6e88eab1-b0a7-42b6-a257-253da0447fc5"
        } ]
      } ],
      "extension": [ {
        "url": "http://hl7.org/fhir/StructureDefinition/cqf-inputParameters",
        "valueReference": {
          "reference": "#da128287-f0f3-4612-b212-9edacc4c0e0a-parameters"
        }
      }, {
        "url": "http://hl7.org/fhir/us/cqfmeasures/StructureDefinition/cqfm-testCaseDescription",
        "valueMarkdown": "Inpatient encounter with diabetic medication - status triaged"
      } ],
      "modifierExtension": [ {
        "url": "http://hl7.org/fhir/us/cqfmeasures/StructureDefinition/cqfm-isTestCase",
        "valueBoolean": true
      } ],
      "status": "complete",
      "type": "individual",
      "measure": "https://madie.cms.gov/Measure/NHSNGlycemicControlHypoglycemiaInitialPopulation",
      "period": {
        "start": "2026-01-01",
        "end": "2026-12-31"
      },
      "group": [ {
        "id": "Group_1",
        "population": [ {
          "id": "InitialPopulation_1",
          "code": {
            "coding": [ {
              "system": "http://terminology.hl7.org/CodeSystem/measure-population",
              "code": "initial-population",
              "display": "Initial Population"
            } ]
          },
          "count": 1
        } ],
        "measureScore": {
          "value": 0.0
        }
      } ],
      "evaluatedResource": [ {
        "reference": "Patient/6e88eab1-b0a7-42b6-a257-253da0447fc5"
      }, {
        "reference": "Encounter/76d05b3b-7f1f-4ccb-8e1a-6d23e9ee6572"
      }, {
        "reference": "Location/764159bf-a917-46f0-81eb-c949bfaafdec"
      }, {
        "reference": "MedicationRequest/fffd0db7-8230-4032-9a8d-fe312c9eedd2"
      }, {
        "reference": "Coverage/8e6132d5-653f-4049-87fe-0e782ab14ac4"
      }, {
        "reference": "Organization/9bf4ef7b-733d-4251-b28d-8140c922c208"
      }, {
        "reference": "Practitioner/b598b0d7-ce32-4fed-ad9d-27d48878031d"
      } ]
    },
    "request": {
      "method": "PUT",
      "url": "MeasureReport/653cc06a-cb93-4d64-ae54-8e38e5449539"
    }
  } ]
}