{
  "resourceType": "Bundle",
  "id": "61095b0998086b53805591a5",
  "type": "transaction",
  "entry": [ {
    "fullUrl": "https://madie.cms.gov/Patient/cce515b3-72e3-4ce8-88e4-626a46d5578f",
    "resource": {
      "resourceType": "Patient",
      "id": "cce515b3-72e3-4ce8-88e4-626a46d5578f",
      "meta": {
        "profile": [ "http://hl7.org/fhir/us/qicore/StructureDefinition/qicore-patient" ]
      },
      "text": {
        "status": "generated",
        "div": "<div xmlns=\"http://www.w3.org/1999/xhtml\"><div class=\"hapiHeaderText\">Age@18 <b>DENOMPASS </b></div><table class=\"hapiPropertyTable\"><tbody><tr><td>Identifier</td><td>67f3e33acf17bcb386e754d726ed064ccd48ba21ff0ffb2eb678740a684398be</td></tr><tr><td>Date of birth</td><td><span>01 January 1994</span></td></tr></tbody></table></div>"
      },
      "extension": [ {
        "url": "http://hl7.org/fhir/us/core/StructureDefinition/us-core-race",
        "extension": [ {
          "url": "ombCategory",
          "valueCoding": {
            "system": "urn:oid:2.16.840.1.113883.6.238",
            "code": "1002-5",
            "display": "American Indian or Alaska Native",
            "userSelected": true
          }
        }, {
          "url": "text",
          "valueString": "American Indian or Alaska Native"
        } ]
      }, {
        "url": "http://hl7.org/fhir/us/core/StructureDefinition/us-core-ethnicity",
        "extension": [ {
          "url": "ombCategory",
          "valueCoding": {
            "system": "urn:oid:2.16.840.1.113883.6.238",
            "code": "2135-2",
            "display": "Hispanic or Latino",
            "userSelected": true
          }
        }, {
          "url": "text",
          "valueString": "Hispanic or Latino"
        } ]
      } ],
      "identifier": [ {
        "type": {
          "coding": [ {
            "system": "http://terminology.hl7.org/CodeSystem/v2-0203",
            "code": "MR"
          } ]
        },
        "system": "https://bonnie-fhir.healthit.gov/",
        "value": "61095b0998086b53805591a5"
      } ],
      "active": true,
      "name": [ {
        "use": "usual",
        "family": "NUMFail",
        "given": [ "VisAcuityLessThan2040" ]
      } ],
      "gender": "female",
      "birthDate": "1996-01-01"
    },
    "request": {
      "method": "PUT",
      "url": "Patient/cce515b3-72e3-4ce8-88e4-626a46d5578f"
    }
  }, {
    "fullUrl": "https://madie.cms.gov/Observation/00d4d6d2-16b2-4a4b-a636-eb3fc2e22460",
    "resource": {
      "resourceType": "Observation",
      "id": "00d4d6d2-16b2-4a4b-a636-eb3fc2e22460",
      "meta": {
        "profile": [ "http://hl7.org/fhir/us/qicore/StructureDefinition/qicore-observation-clinical-result" ]
      },
      "status": "final",
      "category": [ {
        "coding": [ {
          "system": "http://terminology.hl7.org/CodeSystem/observation-category",
          "code": "exam",
          "display": "Exam"
        } ]
      } ],
      "code": {
        "coding": [ {
          "system": "http://snomed.info/sct",
          "code": "419775003"
        } ]
      },
      "subject": {
        "reference": "Patient/cce515b3-72e3-4ce8-88e4-626a46d5578f"
      },
      "effectivePeriod": {
        "start": "2026-09-13T09:00:00+00:00",
        "end": "2026-09-13T09:30:00+00:00"
      }
    },
    "request": {
      "method": "PUT",
      "url": "Observation/00d4d6d2-16b2-4a4b-a636-eb3fc2e22460"
    }
  }, {
    "fullUrl": "https://madie.cms.gov/Observation/http://myGoodHealthcare.com/fhir/Observation/b4da2fcf-0013-41b1-a90e-504a5771136d",
    "resource": {
      "resourceType": "Observation",
      "id": "b4da2fcf-0013-41b1-a90e-504a5771136d",
      "meta": {
        "profile": [ "http://hl7.org/fhir/us/qicore/StructureDefinition/qicore-observation-clinical-result" ]
      },
      "status": "final",
      "category": [ {
        "coding": [ {
          "system": "http://terminology.hl7.org/CodeSystem/observation-category",
          "code": "exam",
          "display": "Exam",
          "userSelected": true
        } ]
      } ],
      "code": {
        "coding": [ {
          "system": "http://snomed.info/sct",
          "code": "419775003",
          "display": "Best corrected visual acuity (observable entity)",
          "userSelected": false
        } ]
      },
      "subject": {
        "reference": "Patient/cce515b3-72e3-4ce8-88e4-626a46d5578f"
      },
      "effectiveDateTime": "2026-09-27T08:00:00.000Z",
      "component": [ {
        "code": {
          "coding": [ {
            "system": "http://snomed.info/sct",
            "version": "2021-09",
            "code": "424703005",
            "display": "Distance vision 20/40 (finding)"
          } ]
        },
        "valueCodeableConcept": {
          "coding": [ {
            "system": "http://snomed.info/sct",
            "version": "2021-09",
            "code": "424703005",
            "display": "Distance vision 20/40 (finding)",
            "userSelected": true
          } ]
        }
      } ]
    },
    "request": {
      "method": "PUT",
      "url": "Observation/b4da2fcf-0013-41b1-a90e-504a5771136d"
    }
  }, {
    "fullUrl": "https://madie.cms.gov/Procedure/e13f0e4e-e1c9-4289-8ee2-cdfdc93c42e6",
    "resource": {
      "resourceType": "Procedure",
      "id": "e13f0e4e-e1c9-4289-8ee2-cdfdc93c42e6",
      "meta": {
        "profile": [ "http://hl7.org/fhir/us/qicore/StructureDefinition/qicore-procedure" ]
      },
      "extension": [ {
        "url": "http://hl7.org/fhir/us/qicore/StructureDefinition/qicore-recorded",
        "valueDateTime": "2026-08-30T09:35:00-08:00"
      } ],
      "status": "completed",
      "code": {
        "coding": [ {
          "system": "http://snomed.info/sct",
          "code": "84149000"
        } ]
      },
      "subject": {
        "reference": "Patient/cce515b3-72e3-4ce8-88e4-626a46d5578f"
      },
      "performedPeriod": {
        "start": "2026-08-30T09:20:00-08:00",
        "end": "2026-08-30T10:30:00-08:00"
      }
    },
    "request": {
      "method": "PUT",
      "url": "Procedure/e13f0e4e-e1c9-4289-8ee2-cdfdc93c42e6"
    }
  }, {
    "fullUrl": "https://madie.cms.gov/Coverage/486f5875-a6d9-4288-bd7c-642098960296",
    "resource": {
      "resourceType": "Coverage",
      "id": "486f5875-a6d9-4288-bd7c-642098960296",
      "meta": {
        "profile": [ "http://hl7.org/fhir/us/qicore/StructureDefinition/qicore-coverage" ]
      },
      "status": "active",
      "beneficiary": {
        "reference": "Patient/cce515b3-72e3-4ce8-88e4-626a46d5578f"
      },
      "payor": [ {
        "reference": "Organization/99c6eeec-2665-4693-94c6-570ad5ee0ef8"
      } ]
    },
    "request": {
      "method": "PUT",
      "url": "Coverage/486f5875-a6d9-4288-bd7c-642098960296"
    }
  }, {
    "fullUrl": "https://madie.cms.gov/Organization/99c6eeec-2665-4693-94c6-570ad5ee0ef8",
    "resource": {
      "resourceType": "Organization",
      "id": "99c6eeec-2665-4693-94c6-570ad5ee0ef8",
      "meta": {
        "profile": [ "http://hl7.org/fhir/us/qicore/StructureDefinition/qicore-organization" ]
      },
      "identifier": [ {
        "use": "temp",
        "system": "urn:oid:2.16.840.1.113883.4.4",
        "value": "21-3259825"
      } ],
      "active": true,
      "type": [ {
        "coding": [ {
          "system": "http://terminology.hl7.org/CodeSystem/organization-type",
          "code": "pay",
          "display": "Payer"
        } ]
      } ],
      "name": "Blue Cross Blue Shield of Texas",
      "telecom": [ {
        "system": "phone",
        "value": "(+1) 972-766-6900"
      } ],
      "address": [ {
        "use": "billing",
        "type": "postal",
        "line": [ "P.O. Box 660044" ],
        "city": "Dallas",
        "state": "TX",
        "postalCode": "75266-0044",
        "country": "USA"
      } ]
    },
    "request": {
      "method": "PUT",
      "url": "Organization/99c6eeec-2665-4693-94c6-570ad5ee0ef8"
    }
  }, {
    "fullUrl": "https://madie.cms.gov/Practitioner/7cbaf45d-997e-4922-98a2-0b6752bdead9",
    "resource": {
      "resourceType": "Practitioner",
      "id": "7cbaf45d-997e-4922-98a2-0b6752bdead9",
      "meta": {
        "profile": [ "http://hl7.org/fhir/us/qicore/StructureDefinition/qicore-practitioner" ]
      },
      "identifier": [ {
        "system": "http://hl7.org/fhir/sid/us-npi",
        "value": "123456"
      } ],
      "name": [ {
        "family": "Evil",
        "prefix": [ "Dr" ]
      } ]
    },
    "request": {
      "method": "PUT",
      "url": "Practitioner/7cbaf45d-997e-4922-98a2-0b6752bdead9"
    }
  }, {
    "fullUrl": "https://madie.cms.gov/MeasureReport/d455c61f-6196-4968-a801-eaf81a1187eb",
    "resource": {
      "resourceType": "MeasureReport",
      "id": "d455c61f-6196-4968-a801-eaf81a1187eb",
      "meta": {
        "profile": [ "http://hl7.org/fhir/us/cqfmeasures/StructureDefinition/test-case-cqfm" ]
      },
      "contained": [ {
        "resourceType": "Parameters",
        "id": "9953aa62-e61b-4c70-b954-e42683bfdc3d-parameters",
        "parameter": [ {
          "name": "subject",
          "valueString": "cce515b3-72e3-4ce8-88e4-626a46d5578f"
        } ]
      } ],
      "extension": [ {
        "url": "http://hl7.org/fhir/StructureDefinition/cqf-inputParameters",
        "valueReference": {
          "reference": "#9953aa62-e61b-4c70-b954-e42683bfdc3d-parameters"
        }
      }, {
        "url": "http://hl7.org/fhir/us/cqfmeasures/StructureDefinition/cqfm-testCaseDescription",
        "valueMarkdown": "Patient with visual acuity less than 20/40 after cataract surgery. "
      } ],
      "modifierExtension": [ {
        "url": "http://hl7.org/fhir/us/cqfmeasures/StructureDefinition/cqfm-isTestCase",
        "valueBoolean": true
      } ],
      "status": "complete",
      "type": "individual",
      "measure": "https://madie.cms.gov/Measure/CMS133FHIRCataracts2040BCVAwithin90Days",
      "period": {
        "start": "2026-01-01",
        "end": "2026-12-31"
      },
      "group": [ {
        "id": "Group_1",
        "population": [ {
          "id": "InitialPopulation_1",
          "code": {
            "coding": [ {
              "system": "http://terminology.hl7.org/CodeSystem/measure-population",
              "code": "initial-population",
              "display": "Initial Population"
            } ]
          },
          "count": 1
        }, {
          "id": "Denominator_1",
          "code": {
            "coding": [ {
              "system": "http://terminology.hl7.org/CodeSystem/measure-population",
              "code": "denominator",
              "display": "Denominator"
            } ]
          },
          "count": 1
        }, {
          "id": "DenominatorExclusion_1",
          "code": {
            "coding": [ {
              "system": "http://terminology.hl7.org/CodeSystem/measure-population",
              "code": "denominator-exclusion",
              "display": "Denominator Exclusion"
            } ]
          },
          "count": 0
        }, {
          "id": "Numerator_1",
          "code": {
            "coding": [ {
              "system": "http://terminology.hl7.org/CodeSystem/measure-population",
              "code": "numerator",
              "display": "Numerator"
            } ]
          },
          "count": 0
        } ],
        "measureScore": {
          "value": 0.0
        }
      } ],
      "evaluatedResource": [ {
        "reference": "Patient/cce515b3-72e3-4ce8-88e4-626a46d5578f"
      }, {
        "reference": "Observation/00d4d6d2-16b2-4a4b-a636-eb3fc2e22460"
      }, {
        "reference": "Observation/b4da2fcf-0013-41b1-a90e-504a5771136d"
      }, {
        "reference": "Procedure/e13f0e4e-e1c9-4289-8ee2-cdfdc93c42e6"
      }, {
        "reference": "Coverage/486f5875-a6d9-4288-bd7c-642098960296"
      }, {
        "reference": "Organization/99c6eeec-2665-4693-94c6-570ad5ee0ef8"
      }, {
        "reference": "Practitioner/7cbaf45d-997e-4922-98a2-0b6752bdead9"
      } ]
    },
    "request": {
      "method": "PUT",
      "url": "MeasureReport/d455c61f-6196-4968-a801-eaf81a1187eb"
    }
  } ]
}