{
  "resourceType": "Bundle",
  "id": "62c880ed0111a60120dc221a",
  "type": "transaction",
  "entry": [ {
    "fullUrl": "https://madie.cms.gov/Patient/18a871b4-b7d2-4fca-bd04-155b44965f4e",
    "resource": {
      "resourceType": "Patient",
      "id": "18a871b4-b7d2-4fca-bd04-155b44965f4e",
      "meta": {
        "profile": [ "http://hl7.org/fhir/us/qicore/StructureDefinition/qicore-patient" ]
      },
      "text": {
        "status": "generated",
        "div": "<div xmlns=\"http://www.w3.org/1999/xhtml\"><div class=\"hapiHeaderText\">PainAssessDuringOVEncNotRadTx<b>NUMERFailPop2</b></div><table class=\"hapiPropertyTable\"><tbody><tr><td>Identifier</td><td>37f8133962bfd168fb6fc8902e0c030e</td></tr><tr><td>Date of birth</td><td><span>25 April 1981</span></td></tr></tbody></table></div>"
      },
      "extension": [ {
        "url": "http://hl7.org/fhir/us/core/StructureDefinition/us-core-race",
        "extension": [ {
          "url": "ombCategory",
          "valueCoding": {
            "system": "urn:oid:2.16.840.1.113883.6.238",
            "code": "1002-5",
            "display": "American Indian or Alaska Native",
            "userSelected": true
          }
        }, {
          "url": "text",
          "valueString": "American Indian or Alaska Native"
        } ]
      }, {
        "url": "http://hl7.org/fhir/us/core/StructureDefinition/us-core-ethnicity",
        "extension": [ {
          "url": "ombCategory",
          "valueCoding": {
            "system": "urn:oid:2.16.840.1.113883.6.238",
            "code": "2135-2",
            "display": "Hispanic or Latino",
            "userSelected": true
          }
        }, {
          "url": "text",
          "valueString": "Hispanic or Latino"
        } ]
      } ],
      "identifier": [ {
        "type": {
          "coding": [ {
            "system": "http://terminology.hl7.org/CodeSystem/v2-0203",
            "code": "MR"
          } ]
        },
        "system": "https://bonnie-fhir.healthit.gov/",
        "value": "62c880ed0111a60120dc221a"
      } ],
      "active": true,
      "name": [ {
        "use": "usual",
        "family": "NUMERFailPop2",
        "given": [ "PainAssessDuringOVEncNotRadTx" ]
      } ],
      "gender": "male",
      "birthDate": "1981-04-25"
    },
    "request": {
      "method": "PUT",
      "url": "Patient/18a871b4-b7d2-4fca-bd04-155b44965f4e"
    }
  }, {
    "fullUrl": "https://madie.cms.gov/Observation/6bff62fe-fdbe-4982-87b3-c7a30e409c77",
    "resource": {
      "resourceType": "Observation",
      "id": "6bff62fe-fdbe-4982-87b3-c7a30e409c77",
      "meta": {
        "profile": [ "http://hl7.org/fhir/us/qicore/StructureDefinition/qicore-observation" ]
      },
      "status": "final",
      "category": [ {
        "coding": [ {
          "system": "http://terminology.hl7.org/CodeSystem/observation-category",
          "code": "survey",
          "display": "Survey"
        } ],
        "text": "Survey"
      } ],
      "code": {
        "coding": [ {
          "system": "http://loinc.org",
          "code": "38208-5",
          "display": "Pain severity - Reported"
        } ],
        "text": "Pain severity - Reported"
      },
      "subject": {
        "reference": "Patient/18a871b4-b7d2-4fca-bd04-155b44965f4e"
      },
      "effectiveDateTime": "2025-01-06T12:45:00.000Z"
    },
    "request": {
      "method": "PUT",
      "url": "Observation/6bff62fe-fdbe-4982-87b3-c7a30e409c77"
    }
  }, {
    "fullUrl": "https://madie.cms.gov/Condition/da413d02-d7ae-47c0-ad59-0752df5cc066",
    "resource": {
      "resourceType": "Condition",
      "id": "da413d02-d7ae-47c0-ad59-0752df5cc066",
      "meta": {
        "profile": [ "http://hl7.org/fhir/us/qicore/StructureDefinition/qicore-condition" ]
      },
      "clinicalStatus": {
        "coding": [ {
          "system": "http://terminology.hl7.org/CodeSystem/condition-clinical",
          "code": "active",
          "display": "active",
          "userSelected": true
        } ]
      },
      "verificationStatus": {
        "coding": [ {
          "system": "http://terminology.hl7.org/CodeSystem/condition-ver-status",
          "code": "confirmed",
          "display": "Confirmed"
        } ]
      },
      "category": [ {
        "coding": [ {
          "system": "http://terminology.hl7.org/CodeSystem/condition-category",
          "code": "problem-list-item",
          "display": "Problem List Item"
        } ]
      } ],
      "code": {
        "coding": [ {
          "system": "http://snomed.info/sct",
          "code": "107691000119101"
        } ]
      },
      "subject": {
        "reference": "Patient/18a871b4-b7d2-4fca-bd04-155b44965f4e"
      },
      "onsetDateTime": "2021-01-06T12:45:00.000Z"
    },
    "request": {
      "method": "PUT",
      "url": "Condition/da413d02-d7ae-47c0-ad59-0752df5cc066"
    }
  }, {
    "fullUrl": "https://madie.cms.gov/Encounter/fafdc17c-eb86-45e0-a891-0a7fd3d2a072",
    "resource": {
      "resourceType": "Encounter",
      "id": "fafdc17c-eb86-45e0-a891-0a7fd3d2a072",
      "meta": {
        "profile": [ "http://hl7.org/fhir/us/qicore/StructureDefinition/qicore-encounter" ]
      },
      "status": "finished",
      "class": {
        "system": "http://terminology.hl7.org/CodeSystem/v3-ActCode",
        "code": "AMB",
        "display": "ambulatory",
        "userSelected": true
      },
      "type": [ {
        "coding": [ {
          "system": "http://www.ama-assn.org/go/cpt",
          "code": "99202"
        } ]
      } ],
      "subject": {
        "reference": "Patient/18a871b4-b7d2-4fca-bd04-155b44965f4e"
      },
      "period": {
        "start": "2025-01-06T12:45:00.000Z",
        "end": "2025-01-06T13:00:00.000Z"
      }
    },
    "request": {
      "method": "PUT",
      "url": "Encounter/fafdc17c-eb86-45e0-a891-0a7fd3d2a072"
    }
  }, {
    "fullUrl": "https://madie.cms.gov/Coverage/67b152b7-92ba-41fe-9ba8-e0e2f04cb1b5",
    "resource": {
      "resourceType": "Coverage",
      "id": "67b152b7-92ba-41fe-9ba8-e0e2f04cb1b5",
      "meta": {
        "profile": [ "http://hl7.org/fhir/us/qicore/StructureDefinition/qicore-coverage" ]
      },
      "status": "active",
      "beneficiary": {
        "reference": "Patient/18a871b4-b7d2-4fca-bd04-155b44965f4e"
      },
      "period": {
        "start": "1981-04-25T08:00:00.000Z"
      },
      "payor": [ {
        "reference": "Organization/acc32c2f-bf27-4676-812a-7fb674db04fb"
      } ]
    },
    "request": {
      "method": "PUT",
      "url": "Coverage/67b152b7-92ba-41fe-9ba8-e0e2f04cb1b5"
    }
  }, {
    "fullUrl": "https://madie.cms.gov/Encounter/4f8008f2-5378-4f64-a47f-b9615924c099",
    "resource": {
      "resourceType": "Encounter",
      "id": "4f8008f2-5378-4f64-a47f-b9615924c099",
      "meta": {
        "profile": [ "http://hl7.org/fhir/us/qicore/StructureDefinition/qicore-encounter" ]
      },
      "status": "finished",
      "class": {
        "system": "http://terminology.hl7.org/CodeSystem/v3-ActCode",
        "code": "AMB",
        "display": "ambulatory",
        "userSelected": true
      },
      "type": [ {
        "coding": [ {
          "system": "http://www.ama-assn.org/go/cpt",
          "version": "2023",
          "code": "77427",
          "display": "Radiation treatment management, 5 treatments",
          "userSelected": true
        } ]
      } ],
      "subject": {
        "reference": "Patient/18a871b4-b7d2-4fca-bd04-155b44965f4e"
      },
      "period": {
        "start": "2025-11-01T13:30:00.000+00:00",
        "end": "2025-11-01T13:30:00.000+00:00"
      }
    },
    "request": {
      "method": "PUT",
      "url": "Encounter/4f8008f2-5378-4f64-a47f-b9615924c099"
    }
  }, {
    "fullUrl": "https://madie.cms.gov/Organization/acc32c2f-bf27-4676-812a-7fb674db04fb",
    "resource": {
      "resourceType": "Organization",
      "id": "acc32c2f-bf27-4676-812a-7fb674db04fb",
      "meta": {
        "profile": [ "http://hl7.org/fhir/us/qicore/StructureDefinition/qicore-organization" ]
      },
      "identifier": [ {
        "use": "temp",
        "system": "urn:oid:2.16.840.1.113883.4.4",
        "value": "21-3259825"
      } ],
      "active": true,
      "type": [ {
        "coding": [ {
          "system": "http://terminology.hl7.org/CodeSystem/organization-type",
          "code": "pay",
          "display": "Payer"
        } ]
      } ],
      "name": "Blue Cross Blue Shield of Texas",
      "telecom": [ {
        "system": "phone",
        "value": "(+1) 972-766-6900"
      } ],
      "address": [ {
        "use": "billing",
        "type": "postal",
        "line": [ "P.O. Box 660044" ],
        "city": "Dallas",
        "state": "TX",
        "postalCode": "75266-0044",
        "country": "USA"
      } ]
    },
    "request": {
      "method": "PUT",
      "url": "Organization/acc32c2f-bf27-4676-812a-7fb674db04fb"
    }
  }, {
    "fullUrl": "https://madie.cms.gov/Practitioner/f95a099c-cdab-4971-ba0f-487a7c041e46",
    "resource": {
      "resourceType": "Practitioner",
      "id": "f95a099c-cdab-4971-ba0f-487a7c041e46",
      "meta": {
        "profile": [ "http://hl7.org/fhir/us/qicore/StructureDefinition/qicore-practitioner" ]
      },
      "identifier": [ {
        "system": "http://hl7.org/fhir/sid/us-npi",
        "value": "123456"
      } ],
      "name": [ {
        "family": "Evil",
        "prefix": [ "Dr" ]
      } ]
    },
    "request": {
      "method": "PUT",
      "url": "Practitioner/f95a099c-cdab-4971-ba0f-487a7c041e46"
    }
  }, {
    "fullUrl": "https://madie.cms.gov/MeasureReport/f0187aac-ea4d-4e32-8473-3272225932e6",
    "resource": {
      "resourceType": "MeasureReport",
      "id": "f0187aac-ea4d-4e32-8473-3272225932e6",
      "meta": {
        "profile": [ "http://hl7.org/fhir/us/cqfmeasures/StructureDefinition/test-case-cqfm" ]
      },
      "contained": [ {
        "resourceType": "Parameters",
        "id": "b8adb118-30c0-4ec8-be91-407238b9c4f4-parameters",
        "parameter": [ {
          "name": "subject",
          "valueString": "18a871b4-b7d2-4fca-bd04-155b44965f4e"
        } ]
      } ],
      "extension": [ {
        "url": "http://hl7.org/fhir/StructureDefinition/cqf-inputParameters",
        "valueReference": {
          "reference": "#b8adb118-30c0-4ec8-be91-407238b9c4f4-parameters"
        }
      }, {
        "url": "http://hl7.org/fhir/us/cqfmeasures/StructureDefinition/cqfm-testCaseDescription",
        "valueMarkdown": "Patient with cancer diagnosis that overlaps radiation treatment management during measurement period. Pain intensity assessment was performed during office visit, not during radiation treatment management encounter.\n"
      } ],
      "modifierExtension": [ {
        "url": "http://hl7.org/fhir/us/cqfmeasures/StructureDefinition/cqfm-isTestCase",
        "valueBoolean": true
      } ],
      "status": "complete",
      "type": "individual",
      "measure": "https://madie.cms.gov/Measure/OncologyPainIntensityQuantifiedFHIR",
      "period": {
        "start": "2026-01-01",
        "end": "2026-12-31"
      },
      "group": [ {
        "id": "Group_1",
        "population": [ {
          "id": "InitialPopulation_1",
          "code": {
            "coding": [ {
              "system": "http://terminology.hl7.org/CodeSystem/measure-population",
              "code": "initial-population",
              "display": "Initial Population"
            } ]
          },
          "count": 0
        }, {
          "id": "Denominator_1",
          "code": {
            "coding": [ {
              "system": "http://terminology.hl7.org/CodeSystem/measure-population",
              "code": "denominator",
              "display": "Denominator"
            } ]
          },
          "count": 0
        }, {
          "id": "Numerator_1",
          "code": {
            "coding": [ {
              "system": "http://terminology.hl7.org/CodeSystem/measure-population",
              "code": "numerator",
              "display": "Numerator"
            } ]
          },
          "count": 0
        } ],
        "measureScore": {
          "value": 0.0
        }
      }, {
        "id": "Group_2",
        "population": [ {
          "id": "InitialPopulation_2",
          "code": {
            "coding": [ {
              "system": "http://terminology.hl7.org/CodeSystem/measure-population",
              "code": "initial-population",
              "display": "Initial Population"
            } ]
          },
          "count": 1
        }, {
          "id": "Denominator_2",
          "code": {
            "coding": [ {
              "system": "http://terminology.hl7.org/CodeSystem/measure-population",
              "code": "denominator",
              "display": "Denominator"
            } ]
          },
          "count": 1
        }, {
          "id": "Numerator_2",
          "code": {
            "coding": [ {
              "system": "http://terminology.hl7.org/CodeSystem/measure-population",
              "code": "numerator",
              "display": "Numerator"
            } ]
          },
          "count": 0
        } ],
        "measureScore": {
          "value": 0.0
        }
      } ],
      "evaluatedResource": [ {
        "reference": "Patient/18a871b4-b7d2-4fca-bd04-155b44965f4e"
      }, {
        "reference": "Observation/6bff62fe-fdbe-4982-87b3-c7a30e409c77"
      }, {
        "reference": "Condition/da413d02-d7ae-47c0-ad59-0752df5cc066"
      }, {
        "reference": "Encounter/fafdc17c-eb86-45e0-a891-0a7fd3d2a072"
      }, {
        "reference": "Coverage/67b152b7-92ba-41fe-9ba8-e0e2f04cb1b5"
      }, {
        "reference": "Encounter/4f8008f2-5378-4f64-a47f-b9615924c099"
      }, {
        "reference": "Organization/acc32c2f-bf27-4676-812a-7fb674db04fb"
      }, {
        "reference": "Practitioner/f95a099c-cdab-4971-ba0f-487a7c041e46"
      } ]
    },
    "request": {
      "method": "PUT",
      "url": "MeasureReport/f0187aac-ea4d-4e32-8473-3272225932e6"
    }
  } ]
}