{
  "resourceType": "Bundle",
  "id": "DENEXPass-MechCompDxOverlapsTHAProcInt",
  "type": "transaction",
  "entry": [ {
    "fullUrl": "https://madie.cms.gov/Patient/fda5d4a4-d610-472f-a5f8-c4a31a25c170",
    "resource": {
      "resourceType": "Patient",
      "id": "fda5d4a4-d610-472f-a5f8-c4a31a25c170",
      "meta": {
        "profile": [ "http://hl7.org/fhir/us/qicore/StructureDefinition/qicore-patient" ]
      },
      "extension": [ {
        "url": "http://hl7.org/fhir/us/core/StructureDefinition/us-core-race",
        "extension": [ {
          "url": "ombCategory",
          "valueCoding": {
            "system": "urn:oid:2.16.840.1.113883.6.238",
            "code": "2028-9",
            "display": "Asian"
          }
        }, {
          "url": "text",
          "valueString": "Asian"
        } ]
      }, {
        "url": "http://hl7.org/fhir/us/core/StructureDefinition/us-core-ethnicity",
        "extension": [ {
          "url": "ombCategory",
          "valueCoding": {
            "system": "urn:oid:2.16.840.1.113883.6.238",
            "code": "2135-2",
            "display": "Hispanic or Latino"
          }
        }, {
          "url": "text",
          "valueString": "Hispanic or Latino"
        } ]
      } ],
      "identifier": [ {
        "system": "http://hospital.smarthealthit.org",
        "value": "999999995"
      } ],
      "name": [ {
        "family": "Bertha",
        "given": [ "Betty" ]
      } ],
      "gender": "female",
      "birthDate": "2007-01-01"
    },
    "request": {
      "method": "PUT",
      "url": "Patient/fda5d4a4-d610-472f-a5f8-c4a31a25c170"
    }
  }, {
    "fullUrl": "https://madie.cms.gov/Procedure/80960bbf-c543-4e04-87ee-8021f94516f5",
    "resource": {
      "resourceType": "Procedure",
      "id": "80960bbf-c543-4e04-87ee-8021f94516f5",
      "meta": {
        "profile": [ "http://hl7.org/fhir/us/qicore/StructureDefinition/qicore-procedure" ]
      },
      "extension": [ {
        "url": "http://hl7.org/fhir/us/qicore/StructureDefinition/qicore-recorded",
        "valueDateTime": "2026-01-15T00:00:00.000Z"
      } ],
      "status": "completed",
      "code": {
        "coding": [ {
          "system": "http://www.cms.gov/Medicare/Coding/ICD10",
          "code": "0SR9019",
          "display": "Replacement of Right Hip Joint with Metal Synthetic Substitute, Cemented, Open Approach"
        } ]
      },
      "subject": {
        "reference": "Patient/fda5d4a4-d610-472f-a5f8-c4a31a25c170"
      },
      "performedPeriod": {
        "start": "2024-11-01T00:00:00.000Z",
        "end": "2024-11-01T01:00:00.000Z"
      }
    },
    "request": {
      "method": "PUT",
      "url": "Procedure/80960bbf-c543-4e04-87ee-8021f94516f5"
    }
  }, {
    "fullUrl": "https://madie.cms.gov/Encounter/8bc8bbc5-b226-4e09-bb30-759a70051faa",
    "resource": {
      "resourceType": "Encounter",
      "id": "8bc8bbc5-b226-4e09-bb30-759a70051faa",
      "meta": {
        "profile": [ "http://hl7.org/fhir/us/qicore/StructureDefinition/qicore-encounter" ]
      },
      "status": "finished",
      "class": {
        "system": "http://terminology.hl7.org/CodeSystem/v3-ActCode",
        "code": "AMB",
        "display": "ambulatory"
      },
      "type": [ {
        "coding": [ {
          "system": "http://snomed.info/sct",
          "code": "281036007",
          "display": "Follow-up consultation (procedure)"
        } ]
      } ],
      "subject": {
        "reference": "Patient/fda5d4a4-d610-472f-a5f8-c4a31a25c170"
      },
      "period": {
        "start": "2025-11-01T00:00:00.000Z",
        "end": "2025-11-01T01:15:00.000Z"
      }
    },
    "request": {
      "method": "PUT",
      "url": "Encounter/8bc8bbc5-b226-4e09-bb30-759a70051faa"
    }
  }, {
    "fullUrl": "https://madie.cms.gov/Condition/8d188953-d392-4ff8-88df-68122f7eb8c5",
    "resource": {
      "resourceType": "Condition",
      "id": "8d188953-d392-4ff8-88df-68122f7eb8c5",
      "meta": {
        "profile": [ "http://hl7.org/fhir/us/qicore/StructureDefinition/qicore-condition-encounter-diagnosis" ]
      },
      "clinicalStatus": {
        "coding": [ {
          "system": "http://terminology.hl7.org/CodeSystem/condition-clinical",
          "code": "active"
        } ]
      },
      "category": [ {
        "coding": [ {
          "system": "http://terminology.hl7.org/CodeSystem/condition-category",
          "code": "encounter-diagnosis",
          "display": "Encounter Diagnosis"
        } ]
      } ],
      "code": {
        "coding": [ {
          "system": "http://snomed.info/sct",
          "code": "12077001000119100",
          "display": "Adamantinoma of long bone of lower limb (disorder)"
        } ]
      },
      "subject": {
        "reference": "Patient/fda5d4a4-d610-472f-a5f8-c4a31a25c170"
      },
      "onsetDateTime": "2024-11-01T00:00:00.000Z"
    },
    "request": {
      "method": "PUT",
      "url": "Condition/8d188953-d392-4ff8-88df-68122f7eb8c5"
    }
  }, {
    "fullUrl": "https://madie.cms.gov/MeasureReport/06c29ca0-0252-4999-bd47-b92b60226016",
    "resource": {
      "resourceType": "MeasureReport",
      "id": "06c29ca0-0252-4999-bd47-b92b60226016",
      "meta": {
        "profile": [ "http://hl7.org/fhir/us/cqfmeasures/StructureDefinition/test-case-cqfm" ]
      },
      "contained": [ {
        "resourceType": "Parameters",
        "id": "aac84f18-5bf1-4084-a500-f8037f5c26a3-parameters",
        "parameter": [ {
          "name": "subject",
          "valueString": "fda5d4a4-d610-472f-a5f8-c4a31a25c170"
        } ]
      } ],
      "extension": [ {
        "url": "http://hl7.org/fhir/StructureDefinition/cqf-inputParameters",
        "valueReference": {
          "reference": "#aac84f18-5bf1-4084-a500-f8037f5c26a3-parameters"
        }
      }, {
        "url": "http://hl7.org/fhir/us/cqfmeasures/StructureDefinition/cqfm-testCaseDescription",
        "valueMarkdown": "Patient has Dx of Mechanical Complications that overlaps THAProcedure Interval"
      } ],
      "modifierExtension": [ {
        "url": "http://hl7.org/fhir/us/cqfmeasures/StructureDefinition/cqfm-isTestCase",
        "valueBoolean": true
      } ],
      "status": "complete",
      "type": "individual",
      "measure": "https://madie.cms.gov/Measure/CMS56FHIRFunctionalStatusAssessmentforTotalHipReplacement",
      "period": {
        "start": "2026-01-01",
        "end": "2026-12-31"
      },
      "group": [ {
        "id": "Group_1",
        "population": [ {
          "id": "InitialPopulation_1",
          "code": {
            "coding": [ {
              "system": "http://terminology.hl7.org/CodeSystem/measure-population",
              "code": "initial-population",
              "display": "Initial Population"
            } ]
          },
          "count": 1
        }, {
          "id": "Denominator_1",
          "code": {
            "coding": [ {
              "system": "http://terminology.hl7.org/CodeSystem/measure-population",
              "code": "denominator",
              "display": "Denominator"
            } ]
          },
          "count": 1
        }, {
          "id": "DenominatorExclusion_1",
          "code": {
            "coding": [ {
              "system": "http://terminology.hl7.org/CodeSystem/measure-population",
              "code": "denominator-exclusion",
              "display": "Denominator Exclusion"
            } ]
          },
          "count": 1
        }, {
          "id": "Numerator_1",
          "code": {
            "coding": [ {
              "system": "http://terminology.hl7.org/CodeSystem/measure-population",
              "code": "numerator",
              "display": "Numerator"
            } ]
          },
          "count": 0
        } ],
        "measureScore": {
          "value": 1.0
        }
      } ],
      "evaluatedResource": [ {
        "reference": "Patient/fda5d4a4-d610-472f-a5f8-c4a31a25c170"
      }, {
        "reference": "Procedure/80960bbf-c543-4e04-87ee-8021f94516f5"
      }, {
        "reference": "Encounter/8bc8bbc5-b226-4e09-bb30-759a70051faa"
      }, {
        "reference": "Condition/8d188953-d392-4ff8-88df-68122f7eb8c5"
      } ]
    },
    "request": {
      "method": "PUT",
      "url": "MeasureReport/06c29ca0-0252-4999-bd47-b92b60226016"
    }
  } ]
}