{
  "resourceType": "Bundle",
  "id": "61168b8798086b77ef9c5ec1",
  "type": "transaction",
  "entry": [ {
    "fullUrl": "https://madie.cms.gov/Patient/9bdcc79c-f0b7-438e-9e2b-3f6a4350caf6",
    "resource": {
      "resourceType": "Patient",
      "id": "9bdcc79c-f0b7-438e-9e2b-3f6a4350caf6",
      "meta": {
        "profile": [ "http://hl7.org/fhir/us/qicore/StructureDefinition/qicore-patient" ]
      },
      "extension": [ {
        "url": "http://hl7.org/fhir/us/core/StructureDefinition/us-core-race",
        "extension": [ {
          "url": "ombCategory",
          "valueCoding": {
            "system": "urn:oid:2.16.840.1.113883.6.238",
            "code": "2106-3",
            "display": "White",
            "userSelected": true
          }
        }, {
          "url": "text",
          "valueString": "White"
        } ]
      }, {
        "url": "http://hl7.org/fhir/us/core/StructureDefinition/us-core-ethnicity",
        "extension": [ {
          "url": "ombCategory",
          "valueCoding": {
            "system": "urn:oid:2.16.840.1.113883.6.238",
            "code": "2186-5",
            "display": "Non Hispanic or Latino",
            "userSelected": true
          }
        }, {
          "url": "text",
          "valueString": "Non Hispanic or Latino"
        } ]
      } ],
      "identifier": [ {
        "type": {
          "coding": [ {
            "system": "http://terminology.hl7.org/CodeSystem/v2-0203",
            "code": "MR"
          } ]
        },
        "system": "https://GoodHealthCare.com/",
        "value": "61168b8798086b77ef9c5ec1"
      } ],
      "active": true,
      "name": [ {
        "use": "usual",
        "family": "IPFail",
        "given": [ "EncHasNoEndDate" ]
      } ],
      "gender": "female",
      "birthDate": "1967-01-07"
    },
    "request": {
      "method": "PUT",
      "url": "Patient/9bdcc79c-f0b7-438e-9e2b-3f6a4350caf6"
    }
  }, {
    "fullUrl": "https://madie.cms.gov/Condition/20c5793d-9fb9-492f-b73d-8c6dcb85d7ca",
    "resource": {
      "resourceType": "Condition",
      "id": "20c5793d-9fb9-492f-b73d-8c6dcb85d7ca",
      "meta": {
        "profile": [ "http://hl7.org/fhir/us/qicore/StructureDefinition/qicore-condition-problems-health-concerns" ]
      },
      "clinicalStatus": {
        "coding": [ {
          "system": "http://terminology.hl7.org/CodeSystem/condition-clinical",
          "code": "active",
          "display": "Active",
          "userSelected": true
        } ]
      },
      "category": [ {
        "coding": [ {
          "system": "http://terminology.hl7.org/CodeSystem/condition-category",
          "code": "problem-list-item",
          "display": "Problem List Item"
        } ]
      } ],
      "code": {
        "coding": [ {
          "system": "http://snomed.info/sct",
          "version": "http://snomed.info/sct/731000124108/version/20230301",
          "code": "232023006",
          "display": "Traction detachment of retina due to diabetes mellitus (disorder)"
        } ]
      },
      "subject": {
        "reference": "Patient/9bdcc79c-f0b7-438e-9e2b-3f6a4350caf6"
      },
      "onsetDateTime": "2026-09-10T10:45:00.000+00:00"
    },
    "request": {
      "method": "PUT",
      "url": "Condition/20c5793d-9fb9-492f-b73d-8c6dcb85d7ca"
    }
  }, {
    "fullUrl": "https://madie.cms.gov/Encounter/eabd26ee-b601-438b-926b-27340046d5b5",
    "resource": {
      "resourceType": "Encounter",
      "id": "eabd26ee-b601-438b-926b-27340046d5b5",
      "meta": {
        "profile": [ "http://hl7.org/fhir/us/qicore/StructureDefinition/qicore-encounter" ]
      },
      "status": "finished",
      "class": {
        "system": "http://terminology.hl7.org/CodeSystem/v3-ActCode",
        "code": "AMB"
      },
      "type": [ {
        "coding": [ {
          "system": "http://www.ama-assn.org/go/cpt",
          "version": "2023",
          "code": "99205"
        } ]
      } ],
      "subject": {
        "reference": "Patient/9bdcc79c-f0b7-438e-9e2b-3f6a4350caf6"
      },
      "period": {
        "start": "2026-09-11T10:00:00.000+00:00"
      }
    },
    "request": {
      "method": "PUT",
      "url": "Encounter/eabd26ee-b601-438b-926b-27340046d5b5"
    }
  }, {
    "fullUrl": "https://madie.cms.gov/Coverage/2fadf842-d588-4efc-9d0f-c72a79fadb4d",
    "resource": {
      "resourceType": "Coverage",
      "id": "2fadf842-d588-4efc-9d0f-c72a79fadb4d",
      "meta": {
        "profile": [ "http://hl7.org/fhir/us/qicore/StructureDefinition/qicore-coverage" ]
      },
      "status": "active",
      "beneficiary": {
        "reference": "Patient/9bdcc79c-f0b7-438e-9e2b-3f6a4350caf6"
      },
      "payor": [ {
        "reference": "Organization/e7bb132e-3eee-408a-a7cd-751e3b546ec5"
      } ]
    },
    "request": {
      "method": "PUT",
      "url": "Coverage/2fadf842-d588-4efc-9d0f-c72a79fadb4d"
    }
  }, {
    "fullUrl": "https://madie.cms.gov/Organization/e7bb132e-3eee-408a-a7cd-751e3b546ec5",
    "resource": {
      "resourceType": "Organization",
      "id": "e7bb132e-3eee-408a-a7cd-751e3b546ec5",
      "meta": {
        "profile": [ "http://hl7.org/fhir/us/qicore/StructureDefinition/qicore-organization" ]
      },
      "identifier": [ {
        "use": "temp",
        "system": "urn:oid:2.16.840.1.113883.4.4",
        "value": "21-3259825"
      } ],
      "active": true,
      "type": [ {
        "coding": [ {
          "system": "http://terminology.hl7.org/CodeSystem/organization-type",
          "code": "pay",
          "display": "Payer"
        } ]
      } ],
      "name": "Blue Cross Blue Shield of Texas",
      "telecom": [ {
        "system": "phone",
        "value": "(+1) 972-766-6900"
      } ],
      "address": [ {
        "use": "billing",
        "type": "postal",
        "line": [ "P.O. Box 660044" ],
        "city": "Dallas",
        "state": "TX",
        "postalCode": "75266-0044",
        "country": "USA"
      } ]
    },
    "request": {
      "method": "PUT",
      "url": "Organization/e7bb132e-3eee-408a-a7cd-751e3b546ec5"
    }
  }, {
    "fullUrl": "https://madie.cms.gov/MeasureReport/ca26e0ca-df2b-4f8d-a21f-89448aa50a14",
    "resource": {
      "resourceType": "MeasureReport",
      "id": "ca26e0ca-df2b-4f8d-a21f-89448aa50a14",
      "meta": {
        "profile": [ "http://hl7.org/fhir/us/cqfmeasures/StructureDefinition/test-case-cqfm" ]
      },
      "contained": [ {
        "resourceType": "Parameters",
        "id": "bf98b2dd-0a41-4933-86e7-c6adc2619be3-parameters",
        "parameter": [ {
          "name": "subject",
          "valueString": "9bdcc79c-f0b7-438e-9e2b-3f6a4350caf6"
        } ]
      } ],
      "extension": [ {
        "url": "http://hl7.org/fhir/StructureDefinition/cqf-inputParameters",
        "valueReference": {
          "reference": "#bf98b2dd-0a41-4933-86e7-c6adc2619be3-parameters"
        }
      }, {
        "url": "http://hl7.org/fhir/us/cqfmeasures/StructureDefinition/cqfm-testCaseDescription",
        "valueMarkdown": "Encounter occurs in MP but does not have an end date so should not pass Initial Population"
      } ],
      "modifierExtension": [ {
        "url": "http://hl7.org/fhir/us/cqfmeasures/StructureDefinition/cqfm-isTestCase",
        "valueBoolean": true
      } ],
      "status": "complete",
      "type": "individual",
      "measure": "https://madie.cms.gov/Measure/CMS142FHIRDRCommunicationWithPhysicianManagingDiabetes",
      "period": {
        "start": "2026-01-01",
        "end": "2026-12-31"
      },
      "group": [ {
        "id": "Group_1",
        "population": [ {
          "id": "InitialPopulation_1",
          "code": {
            "coding": [ {
              "system": "http://terminology.hl7.org/CodeSystem/measure-population",
              "code": "initial-population",
              "display": "Initial Population"
            } ]
          },
          "count": 0
        }, {
          "id": "Denominator_1",
          "code": {
            "coding": [ {
              "system": "http://terminology.hl7.org/CodeSystem/measure-population",
              "code": "denominator",
              "display": "Denominator"
            } ]
          },
          "count": 0
        }, {
          "id": "Numerator_1",
          "code": {
            "coding": [ {
              "system": "http://terminology.hl7.org/CodeSystem/measure-population",
              "code": "numerator",
              "display": "Numerator"
            } ]
          },
          "count": 0
        }, {
          "id": "DenominatorException_1",
          "code": {
            "coding": [ {
              "system": "http://terminology.hl7.org/CodeSystem/measure-population",
              "code": "denominator-exception",
              "display": "Denominator Exception"
            } ]
          },
          "count": 0
        } ],
        "measureScore": {
          "value": 1.0
        }
      } ],
      "evaluatedResource": [ {
        "reference": "Patient/9bdcc79c-f0b7-438e-9e2b-3f6a4350caf6"
      }, {
        "reference": "Condition/20c5793d-9fb9-492f-b73d-8c6dcb85d7ca"
      }, {
        "reference": "Encounter/eabd26ee-b601-438b-926b-27340046d5b5"
      }, {
        "reference": "Coverage/2fadf842-d588-4efc-9d0f-c72a79fadb4d"
      }, {
        "reference": "Organization/e7bb132e-3eee-408a-a7cd-751e3b546ec5"
      } ]
    },
    "request": {
      "method": "PUT",
      "url": "MeasureReport/ca26e0ca-df2b-4f8d-a21f-89448aa50a14"
    }
  } ]
}