{
  "resourceType": "Bundle",
  "id": "4613103634163131",
  "type": "transaction",
  "entry": [ {
    "fullUrl": "https://madie.cms.gov/Patient/a860bf3e-dbc6-400f-b921-aa364db4dec4",
    "resource": {
      "resourceType": "Patient",
      "id": "a860bf3e-dbc6-400f-b921-aa364db4dec4",
      "meta": {
        "profile": [ "http://hl7.org/fhir/us/qicore/StructureDefinition/qicore-patient" ]
      },
      "extension": [ {
        "url": "http://hl7.org/fhir/us/core/StructureDefinition/us-core-race",
        "extension": [ {
          "url": "ombCategory",
          "valueCoding": {
            "system": "urn:oid:2.16.840.1.113883.6.238",
            "code": "2076-8",
            "display": "Native Hawaiian or Other Pacific Islander"
          }
        }, {
          "url": "text",
          "valueString": "Native Hawaiian or Other Pacific Islander"
        } ]
      }, {
        "url": "http://hl7.org/fhir/us/core/StructureDefinition/us-core-ethnicity",
        "extension": [ {
          "url": "ombCategory",
          "valueCoding": {
            "system": "urn:oid:2.16.840.1.113883.6.238",
            "code": "2186-5",
            "display": "Not Hispanic or Latino"
          }
        }, {
          "url": "text",
          "valueString": "Not Hispanic or Latino"
        } ]
      } ],
      "identifier": [ {
        "type": {
          "coding": [ {
            "system": "http://terminology.hl7.org/CodeSystem/v2-0203",
            "code": "MR"
          } ]
        },
        "system": "https://bonnie-fhir.healthit.gov/",
        "value": "7843135463165262"
      } ],
      "name": [ {
        "family": "DENEXFail",
        "given": [ "ImmunosuppressiveDxAfterStaging" ]
      } ],
      "gender": "female",
      "birthDate": "1947-11-03"
    },
    "request": {
      "method": "PUT",
      "url": "Patient/a860bf3e-dbc6-400f-b921-aa364db4dec4"
    }
  }, {
    "fullUrl": "https://madie.cms.gov/Encounter/5b774891-eada-4bda-815c-fe9ec15618c5",
    "resource": {
      "resourceType": "Encounter",
      "id": "5b774891-eada-4bda-815c-fe9ec15618c5",
      "meta": {
        "profile": [ "http://hl7.org/fhir/us/qicore/StructureDefinition/qicore-encounter" ]
      },
      "status": "finished",
      "class": {
        "system": "http://terminology.hl7.org/CodeSystem/v3-ActCode",
        "code": "AMB",
        "display": "ambulatory"
      },
      "type": [ {
        "coding": [ {
          "system": "http://snomed.info/sct",
          "version": "http://snomed.info/sct/731000124108/version/20240301",
          "code": "185463005",
          "display": "Visit out of hours (procedure)"
        } ]
      } ],
      "subject": {
        "reference": "Patient/a860bf3e-dbc6-400f-b921-aa364db4dec4"
      },
      "period": {
        "start": "2026-04-06T08:00:00.000+00:00",
        "end": "2026-04-06T09:15:00.000+00:00"
      }
    },
    "request": {
      "method": "PUT",
      "url": "Encounter/5b774891-eada-4bda-815c-fe9ec15618c5"
    }
  }, {
    "fullUrl": "https://madie.cms.gov/Condition/8479d21b-5fe9-4602-8dbf-0e6864c0ca3d",
    "resource": {
      "resourceType": "Condition",
      "id": "8479d21b-5fe9-4602-8dbf-0e6864c0ca3d",
      "meta": {
        "profile": [ "http://hl7.org/fhir/us/qicore/StructureDefinition/qicore-condition-problems-health-concerns" ]
      },
      "clinicalStatus": {
        "coding": [ {
          "system": "http://terminology.hl7.org/CodeSystem/condition-clinical",
          "code": "active",
          "display": "Active"
        } ]
      },
      "verificationStatus": {
        "coding": [ {
          "system": "http://terminology.hl7.org/CodeSystem/condition-ver-status",
          "code": "confirmed",
          "display": "Confirmed"
        } ]
      },
      "category": [ {
        "coding": [ {
          "system": "http://terminology.hl7.org/CodeSystem/condition-category",
          "code": "problem-list-item",
          "display": "Problem List Item"
        } ]
      } ],
      "code": {
        "coding": [ {
          "system": "http://hl7.org/fhir/sid/icd-10-cm",
          "version": "2024",
          "code": "C67.1",
          "display": "Malignant neoplasm of dome of bladder"
        } ]
      },
      "subject": {
        "reference": "Patient/a860bf3e-dbc6-400f-b921-aa364db4dec4"
      },
      "onsetPeriod": {
        "start": "2026-04-06T08:00:00.000+00:00"
      }
    },
    "request": {
      "method": "PUT",
      "url": "Condition/8479d21b-5fe9-4602-8dbf-0e6864c0ca3d"
    }
  }, {
    "fullUrl": "https://madie.cms.gov/Condition/4502b3fd-29fb-41cf-af32-0d4cd282cdd5",
    "resource": {
      "resourceType": "Condition",
      "id": "4502b3fd-29fb-41cf-af32-0d4cd282cdd5",
      "meta": {
        "profile": [ "http://hl7.org/fhir/us/qicore/StructureDefinition/qicore-condition-problems-health-concerns" ]
      },
      "clinicalStatus": {
        "coding": [ {
          "system": "http://terminology.hl7.org/CodeSystem/condition-clinical",
          "code": "active",
          "display": "Active"
        } ]
      },
      "verificationStatus": {
        "coding": [ {
          "system": "http://terminology.hl7.org/CodeSystem/condition-ver-status",
          "code": "confirmed",
          "display": "Confirmed"
        } ]
      },
      "category": [ {
        "coding": [ {
          "system": "http://terminology.hl7.org/CodeSystem/condition-category",
          "code": "problem-list-item",
          "display": "Problem List Item"
        } ]
      } ],
      "code": {
        "coding": [ {
          "system": "http://snomed.info/sct",
          "version": "http://snomed.info/sct/731000124108/version/20240301",
          "code": "109977009",
          "display": "Peripheral T-cell lymphoma (disorder)"
        } ]
      },
      "subject": {
        "reference": "Patient/a860bf3e-dbc6-400f-b921-aa364db4dec4"
      },
      "onsetPeriod": {
        "start": "2026-04-07T08:00:00.000+00:00"
      }
    },
    "request": {
      "method": "PUT",
      "url": "Condition/4502b3fd-29fb-41cf-af32-0d4cd282cdd5"
    }
  }, {
    "fullUrl": "https://madie.cms.gov/Procedure/180e10c8-3d03-4b93-9cd5-2aa98e98ecff",
    "resource": {
      "resourceType": "Procedure",
      "id": "180e10c8-3d03-4b93-9cd5-2aa98e98ecff",
      "meta": {
        "profile": [ "http://hl7.org/fhir/us/qicore/StructureDefinition/qicore-procedure" ]
      },
      "extension": [ {
        "url": "http://hl7.org/fhir/us/qicore/StructureDefinition/qicore-recorded",
        "valueDateTime": "2026-04-06T08:00:00.000+00:00"
      } ],
      "status": "completed",
      "code": {
        "coding": [ {
          "system": "http://snomed.info/sct",
          "version": "http://snomed.info/sct/731000124108/version/20240301",
          "code": "254292007",
          "display": "Tumor staging"
        } ]
      },
      "subject": {
        "reference": "Patient/a860bf3e-dbc6-400f-b921-aa364db4dec4"
      },
      "performedDateTime": "2026-04-06T08:00:00.000+00:00"
    },
    "request": {
      "method": "PUT",
      "url": "Procedure/180e10c8-3d03-4b93-9cd5-2aa98e98ecff"
    }
  }, {
    "fullUrl": "https://madie.cms.gov/Observation/2dbcc1f0-3cb4-4887-ade0-a7c1e2f10230",
    "resource": {
      "resourceType": "Observation",
      "id": "2dbcc1f0-3cb4-4887-ade0-a7c1e2f10230",
      "meta": {
        "profile": [ "http://hl7.org/fhir/us/qicore/StructureDefinition/qicore-observation-lab" ]
      },
      "partOf": [ {
        "reference": "Procedure/180e10c8-3d03-4b93-9cd5-2aa98e98ecff"
      } ],
      "status": "final",
      "category": [ {
        "coding": [ {
          "system": "http://terminology.hl7.org/CodeSystem/observation-category",
          "code": "procedure",
          "display": "Procedure"
        } ]
      } ],
      "code": {
        "coding": [ {
          "system": "http://loinc.org",
          "version": "2.76",
          "code": "21902-2",
          "display": "Stage group.pathology Cancer"
        } ]
      },
      "subject": {
        "reference": "Patient/a860bf3e-dbc6-400f-b921-aa364db4dec4"
      },
      "effectiveDateTime": "2026-04-06T08:00:00.000+00:00",
      "issued": "2026-04-06T08:10:00.000+00:00",
      "valueCodeableConcept": {
        "coding": [ {
          "system": "http://snomed.info/sct",
          "version": "http://snomed.info/sct/731000124108/version/20240301",
          "code": "1228883000",
          "display": "American Joint Committee on Cancer cTa (qualifier value)"
        } ]
      }
    },
    "request": {
      "method": "PUT",
      "url": "Observation/2dbcc1f0-3cb4-4887-ade0-a7c1e2f10230"
    }
  }, {
    "fullUrl": "https://madie.cms.gov/MeasureReport/d584e90e-35b1-45b0-8861-cf5c8ae4e74a",
    "resource": {
      "resourceType": "MeasureReport",
      "id": "d584e90e-35b1-45b0-8861-cf5c8ae4e74a",
      "meta": {
        "profile": [ "http://hl7.org/fhir/us/cqfmeasures/StructureDefinition/test-case-cqfm" ]
      },
      "contained": [ {
        "resourceType": "Parameters",
        "id": "e0117008-bf90-4e07-92c5-d9df6045bafa-parameters",
        "parameter": [ {
          "name": "subject",
          "valueString": "a860bf3e-dbc6-400f-b921-aa364db4dec4"
        } ]
      } ],
      "extension": [ {
        "url": "http://hl7.org/fhir/StructureDefinition/cqf-inputParameters",
        "valueReference": {
          "reference": "#e0117008-bf90-4e07-92c5-d9df6045bafa-parameters"
        }
      }, {
        "url": "http://hl7.org/fhir/us/cqfmeasures/StructureDefinition/cqfm-testCaseDescription",
        "valueMarkdown": "Patient with OV in MP. Bladder cancer diagnosis and cancer staging in MP.  Pt has Immunocompromised dx noted on day after staging and should be excluded. "
      } ],
      "modifierExtension": [ {
        "url": "http://hl7.org/fhir/us/cqfmeasures/StructureDefinition/cqfm-isTestCase",
        "valueBoolean": true
      } ],
      "status": "complete",
      "type": "individual",
      "measure": "https://madie.cms.gov/Measure/CMS646FHIRIntravesicalBacillusCalmetteGuerinForBladderCancer",
      "period": {
        "start": "2026-01-01",
        "end": "2026-12-31"
      },
      "group": [ {
        "id": "Group_1",
        "population": [ {
          "id": "InitialPopulation_1",
          "code": {
            "coding": [ {
              "system": "http://terminology.hl7.org/CodeSystem/measure-population",
              "code": "initial-population",
              "display": "Initial Population"
            } ]
          },
          "count": 1
        }, {
          "id": "Denominator_1",
          "code": {
            "coding": [ {
              "system": "http://terminology.hl7.org/CodeSystem/measure-population",
              "code": "denominator",
              "display": "Denominator"
            } ]
          },
          "count": 1
        }, {
          "id": "DenominatorExclusion_1",
          "code": {
            "coding": [ {
              "system": "http://terminology.hl7.org/CodeSystem/measure-population",
              "code": "denominator-exclusion",
              "display": "Denominator Exclusion"
            } ]
          },
          "count": 0
        }, {
          "id": "Numerator_1",
          "code": {
            "coding": [ {
              "system": "http://terminology.hl7.org/CodeSystem/measure-population",
              "code": "numerator",
              "display": "Numerator"
            } ]
          },
          "count": 0
        }, {
          "id": "DenominatorException_1",
          "code": {
            "coding": [ {
              "system": "http://terminology.hl7.org/CodeSystem/measure-population",
              "code": "denominator-exception",
              "display": "Denominator Exception"
            } ]
          },
          "count": 0
        } ],
        "measureScore": {
          "value": 1.0
        }
      } ],
      "evaluatedResource": [ {
        "reference": "Patient/a860bf3e-dbc6-400f-b921-aa364db4dec4"
      }, {
        "reference": "Encounter/5b774891-eada-4bda-815c-fe9ec15618c5"
      }, {
        "reference": "Condition/8479d21b-5fe9-4602-8dbf-0e6864c0ca3d"
      }, {
        "reference": "Condition/4502b3fd-29fb-41cf-af32-0d4cd282cdd5"
      }, {
        "reference": "Procedure/180e10c8-3d03-4b93-9cd5-2aa98e98ecff"
      }, {
        "reference": "Observation/2dbcc1f0-3cb4-4887-ade0-a7c1e2f10230"
      } ]
    },
    "request": {
      "method": "PUT",
      "url": "MeasureReport/d584e90e-35b1-45b0-8861-cf5c8ae4e74a"
    }
  } ]
}