{
  "resourceType": "Bundle",
  "id": "612e6b2e02c62a011f2ecc92",
  "type": "transaction",
  "entry": [ {
    "fullUrl": "https://madie.cms.gov/Patient/dbfc823e-0e2f-409d-a409-2d9399db1118",
    "resource": {
      "resourceType": "Patient",
      "id": "dbfc823e-0e2f-409d-a409-2d9399db1118",
      "meta": {
        "profile": [ "http://hl7.org/fhir/us/qicore/StructureDefinition/qicore-patient" ]
      },
      "text": {
        "status": "generated",
        "div": "<div xmlns=\"http://www.w3.org/1999/xhtml\"><div class=\"hapiHeaderText\">PtRefMOLMWHDayAfterICU<b>NUMERPASS </b></div><table class=\"hapiPropertyTable\"><tbody><tr><td>Identifier</td><td>bec2580a47ed4bf7691b191e0654b2de</td></tr><tr><td>Date of birth</td><td><span>02 January 1974</span></td></tr></tbody></table></div>"
      },
      "extension": [ {
        "url": "http://hl7.org/fhir/us/core/StructureDefinition/us-core-race",
        "extension": [ {
          "url": "ombCategory",
          "valueCoding": {
            "system": "urn:oid:2.16.840.1.113883.6.238",
            "code": "1002-5",
            "display": "American Indian or Alaska Native",
            "userSelected": true
          }
        }, {
          "url": "text",
          "valueString": "American Indian or Alaska Native"
        } ]
      }, {
        "url": "http://hl7.org/fhir/us/core/StructureDefinition/us-core-ethnicity",
        "extension": [ {
          "url": "ombCategory",
          "valueCoding": {
            "system": "urn:oid:2.16.840.1.113883.6.238",
            "code": "2135-2",
            "display": "Hispanic or Latino",
            "userSelected": true
          }
        }, {
          "url": "text",
          "valueString": "Hispanic or Latino"
        } ]
      } ],
      "identifier": [ {
        "type": {
          "coding": [ {
            "system": "http://terminology.hl7.org/CodeSystem/v2-0203",
            "code": "MR"
          } ]
        },
        "system": "https://bonnie-fhir.healthit.gov/",
        "value": "612e6b2e02c62a011f2ecc92"
      } ],
      "active": true,
      "name": [ {
        "use": "usual",
        "family": "NUMERPass",
        "given": [ "PtRefMOLMWHTaskReject" ]
      } ],
      "gender": "male",
      "birthDate": "1975-01-02"
    },
    "request": {
      "method": "PUT",
      "url": "Patient/dbfc823e-0e2f-409d-a409-2d9399db1118"
    }
  }, {
    "fullUrl": "https://madie.cms.gov/Encounter/962b202a-2c30-4e1f-821e-d57050d64418",
    "resource": {
      "resourceType": "Encounter",
      "id": "962b202a-2c30-4e1f-821e-d57050d64418",
      "meta": {
        "profile": [ "http://hl7.org/fhir/us/qicore/StructureDefinition/qicore-encounter" ]
      },
      "status": "finished",
      "class": {
        "system": "http://terminology.hl7.org/CodeSystem/v3-ActCode",
        "code": "IMP",
        "display": "inpatient encounter"
      },
      "type": [ {
        "coding": [ {
          "system": "http://snomed.info/sct",
          "code": "8715000"
        } ]
      } ],
      "subject": {
        "reference": "Patient/dbfc823e-0e2f-409d-a409-2d9399db1118"
      },
      "period": {
        "start": "2026-11-01T08:00:00Z",
        "end": "2026-11-26T08:15:00.000+00:00"
      },
      "length": {
        "value": 25,
        "unit": "days"
      },
      "location": [ {
        "location": {
          "reference": "Location/b7f3c1d5-376e-4a64-83b1-1310b2de6740"
        },
        "period": {
          "start": "2026-11-04T09:00:00Z",
          "end": "2026-11-06T08:15:00.000+00:00"
        }
      } ]
    },
    "request": {
      "method": "PUT",
      "url": "Encounter/962b202a-2c30-4e1f-821e-d57050d64418"
    }
  }, {
    "fullUrl": "https://madie.cms.gov/Coverage/809b24e3-c3ba-4c12-8235-423e2d738f80",
    "resource": {
      "resourceType": "Coverage",
      "id": "809b24e3-c3ba-4c12-8235-423e2d738f80",
      "status": "active",
      "beneficiary": {
        "reference": "Patient/dbfc823e-0e2f-409d-a409-2d9399db1118"
      },
      "period": {
        "start": "1975-01-02T08:00:00Z"
      },
      "payor": [ {
        "reference": "Organization/cc7b32e3-58d8-4e4f-b52c-8a240a0ec8ef"
      } ]
    },
    "request": {
      "method": "PUT",
      "url": "Coverage/809b24e3-c3ba-4c12-8235-423e2d738f80"
    }
  }, {
    "fullUrl": "https://madie.cms.gov/MedicationRequest/42d9ea9d-e868-42ce-a90e-d68e2883a9e9",
    "resource": {
      "resourceType": "MedicationRequest",
      "id": "42d9ea9d-e868-42ce-a90e-d68e2883a9e9",
      "meta": {
        "profile": [ "http://hl7.org/fhir/us/qicore/StructureDefinition/qicore-medicationrequest" ]
      },
      "status": "active",
      "intent": "order",
      "category": [ {
        "coding": [ {
          "system": "http://terminology.hl7.org/CodeSystem/medicationrequest-category",
          "code": "inpatient"
        } ]
      } ],
      "doNotPerform": false,
      "medicationCodeableConcept": {
        "coding": [ {
          "system": "http://www.nlm.nih.gov/research/umls/rxnorm",
          "code": "978744"
        } ]
      },
      "subject": {
        "reference": "Patient/dbfc823e-0e2f-409d-a409-2d9399db1118"
      },
      "authoredOn": "2026-11-01T08:00:00Z",
      "requester": {
        "reference": "Practitioner/123456"
      },
      "dosageInstruction": [ {
        "timing": {
          "repeat": {
            "boundsPeriod": {
              "start": "2026-11-03T09:00:00Z"
            }
          }
        }
      } ]
    },
    "request": {
      "method": "PUT",
      "url": "MedicationRequest/42d9ea9d-e868-42ce-a90e-d68e2883a9e9"
    }
  }, {
    "fullUrl": "https://madie.cms.gov/Task/db23b65f-c3d3-4afd-8422-e072d29de0a4",
    "resource": {
      "resourceType": "Task",
      "id": "db23b65f-c3d3-4afd-8422-e072d29de0a4",
      "meta": {
        "profile": [ "http://hl7.org/fhir/us/qicore/StructureDefinition/qicore-taskrejected" ]
      },
      "status": "rejected",
      "statusReason": {
        "coding": [ {
          "system": "http://snomed.info/sct",
          "code": "443390004",
          "display": "Refusal of treatment by patient (situation)",
          "userSelected": true
        } ]
      },
      "code": {
        "coding": [ {
          "system": "http://hl7.org/fhir/CodeSystem/task-code",
          "code": "fulfill"
        } ]
      },
      "focus": {
        "reference": "MedicationRequest/42d9ea9d-e868-42ce-a90e-d68e2883a9e9"
      },
      "executionPeriod": {
        "start": "2026-11-01T09:00:00Z",
        "end": "2026-11-03T09:00:00.000+00:00"
      }
    },
    "request": {
      "method": "PUT",
      "url": "Task/db23b65f-c3d3-4afd-8422-e072d29de0a4"
    }
  }, {
    "fullUrl": "https://madie.cms.gov/Location/b7f3c1d5-376e-4a64-83b1-1310b2de6740",
    "resource": {
      "resourceType": "Location",
      "id": "b7f3c1d5-376e-4a64-83b1-1310b2de6740",
      "meta": {
        "profile": [ "http://hl7.org/fhir/us/qicore/StructureDefinition/qicore-location" ]
      },
      "identifier": [ {
        "use": "usual",
        "system": "http://exampleoflocation.com",
        "value": "B1-S.F2"
      } ],
      "name": "Medical Surgical East, first floor",
      "type": [ {
        "coding": [ {
          "system": "https://www.cdc.gov/nhsn/cdaportal/terminology/codesystem/hsloc.html",
          "code": "1025-6",
          "display": "Trauma Critical Care",
          "userSelected": true
        } ]
      } ]
    },
    "request": {
      "method": "PUT",
      "url": "Location/b7f3c1d5-376e-4a64-83b1-1310b2de6740"
    }
  }, {
    "fullUrl": "https://madie.cms.gov/Organization/cc7b32e3-58d8-4e4f-b52c-8a240a0ec8ef",
    "resource": {
      "resourceType": "Organization",
      "id": "cc7b32e3-58d8-4e4f-b52c-8a240a0ec8ef",
      "meta": {
        "profile": [ "http://hl7.org/fhir/us/qicore/StructureDefinition/qicore-organization" ]
      },
      "identifier": [ {
        "use": "temp",
        "system": "urn:oid:2.16.840.1.113883.4.4",
        "value": "21-3259825"
      } ],
      "active": true,
      "type": [ {
        "coding": [ {
          "system": "http://terminology.hl7.org/CodeSystem/organization-type",
          "code": "pay",
          "display": "Payer"
        } ]
      } ],
      "name": "Blue Cross Blue Shield of Texas",
      "telecom": [ {
        "system": "phone",
        "value": "(+1) 972-766-6900"
      } ],
      "address": [ {
        "use": "billing",
        "type": "postal",
        "line": [ "P.O. Box 660044" ],
        "city": "Dallas",
        "state": "TX",
        "postalCode": "75266-0044",
        "country": "USA"
      } ]
    },
    "request": {
      "method": "PUT",
      "url": "Organization/cc7b32e3-58d8-4e4f-b52c-8a240a0ec8ef"
    }
  }, {
    "fullUrl": "https://madie.cms.gov/Practitioner/d5946e4b-8111-4b1c-a471-818b66b28f07",
    "resource": {
      "resourceType": "Practitioner",
      "id": "d5946e4b-8111-4b1c-a471-818b66b28f07",
      "identifier": [ {
        "system": "http://hl7.org/fhir/sid/us-npi",
        "value": "123456"
      } ],
      "name": [ {
        "family": "Evil",
        "prefix": [ "Dr" ]
      } ]
    },
    "request": {
      "method": "PUT",
      "url": "Practitioner/d5946e4b-8111-4b1c-a471-818b66b28f07"
    }
  }, {
    "fullUrl": "https://madie.cms.gov/MeasureReport/aef8158c-9074-42ae-9e79-06db68547636",
    "resource": {
      "resourceType": "MeasureReport",
      "id": "aef8158c-9074-42ae-9e79-06db68547636",
      "meta": {
        "profile": [ "http://hl7.org/fhir/us/cqfmeasures/StructureDefinition/test-case-cqfm" ]
      },
      "contained": [ {
        "resourceType": "Parameters",
        "id": "1024ee0e-819e-45c8-9883-7c66f72df57b-parameters",
        "parameter": [ {
          "name": "subject",
          "valueString": "dbfc823e-0e2f-409d-a409-2d9399db1118"
        } ]
      } ],
      "extension": [ {
        "url": "http://hl7.org/fhir/StructureDefinition/cqf-inputParameters",
        "valueReference": {
          "reference": "#1024ee0e-819e-45c8-9883-7c66f72df57b-parameters"
        }
      }, {
        "url": "http://hl7.org/fhir/us/cqfmeasures/StructureDefinition/cqfm-testCaseDescription",
        "valueMarkdown": "Patient refusal for LMWH with Task Rejected"
      } ],
      "modifierExtension": [ {
        "url": "http://hl7.org/fhir/us/cqfmeasures/StructureDefinition/cqfm-isTestCase",
        "valueBoolean": true
      } ],
      "status": "complete",
      "type": "individual",
      "measure": "https://madie.cms.gov/Measure/CMS190VTEProphylaxisICUFHIR",
      "period": {
        "start": "2026-01-01",
        "end": "2026-12-31"
      },
      "group": [ {
        "id": "Group_1",
        "population": [ {
          "id": "InitialPopulation_1",
          "code": {
            "coding": [ {
              "system": "http://terminology.hl7.org/CodeSystem/measure-population",
              "code": "initial-population",
              "display": "Initial Population"
            } ]
          },
          "count": 1
        }, {
          "id": "Denominator_1",
          "code": {
            "coding": [ {
              "system": "http://terminology.hl7.org/CodeSystem/measure-population",
              "code": "denominator",
              "display": "Denominator"
            } ]
          },
          "count": 1
        }, {
          "id": "DenominatorExclusion_1",
          "code": {
            "coding": [ {
              "system": "http://terminology.hl7.org/CodeSystem/measure-population",
              "code": "denominator-exclusion",
              "display": "Denominator Exclusion"
            } ]
          },
          "count": 0
        }, {
          "id": "Numerator_1",
          "code": {
            "coding": [ {
              "system": "http://terminology.hl7.org/CodeSystem/measure-population",
              "code": "numerator",
              "display": "Numerator"
            } ]
          },
          "count": 1
        }, {
          "id": "DenominatorException_1",
          "code": {
            "coding": [ {
              "system": "http://terminology.hl7.org/CodeSystem/measure-population",
              "code": "denominator-exception",
              "display": "Denominator Exception"
            } ]
          },
          "count": 0
        } ],
        "measureScore": {
          "value": 0.0
        }
      } ],
      "evaluatedResource": [ {
        "reference": "Patient/dbfc823e-0e2f-409d-a409-2d9399db1118"
      }, {
        "reference": "Encounter/962b202a-2c30-4e1f-821e-d57050d64418"
      }, {
        "reference": "Coverage/809b24e3-c3ba-4c12-8235-423e2d738f80"
      }, {
        "reference": "MedicationRequest/42d9ea9d-e868-42ce-a90e-d68e2883a9e9"
      }, {
        "reference": "Task/db23b65f-c3d3-4afd-8422-e072d29de0a4"
      }, {
        "reference": "Location/b7f3c1d5-376e-4a64-83b1-1310b2de6740"
      }, {
        "reference": "Organization/cc7b32e3-58d8-4e4f-b52c-8a240a0ec8ef"
      }, {
        "reference": "Practitioner/d5946e4b-8111-4b1c-a471-818b66b28f07"
      } ]
    },
    "request": {
      "method": "PUT",
      "url": "MeasureReport/aef8158c-9074-42ae-9e79-06db68547636"
    }
  } ]
}