{
  "resourceType": "Bundle",
  "id": "tests-NumerPass-RVwithAntidepressantOrderAtAdmission-bundle",
  "type": "transaction",
  "entry": [ {
    "fullUrl": "https://madie.cms.gov/Encounter/5b8f52c7-b32c-4467-8244-64962b966231",
    "resource": {
      "resourceType": "Encounter",
      "id": "5b8f52c7-b32c-4467-8244-64962b966231",
      "meta": {
        "profile": [ "http://hl7.org/fhir/us/qicore/StructureDefinition/qicore-encounter" ]
      },
      "status": "finished",
      "class": {
        "system": "http://terminology.hl7.org/CodeSystem/v3-ActCode",
        "code": "IMP",
        "display": "inpatient encounter"
      },
      "type": [ {
        "coding": [ {
          "system": "http://snomed.info/sct",
          "code": "183452005",
          "display": "Inpatient encounter"
        } ]
      } ],
      "subject": {
        "reference": "Patient/a2b51ea0-5a72-4bda-abe5-dd393bfa0545"
      },
      "period": {
        "start": "2026-10-19T08:30:00.000+00:00",
        "end": "2026-10-31T08:15:00.000+00:00"
      },
      "reasonCode": [ {
        "coding": [ {
          "system": "http://snomed.info/sct",
          "code": "14047009"
        } ]
      }, {
        "coding": [ {
          "system": "http://snomed.info/sct",
          "code": "64859006"
        } ]
      } ]
    },
    "request": {
      "method": "PUT",
      "url": "Encounter/5b8f52c7-b32c-4467-8244-64962b966231"
    }
  }, {
    "fullUrl": "https://madie.cms.gov/Encounter/263dca59-9548-4a85-8603-0d8a8e1b1d44",
    "resource": {
      "resourceType": "Encounter",
      "id": "263dca59-9548-4a85-8603-0d8a8e1b1d44",
      "meta": {
        "profile": [ "http://hl7.org/fhir/us/qicore/StructureDefinition/qicore-encounter" ]
      },
      "status": "finished",
      "class": {
        "system": "http://terminology.hl7.org/CodeSystem/v3-ActCode",
        "code": "EMER",
        "display": "emergency encounter"
      },
      "type": [ {
        "coding": [ {
          "system": "http://snomed.info/sct",
          "code": "4525004",
          "display": "Emergency Department Visit"
        } ]
      } ],
      "subject": {
        "reference": "Patient/a2b51ea0-5a72-4bda-abe5-dd393bfa0545"
      },
      "period": {
        "start": "2026-10-18T09:15:00.000+00:00",
        "end": "2026-10-19T08:15:00.000+00:00"
      }
    },
    "request": {
      "method": "PUT",
      "url": "Encounter/263dca59-9548-4a85-8603-0d8a8e1b1d44"
    }
  }, {
    "fullUrl": "https://madie.cms.gov/Patient/a2b51ea0-5a72-4bda-abe5-dd393bfa0545",
    "resource": {
      "resourceType": "Patient",
      "id": "a2b51ea0-5a72-4bda-abe5-dd393bfa0545",
      "meta": {
        "profile": [ "http://hl7.org/fhir/us/qicore/StructureDefinition/qicore-patient" ]
      },
      "extension": [ {
        "url": "http://hl7.org/fhir/us/core/StructureDefinition/us-core-race",
        "extension": [ {
          "url": "ombCategory",
          "valueCoding": {
            "system": "urn:oid:2.16.840.1.113883.6.238",
            "code": "2106-3",
            "display": "White"
          }
        }, {
          "url": "text",
          "valueString": "White"
        } ]
      }, {
        "url": "http://hl7.org/fhir/us/core/StructureDefinition/us-core-ethnicity",
        "extension": [ {
          "url": "ombCategory",
          "valueCoding": {
            "system": "urn:oid:2.16.840.1.113883.6.238",
            "code": "2135-2",
            "display": "Hispanic or Latino"
          }
        }, {
          "url": "text",
          "valueString": "Hispanic or Latino"
        } ]
      }, {
        "url": "http://hl7.org/fhir/us/core/StructureDefinition/us-core-sex",
        "valueCode": "248153007"
      } ],
      "identifier": [ {
        "system": "http://hospital.smarthealthit.org",
        "value": "999999999"
      } ],
      "name": [ {
        "family": "Example",
        "given": [ "Patient" ]
      } ],
      "gender": "female",
      "birthDate": "1956-01-01"
    },
    "request": {
      "method": "PUT",
      "url": "Patient/a2b51ea0-5a72-4bda-abe5-dd393bfa0545"
    }
  }, {
    "fullUrl": "https://madie.cms.gov/Claim/3e12683f-3625-4b20-bdd0-e46ea2e91dad",
    "resource": {
      "resourceType": "Claim",
      "id": "3e12683f-3625-4b20-bdd0-e46ea2e91dad",
      "meta": {
        "profile": [ "http://hl7.org/fhir/us/qicore/StructureDefinition/qicore-claim" ]
      },
      "status": "active",
      "type": {
        "coding": [ {
          "system": "http://terminology.hl7.org/CodeSystem/claim-type",
          "code": "institutional",
          "display": "Institutional"
        } ]
      },
      "use": "claim",
      "patient": {
        "reference": "Patient/a2b51ea0-5a72-4bda-abe5-dd393bfa0545"
      },
      "created": "2026-10-22",
      "priority": {
        "coding": [ {
          "system": "http://terminology.hl7.org/CodeSystem/processpriority",
          "code": "normal"
        } ]
      },
      "diagnosis": [ {
        "sequence": 1,
        "diagnosisCodeableConcept": {
          "coding": [ {
            "system": "http://snomed.info/sct",
            "code": "14047009"
          } ]
        }
      } ],
      "item": [ {
        "sequence": 1,
        "diagnosisSequence": [ 1, 2 ],
        "encounter": [ {
          "reference": "Encounter/5b8f52c7-b32c-4467-8244-64962b966231"
        } ]
      } ]
    },
    "request": {
      "method": "PUT",
      "url": "Claim/3e12683f-3625-4b20-bdd0-e46ea2e91dad"
    }
  }, {
    "fullUrl": "https://madie.cms.gov/Claim/4907f902-b621-4d70-b5cd-464a7de59f17",
    "resource": {
      "resourceType": "Claim",
      "id": "4907f902-b621-4d70-b5cd-464a7de59f17",
      "meta": {
        "profile": [ "http://hl7.org/fhir/us/qicore/StructureDefinition/qicore-claim" ]
      },
      "status": "active",
      "type": {
        "coding": [ {
          "system": "http://terminology.hl7.org/CodeSystem/claim-type",
          "code": "institutional",
          "display": "Institutional"
        } ]
      },
      "use": "claim",
      "patient": {
        "reference": "Patient/a2b51ea0-5a72-4bda-abe5-dd393bfa0545"
      },
      "created": "2026-11-01",
      "provider": {
        "reference": "Organization/Organization-1"
      },
      "priority": {
        "coding": [ {
          "system": "http://terminology.hl7.org/CodeSystem/processpriority",
          "code": "normal"
        } ]
      },
      "diagnosis": [ {
        "sequence": 1,
        "diagnosisCodeableConcept": {
          "coding": [ {
            "system": "http://hl7.org/fhir/sid/icd-10-cm",
            "code": "M80.00XA",
            "display": "Age-related osteoporosis with current pathological fracture, unspecified site, initial encounter for fracture"
          } ]
        }
      } ],
      "item": [ {
        "sequence": 1,
        "diagnosisSequence": [ 1, 2 ],
        "encounter": [ {
          "reference": "Encounter/5b8f52c7-b32c-4467-8244-64962b966231"
        } ]
      } ]
    },
    "request": {
      "method": "PUT",
      "url": "Claim/4907f902-b621-4d70-b5cd-464a7de59f17"
    }
  }, {
    "fullUrl": "https://madie.cms.gov/MedicationRequest/2251b2c0-833b-404c-a568-d22b37fe57ae",
    "resource": {
      "resourceType": "MedicationRequest",
      "id": "2251b2c0-833b-404c-a568-d22b37fe57ae",
      "meta": {
        "profile": [ "http://hl7.org/fhir/us/qicore/StructureDefinition/qicore-medicationrequest" ]
      },
      "status": "active",
      "intent": "order",
      "category": [ {
        "coding": [ {
          "system": "http://terminology.hl7.org/CodeSystem/medicationrequest-category",
          "code": "community",
          "display": "Community"
        } ]
      } ],
      "medicationCodeableConcept": {
        "coding": [ {
          "system": "http://www.nlm.nih.gov/research/umls/rxnorm",
          "code": "1000048"
        } ]
      },
      "subject": {
        "reference": "Patient/a2b51ea0-5a72-4bda-abe5-dd393bfa0545"
      },
      "authoredOn": "2026-10-15",
      "dispenseRequest": {
        "quantity": {
          "value": 14,
          "unit": "tablet",
          "system": "http://unitsofmeasure.org",
          "code": "{tablet}"
        },
        "expectedSupplyDuration": {
          "value": 14,
          "unit": "days",
          "system": "http://unitsofmeasure.org",
          "code": "d"
        }
      }
    },
    "request": {
      "method": "PUT",
      "url": "MedicationRequest/2251b2c0-833b-404c-a568-d22b37fe57ae"
    }
  }, {
    "fullUrl": "https://madie.cms.gov/Observation/305ee5e9-9cdd-48a9-9022-96fd31c78da2",
    "resource": {
      "resourceType": "Observation",
      "id": "305ee5e9-9cdd-48a9-9022-96fd31c78da2",
      "meta": {
        "profile": [ "http://hl7.org/fhir/us/core/StructureDefinition/us-core-bmi" ]
      },
      "status": "final",
      "category": [ {
        "coding": [ {
          "system": "http://terminology.hl7.org/CodeSystem/observation-category",
          "code": "vital-signs",
          "display": "Vital Signs"
        } ]
      } ],
      "code": {
        "coding": [ {
          "system": "http://loinc.org",
          "code": "39156-5",
          "display": "Body mass index (BMI) [Ratio]"
        } ],
        "text": "BMI"
      },
      "subject": {
        "reference": "Patient/a2b51ea0-5a72-4bda-abe5-dd393bfa0545"
      },
      "effectiveDateTime": "2026-10-20T08:00:00.000+00:00",
      "valueQuantity": {
        "value": 28.3,
        "unit": "kg/m2",
        "system": "http://unitsofmeasure.org",
        "code": "kg/m2"
      }
    },
    "request": {
      "method": "PUT",
      "url": "Observation/305ee5e9-9cdd-48a9-9022-96fd31c78da2"
    }
  }, {
    "fullUrl": "https://madie.cms.gov/MeasureReport/1fe26524-e2b9-439e-a8cb-826ece7afef4",
    "resource": {
      "resourceType": "MeasureReport",
      "id": "1fe26524-e2b9-439e-a8cb-826ece7afef4",
      "meta": {
        "profile": [ "http://hl7.org/fhir/us/cqfmeasures/StructureDefinition/test-case-cqfm" ]
      },
      "contained": [ {
        "resourceType": "Parameters",
        "id": "db917b3c-aa5f-453d-90e1-629730dff698-parameters",
        "parameter": [ {
          "name": "subject",
          "valueString": "a2b51ea0-5a72-4bda-abe5-dd393bfa0545"
        } ]
      } ],
      "extension": [ {
        "url": "http://hl7.org/fhir/StructureDefinition/cqf-inputParameters",
        "valueReference": {
          "reference": "#db917b3c-aa5f-453d-90e1-629730dff698-parameters"
        }
      }, {
        "url": "http://hl7.org/fhir/us/cqfmeasures/StructureDefinition/cqfm-testCaseDescription",
        "valueMarkdown": "RVariable Encounter With CNSdepressant/Antidepressant Order At Admission"
      } ],
      "modifierExtension": [ {
        "url": "http://hl7.org/fhir/us/cqfmeasures/StructureDefinition/cqfm-isTestCase",
        "valueBoolean": true
      } ],
      "status": "complete",
      "type": "individual",
      "measure": "https://madie.cms.gov/Measure/CMS1017FHIRHHFI",
      "period": {
        "start": "2026-01-01",
        "end": "2026-12-31"
      },
      "group": [ {
        "id": "Group_1",
        "population": [ {
          "id": "InitialPopulation_1",
          "code": {
            "coding": [ {
              "system": "http://terminology.hl7.org/CodeSystem/measure-population",
              "code": "initial-population",
              "display": "Initial Population"
            } ]
          },
          "count": 1
        }, {
          "id": "Denominator_1",
          "code": {
            "coding": [ {
              "system": "http://terminology.hl7.org/CodeSystem/measure-population",
              "code": "denominator",
              "display": "Denominator"
            } ]
          },
          "count": 1
        }, {
          "id": "DenominatorExclusion_1",
          "code": {
            "coding": [ {
              "system": "http://terminology.hl7.org/CodeSystem/measure-population",
              "code": "denominator-exclusion",
              "display": "Denominator Exclusion"
            } ]
          },
          "count": 0
        }, {
          "id": "Numerator_1",
          "code": {
            "coding": [ {
              "system": "http://terminology.hl7.org/CodeSystem/measure-population",
              "code": "numerator",
              "display": "Numerator"
            } ]
          },
          "count": 1
        }, {
          "id": "NumeratorExclusion_1",
          "code": {
            "coding": [ {
              "system": "http://terminology.hl7.org/CodeSystem/measure-population",
              "code": "numerator-exclusion",
              "display": "Numerator Exclusion"
            } ]
          },
          "count": 0
        }, {
          "id": "MeasureObservation_1_1_1",
          "code": {
            "coding": [ {
              "system": "http://terminology.hl7.org/CodeSystem/measure-population",
              "code": "measure-observation",
              "display": "Measure Observation"
            } ]
          },
          "count": 12
        }, {
          "id": "MeasureObservation_1_2_1",
          "code": {
            "coding": [ {
              "system": "http://terminology.hl7.org/CodeSystem/measure-population",
              "code": "measure-observation",
              "display": "Measure Observation"
            } ]
          },
          "count": 1
        } ],
        "measureScore": {
          "value": 0.0
        }
      } ],
      "evaluatedResource": [ {
        "reference": "Encounter/5b8f52c7-b32c-4467-8244-64962b966231"
      }, {
        "reference": "Encounter/263dca59-9548-4a85-8603-0d8a8e1b1d44"
      }, {
        "reference": "Patient/a2b51ea0-5a72-4bda-abe5-dd393bfa0545"
      }, {
        "reference": "Claim/3e12683f-3625-4b20-bdd0-e46ea2e91dad"
      }, {
        "reference": "Claim/4907f902-b621-4d70-b5cd-464a7de59f17"
      }, {
        "reference": "MedicationRequest/2251b2c0-833b-404c-a568-d22b37fe57ae"
      }, {
        "reference": "Observation/305ee5e9-9cdd-48a9-9022-96fd31c78da2"
      } ]
    },
    "request": {
      "method": "PUT",
      "url": "MeasureReport/1fe26524-e2b9-439e-a8cb-826ece7afef4"
    }
  } ]
}