{
  "resourceType": "Bundle",
  "id": "633b3f9e0968f80122503cbb",
  "type": "transaction",
  "entry": [ {
    "fullUrl": "https://madie.cms.gov/Patient/dd0752c9-4040-4475-87c5-a1d56e8d892f",
    "resource": {
      "resourceType": "Patient",
      "id": "dd0752c9-4040-4475-87c5-a1d56e8d892f",
      "meta": {
        "profile": [ "http://hl7.org/fhir/us/qicore/StructureDefinition/qicore-patient" ]
      },
      "text": {
        "status": "generated",
        "div": "<div xmlns=\"http://www.w3.org/1999/xhtml\"><div class=\"hapiHeaderText\">PayerIsMedicare<b>IPOPPass</b></div><table class=\"hapiPropertyTable\"><tbody><tr><td>Date of birth</td><td><span>01 February 2004</span></td></tr></tbody></table></div>"
      },
      "extension": [ {
        "url": "http://hl7.org/fhir/us/core/StructureDefinition/us-core-race",
        "extension": [ {
          "url": "ombCategory",
          "valueCoding": {
            "system": "urn:oid:2.16.840.1.113883.6.238",
            "code": "1002-5",
            "display": "American Indian or Alaska Native",
            "userSelected": true
          }
        }, {
          "url": "text",
          "valueString": "American Indian or Alaska Native"
        } ]
      }, {
        "url": "http://hl7.org/fhir/us/core/StructureDefinition/us-core-ethnicity",
        "extension": [ {
          "url": "ombCategory",
          "valueCoding": {
            "system": "urn:oid:2.16.840.1.113883.6.238",
            "code": "2135-2",
            "display": "Hispanic or Latino",
            "userSelected": true
          }
        }, {
          "url": "text",
          "valueString": "Hispanic or Latino"
        } ]
      } ],
      "identifier": [ {
        "type": {
          "coding": [ {
            "system": "http://terminology.hl7.org/CodeSystem/v2-0203",
            "code": "MR"
          } ]
        },
        "system": "https://bonnie-fhir.healthit.gov/",
        "value": "633b3f9e0968f80122503cbb"
      } ],
      "active": true,
      "name": [ {
        "use": "usual",
        "family": "IPOPPass",
        "given": [ "PayerIsMedicare" ]
      } ],
      "gender": "male",
      "birthDate": "2017-02-01"
    },
    "request": {
      "method": "PUT",
      "url": "Patient/dd0752c9-4040-4475-87c5-a1d56e8d892f"
    }
  }, {
    "fullUrl": "https://madie.cms.gov/Encounter/93320989-1e73-447c-bf10-3c47720bfcc4",
    "resource": {
      "resourceType": "Encounter",
      "id": "93320989-1e73-447c-bf10-3c47720bfcc4",
      "meta": {
        "profile": [ "http://hl7.org/fhir/us/qicore/StructureDefinition/qicore-encounter" ]
      },
      "status": "finished",
      "class": {
        "system": "http://terminology.hl7.org/CodeSystem/v3-ActCode",
        "code": "IMP",
        "display": "inpatient encounter"
      },
      "type": [ {
        "coding": [ {
          "system": "http://snomed.info/sct",
          "code": "183452005"
        } ]
      } ],
      "subject": {
        "reference": "Patient/dd0752c9-4040-4475-87c5-a1d56e8d892f"
      },
      "period": {
        "start": "2026-02-01T08:00:00Z",
        "end": "2026-02-05T08:15:00Z"
      },
      "diagnosis": [ {
        "condition": {
          "reference": "Condition/Condition-2"
        },
        "use": {
          "coding": [ {
            "system": "http://snomed.info/sct",
            "code": "169826009",
            "display": "Delivery of Singleton"
          } ]
        }
      } ]
    },
    "request": {
      "method": "PUT",
      "url": "Encounter/93320989-1e73-447c-bf10-3c47720bfcc4"
    }
  }, {
    "fullUrl": "https://madie.cms.gov/Procedure/945e3059-13ae-4ce3-8cf6-30fde0dd5b2b",
    "resource": {
      "resourceType": "Procedure",
      "id": "945e3059-13ae-4ce3-8cf6-30fde0dd5b2b",
      "meta": {
        "profile": [ "http://hl7.org/fhir/us/qicore/StructureDefinition/qicore-procedure" ]
      },
      "extension": [ {
        "url": "http://hl7.org/fhir/us/qicore/StructureDefinition/qicore-recorded",
        "valueDateTime": "2014-04-05T13:35:00Z"
      } ],
      "status": "completed",
      "code": {
        "coding": [ {
          "system": "http://snomed.info/sct",
          "version": "2022-09",
          "code": "10745001",
          "display": "Delivery of transverse presentation (procedure)",
          "userSelected": true
        } ]
      },
      "subject": {
        "reference": "Patient/dd0752c9-4040-4475-87c5-a1d56e8d892f"
      },
      "performedPeriod": {
        "start": "2026-02-01T08:00:00Z",
        "end": "2026-02-05T08:15:00Z"
      }
    },
    "request": {
      "method": "PUT",
      "url": "Procedure/945e3059-13ae-4ce3-8cf6-30fde0dd5b2b"
    }
  }, {
    "fullUrl": "https://madie.cms.gov/Coverage/af8c1258-b3f3-43f9-b5ac-df8111ef60ae",
    "resource": {
      "resourceType": "Coverage",
      "id": "af8c1258-b3f3-43f9-b5ac-df8111ef60ae",
      "meta": {
        "profile": [ "http://hl7.org/fhir/us/qicore/StructureDefinition/qicore-coverage" ]
      },
      "status": "active",
      "beneficiary": {
        "reference": "Patient/dd0752c9-4040-4475-87c5-a1d56e8d892f"
      },
      "payor": [ {
        "reference": "Organization/95fae789-b373-47fe-b4c1-42aea537b804"
      } ]
    },
    "request": {
      "method": "PUT",
      "url": "Coverage/af8c1258-b3f3-43f9-b5ac-df8111ef60ae"
    }
  }, {
    "fullUrl": "https://madie.cms.gov/Organization/95fae789-b373-47fe-b4c1-42aea537b804",
    "resource": {
      "resourceType": "Organization",
      "id": "95fae789-b373-47fe-b4c1-42aea537b804",
      "meta": {
        "profile": [ "http://hl7.org/fhir/us/qicore/StructureDefinition/qicore-organization" ]
      },
      "identifier": [ {
        "use": "temp",
        "system": "urn:oid:2.16.840.1.113883.4.4",
        "value": "21-3259825"
      } ],
      "active": true,
      "type": [ {
        "coding": [ {
          "system": "http://terminology.hl7.org/CodeSystem/organization-type",
          "code": "pay",
          "display": "Payer"
        } ]
      } ],
      "name": "Blue Cross Blue Shield of Texas",
      "telecom": [ {
        "system": "phone",
        "value": "(+1) 972-766-6900"
      } ],
      "address": [ {
        "use": "billing",
        "type": "postal",
        "line": [ "P.O. Box 660044" ],
        "city": "Dallas",
        "state": "TX",
        "postalCode": "75266-0044",
        "country": "USA"
      } ]
    },
    "request": {
      "method": "PUT",
      "url": "Organization/95fae789-b373-47fe-b4c1-42aea537b804"
    }
  }, {
    "fullUrl": "https://madie.cms.gov/Coverage/45e37a81-24b3-4d5c-a86a-5e095997c220",
    "resource": {
      "resourceType": "Coverage",
      "id": "45e37a81-24b3-4d5c-a86a-5e095997c220",
      "meta": {
        "profile": [ "http://hl7.org/fhir/us/qicore/StructureDefinition/qicore-coverage" ]
      },
      "status": "active",
      "type": {
        "coding": [ {
          "system": "https://nahdo.org/sopt",
          "code": "1",
          "display": "MEDICARE"
        } ]
      },
      "beneficiary": {
        "reference": "Patient/dd0752c9-4040-4475-87c5-a1d56e8d892f"
      },
      "period": {
        "start": "2026-11-28T08:00:00Z",
        "end": "2026-11-30T08:15:00Z"
      },
      "payor": [ {
        "reference": "Organization/95fae789-b373-47fe-b4c1-42aea537b804"
      } ]
    },
    "request": {
      "method": "PUT",
      "url": "Coverage/45e37a81-24b3-4d5c-a86a-5e095997c220"
    }
  }, {
    "fullUrl": "https://madie.cms.gov/Practitioner/d0b61ae7-952d-4439-a519-a31c1dd632c7",
    "resource": {
      "resourceType": "Practitioner",
      "id": "d0b61ae7-952d-4439-a519-a31c1dd632c7",
      "identifier": [ {
        "system": "http://hl7.org/fhir/sid/us-npi",
        "value": "123456"
      } ],
      "name": [ {
        "family": "Evil",
        "prefix": [ "Dr" ]
      } ]
    },
    "request": {
      "method": "PUT",
      "url": "Practitioner/d0b61ae7-952d-4439-a519-a31c1dd632c7"
    }
  }, {
    "fullUrl": "https://madie.cms.gov/MeasureReport/4f5151b9-c4e5-4257-bb34-4389423a3f6f",
    "resource": {
      "resourceType": "MeasureReport",
      "id": "4f5151b9-c4e5-4257-bb34-4389423a3f6f",
      "meta": {
        "profile": [ "http://hl7.org/fhir/us/cqfmeasures/StructureDefinition/test-case-cqfm" ]
      },
      "contained": [ {
        "resourceType": "Parameters",
        "id": "8bca2951-6d48-45a8-87e3-2940b386a3fa-parameters",
        "parameter": [ {
          "name": "subject",
          "valueString": "dd0752c9-4040-4475-87c5-a1d56e8d892f"
        } ]
      } ],
      "extension": [ {
        "url": "http://hl7.org/fhir/StructureDefinition/cqf-inputParameters",
        "valueReference": {
          "reference": "#8bca2951-6d48-45a8-87e3-2940b386a3fa-parameters"
        }
      }, {
        "url": "http://hl7.org/fhir/us/cqfmeasures/StructureDefinition/cqfm-testCaseDescription",
        "valueMarkdown": "Won't impact outcome as payer is not specified in the logic."
      } ],
      "modifierExtension": [ {
        "url": "http://hl7.org/fhir/us/cqfmeasures/StructureDefinition/cqfm-isTestCase",
        "valueBoolean": true
      } ],
      "status": "complete",
      "type": "individual",
      "measure": "https://madie.cms.gov/Measure/CMS1028FHIRPCSevereOBComps",
      "period": {
        "start": "2026-01-01",
        "end": "2026-12-31"
      },
      "group": [ {
        "id": "Group_1",
        "population": [ {
          "id": "InitialPopulation_1",
          "code": {
            "coding": [ {
              "system": "http://terminology.hl7.org/CodeSystem/measure-population",
              "code": "initial-population",
              "display": "Initial Population"
            } ]
          },
          "count": 1
        }, {
          "id": "Denominator_1",
          "code": {
            "coding": [ {
              "system": "http://terminology.hl7.org/CodeSystem/measure-population",
              "code": "denominator",
              "display": "Denominator"
            } ]
          },
          "count": 0
        }, {
          "id": "Numerator_1",
          "code": {
            "coding": [ {
              "system": "http://terminology.hl7.org/CodeSystem/measure-population",
              "code": "numerator",
              "display": "Numerator"
            } ]
          },
          "count": 0
        }, {
          "id": "NumeratorExclusion_1",
          "code": {
            "coding": [ {
              "system": "http://terminology.hl7.org/CodeSystem/measure-population",
              "code": "numerator-exclusion",
              "display": "Numerator Exclusion"
            } ]
          },
          "count": 0
        } ],
        "measureScore": {
          "value": 0.0
        }
      }, {
        "id": "Group_2",
        "population": [ {
          "id": "InitialPopulation_2",
          "code": {
            "coding": [ {
              "system": "http://terminology.hl7.org/CodeSystem/measure-population",
              "code": "initial-population",
              "display": "Initial Population"
            } ]
          },
          "count": 1
        }, {
          "id": "Denominator_2",
          "code": {
            "coding": [ {
              "system": "http://terminology.hl7.org/CodeSystem/measure-population",
              "code": "denominator",
              "display": "Denominator"
            } ]
          },
          "count": 0
        }, {
          "id": "Numerator_2",
          "code": {
            "coding": [ {
              "system": "http://terminology.hl7.org/CodeSystem/measure-population",
              "code": "numerator",
              "display": "Numerator"
            } ]
          },
          "count": 0
        }, {
          "id": "NumeratorExclusion_2",
          "code": {
            "coding": [ {
              "system": "http://terminology.hl7.org/CodeSystem/measure-population",
              "code": "numerator-exclusion",
              "display": "Numerator Exclusion"
            } ]
          },
          "count": 0
        } ],
        "measureScore": {
          "value": 0.0
        }
      } ],
      "evaluatedResource": [ {
        "reference": "Patient/dd0752c9-4040-4475-87c5-a1d56e8d892f"
      }, {
        "reference": "Encounter/93320989-1e73-447c-bf10-3c47720bfcc4"
      }, {
        "reference": "Procedure/945e3059-13ae-4ce3-8cf6-30fde0dd5b2b"
      }, {
        "reference": "Coverage/af8c1258-b3f3-43f9-b5ac-df8111ef60ae"
      }, {
        "reference": "Organization/95fae789-b373-47fe-b4c1-42aea537b804"
      }, {
        "reference": "Coverage/45e37a81-24b3-4d5c-a86a-5e095997c220"
      }, {
        "reference": "Practitioner/d0b61ae7-952d-4439-a519-a31c1dd632c7"
      } ]
    },
    "request": {
      "method": "PUT",
      "url": "MeasureReport/4f5151b9-c4e5-4257-bb34-4389423a3f6f"
    }
  } ]
}