{
  "resourceType": "Bundle",
  "id": "63233350414ba67d4e1d1c2f",
  "type": "transaction",
  "entry": [ {
    "fullUrl": "https://madie.cms.gov/Patient/5e76e39a-8a30-4035-8d44-3362f4826aa7",
    "resource": {
      "resourceType": "Patient",
      "id": "5e76e39a-8a30-4035-8d44-3362f4826aa7",
      "meta": {
        "profile": [ "http://hl7.org/fhir/us/qicore/StructureDefinition/qicore-patient" ]
      },
      "extension": [ {
        "url": "http://hl7.org/fhir/us/core/StructureDefinition/us-core-race",
        "extension": [ {
          "url": "ombCategory",
          "valueCoding": {
            "system": "urn:oid:2.16.840.1.113883.6.238",
            "code": "2028-9",
            "display": "Asian",
            "userSelected": true
          }
        }, {
          "url": "text",
          "valueString": "Asian"
        }, {
          "url": "detailed",
          "valueCoding": {
            "system": "urn:oid:2.16.840.1.113883.6.238",
            "code": "1653-5",
            "display": "Tohono O'Odham"
          }
        } ]
      }, {
        "url": "http://hl7.org/fhir/us/core/StructureDefinition/us-core-ethnicity",
        "extension": [ {
          "url": "ombCategory",
          "valueCoding": {
            "system": "urn:oid:2.16.840.1.113883.6.238",
            "code": "2186-5",
            "display": "Not Hispanic or Latino",
            "userSelected": true
          }
        }, {
          "url": "text",
          "valueString": "Not Hispanic or Latino"
        }, {
          "url": "detailed",
          "valueCoding": {
            "system": "urn:oid:2.16.840.1.113883.6.238",
            "code": "2153-5",
            "display": "Mexican American Indian"
          }
        } ]
      } ],
      "identifier": [ {
        "type": {
          "coding": [ {
            "system": "http://terminology.hl7.org/CodeSystem/v2-0203",
            "code": "MR"
          } ]
        },
        "system": "https://bonnie-fhir.healthit.gov/",
        "value": "63233350414ba67d4e1d1c2f"
      } ],
      "name": [ {
        "family": "DENEXPass",
        "given": [ "CancerRelatedPainProblemList" ]
      } ],
      "gender": "female",
      "birthDate": "1944-02-01"
    },
    "request": {
      "method": "PUT",
      "url": "Patient/5e76e39a-8a30-4035-8d44-3362f4826aa7"
    }
  }, {
    "fullUrl": "https://madie.cms.gov/Encounter/2a736733-e389-4b7e-8e6e-35a9229fe63f",
    "resource": {
      "resourceType": "Encounter",
      "id": "2a736733-e389-4b7e-8e6e-35a9229fe63f",
      "meta": {
        "profile": [ "http://hl7.org/fhir/us/qicore/StructureDefinition/qicore-encounter" ]
      },
      "status": "finished",
      "class": {
        "system": "http://terminology.hl7.org/CodeSystem/v3-ActCode",
        "code": "AMB",
        "display": "ambulatory"
      },
      "type": [ {
        "coding": [ {
          "system": "http://snomed.info/sct",
          "version": "2022-03",
          "code": "183452005",
          "display": "Emergency hospital admission (procedure)",
          "userSelected": true
        } ]
      } ],
      "subject": {
        "reference": "Patient/5e76e39a-8a30-4035-8d44-3362f4826aa7"
      },
      "period": {
        "start": "2026-01-01T11:45:00.000+00:00",
        "end": "2026-01-03T11:59:00.000+00:00"
      }
    },
    "request": {
      "method": "PUT",
      "url": "Encounter/2a736733-e389-4b7e-8e6e-35a9229fe63f"
    }
  }, {
    "fullUrl": "https://madie.cms.gov/MedicationRequest/c22b437f-5bb3-4c10-a371-7aa1b11c6881",
    "resource": {
      "resourceType": "MedicationRequest",
      "id": "c22b437f-5bb3-4c10-a371-7aa1b11c6881",
      "meta": {
        "profile": [ "http://hl7.org/fhir/us/qicore/StructureDefinition/qicore-medicationrequest" ]
      },
      "status": "completed",
      "intent": "order",
      "category": [ {
        "coding": [ {
          "system": "http://terminology.hl7.org/CodeSystem/medicationrequest-category",
          "code": "discharge",
          "display": "Discharge",
          "userSelected": true
        } ]
      } ],
      "doNotPerform": false,
      "medicationCodeableConcept": {
        "coding": [ {
          "system": "http://www.nlm.nih.gov/research/umls/rxnorm",
          "code": "2103192",
          "display": "sufentanil 0.03 MG Sublingual Tablet",
          "userSelected": true
        } ]
      },
      "subject": {
        "reference": "Patient/5e76e39a-8a30-4035-8d44-3362f4826aa7"
      },
      "authoredOn": "2026-01-03T11:59:00.000+00:00",
      "requester": {
        "reference": "Practitioner/7ebdb3fe-f77f-438a-9fc8-3c2c010e13ca"
      }
    },
    "request": {
      "method": "PUT",
      "url": "MedicationRequest/c22b437f-5bb3-4c10-a371-7aa1b11c6881"
    }
  }, {
    "fullUrl": "https://madie.cms.gov/Practitioner/7ebdb3fe-f77f-438a-9fc8-3c2c010e13ca",
    "resource": {
      "resourceType": "Practitioner",
      "id": "7ebdb3fe-f77f-438a-9fc8-3c2c010e13ca",
      "meta": {
        "profile": [ "http://hl7.org/fhir/us/qicore/StructureDefinition/qicore-practitioner" ]
      },
      "identifier": [ {
        "system": "http://hl7.org/fhir/sid/us-npi",
        "value": "9999999896"
      } ],
      "active": true,
      "name": [ {
        "family": "Ramires",
        "given": [ "Alma" ],
        "prefix": [ "Dr" ]
      } ],
      "address": [ {
        "use": "home",
        "line": [ "534 Erewhon St" ],
        "city": "Netherville",
        "state": "IN",
        "postalCode": "46131"
      } ],
      "qualification": [ {
        "identifier": [ {
          "system": "http://goodhealth.org/prIdentifier",
          "value": "12345"
        } ],
        "code": {
          "coding": [ {
            "system": "http://terminology.hl7.org/CodeSystem/v2-0360|2.7",
            "code": "BS",
            "display": "Bachelor of Science"
          } ],
          "text": "Bachelor of Science"
        },
        "period": {
          "start": "1995"
        },
        "issuer": {
          "display": "Example University"
        }
      } ]
    },
    "request": {
      "method": "PUT",
      "url": "Practitioner/7ebdb3fe-f77f-438a-9fc8-3c2c010e13ca"
    }
  }, {
    "fullUrl": "https://madie.cms.gov/Condition/d6af730b-ec07-402f-be2e-4d992609c980",
    "resource": {
      "resourceType": "Condition",
      "id": "d6af730b-ec07-402f-be2e-4d992609c980",
      "meta": {
        "profile": [ "http://hl7.org/fhir/us/qicore/StructureDefinition/qicore-condition-problems-health-concerns" ]
      },
      "clinicalStatus": {
        "coding": [ {
          "system": "http://terminology.hl7.org/CodeSystem/condition-clinical",
          "code": "active",
          "display": "active",
          "userSelected": true
        } ]
      },
      "verificationStatus": {
        "coding": [ {
          "system": "http://hl7.org/fhir/ValueSet/condition-ver-status",
          "code": "confirmed",
          "display": "confirmed",
          "userSelected": true
        } ]
      },
      "category": [ {
        "coding": [ {
          "system": "http://terminology.hl7.org/CodeSystem/condition-category",
          "code": "problem-list-item",
          "display": "Problem List Item"
        }, {
          "system": "http://snomed.info/sct",
          "code": "439401001",
          "display": "Diagnosis"
        } ]
      } ],
      "code": {
        "coding": [ {
          "system": "http://snomed.info/sct",
          "version": "2022-03",
          "code": "788891004",
          "display": "Chronic pain after cancer treatment (finding)",
          "userSelected": true
        } ]
      },
      "subject": {
        "reference": "Patient/5e76e39a-8a30-4035-8d44-3362f4826aa7"
      },
      "onsetPeriod": {
        "start": "2025-12-31T08:00:00.000+00:00",
        "end": "2025-12-31T08:00:00.000+00:00"
      }
    },
    "request": {
      "method": "PUT",
      "url": "Condition/d6af730b-ec07-402f-be2e-4d992609c980"
    }
  }, {
    "fullUrl": "https://madie.cms.gov/Coverage/0d09ce83-6f11-4790-ad74-e42b498fcdc9",
    "resource": {
      "resourceType": "Coverage",
      "id": "0d09ce83-6f11-4790-ad74-e42b498fcdc9",
      "meta": {
        "profile": [ "http://hl7.org/fhir/us/qicore/StructureDefinition/qicore-coverage" ]
      },
      "status": "active",
      "subscriberId": "523435",
      "beneficiary": {
        "reference": "Patient/5e76e39a-8a30-4035-8d44-3362f4826aa7"
      },
      "relationship": {
        "coding": [ {
          "system": "http://terminology.hl7.org/CodeSystem/subscriber-relationship",
          "code": "self"
        } ]
      },
      "payor": [ {
        "reference": "Organization/81884d02-0bba-4da5-86f0-1cff3148c486"
      } ]
    },
    "request": {
      "method": "PUT",
      "url": "Coverage/0d09ce83-6f11-4790-ad74-e42b498fcdc9"
    }
  }, {
    "fullUrl": "https://madie.cms.gov/Organization/81884d02-0bba-4da5-86f0-1cff3148c486",
    "resource": {
      "resourceType": "Organization",
      "id": "81884d02-0bba-4da5-86f0-1cff3148c486",
      "meta": {
        "profile": [ "http://hl7.org/fhir/us/qicore/StructureDefinition/qicore-organization" ]
      },
      "identifier": [ {
        "use": "temp",
        "system": "urn:oid:2.16.840.1.113883.4.4",
        "value": "21-3259825"
      } ],
      "active": true,
      "type": [ {
        "coding": [ {
          "system": "http://terminology.hl7.org/CodeSystem/organization-type",
          "code": "pay",
          "display": "Payer"
        } ]
      } ],
      "name": "Blue Cross Blue Shield of Texas",
      "telecom": [ {
        "system": "phone",
        "value": "(+1) 972-766-6900"
      } ],
      "address": [ {
        "use": "billing",
        "type": "postal",
        "line": [ "P.O. Box 660044" ],
        "city": "Dallas",
        "state": "TX",
        "postalCode": "75266-0044",
        "country": "USA"
      } ]
    },
    "request": {
      "method": "PUT",
      "url": "Organization/81884d02-0bba-4da5-86f0-1cff3148c486"
    }
  }, {
    "fullUrl": "https://madie.cms.gov/MeasureReport/e1113ab0-90ec-4e53-9c67-1d1850ce99fb",
    "resource": {
      "resourceType": "MeasureReport",
      "id": "e1113ab0-90ec-4e53-9c67-1d1850ce99fb",
      "meta": {
        "profile": [ "http://hl7.org/fhir/us/cqfmeasures/StructureDefinition/test-case-cqfm" ]
      },
      "contained": [ {
        "resourceType": "Parameters",
        "id": "6d484bb4-d15e-4e33-b092-e7d865deacbb-parameters",
        "parameter": [ {
          "name": "subject",
          "valueString": "5e76e39a-8a30-4035-8d44-3362f4826aa7"
        } ]
      } ],
      "extension": [ {
        "url": "http://hl7.org/fhir/StructureDefinition/cqf-inputParameters",
        "valueReference": {
          "reference": "#6d484bb4-d15e-4e33-b092-e7d865deacbb-parameters"
        }
      }, {
        "url": "http://hl7.org/fhir/us/cqfmeasures/StructureDefinition/cqfm-testCaseDescription",
        "valueMarkdown": "Encounter 1/1 - 1/3 , age 18, 1 opioid completed at dc , has cancer that started last day of prior year (onsetPeriod, start and end)"
      } ],
      "modifierExtension": [ {
        "url": "http://hl7.org/fhir/us/cqfmeasures/StructureDefinition/cqfm-isTestCase",
        "valueBoolean": true
      } ],
      "status": "complete",
      "type": "individual",
      "measure": "https://madie.cms.gov/Measure/CMS506FHIRSafeUseofOpioids",
      "period": {
        "start": "2026-01-01",
        "end": "2026-12-31"
      },
      "group": [ {
        "id": "Group_1",
        "population": [ {
          "id": "InitialPopulation_1",
          "code": {
            "coding": [ {
              "system": "http://terminology.hl7.org/CodeSystem/measure-population",
              "code": "initial-population",
              "display": "Initial Population"
            } ]
          },
          "count": 1
        }, {
          "id": "Denominator_1",
          "code": {
            "coding": [ {
              "system": "http://terminology.hl7.org/CodeSystem/measure-population",
              "code": "denominator",
              "display": "Denominator"
            } ]
          },
          "count": 1
        }, {
          "id": "DenominatorExclusion_1",
          "code": {
            "coding": [ {
              "system": "http://terminology.hl7.org/CodeSystem/measure-population",
              "code": "denominator-exclusion",
              "display": "Denominator Exclusion"
            } ]
          },
          "count": 1
        }, {
          "id": "Numerator_1",
          "code": {
            "coding": [ {
              "system": "http://terminology.hl7.org/CodeSystem/measure-population",
              "code": "numerator",
              "display": "Numerator"
            } ]
          },
          "count": 0
        } ],
        "measureScore": {
          "value": 0.0
        }
      } ],
      "evaluatedResource": [ {
        "reference": "Patient/5e76e39a-8a30-4035-8d44-3362f4826aa7"
      }, {
        "reference": "Encounter/2a736733-e389-4b7e-8e6e-35a9229fe63f"
      }, {
        "reference": "MedicationRequest/c22b437f-5bb3-4c10-a371-7aa1b11c6881"
      }, {
        "reference": "Practitioner/7ebdb3fe-f77f-438a-9fc8-3c2c010e13ca"
      }, {
        "reference": "Condition/d6af730b-ec07-402f-be2e-4d992609c980"
      }, {
        "reference": "Coverage/0d09ce83-6f11-4790-ad74-e42b498fcdc9"
      }, {
        "reference": "Organization/81884d02-0bba-4da5-86f0-1cff3148c486"
      } ]
    },
    "request": {
      "method": "PUT",
      "url": "MeasureReport/e1113ab0-90ec-4e53-9c67-1d1850ce99fb"
    }
  } ]
}