{
  "resourceType": "Bundle",
  "id": "98116841646686466847",
  "type": "transaction",
  "entry": [ {
    "fullUrl": "https://madie.cms.gov/Patient/9b4f7024-eb2e-4896-90e7-13638aefbe92",
    "resource": {
      "resourceType": "Patient",
      "id": "9b4f7024-eb2e-4896-90e7-13638aefbe92",
      "meta": {
        "profile": [ "http://hl7.org/fhir/us/qicore/StructureDefinition/qicore-patient" ]
      },
      "extension": [ {
        "url": "http://hl7.org/fhir/us/core/StructureDefinition/us-core-race",
        "extension": [ {
          "url": "ombCategory",
          "valueCoding": {
            "system": "urn:oid:2.16.840.1.113883.6.238",
            "code": "2106-3",
            "display": "White"
          }
        }, {
          "url": "text",
          "valueString": "White"
        } ]
      }, {
        "url": "http://hl7.org/fhir/us/core/StructureDefinition/us-core-ethnicity",
        "extension": [ {
          "url": "ombCategory",
          "valueCoding": {
            "system": "urn:oid:2.16.840.1.113883.6.238",
            "code": "2186-5",
            "display": "Not Hispanic or Latino"
          }
        }, {
          "url": "text",
          "valueString": "Not Hispanic or Latino"
        } ]
      } ],
      "identifier": [ {
        "type": {
          "coding": [ {
            "system": "http://terminology.hl7.org/CodeSystem/v2-0203",
            "code": "MR"
          } ]
        },
        "system": "https://bonnie-fhir.healthit.gov/",
        "value": "6546841651641616513421"
      } ],
      "name": [ {
        "family": "DENEXPopStrat2Pass",
        "given": [ "HospiceProcedureInMP" ]
      } ],
      "gender": "female",
      "birthDate": "1957-01-01"
    },
    "request": {
      "method": "PUT",
      "url": "Patient/9b4f7024-eb2e-4896-90e7-13638aefbe92"
    }
  }, {
    "fullUrl": "https://madie.cms.gov/Encounter/9d42715a-e1fd-419d-b6b2-d9906b31c8a9",
    "resource": {
      "resourceType": "Encounter",
      "id": "9d42715a-e1fd-419d-b6b2-d9906b31c8a9",
      "meta": {
        "profile": [ "http://hl7.org/fhir/us/qicore/StructureDefinition/qicore-encounter" ]
      },
      "status": "finished",
      "class": {
        "system": "http://terminology.hl7.org/CodeSystem/v3-ActCode",
        "code": "AMB",
        "display": "ambulatory"
      },
      "type": [ {
        "coding": [ {
          "system": "http://www.ama-assn.org/go/cpt",
          "version": "2024",
          "code": "90791"
        } ]
      } ],
      "subject": {
        "reference": "Patient/9b4f7024-eb2e-4896-90e7-13638aefbe92"
      },
      "period": {
        "start": "2025-02-25T14:30:00+00:00",
        "end": "2025-02-25T14:50:00+00:00"
      },
      "length": {
        "value": 0,
        "unit": "days"
      }
    },
    "request": {
      "method": "PUT",
      "url": "Encounter/9d42715a-e1fd-419d-b6b2-d9906b31c8a9"
    }
  }, {
    "fullUrl": "https://madie.cms.gov/Observation/dc1626bc-b449-4f39-9d60-3b402df7da78",
    "resource": {
      "resourceType": "Observation",
      "id": "dc1626bc-b449-4f39-9d60-3b402df7da78",
      "meta": {
        "profile": [ "http://hl7.org/fhir/us/qicore/StructureDefinition/qicore-observation-screening-assessment" ]
      },
      "status": "final",
      "category": [ {
        "coding": [ {
          "system": "http://terminology.hl7.org/CodeSystem/observation-category",
          "code": "survey",
          "display": "Survey"
        } ]
      } ],
      "code": {
        "coding": [ {
          "system": "http://loinc.org",
          "version": "2.76",
          "code": "44261-6"
        } ]
      },
      "subject": {
        "reference": "Patient/9b4f7024-eb2e-4896-90e7-13638aefbe92"
      },
      "effectiveDateTime": "2025-02-25T14:35:00+00:00",
      "valueInteger": 10
    },
    "request": {
      "method": "PUT",
      "url": "Observation/dc1626bc-b449-4f39-9d60-3b402df7da78"
    }
  }, {
    "fullUrl": "https://madie.cms.gov/Observation/6a8fa03d-7373-46f1-bf21-96e53bed2b90",
    "resource": {
      "resourceType": "Observation",
      "id": "6a8fa03d-7373-46f1-bf21-96e53bed2b90",
      "meta": {
        "profile": [ "http://hl7.org/fhir/us/qicore/StructureDefinition/qicore-observation-screening-assessment" ]
      },
      "status": "final",
      "category": [ {
        "coding": [ {
          "system": "http://terminology.hl7.org/CodeSystem/observation-category",
          "code": "survey",
          "display": "Survey"
        } ]
      } ],
      "code": {
        "coding": [ {
          "system": "http://loinc.org",
          "version": "2.76",
          "code": "44261-6"
        } ]
      },
      "subject": {
        "reference": "Patient/9b4f7024-eb2e-4896-90e7-13638aefbe92"
      },
      "effectiveDateTime": "2026-02-19T14:30:00+00:00",
      "valueInteger": 3
    },
    "request": {
      "method": "PUT",
      "url": "Observation/6a8fa03d-7373-46f1-bf21-96e53bed2b90"
    }
  }, {
    "fullUrl": "https://madie.cms.gov/Condition/16f9f306-1af7-44ce-8078-4962c0e2f05b",
    "resource": {
      "resourceType": "Condition",
      "id": "16f9f306-1af7-44ce-8078-4962c0e2f05b",
      "meta": {
        "profile": [ "http://hl7.org/fhir/us/qicore/StructureDefinition/qicore-condition-problems-health-concerns" ]
      },
      "clinicalStatus": {
        "coding": [ {
          "system": "http://terminology.hl7.org/CodeSystem/condition-clinical",
          "code": "active",
          "display": "active"
        } ]
      },
      "verificationStatus": {
        "coding": [ {
          "system": "http://terminology.hl7.org/CodeSystem/condition-ver-status",
          "code": "confirmed"
        } ]
      },
      "category": [ {
        "coding": [ {
          "system": "http://terminology.hl7.org/CodeSystem/condition-category",
          "code": "problem-list-item",
          "display": "Problem List Item"
        } ]
      } ],
      "code": {
        "coding": [ {
          "system": "http://hl7.org/fhir/sid/icd-10-cm",
          "version": "2024",
          "code": "F32.9"
        } ]
      },
      "subject": {
        "reference": "Patient/9b4f7024-eb2e-4896-90e7-13638aefbe92"
      },
      "onsetDateTime": "2025-02-25T14:35:00+00:00"
    },
    "request": {
      "method": "PUT",
      "url": "Condition/16f9f306-1af7-44ce-8078-4962c0e2f05b"
    }
  }, {
    "fullUrl": "https://madie.cms.gov/Procedure/2e59db1b-2a4b-4cc1-89ad-f2e5813c70c2",
    "resource": {
      "resourceType": "Procedure",
      "id": "2e59db1b-2a4b-4cc1-89ad-f2e5813c70c2",
      "meta": {
        "profile": [ "http://hl7.org/fhir/us/qicore/StructureDefinition/qicore-procedure" ]
      },
      "extension": [ {
        "url": "http://hl7.org/fhir/us/qicore/StructureDefinition/qicore-recorded",
        "valueDateTime": "2026-02-01T08:00:00.000+00:00"
      } ],
      "status": "completed",
      "code": {
        "coding": [ {
          "system": "http://snomed.info/sct",
          "version": "http://snomed.info/sct/731000124108/version/20230901",
          "code": "170936009",
          "display": "Shared care - hospice and general practitioner (finding)"
        } ]
      },
      "subject": {
        "reference": "Patient/9b4f7024-eb2e-4896-90e7-13638aefbe92"
      },
      "performedPeriod": {
        "start": "2026-01-01T08:00:00.000+00:00",
        "end": "2026-02-01T08:15:00.000+00:00"
      }
    },
    "request": {
      "method": "PUT",
      "url": "Procedure/2e59db1b-2a4b-4cc1-89ad-f2e5813c70c2"
    }
  }, {
    "fullUrl": "https://madie.cms.gov/MeasureReport/7ff97bb6-6c0e-4cdf-beaf-38ae44c6201d",
    "resource": {
      "resourceType": "MeasureReport",
      "id": "7ff97bb6-6c0e-4cdf-beaf-38ae44c6201d",
      "meta": {
        "profile": [ "http://hl7.org/fhir/us/cqfmeasures/StructureDefinition/test-case-cqfm" ]
      },
      "contained": [ {
        "resourceType": "Parameters",
        "id": "afc52363-57bc-4586-b805-7b0b1e39f8d5-parameters",
        "parameter": [ {
          "name": "subject",
          "valueString": "9b4f7024-eb2e-4896-90e7-13638aefbe92"
        } ]
      } ],
      "extension": [ {
        "url": "http://hl7.org/fhir/StructureDefinition/cqf-inputParameters",
        "valueReference": {
          "reference": "#afc52363-57bc-4586-b805-7b0b1e39f8d5-parameters"
        }
      }, {
        "url": "http://hl7.org/fhir/us/cqfmeasures/StructureDefinition/cqfm-testCaseDescription",
        "valueMarkdown": "Patient has a Major Depressive Dx and PHQ-9>9 during the denom ID period. Patient has Hospice procedure during MP. Should be in denominator exclusion for Strat 2. "
      } ],
      "modifierExtension": [ {
        "url": "http://hl7.org/fhir/us/cqfmeasures/StructureDefinition/cqfm-isTestCase",
        "valueBoolean": true
      } ],
      "status": "complete",
      "type": "individual",
      "measure": "https://madie.cms.gov/Measure/CMS159FHIRDepressionRemissionatTwelveMonths",
      "period": {
        "start": "2026-01-01",
        "end": "2026-12-31"
      },
      "group": [ {
        "id": "Group_1",
        "population": [ {
          "id": "InitialPopulation_1",
          "code": {
            "coding": [ {
              "system": "http://terminology.hl7.org/CodeSystem/measure-population",
              "code": "initial-population",
              "display": "Initial Population"
            } ]
          },
          "count": 1
        }, {
          "id": "Denominator_1",
          "code": {
            "coding": [ {
              "system": "http://terminology.hl7.org/CodeSystem/measure-population",
              "code": "denominator",
              "display": "Denominator"
            } ]
          },
          "count": 1
        }, {
          "id": "DenominatorExclusion_1",
          "code": {
            "coding": [ {
              "system": "http://terminology.hl7.org/CodeSystem/measure-population",
              "code": "denominator-exclusion",
              "display": "Denominator Exclusion"
            } ]
          },
          "count": 1
        }, {
          "id": "Numerator_1",
          "code": {
            "coding": [ {
              "system": "http://terminology.hl7.org/CodeSystem/measure-population",
              "code": "numerator",
              "display": "Numerator"
            } ]
          },
          "count": 0
        } ],
        "measureScore": {
          "value": 1.0
        }
      } ],
      "evaluatedResource": [ {
        "reference": "Patient/9b4f7024-eb2e-4896-90e7-13638aefbe92"
      }, {
        "reference": "Encounter/9d42715a-e1fd-419d-b6b2-d9906b31c8a9"
      }, {
        "reference": "Observation/dc1626bc-b449-4f39-9d60-3b402df7da78"
      }, {
        "reference": "Observation/6a8fa03d-7373-46f1-bf21-96e53bed2b90"
      }, {
        "reference": "Condition/16f9f306-1af7-44ce-8078-4962c0e2f05b"
      }, {
        "reference": "Procedure/2e59db1b-2a4b-4cc1-89ad-f2e5813c70c2"
      } ]
    },
    "request": {
      "method": "PUT",
      "url": "MeasureReport/7ff97bb6-6c0e-4cdf-beaf-38ae44c6201d"
    }
  } ]
}