{
  "resourceType": "Bundle",
  "id": "633b3fa00968f80122503d17",
  "type": "transaction",
  "entry": [ {
    "fullUrl": "https://madie.cms.gov/Patient/cd3ccbd2-de72-48b1-a01b-2f745fb6d826",
    "resource": {
      "resourceType": "Patient",
      "id": "cd3ccbd2-de72-48b1-a01b-2f745fb6d826",
      "meta": {
        "profile": [ "http://hl7.org/fhir/us/qicore/StructureDefinition/qicore-patient" ]
      },
      "text": {
        "status": "generated",
        "div": "<div xmlns=\"http://www.w3.org/1999/xhtml\"><div class=\"hapiHeaderText\">DelProcRelDtTmEQIPStart <b>IPPASS </b></div><table class=\"hapiPropertyTable\"><tbody><tr><td>Date of birth</td><td><span>31 January 2004</span></td></tr></tbody></table></div>"
      },
      "extension": [ {
        "url": "http://hl7.org/fhir/us/core/StructureDefinition/us-core-race",
        "extension": [ {
          "url": "ombCategory",
          "valueCoding": {
            "system": "urn:oid:2.16.840.1.113883.6.238",
            "code": "1002-5",
            "display": "American Indian or Alaska Native",
            "userSelected": true
          }
        }, {
          "url": "text",
          "valueString": "American Indian or Alaska Native"
        } ]
      }, {
        "url": "http://hl7.org/fhir/us/core/StructureDefinition/us-core-ethnicity",
        "extension": [ {
          "url": "ombCategory",
          "valueCoding": {
            "system": "urn:oid:2.16.840.1.113883.6.238",
            "code": "2135-2",
            "display": "Hispanic or Latino",
            "userSelected": true
          }
        }, {
          "url": "text",
          "valueString": "Hispanic or Latino"
        } ]
      } ],
      "identifier": [ {
        "type": {
          "coding": [ {
            "system": "http://terminology.hl7.org/CodeSystem/v2-0203",
            "code": "MR"
          } ]
        },
        "system": "https://bonnie-fhir.healthit.gov/",
        "value": "633b3fa00968f80122503d17"
      } ],
      "active": true,
      "name": [ {
        "use": "usual",
        "family": "IPPass",
        "given": [ "DelProcRelDtTmEQIPStart" ]
      } ],
      "gender": "female",
      "birthDate": "2005-01-31"
    },
    "request": {
      "method": "PUT",
      "url": "Patient/cd3ccbd2-de72-48b1-a01b-2f745fb6d826"
    }
  }, {
    "fullUrl": "https://madie.cms.gov/Encounter/7f665f75-d1b7-4221-b5fc-7e2f39f8ec4e",
    "resource": {
      "resourceType": "Encounter",
      "id": "7f665f75-d1b7-4221-b5fc-7e2f39f8ec4e",
      "meta": {
        "profile": [ "http://hl7.org/fhir/us/qicore/StructureDefinition/qicore-encounter" ]
      },
      "status": "finished",
      "class": {
        "system": "http://terminology.hl7.org/CodeSystem/v3-ActCode",
        "code": "IMP",
        "display": "inpatient encounter"
      },
      "type": [ {
        "coding": [ {
          "system": "http://snomed.info/sct",
          "code": "183452005"
        } ]
      } ],
      "subject": {
        "reference": "Patient/cd3ccbd2-de72-48b1-a01b-2f745fb6d826"
      },
      "period": {
        "start": "2026-02-01T09:00:00Z",
        "end": "2026-02-05T08:15:00.000+00:00"
      }
    },
    "request": {
      "method": "PUT",
      "url": "Encounter/7f665f75-d1b7-4221-b5fc-7e2f39f8ec4e"
    }
  }, {
    "fullUrl": "https://madie.cms.gov/Encounter/5206bdd0-678c-4e3e-9734-9c9faab8054e",
    "resource": {
      "resourceType": "Encounter",
      "id": "5206bdd0-678c-4e3e-9734-9c9faab8054e",
      "meta": {
        "profile": [ "http://hl7.org/fhir/us/qicore/StructureDefinition/qicore-encounter" ]
      },
      "status": "finished",
      "class": {
        "system": "http://terminology.hl7.org/CodeSystem/v3-ActCode",
        "code": "IMP",
        "display": "inpatient encounter"
      },
      "type": [ {
        "coding": [ {
          "system": "http://snomed.info/sct",
          "code": "448951000124107"
        } ]
      } ],
      "subject": {
        "reference": "Patient/cd3ccbd2-de72-48b1-a01b-2f745fb6d826"
      },
      "period": {
        "start": "2026-02-01T08:00:00Z",
        "end": "2026-02-01T08:59:00.000+00:00"
      }
    },
    "request": {
      "method": "PUT",
      "url": "Encounter/5206bdd0-678c-4e3e-9734-9c9faab8054e"
    }
  }, {
    "fullUrl": "https://madie.cms.gov/Encounter/cac68ec5-792b-4859-b848-70c3e815f815",
    "resource": {
      "resourceType": "Encounter",
      "id": "cac68ec5-792b-4859-b848-70c3e815f815",
      "meta": {
        "profile": [ "http://hl7.org/fhir/us/qicore/StructureDefinition/qicore-encounter" ]
      },
      "status": "finished",
      "class": {
        "system": "http://terminology.hl7.org/CodeSystem/v3-ActCode",
        "code": "IMP",
        "display": "inpatient encounter"
      },
      "type": [ {
        "coding": [ {
          "system": "http://snomed.info/sct",
          "code": "4525004"
        } ]
      } ],
      "subject": {
        "reference": "Patient/cd3ccbd2-de72-48b1-a01b-2f745fb6d826"
      },
      "period": {
        "start": "2026-02-01T07:00:00Z",
        "end": "2026-02-01T07:59:00.000+00:00"
      }
    },
    "request": {
      "method": "PUT",
      "url": "Encounter/cac68ec5-792b-4859-b848-70c3e815f815"
    }
  }, {
    "fullUrl": "https://madie.cms.gov/Procedure/1996d01c-ff75-4c0f-93be-224d53404bf9",
    "resource": {
      "resourceType": "Procedure",
      "id": "1996d01c-ff75-4c0f-93be-224d53404bf9",
      "meta": {
        "profile": [ "http://hl7.org/fhir/us/qicore/StructureDefinition/qicore-procedure" ]
      },
      "extension": [ {
        "url": "http://hl7.org/fhir/us/qicore/StructureDefinition/qicore-recorded",
        "valueDateTime": "2014-04-05T13:35:00Z"
      } ],
      "status": "completed",
      "code": {
        "coding": [ {
          "system": "http://snomed.info/sct",
          "code": "10745001"
        } ]
      },
      "subject": {
        "reference": "Patient/cd3ccbd2-de72-48b1-a01b-2f745fb6d826"
      },
      "performedDateTime": "2026-02-01T09:00:00Z"
    },
    "request": {
      "method": "PUT",
      "url": "Procedure/1996d01c-ff75-4c0f-93be-224d53404bf9"
    }
  }, {
    "fullUrl": "https://madie.cms.gov/Coverage/ca4a129b-d379-4e18-99c2-73ddbc341b06",
    "resource": {
      "resourceType": "Coverage",
      "id": "ca4a129b-d379-4e18-99c2-73ddbc341b06",
      "meta": {
        "profile": [ "http://hl7.org/fhir/us/qicore/StructureDefinition/qicore-coverage" ]
      },
      "status": "active",
      "beneficiary": {
        "reference": "Patient/cd3ccbd2-de72-48b1-a01b-2f745fb6d826"
      },
      "payor": [ {
        "reference": "Organization/b6fc690f-d30e-4d39-a699-ee6f71c24177"
      } ]
    },
    "request": {
      "method": "PUT",
      "url": "Coverage/ca4a129b-d379-4e18-99c2-73ddbc341b06"
    }
  }, {
    "fullUrl": "https://madie.cms.gov/Organization/b6fc690f-d30e-4d39-a699-ee6f71c24177",
    "resource": {
      "resourceType": "Organization",
      "id": "b6fc690f-d30e-4d39-a699-ee6f71c24177",
      "meta": {
        "profile": [ "http://hl7.org/fhir/us/qicore/StructureDefinition/qicore-organization" ]
      },
      "identifier": [ {
        "use": "temp",
        "system": "urn:oid:2.16.840.1.113883.4.4",
        "value": "21-3259825"
      } ],
      "active": true,
      "type": [ {
        "coding": [ {
          "system": "http://terminology.hl7.org/CodeSystem/organization-type",
          "code": "pay",
          "display": "Payer"
        } ]
      } ],
      "name": "Blue Cross Blue Shield of Texas",
      "telecom": [ {
        "system": "phone",
        "value": "(+1) 972-766-6900"
      } ],
      "address": [ {
        "use": "billing",
        "type": "postal",
        "line": [ "P.O. Box 660044" ],
        "city": "Dallas",
        "state": "TX",
        "postalCode": "75266-0044",
        "country": "USA"
      } ]
    },
    "request": {
      "method": "PUT",
      "url": "Organization/b6fc690f-d30e-4d39-a699-ee6f71c24177"
    }
  }, {
    "fullUrl": "https://madie.cms.gov/Practitioner/0bfaf0bb-c6f7-421e-bdfe-17e3f9b6df66",
    "resource": {
      "resourceType": "Practitioner",
      "id": "0bfaf0bb-c6f7-421e-bdfe-17e3f9b6df66",
      "identifier": [ {
        "system": "http://hl7.org/fhir/sid/us-npi",
        "value": "123456"
      } ],
      "name": [ {
        "family": "Evil",
        "prefix": [ "Dr" ]
      } ]
    },
    "request": {
      "method": "PUT",
      "url": "Practitioner/0bfaf0bb-c6f7-421e-bdfe-17e3f9b6df66"
    }
  }, {
    "fullUrl": "https://madie.cms.gov/MeasureReport/cfca9f18-4eda-4512-bf6e-a3757841f386",
    "resource": {
      "resourceType": "MeasureReport",
      "id": "cfca9f18-4eda-4512-bf6e-a3757841f386",
      "meta": {
        "profile": [ "http://hl7.org/fhir/us/cqfmeasures/StructureDefinition/test-case-cqfm" ]
      },
      "contained": [ {
        "resourceType": "Parameters",
        "id": "ea3a32f3-6a8d-41b7-a6dc-3cebcf20e973-parameters",
        "parameter": [ {
          "name": "subject",
          "valueString": "cd3ccbd2-de72-48b1-a01b-2f745fb6d826"
        } ]
      } ],
      "extension": [ {
        "url": "http://hl7.org/fhir/StructureDefinition/cqf-inputParameters",
        "valueReference": {
          "reference": "#ea3a32f3-6a8d-41b7-a6dc-3cebcf20e973-parameters"
        }
      }, {
        "url": "http://hl7.org/fhir/us/cqfmeasures/StructureDefinition/cqfm-testCaseDescription",
        "valueMarkdown": "Delivery Procedure rel date/time = IP start.  ED/OBS/IP all meet global hospitalization criteria.\n"
      } ],
      "modifierExtension": [ {
        "url": "http://hl7.org/fhir/us/cqfmeasures/StructureDefinition/cqfm-isTestCase",
        "valueBoolean": true
      } ],
      "status": "complete",
      "type": "individual",
      "measure": "https://madie.cms.gov/Measure/CMS1028FHIRPCSevereOBComps",
      "period": {
        "start": "2026-01-01",
        "end": "2026-12-31"
      },
      "group": [ {
        "id": "Group_1",
        "population": [ {
          "id": "InitialPopulation_1",
          "code": {
            "coding": [ {
              "system": "http://terminology.hl7.org/CodeSystem/measure-population",
              "code": "initial-population",
              "display": "Initial Population"
            } ]
          },
          "count": 1
        }, {
          "id": "Denominator_1",
          "code": {
            "coding": [ {
              "system": "http://terminology.hl7.org/CodeSystem/measure-population",
              "code": "denominator",
              "display": "Denominator"
            } ]
          },
          "count": 0
        }, {
          "id": "Numerator_1",
          "code": {
            "coding": [ {
              "system": "http://terminology.hl7.org/CodeSystem/measure-population",
              "code": "numerator",
              "display": "Numerator"
            } ]
          },
          "count": 0
        }, {
          "id": "NumeratorExclusion_1",
          "code": {
            "coding": [ {
              "system": "http://terminology.hl7.org/CodeSystem/measure-population",
              "code": "numerator-exclusion",
              "display": "Numerator Exclusion"
            } ]
          },
          "count": 0
        } ],
        "measureScore": {
          "value": 0.0
        }
      }, {
        "id": "Group_2",
        "population": [ {
          "id": "InitialPopulation_2",
          "code": {
            "coding": [ {
              "system": "http://terminology.hl7.org/CodeSystem/measure-population",
              "code": "initial-population",
              "display": "Initial Population"
            } ]
          },
          "count": 1
        }, {
          "id": "Denominator_2",
          "code": {
            "coding": [ {
              "system": "http://terminology.hl7.org/CodeSystem/measure-population",
              "code": "denominator",
              "display": "Denominator"
            } ]
          },
          "count": 0
        }, {
          "id": "Numerator_2",
          "code": {
            "coding": [ {
              "system": "http://terminology.hl7.org/CodeSystem/measure-population",
              "code": "numerator",
              "display": "Numerator"
            } ]
          },
          "count": 0
        }, {
          "id": "NumeratorExclusion_2",
          "code": {
            "coding": [ {
              "system": "http://terminology.hl7.org/CodeSystem/measure-population",
              "code": "numerator-exclusion",
              "display": "Numerator Exclusion"
            } ]
          },
          "count": 0
        } ],
        "measureScore": {
          "value": 0.0
        }
      } ],
      "evaluatedResource": [ {
        "reference": "Patient/cd3ccbd2-de72-48b1-a01b-2f745fb6d826"
      }, {
        "reference": "Encounter/7f665f75-d1b7-4221-b5fc-7e2f39f8ec4e"
      }, {
        "reference": "Encounter/5206bdd0-678c-4e3e-9734-9c9faab8054e"
      }, {
        "reference": "Encounter/cac68ec5-792b-4859-b848-70c3e815f815"
      }, {
        "reference": "Procedure/1996d01c-ff75-4c0f-93be-224d53404bf9"
      }, {
        "reference": "Coverage/ca4a129b-d379-4e18-99c2-73ddbc341b06"
      }, {
        "reference": "Organization/b6fc690f-d30e-4d39-a699-ee6f71c24177"
      }, {
        "reference": "Practitioner/0bfaf0bb-c6f7-421e-bdfe-17e3f9b6df66"
      } ]
    },
    "request": {
      "method": "PUT",
      "url": "MeasureReport/cfca9f18-4eda-4512-bf6e-a3757841f386"
    }
  } ]
}