{
  "resourceType": "Bundle",
  "id": "633b3f9e0968f80122503cbb",
  "type": "transaction",
  "entry": [ {
    "fullUrl": "https://madie.cms.gov/Patient/a1f320ce-9962-408d-9b45-ee06251601d0",
    "resource": {
      "resourceType": "Patient",
      "id": "a1f320ce-9962-408d-9b45-ee06251601d0",
      "meta": {
        "profile": [ "http://hl7.org/fhir/us/qicore/StructureDefinition/qicore-patient" ]
      },
      "text": {
        "status": "generated",
        "div": "<div xmlns=\"http://www.w3.org/1999/xhtml\"><div class=\"hapiHeaderText\">SexIsMale<b>IPOPPass</b></div><table class=\"hapiPropertyTable\"><tbody><tr><td>Date of birth</td><td><span>01 February 2004</span></td></tr></tbody></table></div>"
      },
      "extension": [ {
        "url": "http://hl7.org/fhir/us/core/StructureDefinition/us-core-race",
        "extension": [ {
          "url": "ombCategory",
          "valueCoding": {
            "system": "urn:oid:2.16.840.1.113883.6.238",
            "code": "1002-5",
            "display": "American Indian or Alaska Native",
            "userSelected": true
          }
        }, {
          "url": "text",
          "valueString": "American Indian or Alaska Native"
        } ]
      }, {
        "url": "http://hl7.org/fhir/us/core/StructureDefinition/us-core-ethnicity",
        "extension": [ {
          "url": "ombCategory",
          "valueCoding": {
            "system": "urn:oid:2.16.840.1.113883.6.238",
            "code": "2135-2",
            "display": "Hispanic or Latino",
            "userSelected": true
          }
        }, {
          "url": "text",
          "valueString": "Hispanic or Latino"
        } ]
      }, {
        "url": "http://hl7.org/fhir/us/core/StructureDefinition/us-core-sex",
        "valueCode": "248153007"
      } ],
      "identifier": [ {
        "type": {
          "coding": [ {
            "system": "http://terminology.hl7.org/CodeSystem/v2-0203",
            "code": "MR"
          } ]
        },
        "system": "https://bonnie-fhir.healthit.gov/",
        "value": "633b3f9e0968f80122503cbb"
      } ],
      "active": true,
      "name": [ {
        "use": "usual",
        "family": "IPOPPass",
        "given": [ "SexIsMale" ]
      } ],
      "gender": "male",
      "birthDate": "2017-02-01"
    },
    "request": {
      "method": "PUT",
      "url": "Patient/a1f320ce-9962-408d-9b45-ee06251601d0"
    }
  }, {
    "fullUrl": "https://madie.cms.gov/Encounter/4d27930c-bb0e-4b96-bf56-345d32e688da",
    "resource": {
      "resourceType": "Encounter",
      "id": "4d27930c-bb0e-4b96-bf56-345d32e688da",
      "meta": {
        "profile": [ "http://hl7.org/fhir/us/qicore/StructureDefinition/qicore-encounter" ]
      },
      "status": "finished",
      "class": {
        "system": "http://terminology.hl7.org/CodeSystem/v3-ActCode",
        "code": "IMP",
        "display": "inpatient encounter"
      },
      "type": [ {
        "coding": [ {
          "system": "http://snomed.info/sct",
          "code": "183452005"
        } ]
      } ],
      "subject": {
        "reference": "Patient/a1f320ce-9962-408d-9b45-ee06251601d0"
      },
      "period": {
        "start": "2026-02-01T08:00:00Z",
        "end": "2026-02-05T08:15:00Z"
      },
      "diagnosis": [ {
        "condition": {
          "reference": "Condition/Condition-2"
        },
        "use": {
          "coding": [ {
            "system": "http://snomed.info/sct",
            "code": "169826009",
            "display": "Single live birth from singleton pregnancy (finding)"
          } ]
        }
      } ]
    },
    "request": {
      "method": "PUT",
      "url": "Encounter/4d27930c-bb0e-4b96-bf56-345d32e688da"
    }
  }, {
    "fullUrl": "https://madie.cms.gov/Procedure/5c3dd720-21e5-4ae2-8735-a1c6dd217625",
    "resource": {
      "resourceType": "Procedure",
      "id": "5c3dd720-21e5-4ae2-8735-a1c6dd217625",
      "meta": {
        "profile": [ "http://hl7.org/fhir/us/qicore/StructureDefinition/qicore-procedure" ]
      },
      "extension": [ {
        "url": "http://hl7.org/fhir/us/qicore/StructureDefinition/qicore-recorded",
        "valueDateTime": "2014-04-05T13:35:00Z"
      } ],
      "status": "completed",
      "code": {
        "coding": [ {
          "system": "http://snomed.info/sct",
          "version": "2022-09",
          "code": "10745001",
          "display": "Delivery of transverse presentation (procedure)",
          "userSelected": true
        } ]
      },
      "subject": {
        "reference": "Patient/a1f320ce-9962-408d-9b45-ee06251601d0"
      },
      "performedPeriod": {
        "start": "2026-02-01T08:00:00Z",
        "end": "2026-02-05T08:15:00Z"
      }
    },
    "request": {
      "method": "PUT",
      "url": "Procedure/5c3dd720-21e5-4ae2-8735-a1c6dd217625"
    }
  }, {
    "fullUrl": "https://madie.cms.gov/Coverage/219e1159-3fbe-4232-8965-76dc32358a89",
    "resource": {
      "resourceType": "Coverage",
      "id": "219e1159-3fbe-4232-8965-76dc32358a89",
      "meta": {
        "profile": [ "http://hl7.org/fhir/us/qicore/StructureDefinition/qicore-coverage" ]
      },
      "status": "active",
      "beneficiary": {
        "reference": "Patient/a1f320ce-9962-408d-9b45-ee06251601d0"
      },
      "payor": [ {
        "reference": "Organization/e53f4898-bddf-43e3-ac8e-345db186e968"
      } ]
    },
    "request": {
      "method": "PUT",
      "url": "Coverage/219e1159-3fbe-4232-8965-76dc32358a89"
    }
  }, {
    "fullUrl": "https://madie.cms.gov/Organization/e53f4898-bddf-43e3-ac8e-345db186e968",
    "resource": {
      "resourceType": "Organization",
      "id": "e53f4898-bddf-43e3-ac8e-345db186e968",
      "meta": {
        "profile": [ "http://hl7.org/fhir/us/qicore/StructureDefinition/qicore-organization" ]
      },
      "identifier": [ {
        "use": "temp",
        "system": "urn:oid:2.16.840.1.113883.4.4",
        "value": "21-3259825"
      } ],
      "active": true,
      "type": [ {
        "coding": [ {
          "system": "http://terminology.hl7.org/CodeSystem/organization-type",
          "code": "pay",
          "display": "Payer"
        } ]
      } ],
      "name": "Blue Cross Blue Shield of Texas",
      "telecom": [ {
        "system": "phone",
        "value": "(+1) 972-766-6900"
      } ],
      "address": [ {
        "use": "billing",
        "type": "postal",
        "line": [ "P.O. Box 660044" ],
        "city": "Dallas",
        "state": "TX",
        "postalCode": "75266-0044",
        "country": "USA"
      } ]
    },
    "request": {
      "method": "PUT",
      "url": "Organization/e53f4898-bddf-43e3-ac8e-345db186e968"
    }
  }, {
    "fullUrl": "https://madie.cms.gov/Practitioner/6d182f2b-b2c7-45da-a079-0a1d5738a6ed",
    "resource": {
      "resourceType": "Practitioner",
      "id": "6d182f2b-b2c7-45da-a079-0a1d5738a6ed",
      "identifier": [ {
        "system": "http://hl7.org/fhir/sid/us-npi",
        "value": "123456"
      } ],
      "name": [ {
        "family": "Evil",
        "prefix": [ "Dr" ]
      } ]
    },
    "request": {
      "method": "PUT",
      "url": "Practitioner/6d182f2b-b2c7-45da-a079-0a1d5738a6ed"
    }
  }, {
    "fullUrl": "https://madie.cms.gov/MeasureReport/1123b0c0-56eb-49fb-965f-b25f9d6c9306",
    "resource": {
      "resourceType": "MeasureReport",
      "id": "1123b0c0-56eb-49fb-965f-b25f9d6c9306",
      "meta": {
        "profile": [ "http://hl7.org/fhir/us/cqfmeasures/StructureDefinition/test-case-cqfm" ]
      },
      "contained": [ {
        "resourceType": "Parameters",
        "id": "4cc57164-927e-462c-a5d7-041cbb834e45-parameters",
        "parameter": [ {
          "name": "subject",
          "valueString": "a1f320ce-9962-408d-9b45-ee06251601d0"
        } ]
      } ],
      "extension": [ {
        "url": "http://hl7.org/fhir/StructureDefinition/cqf-inputParameters",
        "valueReference": {
          "reference": "#4cc57164-927e-462c-a5d7-041cbb834e45-parameters"
        }
      }, {
        "url": "http://hl7.org/fhir/us/cqfmeasures/StructureDefinition/cqfm-testCaseDescription",
        "valueMarkdown": "Sex=male, will still pass measure as sex is not qualified in the measure"
      } ],
      "modifierExtension": [ {
        "url": "http://hl7.org/fhir/us/cqfmeasures/StructureDefinition/cqfm-isTestCase",
        "valueBoolean": true
      } ],
      "status": "complete",
      "type": "individual",
      "measure": "https://madie.cms.gov/Measure/CMS1028FHIRPCSevereOBComps",
      "period": {
        "start": "2026-01-01",
        "end": "2026-12-31"
      },
      "group": [ {
        "id": "Group_1",
        "population": [ {
          "id": "InitialPopulation_1",
          "code": {
            "coding": [ {
              "system": "http://terminology.hl7.org/CodeSystem/measure-population",
              "code": "initial-population",
              "display": "Initial Population"
            } ]
          },
          "count": 1
        }, {
          "id": "Denominator_1",
          "code": {
            "coding": [ {
              "system": "http://terminology.hl7.org/CodeSystem/measure-population",
              "code": "denominator",
              "display": "Denominator"
            } ]
          },
          "count": 0
        }, {
          "id": "Numerator_1",
          "code": {
            "coding": [ {
              "system": "http://terminology.hl7.org/CodeSystem/measure-population",
              "code": "numerator",
              "display": "Numerator"
            } ]
          },
          "count": 0
        }, {
          "id": "NumeratorExclusion_1",
          "code": {
            "coding": [ {
              "system": "http://terminology.hl7.org/CodeSystem/measure-population",
              "code": "numerator-exclusion",
              "display": "Numerator Exclusion"
            } ]
          },
          "count": 0
        } ],
        "measureScore": {
          "value": 0.0
        }
      }, {
        "id": "Group_2",
        "population": [ {
          "id": "InitialPopulation_2",
          "code": {
            "coding": [ {
              "system": "http://terminology.hl7.org/CodeSystem/measure-population",
              "code": "initial-population",
              "display": "Initial Population"
            } ]
          },
          "count": 1
        }, {
          "id": "Denominator_2",
          "code": {
            "coding": [ {
              "system": "http://terminology.hl7.org/CodeSystem/measure-population",
              "code": "denominator",
              "display": "Denominator"
            } ]
          },
          "count": 0
        }, {
          "id": "Numerator_2",
          "code": {
            "coding": [ {
              "system": "http://terminology.hl7.org/CodeSystem/measure-population",
              "code": "numerator",
              "display": "Numerator"
            } ]
          },
          "count": 0
        }, {
          "id": "NumeratorExclusion_2",
          "code": {
            "coding": [ {
              "system": "http://terminology.hl7.org/CodeSystem/measure-population",
              "code": "numerator-exclusion",
              "display": "Numerator Exclusion"
            } ]
          },
          "count": 0
        } ],
        "measureScore": {
          "value": 0.0
        }
      } ],
      "evaluatedResource": [ {
        "reference": "Patient/a1f320ce-9962-408d-9b45-ee06251601d0"
      }, {
        "reference": "Encounter/4d27930c-bb0e-4b96-bf56-345d32e688da"
      }, {
        "reference": "Procedure/5c3dd720-21e5-4ae2-8735-a1c6dd217625"
      }, {
        "reference": "Coverage/219e1159-3fbe-4232-8965-76dc32358a89"
      }, {
        "reference": "Organization/e53f4898-bddf-43e3-ac8e-345db186e968"
      }, {
        "reference": "Practitioner/6d182f2b-b2c7-45da-a079-0a1d5738a6ed"
      } ]
    },
    "request": {
      "method": "PUT",
      "url": "MeasureReport/1123b0c0-56eb-49fb-965f-b25f9d6c9306"
    }
  } ]
}