{
  "resourceType": "Bundle",
  "id": "60f82c2f98086b570510e2a3",
  "type": "transaction",
  "entry": [ {
    "fullUrl": "https://madie.cms.gov/Patient/7d9affce-5c31-4fcb-b9e5-c0304c3f9406",
    "resource": {
      "resourceType": "Patient",
      "id": "7d9affce-5c31-4fcb-b9e5-c0304c3f9406",
      "meta": {
        "profile": [ "http://hl7.org/fhir/us/qicore/StructureDefinition/qicore-patient" ]
      },
      "text": {
        "status": "generated",
        "div": "<div xmlns=\"http://www.w3.org/1999/xhtml\"><div class=\"hapiHeaderText\">PharmContraDayOfObs_ED&gt;1hrObs&gt;1hrBFEncDayOf <b>DENEXCEPPASS </b></div><table class=\"hapiPropertyTable\"><tbody><tr><td>Identifier</td><td>dbfd2d599cefda8ae73cccaed9a99adfa89e85cfcce7bb076766e3c2add6d39c</td></tr><tr><td>Date of birth</td><td><span>26 September 1975</span></td></tr></tbody></table></div>"
      },
      "extension": [ {
        "url": "http://hl7.org/fhir/us/core/StructureDefinition/us-core-race",
        "extension": [ {
          "url": "ombCategory",
          "valueCoding": {
            "system": "urn:oid:2.16.840.1.113883.6.238",
            "code": "2054-5",
            "display": "Black or African American",
            "userSelected": true
          }
        }, {
          "url": "text",
          "valueString": "Black or African American"
        } ]
      }, {
        "url": "http://hl7.org/fhir/us/core/StructureDefinition/us-core-ethnicity",
        "extension": [ {
          "url": "ombCategory",
          "valueCoding": {
            "system": "urn:oid:2.16.840.1.113883.6.238",
            "code": "2186-5",
            "display": "Not Hispanic or Latino",
            "userSelected": true
          }
        }, {
          "url": "text",
          "valueString": "Not Hispanic or Latino"
        } ]
      } ],
      "identifier": [ {
        "type": {
          "coding": [ {
            "system": "http://terminology.hl7.org/CodeSystem/v2-0203",
            "code": "MR"
          } ]
        },
        "system": "https://bonnie-fhir.healthit.gov/",
        "value": "60f82c2f98086b570510e2a3"
      } ],
      "active": true,
      "name": [ {
        "use": "usual",
        "family": "DENEXCEPPass",
        "given": [ "PharmContraDayOfObsED1hrObs1hrBFEncDayOf" ]
      } ],
      "gender": "female",
      "birthDate": "1976-09-26"
    },
    "request": {
      "method": "PUT",
      "url": "Patient/7d9affce-5c31-4fcb-b9e5-c0304c3f9406"
    }
  }, {
    "fullUrl": "https://madie.cms.gov/Encounter/02fac42a-511d-4044-96b2-4f37a60cd927",
    "resource": {
      "resourceType": "Encounter",
      "id": "02fac42a-511d-4044-96b2-4f37a60cd927",
      "meta": {
        "profile": [ "http://hl7.org/fhir/us/qicore/StructureDefinition/qicore-encounter" ]
      },
      "status": "finished",
      "class": {
        "system": "http://terminology.hl7.org/CodeSystem/v3-ActCode",
        "code": "EMER",
        "display": "emergency",
        "userSelected": true
      },
      "type": [ {
        "coding": [ {
          "system": "http://snomed.info/sct",
          "code": "4525004"
        } ]
      } ],
      "subject": {
        "reference": "Patient/7d9affce-5c31-4fcb-b9e5-c0304c3f9406"
      },
      "period": {
        "start": "2026-10-10T09:00:00Z",
        "end": "2026-10-10T09:15:00.000+00:00"
      },
      "length": {
        "value": 0,
        "unit": "days"
      }
    },
    "request": {
      "method": "PUT",
      "url": "Encounter/02fac42a-511d-4044-96b2-4f37a60cd927"
    }
  }, {
    "fullUrl": "https://madie.cms.gov/Encounter/aa0e49d1-3278-46bd-8561-ac5146e8feb4",
    "resource": {
      "resourceType": "Encounter",
      "id": "aa0e49d1-3278-46bd-8561-ac5146e8feb4",
      "meta": {
        "profile": [ "http://hl7.org/fhir/us/qicore/StructureDefinition/qicore-encounter" ]
      },
      "status": "finished",
      "class": {
        "system": "http://terminology.hl7.org/CodeSystem/v3-ActCode",
        "code": "OBSENC",
        "display": "observation encounter",
        "userSelected": true
      },
      "type": [ {
        "coding": [ {
          "system": "http://snomed.info/sct",
          "code": "448851000124103"
        } ]
      } ],
      "subject": {
        "reference": "Patient/7d9affce-5c31-4fcb-b9e5-c0304c3f9406"
      },
      "period": {
        "start": "2026-10-10T10:16:00Z",
        "end": "2026-10-10T11:15:00.000+00:00"
      },
      "length": {
        "value": 0,
        "unit": "days"
      }
    },
    "request": {
      "method": "PUT",
      "url": "Encounter/aa0e49d1-3278-46bd-8561-ac5146e8feb4"
    }
  }, {
    "fullUrl": "https://madie.cms.gov/Encounter/8d8691b9-a169-4677-8140-3706d09cfb32",
    "resource": {
      "resourceType": "Encounter",
      "id": "8d8691b9-a169-4677-8140-3706d09cfb32",
      "meta": {
        "profile": [ "http://hl7.org/fhir/us/qicore/StructureDefinition/qicore-encounter" ]
      },
      "status": "finished",
      "class": {
        "system": "http://terminology.hl7.org/CodeSystem/v3-ActCode",
        "code": "IMP",
        "display": "inpatient encounter",
        "userSelected": true
      },
      "type": [ {
        "coding": [ {
          "system": "http://snomed.info/sct",
          "code": "32485007"
        } ]
      } ],
      "subject": {
        "reference": "Patient/7d9affce-5c31-4fcb-b9e5-c0304c3f9406"
      },
      "period": {
        "start": "2026-10-10T12:16:00Z",
        "end": "2026-10-13T10:15:00.000+00:00"
      },
      "length": {
        "value": 3,
        "unit": "days"
      },
      "reasonReference": [ {
        "reference": "Condition/ec0e023b-e76f-45d0-97be-432f8a8b7503"
      } ]
    },
    "request": {
      "method": "PUT",
      "url": "Encounter/8d8691b9-a169-4677-8140-3706d09cfb32"
    }
  }, {
    "fullUrl": "https://madie.cms.gov/claim/5ca62962b8484628b8de1ec5",
    "resource": {
      "resourceType": "Claim",
      "id": "5ca62962b8484628b8de1ec5",
      "meta": {
        "profile": [ "http://hl7.org/fhir/us/qicore/StructureDefinition/qicore-claim" ]
      },
      "status": "active",
      "type": {
        "coding": [ {
          "system": "http://terminology.hl7.org/CodeSystem/claim-type",
          "code": "institutional"
        } ]
      },
      "use": "claim",
      "patient": {
        "reference": "Patient/d170a0a8-b5ad-4303-b6df-e304dd5f92ad"
      },
      "created": "2026-12-01",
      "provider": {
        "reference": "Practitioner/practitioner-123456"
      },
      "priority": {
        "coding": [ {
          "system": "http://terminology.hl7.org/CodeSystem/processpriority",
          "code": "normal"
        } ]
      },
      "diagnosis": [ {
        "sequence": 1,
        "diagnosisCodeableConcept": {
          "coding": [ {
            "system": "http://hl7.org/fhir/sid/icd-10-cm",
            "code": "I63.00"
          } ]
        },
        "type": [ {
          "coding": [ {
            "system": "http://terminology.hl7.org/CodeSystem/ex-diagnosistype",
            "code": "principal"
          } ]
        } ]
      } ],
      "insurance": [ {
        "sequence": 1,
        "focal": true,
        "coverage": {
          "reference": "Coverage/5fa041661c76ba66d9959367"
        }
      } ],
      "item": [ {
        "sequence": 1,
        "diagnosisSequence": [ 1 ],
        "productOrService": {
          "coding": [ {
            "system": "http://terminology.hl7.org/CodeSystem/ex-USCLS",
            "code": "99555"
          } ]
        },
        "encounter": [ {
          "reference": "Encounter/8d8691b9-a169-4677-8140-3706d09cfb32"
        } ]
      } ]
    },
    "request": {
      "method": "PUT",
      "url": "Claim/5ca62962b8484628b8de1ec5"
    }
  }, {
    "fullUrl": "https://madie.cms.gov/MedicationAdministration/53b0fd1f-48a9-4c29-9ca3-a0b626eb6ea9",
    "resource": {
      "resourceType": "MedicationAdministration",
      "id": "53b0fd1f-48a9-4c29-9ca3-a0b626eb6ea9",
      "meta": {
        "profile": [ "http://hl7.org/fhir/us/qicore/StructureDefinition/qicore-medicationadministration" ]
      },
      "status": "completed",
      "medicationCodeableConcept": {
        "coding": [ {
          "system": "http://www.nlm.nih.gov/research/umls/rxnorm",
          "code": "855812",
          "display": "prasugrel 10 MG Oral Tablet",
          "userSelected": true
        } ]
      },
      "subject": {
        "reference": "Patient/7d9affce-5c31-4fcb-b9e5-c0304c3f9406"
      },
      "effectivePeriod": {
        "start": "2026-10-10T10:16:00Z"
      }
    },
    "request": {
      "method": "PUT",
      "url": "MedicationAdministration/53b0fd1f-48a9-4c29-9ca3-a0b626eb6ea9"
    }
  }, {
    "fullUrl": "https://madie.cms.gov/Coverage/8ca1dd6e-b818-4b3b-8a7b-ed440dc6f77a",
    "resource": {
      "resourceType": "Coverage",
      "id": "8ca1dd6e-b818-4b3b-8a7b-ed440dc6f77a",
      "status": "active",
      "subscriberId": "523435",
      "beneficiary": {
        "reference": "Patient/7d9affce-5c31-4fcb-b9e5-c0304c3f9406"
      },
      "relationship": {
        "coding": [ {
          "system": "http://terminology.hl7.org/CodeSystem/subscriber-relationship",
          "code": "self"
        } ]
      },
      "period": {
        "start": "1976-09-26T08:00:00Z"
      },
      "payor": [ {
        "reference": "Organization/190ea72c-1527-4e7d-ace5-04ec5fd20eaf"
      } ]
    },
    "request": {
      "method": "PUT",
      "url": "Coverage/8ca1dd6e-b818-4b3b-8a7b-ed440dc6f77a"
    }
  }, {
    "fullUrl": "https://madie.cms.gov/Condition/ec0e023b-e76f-45d0-97be-432f8a8b7503",
    "resource": {
      "resourceType": "Condition",
      "id": "ec0e023b-e76f-45d0-97be-432f8a8b7503",
      "meta": {
        "profile": [ "http://hl7.org/fhir/us/qicore/StructureDefinition/qicore-condition-problems-health-concerns" ]
      },
      "clinicalStatus": {
        "coding": [ {
          "system": "http://terminology.hl7.org/CodeSystem/condition-clinical",
          "code": "active"
        } ]
      },
      "verificationStatus": {
        "coding": [ {
          "system": "http://terminology.hl7.org/CodeSystem/condition-ver-status",
          "code": "confirmed"
        } ]
      },
      "category": [ {
        "coding": [ {
          "system": "http://terminology.hl7.org/CodeSystem/condition-category",
          "code": "encounter-diagnosis",
          "display": "Encounter Diagnosis"
        } ]
      } ],
      "code": {
        "coding": [ {
          "system": "http://snomed.info/sct",
          "version": "2020-09",
          "code": "111297002",
          "display": "Nonparalytic stroke (disorder)",
          "userSelected": true
        } ]
      },
      "subject": {
        "reference": "Patient/7d9affce-5c31-4fcb-b9e5-c0304c3f9406"
      },
      "recordedDate": "2026-08-06T08:00:00Z"
    },
    "request": {
      "method": "PUT",
      "url": "Condition/ec0e023b-e76f-45d0-97be-432f8a8b7503"
    }
  }, {
    "fullUrl": "https://madie.cms.gov/Organization/190ea72c-1527-4e7d-ace5-04ec5fd20eaf",
    "resource": {
      "resourceType": "Organization",
      "id": "190ea72c-1527-4e7d-ace5-04ec5fd20eaf",
      "meta": {
        "profile": [ "http://hl7.org/fhir/us/qicore/StructureDefinition/qicore-organization" ]
      },
      "identifier": [ {
        "use": "temp",
        "system": "urn:oid:2.16.840.1.113883.4.4",
        "value": "21-3259825"
      } ],
      "active": true,
      "type": [ {
        "coding": [ {
          "system": "http://terminology.hl7.org/CodeSystem/organization-type",
          "code": "pay",
          "display": "Payer"
        } ]
      } ],
      "name": "Blue Cross Blue Shield of Texas",
      "telecom": [ {
        "system": "phone",
        "value": "(+1) 972-766-6900"
      } ],
      "address": [ {
        "use": "billing",
        "type": "postal",
        "line": [ "P.O. Box 660044" ],
        "city": "Dallas",
        "state": "TX",
        "postalCode": "75266-0044",
        "country": "USA"
      } ]
    },
    "request": {
      "method": "PUT",
      "url": "Organization/190ea72c-1527-4e7d-ace5-04ec5fd20eaf"
    }
  }, {
    "fullUrl": "https://madie.cms.gov/MeasureReport/7885507f-219d-4516-b668-b18e14f014b8",
    "resource": {
      "resourceType": "MeasureReport",
      "id": "7885507f-219d-4516-b668-b18e14f014b8",
      "meta": {
        "profile": [ "http://hl7.org/fhir/us/cqfmeasures/StructureDefinition/test-case-cqfm" ]
      },
      "contained": [ {
        "resourceType": "Parameters",
        "id": "70937bb1-3fd0-4bc0-b28b-97261d018df7-parameters",
        "parameter": [ {
          "name": "subject",
          "valueString": "7d9affce-5c31-4fcb-b9e5-c0304c3f9406"
        } ]
      } ],
      "extension": [ {
        "url": "http://hl7.org/fhir/StructureDefinition/cqf-inputParameters",
        "valueReference": {
          "reference": "#70937bb1-3fd0-4bc0-b28b-97261d018df7-parameters"
        }
      }, {
        "url": "http://hl7.org/fhir/us/cqfmeasures/StructureDefinition/cqfm-testCaseDescription",
        "valueMarkdown": "Patient receives Ticagrelor the day of Obs. ED ends 61 min before Obs.Obs ends 61 min before IP all on the same day. Testing Day of operator with HospitalizationWithObservation function.\n"
      } ],
      "modifierExtension": [ {
        "url": "http://hl7.org/fhir/us/cqfmeasures/StructureDefinition/cqfm-isTestCase",
        "valueBoolean": true
      } ],
      "status": "complete",
      "type": "individual",
      "measure": "https://madie.cms.gov/Measure/CMS72FHIRSTKAntithromboticDay2",
      "period": {
        "start": "2026-01-01",
        "end": "2026-12-31"
      },
      "group": [ {
        "id": "Group_1",
        "population": [ {
          "id": "InitialPopulation_1",
          "code": {
            "coding": [ {
              "system": "http://terminology.hl7.org/CodeSystem/measure-population",
              "code": "initial-population",
              "display": "Initial Population"
            } ]
          },
          "count": 1
        }, {
          "id": "Denominator_1",
          "code": {
            "coding": [ {
              "system": "http://terminology.hl7.org/CodeSystem/measure-population",
              "code": "denominator",
              "display": "Denominator"
            } ]
          },
          "count": 1
        }, {
          "id": "DenominatorExclusion_1",
          "code": {
            "coding": [ {
              "system": "http://terminology.hl7.org/CodeSystem/measure-population",
              "code": "denominator-exclusion",
              "display": "Denominator Exclusion"
            } ]
          },
          "count": 0
        }, {
          "id": "Numerator_1",
          "code": {
            "coding": [ {
              "system": "http://terminology.hl7.org/CodeSystem/measure-population",
              "code": "numerator",
              "display": "Numerator"
            } ]
          },
          "count": 0
        }, {
          "id": "DenominatorException_1",
          "code": {
            "coding": [ {
              "system": "http://terminology.hl7.org/CodeSystem/measure-population",
              "code": "denominator-exception",
              "display": "Denominator Exception"
            } ]
          },
          "count": 1
        } ],
        "measureScore": {
          "value": 0.0
        }
      } ],
      "evaluatedResource": [ {
        "reference": "Patient/7d9affce-5c31-4fcb-b9e5-c0304c3f9406"
      }, {
        "reference": "Encounter/02fac42a-511d-4044-96b2-4f37a60cd927"
      }, {
        "reference": "Encounter/aa0e49d1-3278-46bd-8561-ac5146e8feb4"
      }, {
        "reference": "Encounter/8d8691b9-a169-4677-8140-3706d09cfb32"
      }, {
        "reference": "Claim/5ca62962b8484628b8de1ec5"
      }, {
        "reference": "MedicationAdministration/53b0fd1f-48a9-4c29-9ca3-a0b626eb6ea9"
      }, {
        "reference": "Coverage/8ca1dd6e-b818-4b3b-8a7b-ed440dc6f77a"
      }, {
        "reference": "Condition/ec0e023b-e76f-45d0-97be-432f8a8b7503"
      }, {
        "reference": "Organization/190ea72c-1527-4e7d-ace5-04ec5fd20eaf"
      } ]
    },
    "request": {
      "method": "PUT",
      "url": "MeasureReport/7885507f-219d-4516-b668-b18e14f014b8"
    }
  } ]
}