{
  "resourceType": "Bundle",
  "id": "62d0897dab06d8c02b5741cd",
  "type": "transaction",
  "entry": [ {
    "fullUrl": "https://madie.cms.gov/Patient/9ed1ecf5-2d93-4bde-a293-5d5fbf209475",
    "resource": {
      "resourceType": "Patient",
      "id": "9ed1ecf5-2d93-4bde-a293-5d5fbf209475",
      "meta": {
        "profile": [ "http://hl7.org/fhir/us/qicore/StructureDefinition/qicore-patient" ]
      },
      "extension": [ {
        "url": "http://hl7.org/fhir/us/core/StructureDefinition/us-core-race",
        "extension": [ {
          "url": "ombCategory",
          "valueCoding": {
            "system": "urn:oid:2.16.840.1.113883.6.238",
            "code": "2054-5",
            "display": "Black or African American",
            "userSelected": true
          }
        }, {
          "url": "text",
          "valueString": "Black or African American"
        } ]
      }, {
        "url": "http://hl7.org/fhir/us/core/StructureDefinition/us-core-ethnicity",
        "extension": [ {
          "url": "ombCategory",
          "valueCoding": {
            "system": "urn:oid:2.16.840.1.113883.6.238",
            "code": "2135-2",
            "display": "Hispanic or Latino",
            "userSelected": true
          }
        }, {
          "url": "text",
          "valueString": "Hispanic or Latino"
        } ]
      }, {
        "url": "http://hl7.org/fhir/us/core/StructureDefinition/us-core-sex",
        "valueCode": "248152002"
      } ],
      "identifier": [ {
        "type": {
          "coding": [ {
            "system": "http://terminology.hl7.org/CodeSystem/v2-0203",
            "code": "MR"
          } ]
        },
        "system": "https://bonnie-fhir.healthit.gov/",
        "value": "62d0897dab06d8c02b5741cd"
      } ],
      "name": [ {
        "family": "DENEXCEPPass",
        "given": [ "HTN140DeclinedNonPharm" ]
      } ],
      "gender": "female",
      "birthDate": "2006-01-31"
    },
    "request": {
      "method": "PUT",
      "url": "Patient/9ed1ecf5-2d93-4bde-a293-5d5fbf209475"
    }
  }, {
    "fullUrl": "https://madie.cms.gov/Encounter/63614d98-8fdc-4841-9aa6-08bb92131506",
    "resource": {
      "resourceType": "Encounter",
      "id": "63614d98-8fdc-4841-9aa6-08bb92131506",
      "meta": {
        "profile": [ "http://hl7.org/fhir/us/qicore/StructureDefinition/qicore-encounter" ]
      },
      "status": "finished",
      "class": {
        "system": "http://terminology.hl7.org/CodeSystem/v3-ActCode",
        "code": "AMB",
        "display": "ambulatory"
      },
      "type": [ {
        "coding": [ {
          "system": "http://snomed.info/sct",
          "version": "2022-03",
          "code": "103705002",
          "display": "Patient status observation (procedure)",
          "userSelected": true
        } ]
      } ],
      "subject": {
        "reference": "Patient/9ed1ecf5-2d93-4bde-a293-5d5fbf209475"
      },
      "period": {
        "start": "2026-01-01T08:00:00.000+00:00",
        "end": "2026-01-01T08:30:00.000+00:00"
      }
    },
    "request": {
      "method": "PUT",
      "url": "Encounter/63614d98-8fdc-4841-9aa6-08bb92131506"
    }
  }, {
    "fullUrl": "https://madie.cms.gov/Observation/d703ea66-fd77-4ea2-b320-480e288bd9f6",
    "resource": {
      "resourceType": "Observation",
      "id": "d703ea66-fd77-4ea2-b320-480e288bd9f6",
      "meta": {
        "profile": [ "http://hl7.org/fhir/us/core/StructureDefinition/us-core-blood-pressure" ]
      },
      "status": "final",
      "category": [ {
        "coding": [ {
          "system": "http://terminology.hl7.org/CodeSystem/observation-category",
          "code": "vital-signs",
          "display": "Vital Signs"
        } ],
        "text": "Vital Signs"
      } ],
      "code": {
        "coding": [ {
          "system": "http://loinc.org",
          "code": "85354-9",
          "display": "Blood pressure panel"
        } ]
      },
      "subject": {
        "reference": "Patient/9ed1ecf5-2d93-4bde-a293-5d5fbf209475"
      },
      "effectiveDateTime": "2026-01-01T08:05:00.000+00:00",
      "component": [ {
        "code": {
          "coding": [ {
            "system": "http://loinc.org",
            "code": "8480-6",
            "display": "Systolic blood pressure"
          } ]
        },
        "valueQuantity": {
          "value": 160,
          "unit": "mmHg",
          "system": "http://unitsofmeasure.org",
          "code": "mm[Hg]"
        }
      }, {
        "code": {
          "coding": [ {
            "system": "http://loinc.org",
            "code": "8462-4",
            "display": "Diastolic blood pressure"
          } ]
        },
        "valueQuantity": {
          "value": 80,
          "unit": "mmHg",
          "system": "http://unitsofmeasure.org",
          "code": "mm[Hg]"
        }
      } ]
    },
    "request": {
      "method": "PUT",
      "url": "Observation/d703ea66-fd77-4ea2-b320-480e288bd9f6"
    }
  }, {
    "fullUrl": "https://madie.cms.gov/ServiceRequest/f0cabdda-6f32-4949-bf30-311b79a1e4ce",
    "resource": {
      "resourceType": "ServiceRequest",
      "id": "f0cabdda-6f32-4949-bf30-311b79a1e4ce",
      "meta": {
        "profile": [ "http://hl7.org/fhir/us/qicore/StructureDefinition/qicore-servicenotrequested" ]
      },
      "extension": [ {
        "url": "http://hl7.org/fhir/us/qicore/StructureDefinition/qicore-doNotPerformReason",
        "valueCodeableConcept": {
          "coding": [ {
            "system": "http://snomed.info/sct",
            "code": "1296859006",
            "display": "Procedure declined by patient (situation)",
            "userSelected": true
          } ]
        }
      } ],
      "status": "completed",
      "intent": "order",
      "doNotPerform": true,
      "code": {
        "coding": [ {
          "system": "http://snomed.info/sct",
          "version": "2022-03",
          "code": "11816003",
          "display": "Diet education (procedure)",
          "userSelected": true
        } ]
      },
      "subject": {
        "reference": "Patient/9ed1ecf5-2d93-4bde-a293-5d5fbf209475"
      },
      "authoredOn": "2026-01-01T08:05:00.000+00:00"
    },
    "request": {
      "method": "PUT",
      "url": "ServiceRequest/f0cabdda-6f32-4949-bf30-311b79a1e4ce"
    }
  }, {
    "fullUrl": "https://madie.cms.gov/Coverage/4a661220-663b-4af2-8a57-2b171a966017",
    "resource": {
      "resourceType": "Coverage",
      "id": "4a661220-663b-4af2-8a57-2b171a966017",
      "meta": {
        "profile": [ "http://hl7.org/fhir/us/qicore/StructureDefinition/qicore-coverage" ]
      },
      "status": "active",
      "beneficiary": {
        "reference": "Patient/9ed1ecf5-2d93-4bde-a293-5d5fbf209475"
      },
      "payor": [ {
        "reference": "Organization/53b6498a-c16f-4ab0-a59c-e3124fef912c"
      } ]
    },
    "request": {
      "method": "PUT",
      "url": "Coverage/4a661220-663b-4af2-8a57-2b171a966017"
    }
  }, {
    "fullUrl": "https://madie.cms.gov/Organization/53b6498a-c16f-4ab0-a59c-e3124fef912c",
    "resource": {
      "resourceType": "Organization",
      "id": "53b6498a-c16f-4ab0-a59c-e3124fef912c",
      "meta": {
        "profile": [ "http://hl7.org/fhir/us/qicore/StructureDefinition/qicore-organization" ]
      },
      "identifier": [ {
        "use": "temp",
        "system": "urn:oid:2.16.840.1.113883.4.4",
        "value": "21-3259825"
      } ],
      "active": true,
      "type": [ {
        "coding": [ {
          "system": "http://terminology.hl7.org/CodeSystem/organization-type",
          "code": "pay",
          "display": "Payer"
        } ]
      } ],
      "name": "Blue Cross Blue Shield of Texas",
      "telecom": [ {
        "system": "phone",
        "value": "(+1) 972-766-6900"
      } ],
      "address": [ {
        "use": "billing",
        "type": "postal",
        "line": [ "P.O. Box 660044" ],
        "city": "Dallas",
        "state": "TX",
        "postalCode": "75266-0044",
        "country": "USA"
      } ]
    },
    "request": {
      "method": "PUT",
      "url": "Organization/53b6498a-c16f-4ab0-a59c-e3124fef912c"
    }
  }, {
    "fullUrl": "https://madie.cms.gov/Practitioner/6d3e0cac-3a43-4ca2-aed3-5315920854b7",
    "resource": {
      "resourceType": "Practitioner",
      "id": "6d3e0cac-3a43-4ca2-aed3-5315920854b7",
      "meta": {
        "profile": [ "http://hl7.org/fhir/us/qicore/StructureDefinition/qicore-practitioner" ]
      },
      "identifier": [ {
        "system": "http://hl7.org/fhir/sid/us-npi",
        "value": "123456"
      } ],
      "name": [ {
        "family": "Evil",
        "prefix": [ "Dr" ]
      } ]
    },
    "request": {
      "method": "PUT",
      "url": "Practitioner/6d3e0cac-3a43-4ca2-aed3-5315920854b7"
    }
  }, {
    "fullUrl": "https://madie.cms.gov/MeasureReport/321a6f6f-85ca-4253-8f39-432b91894a3e",
    "resource": {
      "resourceType": "MeasureReport",
      "id": "321a6f6f-85ca-4253-8f39-432b91894a3e",
      "meta": {
        "profile": [ "http://hl7.org/fhir/us/cqfmeasures/StructureDefinition/test-case-cqfm" ]
      },
      "contained": [ {
        "resourceType": "Parameters",
        "id": "1cd0712c-39bc-48f4-ae0c-2cee15376af1-parameters",
        "parameter": [ {
          "name": "subject",
          "valueString": "9ed1ecf5-2d93-4bde-a293-5d5fbf209475"
        } ]
      } ],
      "extension": [ {
        "url": "http://hl7.org/fhir/StructureDefinition/cqf-inputParameters",
        "valueReference": {
          "reference": "#1cd0712c-39bc-48f4-ae0c-2cee15376af1-parameters"
        }
      }, {
        "url": "http://hl7.org/fhir/us/cqfmeasures/StructureDefinition/cqfm-testCaseDescription",
        "valueMarkdown": "Encounter first day of MP with systolic reading 160 and diastolic 80, f/u scheduled, and dietary recommendations not made as patient did not have time, expect to fail as no nonpharm interventions."
      } ],
      "modifierExtension": [ {
        "url": "http://hl7.org/fhir/us/cqfmeasures/StructureDefinition/cqfm-isTestCase",
        "valueBoolean": true
      } ],
      "status": "complete",
      "type": "individual",
      "measure": "https://madie.cms.gov/Measure/CMS22FHIRPCSBPScreeningFollowUp",
      "period": {
        "start": "2026-01-01",
        "end": "2026-12-31"
      },
      "group": [ {
        "id": "Group_1",
        "population": [ {
          "id": "InitialPopulation_1",
          "code": {
            "coding": [ {
              "system": "http://terminology.hl7.org/CodeSystem/measure-population",
              "code": "initial-population",
              "display": "Initial Population"
            } ]
          },
          "count": 1
        }, {
          "id": "Denominator_1",
          "code": {
            "coding": [ {
              "system": "http://terminology.hl7.org/CodeSystem/measure-population",
              "code": "denominator",
              "display": "Denominator"
            } ]
          },
          "count": 1
        }, {
          "id": "DenominatorExclusion_1",
          "code": {
            "coding": [ {
              "system": "http://terminology.hl7.org/CodeSystem/measure-population",
              "code": "denominator-exclusion",
              "display": "Denominator Exclusion"
            } ]
          },
          "count": 0
        }, {
          "id": "Numerator_1",
          "code": {
            "coding": [ {
              "system": "http://terminology.hl7.org/CodeSystem/measure-population",
              "code": "numerator",
              "display": "Numerator"
            } ]
          },
          "count": 0
        }, {
          "id": "DenominatorException_1",
          "code": {
            "coding": [ {
              "system": "http://terminology.hl7.org/CodeSystem/measure-population",
              "code": "denominator-exception",
              "display": "Denominator Exception"
            } ]
          },
          "count": 1
        } ],
        "measureScore": {
          "value": 0.0
        }
      } ],
      "evaluatedResource": [ {
        "reference": "Patient/9ed1ecf5-2d93-4bde-a293-5d5fbf209475"
      }, {
        "reference": "Encounter/63614d98-8fdc-4841-9aa6-08bb92131506"
      }, {
        "reference": "Observation/d703ea66-fd77-4ea2-b320-480e288bd9f6"
      }, {
        "reference": "ServiceRequest/f0cabdda-6f32-4949-bf30-311b79a1e4ce"
      }, {
        "reference": "Coverage/4a661220-663b-4af2-8a57-2b171a966017"
      }, {
        "reference": "Organization/53b6498a-c16f-4ab0-a59c-e3124fef912c"
      }, {
        "reference": "Practitioner/6d3e0cac-3a43-4ca2-aed3-5315920854b7"
      } ]
    },
    "request": {
      "method": "PUT",
      "url": "MeasureReport/321a6f6f-85ca-4253-8f39-432b91894a3e"
    }
  } ]
}