{
    "entry": [
        {
            "request": {
                "method": "PUT",
                "url": "Patient/9ed1ecf5-2d93-4bde-a293-5d5fbf209475"
            },
            "resource": {
                "identifier": [{
                    "system": "https://bonnie-fhir.healthit.gov/",
                    "type": {"coding": [{
                        "system": "http://terminology.hl7.org/CodeSystem/v2-0203",
                        "code": "MR"
                    }]},
                    "value": "62d0897dab06d8c02b5741cd"
                }],
                "extension": [
                    {
                        "extension": [
                            {
                                "valueCoding": {
                                    "system": "urn:oid:2.16.840.1.113883.6.238",
                                    "code": "2054-5",
                                    "userSelected": true,
                                    "display": "Black or African American"
                                },
                                "url": "ombCategory"
                            },
                            {
                                "valueString": "Black or African American",
                                "url": "text"
                            }
                        ],
                        "url": "http://hl7.org/fhir/us/core/StructureDefinition/us-core-race"
                    },
                    {
                        "extension": [
                            {
                                "valueCoding": {
                                    "system": "urn:oid:2.16.840.1.113883.6.238",
                                    "code": "2135-2",
                                    "userSelected": true,
                                    "display": "Hispanic or Latino"
                                },
                                "url": "ombCategory"
                            },
                            {
                                "valueString": "Hispanic or Latino",
                                "url": "text"
                            }
                        ],
                        "url": "http://hl7.org/fhir/us/core/StructureDefinition/us-core-ethnicity"
                    },
                    {
                        "valueCode": "248152002",
                        "url": "http://hl7.org/fhir/us/core/StructureDefinition/us-core-sex"
                    }
                ],
                "gender": "female",
                "meta": {"profile": ["http://hl7.org/fhir/us/qicore/StructureDefinition/qicore-patient"]},
                "name": [{
                    "given": ["HTN140DeclinedNonPharm"],
                    "family": "DENEXCEPPass"
                }],
                "id": "9ed1ecf5-2d93-4bde-a293-5d5fbf209475",
                "birthDate": "2006-01-31",
                "resourceType": "Patient"
            },
            "fullUrl": "https://madie.cms.gov/Patient/9ed1ecf5-2d93-4bde-a293-5d5fbf209475"
        },
        {
            "request": {
                "method": "PUT",
                "url": "Encounter/63614d98-8fdc-4841-9aa6-08bb92131506"
            },
            "resource": {
                "period": {
                    "start": "2026-01-01T08:00:00.000+00:00",
                    "end": "2026-01-01T08:30:00.000+00:00"
                },
                "meta": {"profile": ["http://hl7.org/fhir/us/qicore/StructureDefinition/qicore-encounter"]},
                "subject": {"reference": "Patient/9ed1ecf5-2d93-4bde-a293-5d5fbf209475"},
                "id": "63614d98-8fdc-4841-9aa6-08bb92131506",
                "type": [{"coding": [{
                    "system": "http://snomed.info/sct",
                    "code": "103705002",
                    "userSelected": true,
                    "display": "Patient status observation (procedure)",
                    "version": "2022-03"
                }]}],
                "class": {
                    "system": "http://terminology.hl7.org/CodeSystem/v3-ActCode",
                    "code": "AMB",
                    "display": "ambulatory"
                },
                "resourceType": "Encounter",
                "status": "finished"
            },
            "fullUrl": "https://madie.cms.gov/Encounter/63614d98-8fdc-4841-9aa6-08bb92131506"
        },
        {
            "request": {
                "method": "PUT",
                "url": "Observation/d703ea66-fd77-4ea2-b320-480e288bd9f6"
            },
            "resource": {
                "component": [
                    {
                        "code": {"coding": [{
                            "system": "http://loinc.org",
                            "code": "8480-6",
                            "display": "Systolic blood pressure"
                        }]},
                        "valueQuantity": {
                            "unit": "mmHg",
                            "system": "http://unitsofmeasure.org",
                            "code": "mm[Hg]",
                            "value": 160
                        }
                    },
                    {
                        "code": {"coding": [{
                            "system": "http://loinc.org",
                            "code": "8462-4",
                            "display": "Diastolic blood pressure"
                        }]},
                        "valueQuantity": {
                            "unit": "mmHg",
                            "system": "http://unitsofmeasure.org",
                            "code": "mm[Hg]",
                            "value": 80
                        }
                    }
                ],
                "code": {"coding": [{
                    "system": "http://loinc.org",
                    "code": "85354-9",
                    "display": "Blood pressure panel"
                }]},
                "effectiveDateTime": "2026-01-01T08:05:00.000+00:00",
                "meta": {"profile": ["http://hl7.org/fhir/us/core/StructureDefinition/us-core-blood-pressure"]},
                "subject": {"reference": "Patient/9ed1ecf5-2d93-4bde-a293-5d5fbf209475"},
                "id": "d703ea66-fd77-4ea2-b320-480e288bd9f6",
                "category": [{
                    "coding": [{
                        "system": "http://terminology.hl7.org/CodeSystem/observation-category",
                        "code": "vital-signs",
                        "display": "Vital Signs"
                    }],
                    "text": "Vital Signs"
                }],
                "resourceType": "Observation",
                "status": "final"
            },
            "fullUrl": "https://madie.cms.gov/Observation/d703ea66-fd77-4ea2-b320-480e288bd9f6"
        },
        {
            "request": {
                "method": "PUT",
                "url": "ServiceRequest/f0cabdda-6f32-4949-bf30-311b79a1e4ce"
            },
            "resource": {
                "extension": [{
                    "valueCodeableConcept": {"coding": [{
                        "system": "http://snomed.info/sct",
                        "code": "1296859006",
                        "userSelected": true,
                        "display": "Procedure declined by patient (situation)"
                    }]},
                    "url": "http://hl7.org/fhir/us/qicore/StructureDefinition/qicore-doNotPerformReason"
                }],
                "code": {"coding": [{
                    "system": "http://snomed.info/sct",
                    "code": "11816003",
                    "userSelected": true,
                    "display": "Diet education (procedure)",
                    "version": "2022-03"
                }]},
                "authoredOn": "2026-01-01T08:05:00.000+00:00",
                "meta": {"profile": ["http://hl7.org/fhir/us/qicore/StructureDefinition/qicore-servicenotrequested"]},
                "subject": {"reference": "Patient/9ed1ecf5-2d93-4bde-a293-5d5fbf209475"},
                "id": "f0cabdda-6f32-4949-bf30-311b79a1e4ce",
                "doNotPerform": true,
                "intent": "order",
                "resourceType": "ServiceRequest",
                "status": "completed"
            },
            "fullUrl": "https://madie.cms.gov/ServiceRequest/f0cabdda-6f32-4949-bf30-311b79a1e4ce"
        },
        {
            "request": {
                "method": "PUT",
                "url": "Coverage/4a661220-663b-4af2-8a57-2b171a966017"
            },
            "resource": {
                "payor": [{"reference": "Organization/53b6498a-c16f-4ab0-a59c-e3124fef912c"}],
                "beneficiary": {"reference": "Patient/9ed1ecf5-2d93-4bde-a293-5d5fbf209475"},
                "meta": {"profile": ["http://hl7.org/fhir/us/qicore/StructureDefinition/qicore-coverage"]},
                "id": "4a661220-663b-4af2-8a57-2b171a966017",
                "resourceType": "Coverage",
                "status": "active"
            },
            "fullUrl": "https://madie.cms.gov/Coverage/4a661220-663b-4af2-8a57-2b171a966017"
        },
        {
            "request": {
                "method": "PUT",
                "url": "Organization/53b6498a-c16f-4ab0-a59c-e3124fef912c"
            },
            "resource": {
                "identifier": [{
                    "system": "urn:oid:2.16.840.1.113883.4.4",
                    "use": "temp",
                    "value": "21-3259825"
                }],
                "address": [{
                    "country": "USA",
                    "city": "Dallas",
                    "use": "billing",
                    "line": ["P.O. Box 660044"],
                    "postalCode": "75266-0044",
                    "state": "TX",
                    "type": "postal"
                }],
                "meta": {"profile": ["http://hl7.org/fhir/us/qicore/StructureDefinition/qicore-organization"]},
                "name": "Blue Cross Blue Shield of Texas",
                "active": true,
                "telecom": [{
                    "system": "phone",
                    "value": "(+1) 972-766-6900"
                }],
                "id": "53b6498a-c16f-4ab0-a59c-e3124fef912c",
                "type": [{"coding": [{
                    "system": "http://terminology.hl7.org/CodeSystem/organization-type",
                    "code": "pay",
                    "display": "Payer"
                }]}],
                "resourceType": "Organization"
            },
            "fullUrl": "https://madie.cms.gov/Organization/53b6498a-c16f-4ab0-a59c-e3124fef912c"
        },
        {
            "request": {
                "method": "PUT",
                "url": "Practitioner/6d3e0cac-3a43-4ca2-aed3-5315920854b7"
            },
            "resource": {
                "identifier": [{
                    "system": "http://hl7.org/fhir/sid/us-npi",
                    "value": "123456"
                }],
                "meta": {"profile": ["http://hl7.org/fhir/us/qicore/StructureDefinition/qicore-practitioner"]},
                "name": [{
                    "prefix": ["Dr"],
                    "family": "Evil"
                }],
                "id": "6d3e0cac-3a43-4ca2-aed3-5315920854b7",
                "resourceType": "Practitioner"
            },
            "fullUrl": "https://madie.cms.gov/Practitioner/6d3e0cac-3a43-4ca2-aed3-5315920854b7"
        },
        {
            "request": {
                "method": "PUT",
                "url": "MeasureReport/321a6f6f-85ca-4253-8f39-432b91894a3e"
            },
            "resource": {
                "contained": [{
                    "parameter": [{
                        "valueString": "9ed1ecf5-2d93-4bde-a293-5d5fbf209475",
                        "name": "subject"
                    }],
                    "id": "1cd0712c-39bc-48f4-ae0c-2cee15376af1-parameters",
                    "resourceType": "Parameters"
                }],
                "extension": [
                    {
                        "valueReference": {"reference": "#1cd0712c-39bc-48f4-ae0c-2cee15376af1-parameters"},
                        "url": "http://hl7.org/fhir/StructureDefinition/cqf-inputParameters"
                    },
                    {
                        "valueMarkdown": "Encounter first day of MP with systolic reading 160 and diastolic 80, f/u scheduled, and dietary recommendations not made as patient did not have time, expect to fail as no nonpharm interventions.",
                        "url": "http://hl7.org/fhir/us/cqfmeasures/StructureDefinition/cqfm-testCaseDescription"
                    }
                ],
                "period": {
                    "start": "2026-01-01",
                    "end": "2026-12-31"
                },
                "measure": "https://madie.cms.gov/Measure/CMS22FHIRPCSBPScreeningFollowUp",
                "meta": {"profile": ["http://hl7.org/fhir/us/cqfmeasures/StructureDefinition/test-case-cqfm"]},
                "modifierExtension": [{
                    "valueBoolean": true,
                    "url": "http://hl7.org/fhir/us/cqfmeasures/StructureDefinition/cqfm-isTestCase"
                }],
                "id": "321a6f6f-85ca-4253-8f39-432b91894a3e",
                "evaluatedResource": [
                    {"reference": "Patient/9ed1ecf5-2d93-4bde-a293-5d5fbf209475"},
                    {"reference": "Encounter/63614d98-8fdc-4841-9aa6-08bb92131506"},
                    {"reference": "Observation/d703ea66-fd77-4ea2-b320-480e288bd9f6"},
                    {"reference": "ServiceRequest/f0cabdda-6f32-4949-bf30-311b79a1e4ce"},
                    {"reference": "Coverage/4a661220-663b-4af2-8a57-2b171a966017"},
                    {"reference": "Organization/53b6498a-c16f-4ab0-a59c-e3124fef912c"},
                    {"reference": "Practitioner/6d3e0cac-3a43-4ca2-aed3-5315920854b7"}
                ],
                "type": "individual",
                "resourceType": "MeasureReport",
                "status": "complete",
                "group": [{
                    "id": "Group_1",
                    "measureScore": {"value": 0},
                    "population": [
                        {
                            "code": {"coding": [{
                                "system": "http://terminology.hl7.org/CodeSystem/measure-population",
                                "code": "initial-population",
                                "display": "Initial Population"
                            }]},
                            "count": 1,
                            "id": "InitialPopulation_1"
                        },
                        {
                            "code": {"coding": [{
                                "system": "http://terminology.hl7.org/CodeSystem/measure-population",
                                "code": "denominator",
                                "display": "Denominator"
                            }]},
                            "count": 1,
                            "id": "Denominator_1"
                        },
                        {
                            "code": {"coding": [{
                                "system": "http://terminology.hl7.org/CodeSystem/measure-population",
                                "code": "denominator-exclusion",
                                "display": "Denominator Exclusion"
                            }]},
                            "count": 0,
                            "id": "DenominatorExclusion_1"
                        },
                        {
                            "code": {"coding": [{
                                "system": "http://terminology.hl7.org/CodeSystem/measure-population",
                                "code": "numerator",
                                "display": "Numerator"
                            }]},
                            "count": 0,
                            "id": "Numerator_1"
                        },
                        {
                            "code": {"coding": [{
                                "system": "http://terminology.hl7.org/CodeSystem/measure-population",
                                "code": "denominator-exception",
                                "display": "Denominator Exception"
                            }]},
                            "count": 1,
                            "id": "DenominatorException_1"
                        }
                    ]
                }]
            },
            "fullUrl": "https://madie.cms.gov/MeasureReport/321a6f6f-85ca-4253-8f39-432b91894a3e"
        }
    ],
    "id": "62d0897dab06d8c02b5741cd",
    "type": "transaction",
    "resourceType": "Bundle"
}