{
  "resourceType": "Bundle",
  "id": "612e6f5302c62a011f2f166a",
  "type": "transaction",
  "entry": [ {
    "fullUrl": "https://madie.cms.gov/Patient/f7ffeb68-1928-4860-8b3e-767f128b23d3",
    "resource": {
      "resourceType": "Patient",
      "id": "f7ffeb68-1928-4860-8b3e-767f128b23d3",
      "meta": {
        "profile": [ "http://hl7.org/fhir/us/qicore/StructureDefinition/qicore-patient" ]
      },
      "text": {
        "status": "generated",
        "div": "<div xmlns=\"http://www.w3.org/1999/xhtml\"><div class=\"hapiHeaderText\">ThrombinIOnICUStart <b>NUMERPASS </b></div><table class=\"hapiPropertyTable\"><tbody><tr><td>Identifier</td><td>06eca7aa47ca0c502a3acb1ae6090a56</td></tr><tr><td>Date of birth</td><td><span>03 March 1974</span></td></tr></tbody></table></div>"
      },
      "extension": [ {
        "url": "http://hl7.org/fhir/us/core/StructureDefinition/us-core-race",
        "extension": [ {
          "url": "ombCategory",
          "valueCoding": {
            "system": "urn:oid:2.16.840.1.113883.6.238",
            "code": "1002-5",
            "display": "American Indian or Alaska Native",
            "userSelected": true
          }
        }, {
          "url": "text",
          "valueString": "American Indian or Alaska Native"
        } ]
      }, {
        "url": "http://hl7.org/fhir/us/core/StructureDefinition/us-core-ethnicity",
        "extension": [ {
          "url": "ombCategory",
          "valueCoding": {
            "system": "urn:oid:2.16.840.1.113883.6.238",
            "code": "2135-2",
            "display": "Hispanic or Latino",
            "userSelected": true
          }
        }, {
          "url": "text",
          "valueString": "Hispanic or Latino"
        } ]
      } ],
      "identifier": [ {
        "type": {
          "coding": [ {
            "system": "http://terminology.hl7.org/CodeSystem/v2-0203",
            "code": "MR"
          } ]
        },
        "system": "https://bonnie-fhir.healthit.gov/",
        "value": "612e6f5302c62a011f2f166a"
      } ],
      "active": true,
      "name": [ {
        "use": "usual",
        "family": "NUMERPass",
        "given": [ "ThrombinIOnICUStart" ]
      } ],
      "gender": "female",
      "birthDate": "1975-03-03"
    },
    "request": {
      "method": "PUT",
      "url": "Patient/f7ffeb68-1928-4860-8b3e-767f128b23d3"
    }
  }, {
    "fullUrl": "https://madie.cms.gov/Encounter/22124577-61f0-44a5-bf7b-f93179573180",
    "resource": {
      "resourceType": "Encounter",
      "id": "22124577-61f0-44a5-bf7b-f93179573180",
      "meta": {
        "profile": [ "http://hl7.org/fhir/us/qicore/StructureDefinition/qicore-encounter" ]
      },
      "status": "finished",
      "class": {
        "system": "http://terminology.hl7.org/CodeSystem/v3-ActCode",
        "code": "IMP",
        "display": "inpatient encounter"
      },
      "type": [ {
        "coding": [ {
          "system": "http://snomed.info/sct",
          "code": "8715000"
        } ]
      } ],
      "subject": {
        "reference": "Patient/f7ffeb68-1928-4860-8b3e-767f128b23d3"
      },
      "period": {
        "start": "2026-12-04T08:00:00.000+00:00",
        "end": "2026-12-30T08:15:00.000+00:00"
      },
      "length": {
        "value": 26.0,
        "unit": "days"
      },
      "location": [ {
        "location": {
          "reference": "Location/9d640952-f7a2-4bda-b6f5-accc19b8646c"
        },
        "period": {
          "start": "2026-12-06T09:00:00.000+00:00",
          "end": "2026-12-12T08:15:00.000+00:00"
        }
      } ]
    },
    "request": {
      "method": "PUT",
      "url": "Encounter/22124577-61f0-44a5-bf7b-f93179573180"
    }
  }, {
    "fullUrl": "https://madie.cms.gov/Coverage/34d66366-4448-4322-9887-82db6caaea23",
    "resource": {
      "resourceType": "Coverage",
      "id": "34d66366-4448-4322-9887-82db6caaea23",
      "status": "active",
      "beneficiary": {
        "reference": "Patient/f7ffeb68-1928-4860-8b3e-767f128b23d3"
      },
      "period": {
        "start": "1975-03-03T08:00:00.000+00:00"
      },
      "payor": [ {
        "reference": "Organization/5825c32f-e7b2-4b95-bf4a-0ea9a7240973"
      } ]
    },
    "request": {
      "method": "PUT",
      "url": "Coverage/34d66366-4448-4322-9887-82db6caaea23"
    }
  }, {
    "fullUrl": "https://madie.cms.gov/MedicationAdministration/b98d96c7-82a4-452b-ac3d-45a6580275ba",
    "resource": {
      "resourceType": "MedicationAdministration",
      "id": "b98d96c7-82a4-452b-ac3d-45a6580275ba",
      "meta": {
        "profile": [ "http://hl7.org/fhir/us/qicore/StructureDefinition/qicore-medicationadministration" ]
      },
      "status": "completed",
      "medicationCodeableConcept": {
        "coding": [ {
          "system": "http://www.nlm.nih.gov/research/umls/rxnorm",
          "code": "308351"
        } ]
      },
      "subject": {
        "reference": "Patient/f7ffeb68-1928-4860-8b3e-767f128b23d3"
      },
      "effectivePeriod": {
        "start": "2026-12-06T08:00:00.000+00:00",
        "end": "2026-12-06T08:45:00.000+00:00"
      }
    },
    "request": {
      "method": "PUT",
      "url": "MedicationAdministration/b98d96c7-82a4-452b-ac3d-45a6580275ba"
    }
  }, {
    "fullUrl": "https://madie.cms.gov/Procedure/f9dc93ff-5447-4787-8f83-70cedc90b659",
    "resource": {
      "resourceType": "Procedure",
      "id": "f9dc93ff-5447-4787-8f83-70cedc90b659",
      "status": "completed",
      "code": {
        "coding": [ {
          "system": "http://www.icd10data.com/icd10pcs",
          "code": "3E030FZ"
        }, {
          "system": "http://snomed.info/sct",
          "code": "18946005"
        } ]
      },
      "subject": {
        "reference": "Patient/f7ffeb68-1928-4860-8b3e-767f128b23d3"
      },
      "performedPeriod": {
        "start": "2026-12-04T11:00:00.000+00:00",
        "end": "2026-12-06T11:15:00.000+00:00"
      }
    },
    "request": {
      "method": "PUT",
      "url": "Procedure/f9dc93ff-5447-4787-8f83-70cedc90b659"
    }
  }, {
    "fullUrl": "https://madie.cms.gov/Location/9d640952-f7a2-4bda-b6f5-accc19b8646c",
    "resource": {
      "resourceType": "Location",
      "id": "9d640952-f7a2-4bda-b6f5-accc19b8646c",
      "meta": {
        "profile": [ "http://hl7.org/fhir/us/qicore/StructureDefinition/qicore-location" ]
      },
      "identifier": [ {
        "use": "usual",
        "system": "http://exampleoflocation.com",
        "value": "B1-S.F2"
      } ],
      "name": "Medical Surgical East, first floor",
      "type": [ {
        "coding": [ {
          "system": "https://www.cdc.gov/nhsn/cdaportal/terminology/codesystem/hsloc.html",
          "code": "1025-6",
          "display": "Trauma Critical Care",
          "userSelected": true
        } ]
      } ]
    },
    "request": {
      "method": "PUT",
      "url": "Location/9d640952-f7a2-4bda-b6f5-accc19b8646c"
    }
  }, {
    "fullUrl": "https://madie.cms.gov/Organization/5825c32f-e7b2-4b95-bf4a-0ea9a7240973",
    "resource": {
      "resourceType": "Organization",
      "id": "5825c32f-e7b2-4b95-bf4a-0ea9a7240973",
      "meta": {
        "profile": [ "http://hl7.org/fhir/us/qicore/StructureDefinition/qicore-organization" ]
      },
      "identifier": [ {
        "use": "temp",
        "system": "urn:oid:2.16.840.1.113883.4.4",
        "value": "21-3259825"
      } ],
      "active": true,
      "type": [ {
        "coding": [ {
          "system": "http://terminology.hl7.org/CodeSystem/organization-type",
          "code": "pay",
          "display": "Payer"
        } ]
      } ],
      "name": "Blue Cross Blue Shield of Texas",
      "telecom": [ {
        "system": "phone",
        "value": "(+1) 972-766-6900"
      } ],
      "address": [ {
        "use": "billing",
        "type": "postal",
        "line": [ "P.O. Box 660044" ],
        "city": "Dallas",
        "state": "TX",
        "postalCode": "75266-0044",
        "country": "USA"
      } ]
    },
    "request": {
      "method": "PUT",
      "url": "Organization/5825c32f-e7b2-4b95-bf4a-0ea9a7240973"
    }
  }, {
    "fullUrl": "https://madie.cms.gov/Practitioner/135f3d02-a38c-4ac8-9269-cc16257ef8f5",
    "resource": {
      "resourceType": "Practitioner",
      "id": "135f3d02-a38c-4ac8-9269-cc16257ef8f5",
      "identifier": [ {
        "system": "http://hl7.org/fhir/sid/us-npi",
        "value": "123456"
      } ],
      "name": [ {
        "family": "Evil",
        "prefix": [ "Dr" ]
      } ]
    },
    "request": {
      "method": "PUT",
      "url": "Practitioner/135f3d02-a38c-4ac8-9269-cc16257ef8f5"
    }
  }, {
    "fullUrl": "https://madie.cms.gov/MeasureReport/fe073f17-9487-412f-8b23-b95f0edb87e4",
    "resource": {
      "resourceType": "MeasureReport",
      "id": "fe073f17-9487-412f-8b23-b95f0edb87e4",
      "meta": {
        "profile": [ "http://hl7.org/fhir/us/cqfmeasures/StructureDefinition/test-case-cqfm" ]
      },
      "contained": [ {
        "resourceType": "Parameters",
        "id": "a783d27f-5cb4-4a84-bac6-c845ea14406a-parameters",
        "parameter": [ {
          "name": "subject",
          "valueString": "f7ffeb68-1928-4860-8b3e-767f128b23d3"
        } ]
      } ],
      "extension": [ {
        "url": "http://hl7.org/fhir/StructureDefinition/cqf-inputParameters",
        "valueReference": {
          "reference": "#a783d27f-5cb4-4a84-bac6-c845ea14406a-parameters"
        }
      }, {
        "url": "http://hl7.org/fhir/us/cqfmeasures/StructureDefinition/cqfm-testCaseDescription",
        "valueMarkdown": "meets IPP, meets Denominator, medication administered:Thrombin, Thrombin  concurrent with start of ICU Admission \n"
      } ],
      "modifierExtension": [ {
        "url": "http://hl7.org/fhir/us/cqfmeasures/StructureDefinition/cqfm-isTestCase",
        "valueBoolean": true
      } ],
      "status": "complete",
      "type": "individual",
      "measure": "https://madie.cms.gov/Measure/CMS190VTEProphylaxisICUFHIR",
      "period": {
        "start": "2026-01-01",
        "end": "2026-12-31"
      },
      "group": [ {
        "id": "Group_1",
        "population": [ {
          "id": "InitialPopulation_1",
          "code": {
            "coding": [ {
              "system": "http://terminology.hl7.org/CodeSystem/measure-population",
              "code": "initial-population",
              "display": "Initial Population"
            } ]
          },
          "count": 1
        }, {
          "id": "Denominator_1",
          "code": {
            "coding": [ {
              "system": "http://terminology.hl7.org/CodeSystem/measure-population",
              "code": "denominator",
              "display": "Denominator"
            } ]
          },
          "count": 1
        }, {
          "id": "DenominatorExclusion_1",
          "code": {
            "coding": [ {
              "system": "http://terminology.hl7.org/CodeSystem/measure-population",
              "code": "denominator-exclusion",
              "display": "Denominator Exclusion"
            } ]
          },
          "count": 0
        }, {
          "id": "Numerator_1",
          "code": {
            "coding": [ {
              "system": "http://terminology.hl7.org/CodeSystem/measure-population",
              "code": "numerator",
              "display": "Numerator"
            } ]
          },
          "count": 1
        }, {
          "id": "DenominatorException_1",
          "code": {
            "coding": [ {
              "system": "http://terminology.hl7.org/CodeSystem/measure-population",
              "code": "denominator-exception",
              "display": "Denominator Exception"
            } ]
          },
          "count": 0
        } ],
        "measureScore": {
          "value": 0.0
        }
      } ],
      "evaluatedResource": [ {
        "reference": "Patient/f7ffeb68-1928-4860-8b3e-767f128b23d3"
      }, {
        "reference": "Encounter/22124577-61f0-44a5-bf7b-f93179573180"
      }, {
        "reference": "Coverage/34d66366-4448-4322-9887-82db6caaea23"
      }, {
        "reference": "MedicationAdministration/b98d96c7-82a4-452b-ac3d-45a6580275ba"
      }, {
        "reference": "Procedure/f9dc93ff-5447-4787-8f83-70cedc90b659"
      }, {
        "reference": "Location/9d640952-f7a2-4bda-b6f5-accc19b8646c"
      }, {
        "reference": "Organization/5825c32f-e7b2-4b95-bf4a-0ea9a7240973"
      }, {
        "reference": "Practitioner/135f3d02-a38c-4ac8-9269-cc16257ef8f5"
      } ]
    },
    "request": {
      "method": "PUT",
      "url": "MeasureReport/fe073f17-9487-412f-8b23-b95f0edb87e4"
    }
  } ]
}