{
  "resourceType": "Bundle",
  "id": "632332cf414ba67d4e1d1c2d",
  "type": "transaction",
  "entry": [ {
    "fullUrl": "https://madie.cms.gov/Patient/a867ae5f-879a-4b8b-9215-dc83b55b442f",
    "resource": {
      "resourceType": "Patient",
      "id": "a867ae5f-879a-4b8b-9215-dc83b55b442f",
      "meta": {
        "profile": [ "http://hl7.org/fhir/us/qicore/StructureDefinition/qicore-patient" ]
      },
      "extension": [ {
        "url": "http://hl7.org/fhir/us/core/StructureDefinition/us-core-race",
        "extension": [ {
          "url": "ombCategory",
          "valueCoding": {
            "system": "urn:oid:2.16.840.1.113883.6.238",
            "code": "1002-5",
            "display": "American Indian or Alaska Native",
            "userSelected": true
          }
        }, {
          "url": "text",
          "valueString": "American Indian or Alaska Native"
        } ]
      }, {
        "url": "http://hl7.org/fhir/us/core/StructureDefinition/us-core-ethnicity",
        "extension": [ {
          "url": "ombCategory",
          "valueCoding": {
            "system": "urn:oid:2.16.840.1.113883.6.238",
            "code": "2135-2",
            "display": "Hispanic or Latino",
            "userSelected": true
          }
        }, {
          "url": "text",
          "valueString": "Hispanic or Latino"
        } ]
      } ],
      "identifier": [ {
        "type": {
          "coding": [ {
            "system": "http://terminology.hl7.org/CodeSystem/v2-0203",
            "code": "MR"
          } ]
        },
        "system": "https://bonnie-fhir.healthit.gov/",
        "value": "632332cf414ba67d4e1d1c2d"
      } ],
      "name": [ {
        "family": "DENEXPass",
        "given": [ "OrderForPalliativeCare" ]
      } ],
      "gender": "male",
      "birthDate": "2006-12-31"
    },
    "request": {
      "method": "PUT",
      "url": "Patient/a867ae5f-879a-4b8b-9215-dc83b55b442f"
    }
  }, {
    "fullUrl": "https://madie.cms.gov/Encounter/be7e8542-9c94-4117-ab91-a048cad948b1",
    "resource": {
      "resourceType": "Encounter",
      "id": "be7e8542-9c94-4117-ab91-a048cad948b1",
      "meta": {
        "profile": [ "http://hl7.org/fhir/us/qicore/StructureDefinition/qicore-encounter" ]
      },
      "status": "finished",
      "class": {
        "system": "http://terminology.hl7.org/CodeSystem/v3-ActCode",
        "code": "AMB",
        "display": "ambulatory"
      },
      "type": [ {
        "coding": [ {
          "system": "http://snomed.info/sct",
          "version": "2022-03",
          "code": "183452005",
          "display": "Emergency hospital admission (procedure)",
          "userSelected": true
        } ]
      } ],
      "subject": {
        "reference": "Patient/a867ae5f-879a-4b8b-9215-dc83b55b442f"
      },
      "period": {
        "start": "2026-01-01T08:00:00.000+00:00",
        "end": "2026-01-03T08:15:00.000+00:00"
      }
    },
    "request": {
      "method": "PUT",
      "url": "Encounter/be7e8542-9c94-4117-ab91-a048cad948b1"
    }
  }, {
    "fullUrl": "https://madie.cms.gov/MedicationRequest/53f4bc78-d9ff-4c30-9f44-7abfd68832ab",
    "resource": {
      "resourceType": "MedicationRequest",
      "id": "53f4bc78-d9ff-4c30-9f44-7abfd68832ab",
      "meta": {
        "profile": [ "http://hl7.org/fhir/us/qicore/StructureDefinition/qicore-medicationrequest" ]
      },
      "status": "active",
      "intent": "order",
      "category": [ {
        "coding": [ {
          "system": "http://terminology.hl7.org/CodeSystem/medicationrequest-category",
          "code": "discharge",
          "display": "Discharge",
          "userSelected": true
        } ]
      } ],
      "doNotPerform": false,
      "medicationCodeableConcept": {
        "coding": [ {
          "system": "http://www.nlm.nih.gov/research/umls/rxnorm",
          "code": "1298088",
          "display": "flurazepam hydrochloride 15 MG Oral Capsule",
          "userSelected": true
        } ]
      },
      "subject": {
        "reference": "Patient/a867ae5f-879a-4b8b-9215-dc83b55b442f"
      },
      "authoredOn": "2026-01-03T08:05:00.000+00:00",
      "requester": {
        "reference": "Practitioner/804c98f6-db75-4eea-8127-ae95a8da85a0"
      }
    },
    "request": {
      "method": "PUT",
      "url": "MedicationRequest/53f4bc78-d9ff-4c30-9f44-7abfd68832ab"
    }
  }, {
    "fullUrl": "https://madie.cms.gov/Practitioner/804c98f6-db75-4eea-8127-ae95a8da85a0",
    "resource": {
      "resourceType": "Practitioner",
      "id": "804c98f6-db75-4eea-8127-ae95a8da85a0",
      "meta": {
        "profile": [ "http://hl7.org/fhir/us/qicore/StructureDefinition/qicore-practitioner" ]
      },
      "identifier": [ {
        "system": "http://hl7.org/fhir/sid/us-npi",
        "value": "9999999896"
      } ],
      "active": true,
      "name": [ {
        "family": "Ramires",
        "given": [ "Alma" ],
        "prefix": [ "Dr" ]
      } ],
      "address": [ {
        "use": "home",
        "line": [ "534 Erewhon St" ],
        "city": "Netherville",
        "state": "IN",
        "postalCode": "46131"
      } ],
      "qualification": [ {
        "identifier": [ {
          "system": "http://goodhealth.org/prIdentifier",
          "value": "12345"
        } ],
        "code": {
          "coding": [ {
            "system": "http://terminology.hl7.org/CodeSystem/v2-0360|2.7",
            "code": "BS",
            "display": "Bachelor of Science"
          } ],
          "text": "Bachelor of Science"
        },
        "period": {
          "start": "1995"
        },
        "issuer": {
          "display": "Example University"
        }
      } ]
    },
    "request": {
      "method": "PUT",
      "url": "Practitioner/804c98f6-db75-4eea-8127-ae95a8da85a0"
    }
  }, {
    "fullUrl": "https://madie.cms.gov/ServiceRequest/34a3a7bd-2917-45ea-b038-87c1cb38bc21",
    "resource": {
      "resourceType": "ServiceRequest",
      "id": "34a3a7bd-2917-45ea-b038-87c1cb38bc21",
      "meta": {
        "profile": [ "http://hl7.org/fhir/us/qicore/StructureDefinition/qicore-servicerequest" ]
      },
      "status": "active",
      "intent": "order",
      "code": {
        "coding": [ {
          "system": "http://snomed.info/sct",
          "version": "2022-03",
          "code": "103735009",
          "display": "Palliative care (regime/therapy)",
          "userSelected": true
        } ]
      },
      "subject": {
        "reference": "Patient/a867ae5f-879a-4b8b-9215-dc83b55b442f"
      },
      "authoredOn": "2026-01-03T08:05:00.000+00:00"
    },
    "request": {
      "method": "PUT",
      "url": "ServiceRequest/34a3a7bd-2917-45ea-b038-87c1cb38bc21"
    }
  }, {
    "fullUrl": "https://madie.cms.gov/Coverage/d2b9145b-3780-480f-8a4d-3b0aec28ff42",
    "resource": {
      "resourceType": "Coverage",
      "id": "d2b9145b-3780-480f-8a4d-3b0aec28ff42",
      "meta": {
        "profile": [ "http://hl7.org/fhir/us/qicore/StructureDefinition/qicore-coverage" ]
      },
      "status": "active",
      "subscriberId": "523435",
      "beneficiary": {
        "reference": "Patient/a867ae5f-879a-4b8b-9215-dc83b55b442f"
      },
      "relationship": {
        "coding": [ {
          "system": "http://terminology.hl7.org/CodeSystem/subscriber-relationship",
          "code": "self"
        } ]
      },
      "payor": [ {
        "reference": "Organization/05a5678d-7919-403e-82fd-3daaa07a2645"
      } ]
    },
    "request": {
      "method": "PUT",
      "url": "Coverage/d2b9145b-3780-480f-8a4d-3b0aec28ff42"
    }
  }, {
    "fullUrl": "https://madie.cms.gov/Organization/05a5678d-7919-403e-82fd-3daaa07a2645",
    "resource": {
      "resourceType": "Organization",
      "id": "05a5678d-7919-403e-82fd-3daaa07a2645",
      "meta": {
        "profile": [ "http://hl7.org/fhir/us/qicore/StructureDefinition/qicore-organization" ]
      },
      "identifier": [ {
        "use": "temp",
        "system": "urn:oid:2.16.840.1.113883.4.4",
        "value": "21-3259825"
      } ],
      "active": true,
      "type": [ {
        "coding": [ {
          "system": "http://terminology.hl7.org/CodeSystem/organization-type",
          "code": "pay",
          "display": "Payer"
        } ]
      } ],
      "name": "Blue Cross Blue Shield of Texas",
      "telecom": [ {
        "system": "phone",
        "value": "(+1) 972-766-6900"
      } ],
      "address": [ {
        "use": "billing",
        "type": "postal",
        "line": [ "P.O. Box 660044" ],
        "city": "Dallas",
        "state": "TX",
        "postalCode": "75266-0044",
        "country": "USA"
      } ]
    },
    "request": {
      "method": "PUT",
      "url": "Organization/05a5678d-7919-403e-82fd-3daaa07a2645"
    }
  }, {
    "fullUrl": "https://madie.cms.gov/MeasureReport/54908ed2-cc13-419a-a92a-27c1c9272b3e",
    "resource": {
      "resourceType": "MeasureReport",
      "id": "54908ed2-cc13-419a-a92a-27c1c9272b3e",
      "meta": {
        "profile": [ "http://hl7.org/fhir/us/cqfmeasures/StructureDefinition/test-case-cqfm" ]
      },
      "contained": [ {
        "resourceType": "Parameters",
        "id": "2128f034-8d67-4eb7-b196-7bdc25a088fa-parameters",
        "parameter": [ {
          "name": "subject",
          "valueString": "a867ae5f-879a-4b8b-9215-dc83b55b442f"
        } ]
      } ],
      "extension": [ {
        "url": "http://hl7.org/fhir/StructureDefinition/cqf-inputParameters",
        "valueReference": {
          "reference": "#2128f034-8d67-4eb7-b196-7bdc25a088fa-parameters"
        }
      }, {
        "url": "http://hl7.org/fhir/us/cqfmeasures/StructureDefinition/cqfm-testCaseDescription",
        "valueMarkdown": "Encounter 1/1 - 1/3, age 18 one day before MP, 1 opioid ordered at discharge, has order for palliative care on last day of enc"
      } ],
      "modifierExtension": [ {
        "url": "http://hl7.org/fhir/us/cqfmeasures/StructureDefinition/cqfm-isTestCase",
        "valueBoolean": true
      } ],
      "status": "complete",
      "type": "individual",
      "measure": "https://madie.cms.gov/Measure/CMS506FHIRSafeUseofOpioids",
      "period": {
        "start": "2026-01-01",
        "end": "2026-12-31"
      },
      "group": [ {
        "id": "Group_1",
        "population": [ {
          "id": "InitialPopulation_1",
          "code": {
            "coding": [ {
              "system": "http://terminology.hl7.org/CodeSystem/measure-population",
              "code": "initial-population",
              "display": "Initial Population"
            } ]
          },
          "count": 1
        }, {
          "id": "Denominator_1",
          "code": {
            "coding": [ {
              "system": "http://terminology.hl7.org/CodeSystem/measure-population",
              "code": "denominator",
              "display": "Denominator"
            } ]
          },
          "count": 1
        }, {
          "id": "DenominatorExclusion_1",
          "code": {
            "coding": [ {
              "system": "http://terminology.hl7.org/CodeSystem/measure-population",
              "code": "denominator-exclusion",
              "display": "Denominator Exclusion"
            } ]
          },
          "count": 1
        }, {
          "id": "Numerator_1",
          "code": {
            "coding": [ {
              "system": "http://terminology.hl7.org/CodeSystem/measure-population",
              "code": "numerator",
              "display": "Numerator"
            } ]
          },
          "count": 0
        } ],
        "measureScore": {
          "value": 0.0
        }
      } ],
      "evaluatedResource": [ {
        "reference": "Patient/a867ae5f-879a-4b8b-9215-dc83b55b442f"
      }, {
        "reference": "Encounter/be7e8542-9c94-4117-ab91-a048cad948b1"
      }, {
        "reference": "MedicationRequest/53f4bc78-d9ff-4c30-9f44-7abfd68832ab"
      }, {
        "reference": "Practitioner/804c98f6-db75-4eea-8127-ae95a8da85a0"
      }, {
        "reference": "ServiceRequest/34a3a7bd-2917-45ea-b038-87c1cb38bc21"
      }, {
        "reference": "Coverage/d2b9145b-3780-480f-8a4d-3b0aec28ff42"
      }, {
        "reference": "Organization/05a5678d-7919-403e-82fd-3daaa07a2645"
      } ]
    },
    "request": {
      "method": "PUT",
      "url": "MeasureReport/54908ed2-cc13-419a-a92a-27c1c9272b3e"
    }
  } ]
}