{
  "resourceType": "Bundle",
  "id": "610965b998086b538055c163",
  "type": "transaction",
  "entry": [
    {
      "fullUrl": "https://madie.cms.gov/Patient/ac1c852c-9dfa-4033-85c2-830c450656d2",
      "resource": {
        "resourceType": "Patient",
        "id": "ac1c852c-9dfa-4033-85c2-830c450656d2",
        "meta": {
          "profile": [
            "http://hl7.org/fhir/us/qicore/StructureDefinition/qicore-patient"
          ]
        },
        "text": {
          "status": "generated",
          "div": "<div xmlns=\"http://www.w3.org/1999/xhtml\"><div class=\"hapiHeaderText\">HIVDxJan2duringMP <b>DENEXFAIL </b></div><table class=\"hapiPropertyTable\"><tbody><tr><td>Date of birth</td><td><span>04 January 1992</span></td></tr></tbody></table></div>"
        },
        "extension": [
          {
            "url": "http://hl7.org/fhir/us/core/StructureDefinition/us-core-race",
            "extension": [
              {
                "url": "ombCategory",
                "valueCoding": {
                  "system": "urn:oid:2.16.840.1.113883.6.238",
                  "code": "2054-5",
                  "display": "Black or African American",
                  "userSelected": true
                }
              },
              {
                "url": "text",
                "valueString": "Black or African American"
              }
            ]
          },
          {
            "url": "http://hl7.org/fhir/us/core/StructureDefinition/us-core-ethnicity",
            "extension": [
              {
                "url": "ombCategory",
                "valueCoding": {
                  "system": "urn:oid:2.16.840.1.113883.6.238",
                  "code": "2186-5",
                  "display": "Not Hispanic or Latino",
                  "userSelected": true
                }
              },
              {
                "url": "text",
                "valueString": "Not Hispanic or Latino"
              }
            ]
          }
        ],
        "identifier": [
          {
            "type": {
              "coding": [
                {
                  "system": "http://terminology.hl7.org/CodeSystem/v2-0203",
                  "code": "MR"
                }
              ]
            },
            "system": "https://bonnie-fhir.healthit.gov/",
            "value": "610965b998086b538055c163"
          }
        ],
        "active": true,
        "name": [
          {
            "use": "usual",
            "family": "DENEXFail",
            "given": [
              "HIVDxJan2duringMP"
            ]
          }
        ],
        "gender": "female",
        "birthDate": "1993-01-04"
      },
      "request": {
        "method": "PUT",
        "url": "Patient/ac1c852c-9dfa-4033-85c2-830c450656d2"
      }
    },
    {
      "fullUrl": "https://madie.cms.gov/Condition/f082f391-3c44-4da7-908e-6b0e2408bea8",
      "resource": {
        "resourceType": "Condition",
        "id": "f082f391-3c44-4da7-908e-6b0e2408bea8",
        "meta": {
          "profile": [
            "http://hl7.org/fhir/us/qicore/StructureDefinition/qicore-condition"
          ]
        },
        "clinicalStatus": {
          "coding": [
            {
              "system": "http://terminology.hl7.org/CodeSystem/condition-clinical",
              "code": "active",
              "display": "Active",
              "userSelected": true
            }
          ]
        },
        "category": [
          {
            "coding": [
              {
                "system": "http://terminology.hl7.org/CodeSystem/condition-category",
                "code": "encounter-diagnosis",
                "display": "Encounter Diagnosis",
                "userSelected": true
              }
            ]
          }
        ],
        "code": {
          "coding": [
            {
              "system": "http://hl7.org/fhir/sid/icd-9-cm",
              "code": "042"
            }
          ]
        },
        "subject": {
          "reference": "Patient/ac1c852c-9dfa-4033-85c2-830c450656d2"
        },
        "onsetDateTime": "2025-01-02T08:00:00.000+00:00"
      },
      "request": {
        "method": "PUT",
        "url": "Condition/f082f391-3c44-4da7-908e-6b0e2408bea8"
      }
    },
    {
      "fullUrl": "https://madie.cms.gov/Encounter/c974e436-07ed-4cbe-917b-47f4aa187ede",
      "resource": {
        "resourceType": "Encounter",
        "id": "c974e436-07ed-4cbe-917b-47f4aa187ede",
        "meta": {
          "profile": [
            "http://hl7.org/fhir/us/qicore/StructureDefinition/qicore-encounter"
          ]
        },
        "status": "finished",
        "class": {
          "system": "http://terminology.hl7.org/CodeSystem/v3-ActCode",
          "code": "AMB",
          "display": "ambulatory",
          "userSelected": true
        },
        "type": [
          {
            "coding": [
              {
                "system": "http://www.ama-assn.org/go/cpt",
                "code": "99393"
              }
            ]
          }
        ],
        "subject": {
          "reference": "Patient/ac1c852c-9dfa-4033-85c2-830c450656d2"
        },
        "period": {
          "start": "2025-04-15T09:00:00.000+00:00",
          "end": "2025-04-15T10:15:00.000+00:00"
        }
      },
      "request": {
        "method": "PUT",
        "url": "Encounter/c974e436-07ed-4cbe-917b-47f4aa187ede"
      }
    },
    {
      "fullUrl": "https://madie.cms.gov/MeasureReport/d954cf62-b8d3-4acf-a3c3-9bf7072564f7",
      "resource": {
        "resourceType": "MeasureReport",
        "id": "d954cf62-b8d3-4acf-a3c3-9bf7072564f7",
        "meta": {
          "profile": [
            "http://hl7.org/fhir/us/cqfmeasures/StructureDefinition/test-case-cqfm"
          ]
        },
        "contained": [
          {
            "resourceType": "Parameters",
            "id": "b9369392-f91e-46d4-b9a1-021eb58baedc-parameters",
            "parameter": [
              {
                "name": "subject",
                "valueString": "ac1c852c-9dfa-4033-85c2-830c450656d2"
              }
            ]
          }
        ],
        "extension": [
          {
            "url": "http://hl7.org/fhir/us/cqfmeasures/StructureDefinition/cqfm-inputParameters",
            "valueReference": {
              "reference": "#b9369392-f91e-46d4-b9a1-021eb58baedc-parameters"
            }
          },
          {
            "url": "http://hl7.org/fhir/us/cqfmeasures/StructureDefinition/cqfm-testCaseDescription",
            "valueMarkdown": "Patient is 31 with a diagnosis of HIV on January 2nd of MP."
          }
        ],
        "modifierExtension": [
          {
            "url": "http://hl7.org/fhir/us/cqfmeasures/StructureDefinition/cqfm-isTestCase",
            "valueBoolean": true
          }
        ],
        "status": "complete",
        "type": "individual",
        "measure": "https://madie.cms.gov/Measure/HIVScreeningFHIR",
        "period": {
          "start": "2025-01-01",
          "end": "2025-12-31"
        },
        "group": [
          {
            "population": [
              {
                "code": {
                  "coding": [
                    {
                      "system": "http://terminology.hl7.org/CodeSystem/measure-population",
                      "code": "initial-population",
                      "display": "Initial Population"
                    }
                  ]
                },
                "count": 1
              },
              {
                "code": {
                  "coding": [
                    {
                      "system": "http://terminology.hl7.org/CodeSystem/measure-population",
                      "code": "denominator",
                      "display": "Denominator"
                    }
                  ]
                },
                "count": 1
              },
              {
                "code": {
                  "coding": [
                    {
                      "system": "http://terminology.hl7.org/CodeSystem/measure-population",
                      "code": "denominator-exclusion",
                      "display": "Denominator Exclusion"
                    }
                  ]
                },
                "count": 0
              },
              {
                "code": {
                  "coding": [
                    {
                      "system": "http://terminology.hl7.org/CodeSystem/measure-population",
                      "code": "numerator",
                      "display": "Numerator"
                    }
                  ]
                },
                "count": 0
              }
            ]
          }
        ],
        "evaluatedResource": [
          {
            "reference": "Patient/ac1c852c-9dfa-4033-85c2-830c450656d2"
          },
          {
            "reference": "Condition/f082f391-3c44-4da7-908e-6b0e2408bea8"
          },
          {
            "reference": "Encounter/c974e436-07ed-4cbe-917b-47f4aa187ede"
          }
        ]
      },
      "request": {
        "method": "PUT",
        "url": "MeasureReport/d954cf62-b8d3-4acf-a3c3-9bf7072564f7"
      }
    }
  ]
}