{
  "resourceType": "Bundle",
  "id": "6356dca654e383debade75aa",
  "type": "transaction",
  "entry": [ {
    "fullUrl": "https://madie.cms.gov/Patient/84272be6-42eb-4320-8924-d718c9bd2754",
    "resource": {
      "resourceType": "Patient",
      "id": "84272be6-42eb-4320-8924-d718c9bd2754",
      "meta": {
        "profile": [ "http://hl7.org/fhir/us/qicore/StructureDefinition/qicore-patient" ]
      },
      "text": {
        "status": "generated",
        "div": "<div xmlns=\"http://www.w3.org/1999/xhtml\"><div class=\"hapiHeaderText\">EncDxEQICD10SepsisPOAisYes<b>NUMERFail</b></div><table class=\"hapiPropertyTable\"><tbody><tr><td>Date of birth</td><td><span>01 February 2004</span></td></tr></tbody></table></div>"
      },
      "extension": [ {
        "url": "http://hl7.org/fhir/us/core/StructureDefinition/us-core-race",
        "extension": [ {
          "url": "ombCategory",
          "valueCoding": {
            "system": "urn:oid:2.16.840.1.113883.6.238",
            "code": "1002-5",
            "display": "American Indian or Alaska Native",
            "userSelected": true
          }
        }, {
          "url": "text",
          "valueString": "American Indian or Alaska Native"
        } ]
      }, {
        "url": "http://hl7.org/fhir/us/core/StructureDefinition/us-core-ethnicity",
        "extension": [ {
          "url": "ombCategory",
          "valueCoding": {
            "system": "urn:oid:2.16.840.1.113883.6.238",
            "code": "2135-2",
            "display": "Hispanic or Latino",
            "userSelected": true
          }
        }, {
          "url": "text",
          "valueString": "Hispanic or Latino"
        } ]
      } ],
      "identifier": [ {
        "type": {
          "coding": [ {
            "system": "http://terminology.hl7.org/CodeSystem/v2-0203",
            "code": "MR"
          } ]
        },
        "system": "https://bonnie-fhir.healthit.gov/",
        "value": "6356dca654e383debade75aa"
      } ],
      "active": true,
      "name": [ {
        "use": "usual",
        "family": "NUMERFail",
        "given": [ "EncDxEQICD10SepsisPOAisYes" ]
      } ],
      "gender": "female",
      "birthDate": "2005-02-01"
    },
    "request": {
      "method": "PUT",
      "url": "Patient/84272be6-42eb-4320-8924-d718c9bd2754"
    }
  }, {
    "fullUrl": "https://madie.cms.gov/Observation/fe1f8ab5-6966-4de5-b043-02d15df146cf",
    "resource": {
      "resourceType": "Observation",
      "id": "fe1f8ab5-6966-4de5-b043-02d15df146cf",
      "meta": {
        "profile": [ "http://hl7.org/fhir/us/qicore/StructureDefinition/qicore-simple-observation" ]
      },
      "status": "final",
      "category": [ {
        "coding": [ {
          "system": "http://terminology.hl7.org/CodeSystem/observation-category",
          "code": "exam",
          "display": "exam",
          "userSelected": true
        } ]
      } ],
      "code": {
        "coding": [ {
          "system": "http://loinc.org",
          "code": "93857-1"
        } ]
      },
      "subject": {
        "reference": "Patient/84272be6-42eb-4320-8924-d718c9bd2754"
      },
      "effectiveDateTime": "2026-02-01T08:00:00Z",
      "performer": [ {
        "reference": "Organization/example1",
        "display": "Hendricks Country Hospital"
      } ],
      "valueDateTime": "2026-02-01T08:00:00Z"
    },
    "request": {
      "method": "PUT",
      "url": "Observation/fe1f8ab5-6966-4de5-b043-02d15df146cf"
    }
  }, {
    "fullUrl": "https://madie.cms.gov/Observation/fe60c917-f49f-41a6-80c0-37c515b0b23e",
    "resource": {
      "resourceType": "Observation",
      "id": "fe60c917-f49f-41a6-80c0-37c515b0b23e",
      "meta": {
        "profile": [ "http://hl7.org/fhir/us/qicore/StructureDefinition/qicore-simple-observation" ]
      },
      "status": "final",
      "category": [ {
        "coding": [ {
          "system": "http://terminology.hl7.org/CodeSystem/observation-category",
          "code": "exam",
          "display": "exam",
          "userSelected": true
        } ]
      } ],
      "code": {
        "coding": [ {
          "system": "http://loinc.org",
          "code": "11884-4"
        } ]
      },
      "subject": {
        "reference": "Patient/84272be6-42eb-4320-8924-d718c9bd2754"
      },
      "effectiveDateTime": "2026-02-01T08:00:00Z",
      "performer": [ {
        "reference": "Organization/example1",
        "display": "Hendricks Country Hospital"
      } ],
      "valueQuantity": {
        "value": 21,
        "system": "http://unitsofmeasure.org",
        "code": "wk"
      }
    },
    "request": {
      "method": "PUT",
      "url": "Observation/fe60c917-f49f-41a6-80c0-37c515b0b23e"
    }
  }, {
    "fullUrl": "https://madie.cms.gov/Condition/9a26c23f-2135-4423-bd7c-4508ab7580d7",
    "resource": {
      "resourceType": "Condition",
      "id": "9a26c23f-2135-4423-bd7c-4508ab7580d7",
      "meta": {
        "profile": [ "http://hl7.org/fhir/us/qicore/StructureDefinition/qicore-condition-encounter-diagnosis" ]
      },
      "category": [ {
        "coding": [ {
          "system": "http://terminology.hl7.org/CodeSystem/condition-category",
          "code": "encounter-diagnosis",
          "display": "Encounter Diagnosis"
        } ]
      } ],
      "code": {
        "coding": [ {
          "system": "http://hl7.org/fhir/sid/icd-10-cm",
          "version": "2023",
          "code": "Z3A.21",
          "display": "21 weeks gestation",
          "userSelected": true
        } ]
      },
      "subject": {
        "reference": "Patient/84272be6-42eb-4320-8924-d718c9bd2754"
      },
      "recordedDate": "2026-10-26T08:00:00Z"
    },
    "request": {
      "method": "PUT",
      "url": "Condition/9a26c23f-2135-4423-bd7c-4508ab7580d7"
    }
  }, {
    "fullUrl": "https://madie.cms.gov/Encounter/4e7e945d-2155-48b6-acaa-741e55401ac1",
    "resource": {
      "resourceType": "Encounter",
      "id": "4e7e945d-2155-48b6-acaa-741e55401ac1",
      "meta": {
        "profile": [ "http://hl7.org/fhir/us/qicore/StructureDefinition/qicore-encounter" ]
      },
      "status": "finished",
      "class": {
        "system": "http://terminology.hl7.org/CodeSystem/v3-ActCode",
        "code": "IMP",
        "display": "inpatient encounter"
      },
      "type": [ {
        "coding": [ {
          "system": "http://snomed.info/sct",
          "code": "183452005"
        } ]
      } ],
      "subject": {
        "reference": "Patient/84272be6-42eb-4320-8924-d718c9bd2754"
      },
      "period": {
        "start": "2026-02-01T08:00:00Z",
        "end": "2026-02-05T08:15:00Z"
      },
      "reasonReference": [ {
        "reference": "Condition/9a26c23f-2135-4423-bd7c-4508ab7580d7"
      } ]
    },
    "request": {
      "method": "PUT",
      "url": "Encounter/4e7e945d-2155-48b6-acaa-741e55401ac1"
    }
  }, {
    "fullUrl": "https://madie.cms.gov/Procedure/939501b0-3b30-4825-b155-1080a19c343e",
    "resource": {
      "resourceType": "Procedure",
      "id": "939501b0-3b30-4825-b155-1080a19c343e",
      "meta": {
        "profile": [ "http://hl7.org/fhir/us/qicore/StructureDefinition/qicore-procedure" ]
      },
      "extension": [ {
        "url": "http://hl7.org/fhir/us/qicore/StructureDefinition/qicore-recorded",
        "valueDateTime": "2014-04-05T13:35:00Z"
      } ],
      "status": "completed",
      "code": {
        "coding": [ {
          "system": "http://snomed.info/sct",
          "code": "10745001"
        } ]
      },
      "subject": {
        "reference": "Patient/84272be6-42eb-4320-8924-d718c9bd2754"
      },
      "performedPeriod": {
        "start": "2026-02-01T08:00:00Z",
        "end": "2026-02-05T08:15:00Z"
      }
    },
    "request": {
      "method": "PUT",
      "url": "Procedure/939501b0-3b30-4825-b155-1080a19c343e"
    }
  }, {
    "fullUrl": "https://madie.cms.gov/Condition/5f60c89a-5804-403d-a164-8a11b4f1d354",
    "resource": {
      "resourceType": "Condition",
      "id": "5f60c89a-5804-403d-a164-8a11b4f1d354",
      "meta": {
        "profile": [ "http://hl7.org/fhir/us/qicore/StructureDefinition/qicore-condition" ]
      },
      "category": [ {
        "coding": [ {
          "system": "http://terminology.hl7.org/CodeSystem/condition-category",
          "code": "encounter-diagnosis",
          "display": "Encounter Diagnosis"
        } ]
      } ],
      "code": {
        "coding": [ {
          "system": "http://hl7.org/fhir/sid/icd-10-cm",
          "version": "2023",
          "code": "A32.7",
          "display": "Listerial sepsis",
          "userSelected": true
        } ]
      },
      "subject": {
        "reference": "Patient/84272be6-42eb-4320-8924-d718c9bd2754"
      },
      "recordedDate": "2026-10-26T08:00:00Z"
    },
    "request": {
      "method": "PUT",
      "url": "Condition/5f60c89a-5804-403d-a164-8a11b4f1d354"
    }
  }, {
    "fullUrl": "https://madie.cms.gov/Claim/b71eae69-0f44-41e5-8c65-9db11326ea31",
    "resource": {
      "resourceType": "Claim",
      "id": "b71eae69-0f44-41e5-8c65-9db11326ea31",
      "meta": {
        "profile": [ "http://hl7.org/fhir/us/qicore/StructureDefinition/qicore-claim" ]
      },
      "status": "active",
      "type": {
        "coding": [ {
          "system": "http://terminology.hl7.org/CodeSystem/claim-type",
          "code": "institutional",
          "display": "Institutional"
        } ]
      },
      "use": "claim",
      "patient": {
        "reference": "Patient/84272be6-42eb-4320-8924-d718c9bd2754"
      },
      "created": "2026-11-08",
      "provider": {
        "reference": "Practitioner/70c1846b-a394-405a-bcbe-b2b73256adee"
      },
      "priority": {
        "coding": [ {
          "system": "http://terminology.hl7.org/CodeSystem/processpriority",
          "code": "normal"
        } ]
      },
      "diagnosis": [ {
        "sequence": 1,
        "diagnosisCodeableConcept": {
          "coding": [ {
            "system": "http://hl7.org/fhir/sid/icd-10-cm",
            "code": "J45.21",
            "display": "Mild intermittent asthma with (acute) exacerbation"
          } ]
        },
        "type": [ {
          "coding": [ {
            "system": "http://terminology.hl7.org/CodeSystem/ex-diagnosistype",
            "code": "discharge",
            "display": "Discharge Diagnosis"
          } ]
        } ],
        "onAdmission": {
          "coding": [ {
            "system": "https://www.cms.gov/Medicare/Medicare-Fee-for-Service-Payment/HospitalAcqCond/Coding",
            "code": "Y"
          } ]
        }
      }, {
        "sequence": 2,
        "diagnosisCodeableConcept": {
          "coding": [ {
            "system": "http://hl7.org/fhir/sid/icd-10-cm",
            "code": "A32.7",
            "display": "Listerial sepsis"
          } ]
        },
        "type": [ {
          "coding": [ {
            "system": "http://terminology.hl7.org/CodeSystem/ex-diagnosistype",
            "code": "discharge",
            "display": "Discharge Diagnosis"
          } ]
        } ],
        "onAdmission": {
          "coding": [ {
            "system": "https://www.cms.gov/Medicare/Medicare-Fee-for-Service-Payment/HospitalAcqCond/Coding",
            "code": "Y"
          } ]
        }
      } ],
      "insurance": [ {
        "sequence": 1,
        "focal": true,
        "coverage": {
          "reference": "Coverage/Coverage-1"
        }
      } ],
      "item": [ {
        "sequence": 1,
        "careTeamSequence": [ 1 ],
        "diagnosisSequence": [ 1 ],
        "productOrService": {
          "coding": [ {
            "system": "http://www.ama-assn.org/go/cpt",
            "code": "99232"
          } ]
        },
        "encounter": [ {
          "reference": "Encounter/4e7e945d-2155-48b6-acaa-741e55401ac1"
        } ]
      }, {
        "sequence": 2,
        "careTeamSequence": [ 1 ],
        "diagnosisSequence": [ 2 ],
        "productOrService": {
          "coding": [ {
            "system": "http://www.ama-assn.org/go/cpt",
            "code": "99233"
          } ]
        },
        "encounter": [ {
          "reference": "Encounter/4e7e945d-2155-48b6-acaa-741e55401ac1"
        } ]
      } ],
      "total": {
        "value": 3800,
        "currency": "USD"
      }
    },
    "request": {
      "method": "PUT",
      "url": "Claim/b71eae69-0f44-41e5-8c65-9db11326ea31"
    }
  }, {
    "fullUrl": "https://madie.cms.gov/Coverage/90413dce-893b-4e84-ac51-6dfb65a2c3d1",
    "resource": {
      "resourceType": "Coverage",
      "id": "90413dce-893b-4e84-ac51-6dfb65a2c3d1",
      "meta": {
        "profile": [ "http://hl7.org/fhir/us/qicore/StructureDefinition/qicore-coverage" ]
      },
      "status": "active",
      "subscriberId": "523435",
      "beneficiary": {
        "reference": "Patient/84272be6-42eb-4320-8924-d718c9bd2754"
      },
      "relationship": {
        "coding": [ {
          "system": "http://terminology.hl7.org/CodeSystem/subscriber-relationship",
          "code": "self"
        } ]
      },
      "payor": [ {
        "reference": "Organization/21c431e7-aaac-4c66-a8db-5087a1a00023"
      } ]
    },
    "request": {
      "method": "PUT",
      "url": "Coverage/90413dce-893b-4e84-ac51-6dfb65a2c3d1"
    }
  }, {
    "fullUrl": "https://madie.cms.gov/Organization/21c431e7-aaac-4c66-a8db-5087a1a00023",
    "resource": {
      "resourceType": "Organization",
      "id": "21c431e7-aaac-4c66-a8db-5087a1a00023",
      "meta": {
        "profile": [ "http://hl7.org/fhir/us/qicore/StructureDefinition/qicore-organization" ]
      },
      "identifier": [ {
        "use": "temp",
        "system": "urn:oid:2.16.840.1.113883.4.4",
        "value": "21-3259825"
      } ],
      "active": true,
      "type": [ {
        "coding": [ {
          "system": "http://terminology.hl7.org/CodeSystem/organization-type",
          "code": "pay",
          "display": "Payer"
        } ]
      } ],
      "name": "Blue Cross Blue Shield of Texas",
      "telecom": [ {
        "system": "phone",
        "value": "(+1) 972-766-6900"
      } ],
      "address": [ {
        "use": "billing",
        "type": "postal",
        "line": [ "P.O. Box 660044" ],
        "city": "Dallas",
        "state": "TX",
        "postalCode": "75266-0044",
        "country": "USA"
      } ]
    },
    "request": {
      "method": "PUT",
      "url": "Organization/21c431e7-aaac-4c66-a8db-5087a1a00023"
    }
  }, {
    "fullUrl": "https://madie.cms.gov/Practitioner/70c1846b-a394-405a-bcbe-b2b73256adee",
    "resource": {
      "resourceType": "Practitioner",
      "id": "70c1846b-a394-405a-bcbe-b2b73256adee",
      "meta": {
        "profile": [ "http://hl7.org/fhir/us/qicore/StructureDefinition/qicore-practitioner" ]
      },
      "identifier": [ {
        "system": "http://hl7.org/fhir/sid/us-npi",
        "value": "9999999896"
      } ],
      "name": [ {
        "family": "Evil",
        "prefix": [ "Dr" ]
      } ]
    },
    "request": {
      "method": "PUT",
      "url": "Practitioner/70c1846b-a394-405a-bcbe-b2b73256adee"
    }
  }, {
    "fullUrl": "https://madie.cms.gov/MeasureReport/d6163db2-4e80-4543-9512-0247399a58d5",
    "resource": {
      "resourceType": "MeasureReport",
      "id": "d6163db2-4e80-4543-9512-0247399a58d5",
      "meta": {
        "profile": [ "http://hl7.org/fhir/us/cqfmeasures/StructureDefinition/test-case-cqfm" ]
      },
      "contained": [ {
        "resourceType": "Parameters",
        "id": "1a4ea2b9-fef0-42b0-b7a2-beccd1a7e859-parameters",
        "parameter": [ {
          "name": "subject",
          "valueString": "84272be6-42eb-4320-8924-d718c9bd2754"
        } ]
      } ],
      "extension": [ {
        "url": "http://hl7.org/fhir/StructureDefinition/cqf-inputParameters",
        "valueReference": {
          "reference": "#1a4ea2b9-fef0-42b0-b7a2-beccd1a7e859-parameters"
        }
      }, {
        "url": "http://hl7.org/fhir/us/cqfmeasures/StructureDefinition/cqfm-testCaseDescription",
        "valueMarkdown": "EncDx= sepsis (ICD10 coded).  POA is Yes.  \n"
      } ],
      "modifierExtension": [ {
        "url": "http://hl7.org/fhir/us/cqfmeasures/StructureDefinition/cqfm-isTestCase",
        "valueBoolean": true
      } ],
      "status": "complete",
      "type": "individual",
      "measure": "https://madie.cms.gov/Measure/CMS1028FHIRPCSevereOBComps",
      "period": {
        "start": "2026-01-01",
        "end": "2026-12-31"
      },
      "group": [ {
        "id": "Group_1",
        "population": [ {
          "id": "InitialPopulation_1",
          "code": {
            "coding": [ {
              "system": "http://terminology.hl7.org/CodeSystem/measure-population",
              "code": "initial-population",
              "display": "Initial Population"
            } ]
          },
          "count": 1
        }, {
          "id": "Denominator_1",
          "code": {
            "coding": [ {
              "system": "http://terminology.hl7.org/CodeSystem/measure-population",
              "code": "denominator",
              "display": "Denominator"
            } ]
          },
          "count": 1
        }, {
          "id": "Numerator_1",
          "code": {
            "coding": [ {
              "system": "http://terminology.hl7.org/CodeSystem/measure-population",
              "code": "numerator",
              "display": "Numerator"
            } ]
          },
          "count": 0
        }, {
          "id": "NumeratorExclusion_1",
          "code": {
            "coding": [ {
              "system": "http://terminology.hl7.org/CodeSystem/measure-population",
              "code": "numerator-exclusion",
              "display": "Numerator Exclusion"
            } ]
          },
          "count": 0
        } ],
        "measureScore": {
          "value": 0.0
        }
      }, {
        "id": "Group_2",
        "population": [ {
          "id": "InitialPopulation_2",
          "code": {
            "coding": [ {
              "system": "http://terminology.hl7.org/CodeSystem/measure-population",
              "code": "initial-population",
              "display": "Initial Population"
            } ]
          },
          "count": 1
        }, {
          "id": "Denominator_2",
          "code": {
            "coding": [ {
              "system": "http://terminology.hl7.org/CodeSystem/measure-population",
              "code": "denominator",
              "display": "Denominator"
            } ]
          },
          "count": 1
        }, {
          "id": "Numerator_2",
          "code": {
            "coding": [ {
              "system": "http://terminology.hl7.org/CodeSystem/measure-population",
              "code": "numerator",
              "display": "Numerator"
            } ]
          },
          "count": 0
        }, {
          "id": "NumeratorExclusion_2",
          "code": {
            "coding": [ {
              "system": "http://terminology.hl7.org/CodeSystem/measure-population",
              "code": "numerator-exclusion",
              "display": "Numerator Exclusion"
            } ]
          },
          "count": 0
        } ],
        "measureScore": {
          "value": 0.0
        }
      } ],
      "evaluatedResource": [ {
        "reference": "Patient/84272be6-42eb-4320-8924-d718c9bd2754"
      }, {
        "reference": "Observation/fe1f8ab5-6966-4de5-b043-02d15df146cf"
      }, {
        "reference": "Observation/fe60c917-f49f-41a6-80c0-37c515b0b23e"
      }, {
        "reference": "Condition/9a26c23f-2135-4423-bd7c-4508ab7580d7"
      }, {
        "reference": "Encounter/4e7e945d-2155-48b6-acaa-741e55401ac1"
      }, {
        "reference": "Procedure/939501b0-3b30-4825-b155-1080a19c343e"
      }, {
        "reference": "Condition/5f60c89a-5804-403d-a164-8a11b4f1d354"
      }, {
        "reference": "Claim/b71eae69-0f44-41e5-8c65-9db11326ea31"
      }, {
        "reference": "Coverage/90413dce-893b-4e84-ac51-6dfb65a2c3d1"
      }, {
        "reference": "Organization/21c431e7-aaac-4c66-a8db-5087a1a00023"
      }, {
        "reference": "Practitioner/70c1846b-a394-405a-bcbe-b2b73256adee"
      } ]
    },
    "request": {
      "method": "PUT",
      "url": "MeasureReport/d6163db2-4e80-4543-9512-0247399a58d5"
    }
  } ]
}