{
    "entry": [
        {
            "request": {
                "method": "PUT",
                "url": "Patient/d1fc6b6d-025e-446b-a941-e62a76217e28"
            },
            "resource": {
                "identifier": [{
                    "system": "https://bonnie-fhir.healthit.gov/",
                    "type": {"coding": [{
                        "system": "http://terminology.hl7.org/CodeSystem/v2-0203",
                        "code": "MR"
                    }]},
                    "value": "62f686a3bc6a474306a95b45"
                }],
                "extension": [
                    {
                        "extension": [
                            {
                                "valueCoding": {
                                    "system": "urn:oid:2.16.840.1.113883.6.238",
                                    "code": "1002-5",
                                    "userSelected": true,
                                    "display": "American Indian or Alaska Native"
                                },
                                "url": "ombCategory"
                            },
                            {
                                "valueString": "American Indian or Alaska Native",
                                "url": "text"
                            }
                        ],
                        "url": "http://hl7.org/fhir/us/core/StructureDefinition/us-core-race"
                    },
                    {
                        "extension": [
                            {
                                "valueCoding": {
                                    "system": "urn:oid:2.16.840.1.113883.6.238",
                                    "code": "2135-2",
                                    "userSelected": true,
                                    "display": "Hispanic or Latino"
                                },
                                "url": "ombCategory"
                            },
                            {
                                "valueString": "Hispanic or Latino",
                                "url": "text"
                            }
                        ],
                        "url": "http://hl7.org/fhir/us/core/StructureDefinition/us-core-ethnicity"
                    }
                ],
                "gender": "male",
                "meta": {"profile": ["http://hl7.org/fhir/us/qicore/StructureDefinition/qicore-patient"]},
                "name": [{
                    "given": ["PosAdultDepScreenandFU3DAfterEndOfEnc"],
                    "family": "NUMERFail"
                }],
                "id": "d1fc6b6d-025e-446b-a941-e62a76217e28",
                "birthDate": "2008-01-01",
                "resourceType": "Patient"
            },
            "fullUrl": "https://madie.cms.gov/Patient/d1fc6b6d-025e-446b-a941-e62a76217e28"
        },
        {
            "request": {
                "method": "PUT",
                "url": "Encounter/4582eac4-59cf-4474-a801-09f9bff1df36"
            },
            "resource": {
                "period": {
                    "start": "2026-06-21T08:00:00.000+00:00",
                    "end": "2026-06-21T08:15:00.000+00:00"
                },
                "meta": {"profile": ["http://hl7.org/fhir/us/qicore/StructureDefinition/qicore-encounter"]},
                "subject": {"reference": "Patient/d1fc6b6d-025e-446b-a941-e62a76217e28"},
                "id": "4582eac4-59cf-4474-a801-09f9bff1df36",
                "type": [{"coding": [{
                    "system": "http://snomed.info/sct",
                    "code": "10197000",
                    "userSelected": true,
                    "display": "Psychiatric interview and evaluation (procedure)",
                    "version": "2021-09"
                }]}],
                "class": {
                    "system": "http://terminology.hl7.org/CodeSystem/v3-ActCode",
                    "code": "AMB",
                    "display": "ambulatory"
                },
                "resourceType": "Encounter",
                "status": "finished"
            },
            "fullUrl": "https://madie.cms.gov/Encounter/4582eac4-59cf-4474-a801-09f9bff1df36"
        },
        {
            "request": {
                "method": "PUT",
                "url": "Observation/4734ac80-b410-4c3d-a066-acb5473e43ef"
            },
            "resource": {
                "valueCodeableConcept": {"coding": [{
                    "system": "http://snomed.info/sct",
                    "code": "428181000124104",
                    "userSelected": true,
                    "display": "Depression screening positive (finding)"
                }]},
                "code": {"coding": [{
                    "system": "http://loinc.org",
                    "code": "73832-8",
                    "userSelected": true,
                    "display": "Adult depression screening assessment"
                }]},
                "effectiveDateTime": "2026-06-15T08:00:00.000+00:00",
                "meta": {"profile": ["http://hl7.org/fhir/us/qicore/StructureDefinition/qicore-observation-screening-assessment"]},
                "subject": {"reference": "Patient/d1fc6b6d-025e-446b-a941-e62a76217e28"},
                "id": "4734ac80-b410-4c3d-a066-acb5473e43ef",
                "category": [{"coding": [{
                    "system": "http://terminology.hl7.org/CodeSystem/observation-category",
                    "code": "procedure",
                    "display": "Procedure"
                }]}],
                "resourceType": "Observation",
                "status": "final"
            },
            "fullUrl": "https://madie.cms.gov/Observation/4734ac80-b410-4c3d-a066-acb5473e43ef"
        },
        {
            "request": {
                "method": "PUT",
                "url": "MedicationRequest/42dc66c2-1a6f-46dc-a1c2-6bfc1df27474"
            },
            "resource": {
                "requester": {"reference": "Practitioner/Practitioner-123456"},
                "authoredOn": "2025-06-24T08:00:00.000+00:00",
                "meta": {"profile": ["http://hl7.org/fhir/us/qicore/StructureDefinition/qicore-medicationrequest"]},
                "subject": {"reference": "Patient/d1fc6b6d-025e-446b-a941-e62a76217e28"},
                "id": "42dc66c2-1a6f-46dc-a1c2-6bfc1df27474",
                "doNotPerform": false,
                "medicationCodeableConcept": {"coding": [{
                    "system": "http://www.nlm.nih.gov/research/umls/rxnorm",
                    "code": "1000048",
                    "userSelected": true,
                    "display": "doxepin hydrochloride 10 MG Oral Capsule"
                }]},
                "intent": "order",
                "resourceType": "MedicationRequest",
                "status": "active"
            },
            "fullUrl": "https://madie.cms.gov/MedicationRequest/42dc66c2-1a6f-46dc-a1c2-6bfc1df27474"
        },
        {
            "request": {
                "method": "PUT",
                "url": "Coverage/71aab464-53ef-4788-b63b-2c9fbc81c0c7"
            },
            "resource": {
                "payor": [{"reference": "Organization/a8269403-2e80-4f1e-9375-adccc43249f5"}],
                "beneficiary": {"reference": "Patient/d1fc6b6d-025e-446b-a941-e62a76217e28"},
                "meta": {"profile": ["http://hl7.org/fhir/us/qicore/StructureDefinition/qicore-coverage"]},
                "id": "71aab464-53ef-4788-b63b-2c9fbc81c0c7",
                "resourceType": "Coverage",
                "status": "active"
            },
            "fullUrl": "https://madie.cms.gov/Coverage/71aab464-53ef-4788-b63b-2c9fbc81c0c7"
        },
        {
            "request": {
                "method": "PUT",
                "url": "Organization/a8269403-2e80-4f1e-9375-adccc43249f5"
            },
            "resource": {
                "identifier": [{
                    "system": "urn:oid:2.16.840.1.113883.4.4",
                    "use": "temp",
                    "value": "21-3259825"
                }],
                "address": [{
                    "country": "USA",
                    "city": "Dallas",
                    "use": "billing",
                    "line": ["P.O. Box 660044"],
                    "postalCode": "75266-0044",
                    "state": "TX",
                    "type": "postal"
                }],
                "meta": {"profile": ["http://hl7.org/fhir/us/qicore/StructureDefinition/qicore-organization"]},
                "name": "Blue Cross Blue Shield of Texas",
                "active": true,
                "telecom": [{
                    "system": "phone",
                    "value": "(+1) 972-766-6900"
                }],
                "id": "a8269403-2e80-4f1e-9375-adccc43249f5",
                "type": [{"coding": [{
                    "system": "http://terminology.hl7.org/CodeSystem/organization-type",
                    "code": "pay",
                    "display": "Payer"
                }]}],
                "resourceType": "Organization"
            },
            "fullUrl": "https://madie.cms.gov/Organization/a8269403-2e80-4f1e-9375-adccc43249f5"
        },
        {
            "request": {
                "method": "PUT",
                "url": "Practitioner/17a00a81-71f2-4c30-816e-c03304324362"
            },
            "resource": {
                "identifier": [{
                    "system": "http://hl7.org/fhir/sid/us-npi",
                    "value": "123456"
                }],
                "meta": {"profile": ["http://hl7.org/fhir/us/qicore/StructureDefinition/qicore-practitioner"]},
                "name": [{
                    "prefix": ["Dr"],
                    "family": "Evil"
                }],
                "id": "17a00a81-71f2-4c30-816e-c03304324362",
                "resourceType": "Practitioner"
            },
            "fullUrl": "https://madie.cms.gov/Practitioner/17a00a81-71f2-4c30-816e-c03304324362"
        },
        {
            "request": {
                "method": "PUT",
                "url": "MeasureReport/3e9082ae-0aea-430a-a2bc-189551e3b6e0"
            },
            "resource": {
                "contained": [{
                    "parameter": [{
                        "valueString": "d1fc6b6d-025e-446b-a941-e62a76217e28",
                        "name": "subject"
                    }],
                    "id": "0f0cffce-89a1-4b32-91e1-09e6ee5806da-parameters",
                    "resourceType": "Parameters"
                }],
                "extension": [
                    {
                        "valueReference": {"reference": "#0f0cffce-89a1-4b32-91e1-09e6ee5806da-parameters"},
                        "url": "http://hl7.org/fhir/StructureDefinition/cqf-inputParameters"
                    },
                    {
                        "valueMarkdown": "Adult with previous positive adult depression screening and medication request follow up 3 days after end of encounter",
                        "url": "http://hl7.org/fhir/us/cqfmeasures/StructureDefinition/cqfm-testCaseDescription"
                    }
                ],
                "period": {
                    "start": "2026-01-01",
                    "end": "2026-12-31"
                },
                "measure": "https://madie.cms.gov/Measure/CMS2FHIRPCSDepressionScreenAndFollowUp",
                "meta": {"profile": ["http://hl7.org/fhir/us/cqfmeasures/StructureDefinition/test-case-cqfm"]},
                "modifierExtension": [{
                    "valueBoolean": true,
                    "url": "http://hl7.org/fhir/us/cqfmeasures/StructureDefinition/cqfm-isTestCase"
                }],
                "id": "3e9082ae-0aea-430a-a2bc-189551e3b6e0",
                "evaluatedResource": [
                    {"reference": "Patient/d1fc6b6d-025e-446b-a941-e62a76217e28"},
                    {"reference": "Encounter/4582eac4-59cf-4474-a801-09f9bff1df36"},
                    {"reference": "Observation/4734ac80-b410-4c3d-a066-acb5473e43ef"},
                    {"reference": "MedicationRequest/42dc66c2-1a6f-46dc-a1c2-6bfc1df27474"},
                    {"reference": "Coverage/71aab464-53ef-4788-b63b-2c9fbc81c0c7"},
                    {"reference": "Organization/a8269403-2e80-4f1e-9375-adccc43249f5"},
                    {"reference": "Practitioner/17a00a81-71f2-4c30-816e-c03304324362"}
                ],
                "type": "individual",
                "resourceType": "MeasureReport",
                "status": "complete",
                "group": [{
                    "id": "Group_1",
                    "measureScore": {"value": 1},
                    "population": [
                        {
                            "code": {"coding": [{
                                "system": "http://terminology.hl7.org/CodeSystem/measure-population",
                                "code": "initial-population",
                                "display": "Initial Population"
                            }]},
                            "count": 1,
                            "id": "InitialPopulation_1"
                        },
                        {
                            "code": {"coding": [{
                                "system": "http://terminology.hl7.org/CodeSystem/measure-population",
                                "code": "denominator",
                                "display": "Denominator"
                            }]},
                            "count": 1,
                            "id": "Denominator_1"
                        },
                        {
                            "code": {"coding": [{
                                "system": "http://terminology.hl7.org/CodeSystem/measure-population",
                                "code": "denominator-exclusion",
                                "display": "Denominator Exclusion"
                            }]},
                            "count": 0,
                            "id": "DenominatorExclusion_1"
                        },
                        {
                            "code": {"coding": [{
                                "system": "http://terminology.hl7.org/CodeSystem/measure-population",
                                "code": "numerator",
                                "display": "Numerator"
                            }]},
                            "count": 0,
                            "id": "Numerator_1"
                        },
                        {
                            "code": {"coding": [{
                                "system": "http://terminology.hl7.org/CodeSystem/measure-population",
                                "code": "denominator-exception",
                                "display": "Denominator Exception"
                            }]},
                            "count": 0,
                            "id": "DenominatorException_1"
                        }
                    ]
                }]
            },
            "fullUrl": "https://madie.cms.gov/MeasureReport/3e9082ae-0aea-430a-a2bc-189551e3b6e0"
        }
    ],
    "id": "62f686a3bc6a474306a95b45",
    "type": "transaction",
    "resourceType": "Bundle"
}