{
  "resourceType": "Bundle",
  "id": "62f686a3bc6a474306a95b45",
  "type": "transaction",
  "entry": [ {
    "fullUrl": "https://madie.cms.gov/Patient/d1fc6b6d-025e-446b-a941-e62a76217e28",
    "resource": {
      "resourceType": "Patient",
      "id": "d1fc6b6d-025e-446b-a941-e62a76217e28",
      "meta": {
        "profile": [ "http://hl7.org/fhir/us/qicore/StructureDefinition/qicore-patient" ]
      },
      "extension": [ {
        "url": "http://hl7.org/fhir/us/core/StructureDefinition/us-core-race",
        "extension": [ {
          "url": "ombCategory",
          "valueCoding": {
            "system": "urn:oid:2.16.840.1.113883.6.238",
            "code": "1002-5",
            "display": "American Indian or Alaska Native",
            "userSelected": true
          }
        }, {
          "url": "text",
          "valueString": "American Indian or Alaska Native"
        } ]
      }, {
        "url": "http://hl7.org/fhir/us/core/StructureDefinition/us-core-ethnicity",
        "extension": [ {
          "url": "ombCategory",
          "valueCoding": {
            "system": "urn:oid:2.16.840.1.113883.6.238",
            "code": "2135-2",
            "display": "Hispanic or Latino",
            "userSelected": true
          }
        }, {
          "url": "text",
          "valueString": "Hispanic or Latino"
        } ]
      } ],
      "identifier": [ {
        "type": {
          "coding": [ {
            "system": "http://terminology.hl7.org/CodeSystem/v2-0203",
            "code": "MR"
          } ]
        },
        "system": "https://bonnie-fhir.healthit.gov/",
        "value": "62f686a3bc6a474306a95b45"
      } ],
      "name": [ {
        "family": "NUMERFail",
        "given": [ "PosAdultDepScreenandFU3DAfterEndOfEnc" ]
      } ],
      "gender": "male",
      "birthDate": "2008-01-01"
    },
    "request": {
      "method": "PUT",
      "url": "Patient/d1fc6b6d-025e-446b-a941-e62a76217e28"
    }
  }, {
    "fullUrl": "https://madie.cms.gov/Encounter/cd61aee1-0e7c-4827-be4c-cdb62ee2a482",
    "resource": {
      "resourceType": "Encounter",
      "id": "cd61aee1-0e7c-4827-be4c-cdb62ee2a482",
      "meta": {
        "profile": [ "http://hl7.org/fhir/us/qicore/StructureDefinition/qicore-encounter" ]
      },
      "status": "finished",
      "class": {
        "system": "http://terminology.hl7.org/CodeSystem/v3-ActCode",
        "code": "AMB",
        "display": "ambulatory"
      },
      "type": [ {
        "coding": [ {
          "system": "http://snomed.info/sct",
          "code": "10197000",
          "display": "Psychiatric interview and evaluation (procedure)",
          "userSelected": true
        } ]
      } ],
      "subject": {
        "reference": "Patient/d1fc6b6d-025e-446b-a941-e62a76217e28"
      },
      "period": {
        "start": "2026-06-21T08:00:00.000+00:00",
        "end": "2026-06-21T08:15:00.000+00:00"
      }
    },
    "request": {
      "method": "PUT",
      "url": "Encounter/cd61aee1-0e7c-4827-be4c-cdb62ee2a482"
    }
  }, {
    "fullUrl": "https://madie.cms.gov/Observation/bea994bd-4d85-45df-af96-e05231cbc33d",
    "resource": {
      "resourceType": "Observation",
      "id": "bea994bd-4d85-45df-af96-e05231cbc33d",
      "meta": {
        "profile": [ "http://hl7.org/fhir/us/qicore/StructureDefinition/qicore-observation-screening-assessment" ]
      },
      "status": "final",
      "category": [ {
        "coding": [ {
          "system": "http://terminology.hl7.org/CodeSystem/observation-category",
          "code": "procedure",
          "display": "Procedure"
        } ]
      }, {
        "coding": [ {
          "system": "http://terminology.hl7.org/CodeSystem/observation-category",
          "code": "survey",
          "display": "Survey"
        } ]
      } ],
      "code": {
        "coding": [ {
          "system": "http://loinc.org",
          "code": "73832-8",
          "display": "Adult depression screening assessment",
          "userSelected": true
        } ]
      },
      "subject": {
        "reference": "Patient/d1fc6b6d-025e-446b-a941-e62a76217e28"
      },
      "effectiveDateTime": "2026-06-15T08:00:00.000+00:00",
      "valueCodeableConcept": {
        "coding": [ {
          "system": "http://snomed.info/sct",
          "code": "428181000124104",
          "display": "Depression screening positive (finding)",
          "userSelected": true
        } ]
      }
    },
    "request": {
      "method": "PUT",
      "url": "Observation/bea994bd-4d85-45df-af96-e05231cbc33d"
    }
  }, {
    "fullUrl": "https://madie.cms.gov/MedicationRequest/06f0e307-5ca5-42ef-9168-5741441c8b7c",
    "resource": {
      "resourceType": "MedicationRequest",
      "id": "06f0e307-5ca5-42ef-9168-5741441c8b7c",
      "meta": {
        "profile": [ "http://hl7.org/fhir/us/qicore/StructureDefinition/qicore-medicationrequest" ]
      },
      "status": "active",
      "intent": "order",
      "doNotPerform": false,
      "medicationCodeableConcept": {
        "coding": [ {
          "system": "http://www.nlm.nih.gov/research/umls/rxnorm",
          "code": "1000048",
          "display": "doxepin 10 MG Oral Capsule",
          "userSelected": true
        } ]
      },
      "subject": {
        "reference": "Patient/d1fc6b6d-025e-446b-a941-e62a76217e28"
      },
      "authoredOn": "2025-06-24T08:00:00.000+00:00",
      "requester": {
        "reference": "Practitioner/123456"
      }
    },
    "request": {
      "method": "PUT",
      "url": "MedicationRequest/06f0e307-5ca5-42ef-9168-5741441c8b7c"
    }
  }, {
    "fullUrl": "https://madie.cms.gov/Coverage/a1c74b86-3cf5-4cb4-8c73-0ba7a8264067",
    "resource": {
      "resourceType": "Coverage",
      "id": "a1c74b86-3cf5-4cb4-8c73-0ba7a8264067",
      "meta": {
        "profile": [ "http://hl7.org/fhir/us/qicore/StructureDefinition/qicore-coverage" ]
      },
      "status": "active",
      "subscriberId": "123456789",
      "beneficiary": {
        "reference": "Patient/d1fc6b6d-025e-446b-a941-e62a76217e28"
      },
      "relationship": {
        "coding": [ {
          "system": "http://terminology.hl7.org/CodeSystem/subscriber-relationship",
          "code": "self",
          "display": "Self",
          "userSelected": true
        } ]
      },
      "payor": [ {
        "reference": "Organization/12f6fbc5-6608-4ddc-bef4-f31e0e209627"
      } ]
    },
    "request": {
      "method": "PUT",
      "url": "Coverage/a1c74b86-3cf5-4cb4-8c73-0ba7a8264067"
    }
  }, {
    "fullUrl": "https://madie.cms.gov/Organization/12f6fbc5-6608-4ddc-bef4-f31e0e209627",
    "resource": {
      "resourceType": "Organization",
      "id": "12f6fbc5-6608-4ddc-bef4-f31e0e209627",
      "meta": {
        "profile": [ "http://hl7.org/fhir/us/qicore/StructureDefinition/qicore-organization" ]
      },
      "identifier": [ {
        "use": "temp",
        "system": "urn:oid:2.16.840.1.113883.4.4",
        "value": "21-3259825"
      } ],
      "active": true,
      "type": [ {
        "coding": [ {
          "system": "http://terminology.hl7.org/CodeSystem/organization-type",
          "code": "pay",
          "display": "Payer"
        } ]
      } ],
      "name": "Blue Cross Blue Shield of Texas",
      "telecom": [ {
        "system": "phone",
        "value": "(+1) 972-766-6900"
      } ],
      "address": [ {
        "use": "billing",
        "type": "postal",
        "line": [ "P.O. Box 660044" ],
        "city": "Dallas",
        "state": "TX",
        "postalCode": "75266-0044",
        "country": "USA"
      } ]
    },
    "request": {
      "method": "PUT",
      "url": "Organization/12f6fbc5-6608-4ddc-bef4-f31e0e209627"
    }
  }, {
    "fullUrl": "https://madie.cms.gov/Practitioner/ccf9cc6a-5e21-4ad0-b326-9c6f6ef55e91",
    "resource": {
      "resourceType": "Practitioner",
      "id": "ccf9cc6a-5e21-4ad0-b326-9c6f6ef55e91",
      "meta": {
        "profile": [ "http://hl7.org/fhir/us/qicore/StructureDefinition/qicore-practitioner" ]
      },
      "identifier": [ {
        "system": "http://hl7.org/fhir/sid/us-npi",
        "value": "1234567893"
      } ],
      "name": [ {
        "family": "Evil",
        "prefix": [ "Dr" ]
      } ]
    },
    "request": {
      "method": "PUT",
      "url": "Practitioner/ccf9cc6a-5e21-4ad0-b326-9c6f6ef55e91"
    }
  }, {
    "fullUrl": "https://madie.cms.gov/MeasureReport/7ba081c0-5d1b-4e2a-8a2e-7f45e6d11140",
    "resource": {
      "resourceType": "MeasureReport",
      "id": "7ba081c0-5d1b-4e2a-8a2e-7f45e6d11140",
      "meta": {
        "profile": [ "http://hl7.org/fhir/us/cqfmeasures/StructureDefinition/test-case-cqfm" ]
      },
      "contained": [ {
        "resourceType": "Parameters",
        "id": "d4b6c07d-970b-401f-9141-9ee53cb9e599-parameters",
        "parameter": [ {
          "name": "subject",
          "valueString": "d1fc6b6d-025e-446b-a941-e62a76217e28"
        } ]
      } ],
      "extension": [ {
        "url": "http://hl7.org/fhir/StructureDefinition/cqf-inputParameters",
        "valueReference": {
          "reference": "#d4b6c07d-970b-401f-9141-9ee53cb9e599-parameters"
        }
      }, {
        "url": "http://hl7.org/fhir/us/cqfmeasures/StructureDefinition/cqfm-testCaseDescription",
        "valueMarkdown": "Adult with previous positive adult depression screening and medication request follow up 3 days after end of encounter"
      } ],
      "modifierExtension": [ {
        "url": "http://hl7.org/fhir/us/cqfmeasures/StructureDefinition/cqfm-isTestCase",
        "valueBoolean": true
      } ],
      "status": "complete",
      "type": "individual",
      "measure": "https://madie.cms.gov/Measure/CMS2FHIRPCSDepressionScreenAndFollowUp",
      "period": {
        "start": "2026-01-01",
        "end": "2026-12-31"
      },
      "group": [ {
        "id": "Group_1",
        "population": [ {
          "id": "InitialPopulation_1",
          "code": {
            "coding": [ {
              "system": "http://terminology.hl7.org/CodeSystem/measure-population",
              "code": "initial-population",
              "display": "Initial Population"
            } ]
          },
          "count": 1
        }, {
          "id": "Denominator_1",
          "code": {
            "coding": [ {
              "system": "http://terminology.hl7.org/CodeSystem/measure-population",
              "code": "denominator",
              "display": "Denominator"
            } ]
          },
          "count": 1
        }, {
          "id": "DenominatorExclusion_1",
          "code": {
            "coding": [ {
              "system": "http://terminology.hl7.org/CodeSystem/measure-population",
              "code": "denominator-exclusion",
              "display": "Denominator Exclusion"
            } ]
          },
          "count": 0
        }, {
          "id": "Numerator_1",
          "code": {
            "coding": [ {
              "system": "http://terminology.hl7.org/CodeSystem/measure-population",
              "code": "numerator",
              "display": "Numerator"
            } ]
          },
          "count": 0
        }, {
          "id": "DenominatorException_1",
          "code": {
            "coding": [ {
              "system": "http://terminology.hl7.org/CodeSystem/measure-population",
              "code": "denominator-exception",
              "display": "Denominator Exception"
            } ]
          },
          "count": 0
        } ],
        "measureScore": {
          "value": 1.0
        }
      } ],
      "evaluatedResource": [ {
        "reference": "Patient/d1fc6b6d-025e-446b-a941-e62a76217e28"
      }, {
        "reference": "Encounter/cd61aee1-0e7c-4827-be4c-cdb62ee2a482"
      }, {
        "reference": "Observation/bea994bd-4d85-45df-af96-e05231cbc33d"
      }, {
        "reference": "MedicationRequest/06f0e307-5ca5-42ef-9168-5741441c8b7c"
      }, {
        "reference": "Coverage/a1c74b86-3cf5-4cb4-8c73-0ba7a8264067"
      }, {
        "reference": "Organization/12f6fbc5-6608-4ddc-bef4-f31e0e209627"
      }, {
        "reference": "Practitioner/ccf9cc6a-5e21-4ad0-b326-9c6f6ef55e91"
      } ]
    },
    "request": {
      "method": "PUT",
      "url": "MeasureReport/7ba081c0-5d1b-4e2a-8a2e-7f45e6d11140"
    }
  } ]
}