{
  "resourceType": "Bundle",
  "id": "61168b8798086b77ef9c5ecc",
  "type": "transaction",
  "entry": [ {
    "fullUrl": "https://madie.cms.gov/Patient/2dd72971-2da8-4365-8147-106425cf4a6f",
    "resource": {
      "resourceType": "Patient",
      "id": "2dd72971-2da8-4365-8147-106425cf4a6f",
      "meta": {
        "profile": [ "http://hl7.org/fhir/us/qicore/StructureDefinition/qicore-patient" ]
      },
      "extension": [ {
        "url": "http://hl7.org/fhir/us/core/StructureDefinition/us-core-race",
        "extension": [ {
          "url": "ombCategory",
          "valueCoding": {
            "system": "urn:oid:2.16.840.1.113883.6.238",
            "code": "2106-3",
            "display": "White",
            "userSelected": true
          }
        }, {
          "url": "text",
          "valueString": "White"
        } ]
      }, {
        "url": "http://hl7.org/fhir/us/core/StructureDefinition/us-core-ethnicity",
        "extension": [ {
          "url": "ombCategory",
          "valueCoding": {
            "system": "urn:oid:2.16.840.1.113883.6.238",
            "code": "2186-5",
            "display": "Not Hispanic or Latino",
            "userSelected": true
          }
        }, {
          "url": "text",
          "valueString": "Not Hispanic or Latino"
        } ]
      } ],
      "identifier": [ {
        "type": {
          "coding": [ {
            "system": "http://terminology.hl7.org/CodeSystem/v2-0203",
            "code": "MR"
          } ]
        },
        "system": "https://myGoodHealthCare.com/",
        "value": "61168b8798086b77ef9c5ecc"
      } ],
      "active": true,
      "name": [ {
        "use": "usual",
        "family": "DENEXCEPPass",
        "given": [ "CommEdemaAbsentNotDoneMR" ]
      } ],
      "gender": "male",
      "birthDate": "1973-08-29"
    },
    "request": {
      "method": "PUT",
      "url": "Patient/2dd72971-2da8-4365-8147-106425cf4a6f"
    }
  }, {
    "fullUrl": "https://madie.cms.gov/Communication/5bc6182b-79f7-4910-a4e2-c2e63164ffe3",
    "resource": {
      "resourceType": "Communication",
      "id": "5bc6182b-79f7-4910-a4e2-c2e63164ffe3",
      "meta": {
        "profile": [ "http://hl7.org/fhir/us/qicore/StructureDefinition/qicore-communication" ]
      },
      "extension": [ {
        "url": "http://hl7.org/fhir/us/qicore/StructureDefinition/qicore-recorded",
        "valueDateTime": "2014-07-02T15:00:00.000+00:00"
      } ],
      "modifierExtension": [ {
        "url": "http://hl7.org/fhir/us/qicore/StructureDefinition/qicore-notDone",
        "valueBoolean": true
      }, {
        "url": "http://hl7.org/fhir/us/qicore/StructureDefinition/qicore-notDone",
        "valueBoolean": true
      } ],
      "status": "completed",
      "statusReason": {
        "coding": [ {
          "system": "http://snomed.info/sct",
          "version": "http://snomed.info/sct/731000124108/version/202303",
          "code": "183932001",
          "display": "Procedure contraindicated (situation)",
          "userSelected": true
        } ]
      },
      "subject": {
        "reference": "Patient/2dd72971-2da8-4365-8147-106425cf4a6f"
      },
      "sent": "2026-07-09T08:00:00.000+00:00",
      "reasonCode": [ {
        "coding": [ {
          "system": "http://snomed.info/sct",
          "version": "http://snomed.info/sct/731000124108/version/202303",
          "code": "428341000124108"
        } ]
      } ]
    },
    "request": {
      "method": "PUT",
      "url": "Communication/5bc6182b-79f7-4910-a4e2-c2e63164ffe3"
    }
  }, {
    "fullUrl": "https://madie.cms.gov/Condition/ba617e93-c565-4f4b-adc0-ea2ce14732aa",
    "resource": {
      "resourceType": "Condition",
      "id": "ba617e93-c565-4f4b-adc0-ea2ce14732aa",
      "meta": {
        "profile": [ "http://hl7.org/fhir/us/qicore/StructureDefinition/qicore-condition-problems-health-concerns" ]
      },
      "clinicalStatus": {
        "coding": [ {
          "system": "http://terminology.hl7.org/CodeSystem/condition-clinical",
          "code": "active",
          "display": "active",
          "userSelected": true
        } ]
      },
      "category": [ {
        "coding": [ {
          "system": "http://terminology.hl7.org/CodeSystem/condition-category",
          "code": "problem-list-item",
          "display": "Problem List Item"
        } ]
      } ],
      "code": {
        "coding": [ {
          "system": "http://snomed.info/sct",
          "version": "http://snomed.info/sct/731000124108/version/202303",
          "code": "193349004"
        }, {
          "system": "http://hl7.org/fhir/sid/icd-10-cm",
          "code": "E08.311"
        } ]
      },
      "subject": {
        "reference": "Patient/2dd72971-2da8-4365-8147-106425cf4a6f"
      },
      "onsetDateTime": "2014-07-01T15:00:00.000+00:00"
    },
    "request": {
      "method": "PUT",
      "url": "Condition/ba617e93-c565-4f4b-adc0-ea2ce14732aa"
    }
  }, {
    "fullUrl": "https://madie.cms.gov/Observation/f1bcb1dc-e5da-49ea-a0b7-7dad63a261a1",
    "resource": {
      "resourceType": "Observation",
      "id": "f1bcb1dc-e5da-49ea-a0b7-7dad63a261a1",
      "meta": {
        "profile": [ "http://hl7.org/fhir/us/qicore/StructureDefinition/qicore-observation-clinical-result" ]
      },
      "status": "final",
      "category": [ {
        "coding": [ {
          "system": "http://terminology.hl7.org/CodeSystem/observation-category",
          "code": "vital-signs",
          "display": "Vital Signs"
        } ]
      } ],
      "code": {
        "coding": [ {
          "system": "http://loinc.org",
          "version": "2.73",
          "code": "32451-7"
        } ]
      },
      "subject": {
        "reference": "Patient/2dd72971-2da8-4365-8147-106425cf4a6f"
      },
      "effectiveDateTime": "2026-07-09T08:00:00.000+00:00",
      "valueBoolean": true
    },
    "request": {
      "method": "PUT",
      "url": "Observation/f1bcb1dc-e5da-49ea-a0b7-7dad63a261a1"
    }
  }, {
    "fullUrl": "https://madie.cms.gov/Encounter/b6972756-5e7b-42d3-ae5b-666b85ef2c14",
    "resource": {
      "resourceType": "Encounter",
      "id": "b6972756-5e7b-42d3-ae5b-666b85ef2c14",
      "meta": {
        "profile": [ "http://hl7.org/fhir/us/qicore/StructureDefinition/qicore-encounter" ]
      },
      "status": "finished",
      "class": {
        "system": "http://terminology.hl7.org/CodeSystem/v3-ActCode",
        "code": "AMB"
      },
      "type": [ {
        "coding": [ {
          "system": "http://www.ama-assn.org/go/cpt",
          "version": "2023",
          "code": "99205"
        } ]
      } ],
      "subject": {
        "reference": "Patient/2dd72971-2da8-4365-8147-106425cf4a6f"
      },
      "period": {
        "start": "2026-07-02T15:00:00.000+00:00",
        "end": "2026-08-02T16:00:00.000+00:00"
      }
    },
    "request": {
      "method": "PUT",
      "url": "Encounter/b6972756-5e7b-42d3-ae5b-666b85ef2c14"
    }
  }, {
    "fullUrl": "https://madie.cms.gov/Communication/a0e6adf9-e5f2-4c15-b9ad-9b1190819fbf",
    "resource": {
      "resourceType": "Communication",
      "id": "a0e6adf9-e5f2-4c15-b9ad-9b1190819fbf",
      "meta": {
        "profile": [ "http://hl7.org/fhir/us/qicore/StructureDefinition/qicore-communicationnotdone" ]
      },
      "status": "not-done",
      "statusReason": {
        "coding": [ {
          "system": "http://snomed.info/sct",
          "code": "1296859006",
          "display": "Procedure declined (situation)",
          "userSelected": true
        } ]
      },
      "category": [ {
        "coding": [ {
          "system": "http://snomed.info/sct",
          "code": "312912001",
          "display": "Macular edema due to diabetes mellitus (disorder)",
          "userSelected": true
        } ]
      } ],
      "sent": "2026-07-09T08:00:00.000+00:00"
    },
    "request": {
      "method": "PUT",
      "url": "Communication/a0e6adf9-e5f2-4c15-b9ad-9b1190819fbf"
    }
  }, {
    "fullUrl": "https://madie.cms.gov/MeasureReport/7a516ca5-1290-48f0-b5c4-2e9ec71f03b2",
    "resource": {
      "resourceType": "MeasureReport",
      "id": "7a516ca5-1290-48f0-b5c4-2e9ec71f03b2",
      "meta": {
        "profile": [ "http://hl7.org/fhir/us/cqfmeasures/StructureDefinition/test-case-cqfm" ]
      },
      "contained": [ {
        "resourceType": "Parameters",
        "id": "0f47c0bf-ed48-4547-8ff2-47112ce2b4b8-parameters",
        "parameter": [ {
          "name": "subject",
          "valueString": "2dd72971-2da8-4365-8147-106425cf4a6f"
        } ]
      } ],
      "extension": [ {
        "url": "http://hl7.org/fhir/StructureDefinition/cqf-inputParameters",
        "valueReference": {
          "reference": "#0f47c0bf-ed48-4547-8ff2-47112ce2b4b8-parameters"
        }
      }, {
        "url": "http://hl7.org/fhir/us/cqfmeasures/StructureDefinition/cqfm-testCaseDescription",
        "valueMarkdown": "Communication status not done for Macular edema absent (situation) due to Patient Reason"
      } ],
      "modifierExtension": [ {
        "url": "http://hl7.org/fhir/us/cqfmeasures/StructureDefinition/cqfm-isTestCase",
        "valueBoolean": true
      } ],
      "status": "complete",
      "type": "individual",
      "measure": "https://madie.cms.gov/Measure/CMS142FHIRDRCommunicationWithPhysicianManagingDiabetes",
      "period": {
        "start": "2026-01-01",
        "end": "2026-12-31"
      },
      "group": [ {
        "id": "Group_1",
        "population": [ {
          "id": "InitialPopulation_1",
          "code": {
            "coding": [ {
              "system": "http://terminology.hl7.org/CodeSystem/measure-population",
              "code": "initial-population",
              "display": "Initial Population"
            } ]
          },
          "count": 1
        }, {
          "id": "Denominator_1",
          "code": {
            "coding": [ {
              "system": "http://terminology.hl7.org/CodeSystem/measure-population",
              "code": "denominator",
              "display": "Denominator"
            } ]
          },
          "count": 1
        }, {
          "id": "Numerator_1",
          "code": {
            "coding": [ {
              "system": "http://terminology.hl7.org/CodeSystem/measure-population",
              "code": "numerator",
              "display": "Numerator"
            } ]
          },
          "count": 0
        }, {
          "id": "DenominatorException_1",
          "code": {
            "coding": [ {
              "system": "http://terminology.hl7.org/CodeSystem/measure-population",
              "code": "denominator-exception",
              "display": "Denominator Exception"
            } ]
          },
          "count": 1
        } ],
        "measureScore": {
          "value": 1.0
        }
      } ],
      "evaluatedResource": [ {
        "reference": "Patient/2dd72971-2da8-4365-8147-106425cf4a6f"
      }, {
        "reference": "Communication/5bc6182b-79f7-4910-a4e2-c2e63164ffe3"
      }, {
        "reference": "Condition/ba617e93-c565-4f4b-adc0-ea2ce14732aa"
      }, {
        "reference": "Observation/f1bcb1dc-e5da-49ea-a0b7-7dad63a261a1"
      }, {
        "reference": "Encounter/b6972756-5e7b-42d3-ae5b-666b85ef2c14"
      }, {
        "reference": "Communication/a0e6adf9-e5f2-4c15-b9ad-9b1190819fbf"
      } ]
    },
    "request": {
      "method": "PUT",
      "url": "MeasureReport/7a516ca5-1290-48f0-b5c4-2e9ec71f03b2"
    }
  } ]
}