{
  "resourceType": "Bundle",
  "id": "63487c2f0968f80122540191",
  "type": "transaction",
  "entry": [ {
    "fullUrl": "https://madie.cms.gov/Patient/ecf5375c-912c-483c-9c38-72d85df27f12",
    "resource": {
      "resourceType": "Patient",
      "id": "ecf5375c-912c-483c-9c38-72d85df27f12",
      "meta": {
        "profile": [ "http://hl7.org/fhir/us/qicore/StructureDefinition/qicore-patient" ]
      },
      "text": {
        "status": "generated",
        "div": "<div xmlns=\"http://www.w3.org/1999/xhtml\"><div class=\"hapiHeaderText\">AssessG1RelDateTime1MinB4Deliv<b>DENPASS</b></div><table class=\"hapiPropertyTable\"><tbody><tr><td>Identifier</td><td>922db984f9db53e157b9b9a69ed9222997d6b9bae6d41f21e52e3ca568fdb9dd</td></tr><tr><td>Date of birth</td><td><span>14 February 1985</span></td></tr></tbody></table></div>"
      },
      "extension": [ {
        "url": "http://hl7.org/fhir/us/core/StructureDefinition/us-core-race",
        "extension": [ {
          "url": "ombCategory",
          "valueCoding": {
            "system": "urn:oid:2.16.840.1.113883.6.238",
            "code": "1002-5",
            "display": "American Indian or Alaska Native",
            "userSelected": true
          }
        }, {
          "url": "text",
          "valueString": "American Indian or Alaska Native"
        } ]
      }, {
        "url": "http://hl7.org/fhir/us/core/StructureDefinition/us-core-ethnicity",
        "extension": [ {
          "url": "ombCategory",
          "valueCoding": {
            "system": "urn:oid:2.16.840.1.113883.6.238",
            "code": "2135-2",
            "display": "Hispanic or Latino",
            "userSelected": true
          }
        }, {
          "url": "text",
          "valueString": "Hispanic or Latino"
        } ]
      } ],
      "identifier": [ {
        "type": {
          "coding": [ {
            "system": "http://terminology.hl7.org/CodeSystem/v2-0203",
            "code": "MR"
          } ]
        },
        "system": "https://bonnie-fhir.healthit.gov/",
        "value": "63487c2f0968f80122540191"
      } ],
      "active": true,
      "name": [ {
        "use": "usual",
        "family": "DENPass",
        "given": [ "AssessG1RelDateTime1MinB4Deliv" ]
      } ],
      "gender": "female",
      "birthDate": "1998-02-14"
    },
    "request": {
      "method": "PUT",
      "url": "Patient/ecf5375c-912c-483c-9c38-72d85df27f12"
    }
  }, {
    "fullUrl": "https://madie.cms.gov/Observation/42decf5e-224f-4ec9-992b-6fc896cbeccd",
    "resource": {
      "resourceType": "Observation",
      "id": "42decf5e-224f-4ec9-992b-6fc896cbeccd",
      "meta": {
        "profile": [ "http://hl7.org/fhir/us/qicore/StructureDefinition/qicore-simple-observation" ]
      },
      "status": "final",
      "category": [ {
        "coding": [ {
          "system": "http://terminology.hl7.org/CodeSystem/observation-category",
          "code": "exam",
          "display": "exam",
          "userSelected": true
        } ]
      } ],
      "code": {
        "coding": [ {
          "system": "http://loinc.org",
          "code": "11884-4"
        } ]
      },
      "subject": {
        "reference": "Patient/ecf5375c-912c-483c-9c38-72d85df27f12"
      },
      "effectiveDateTime": "2026-06-08T09:15:00.000+00:00",
      "performer": [ {
        "reference": "Organization/example1",
        "display": "Hendricks Country Hospital"
      } ],
      "valueQuantity": {
        "value": 38,
        "system": "http://unitsofmeasure.org",
        "code": "wk"
      }
    },
    "request": {
      "method": "PUT",
      "url": "Observation/42decf5e-224f-4ec9-992b-6fc896cbeccd"
    }
  }, {
    "fullUrl": "https://madie.cms.gov/Observation/239ed332-350b-45ed-832d-07490652f348",
    "resource": {
      "resourceType": "Observation",
      "id": "239ed332-350b-45ed-832d-07490652f348",
      "meta": {
        "profile": [ "http://hl7.org/fhir/us/qicore/StructureDefinition/qicore-simple-observation" ]
      },
      "status": "final",
      "category": [ {
        "coding": [ {
          "system": "http://terminology.hl7.org/CodeSystem/observation-category",
          "code": "exam",
          "display": "exam",
          "userSelected": true
        } ]
      } ],
      "code": {
        "coding": [ {
          "system": "http://loinc.org",
          "code": "11996-6"
        } ]
      },
      "subject": {
        "reference": "Patient/ecf5375c-912c-483c-9c38-72d85df27f12"
      },
      "effectiveDateTime": "2026-06-08T18:59:00.000+00:00",
      "performer": [ {
        "reference": "Organization/example1",
        "display": "Hendricks Country Hospital"
      } ],
      "valueInteger": 1
    },
    "request": {
      "method": "PUT",
      "url": "Observation/239ed332-350b-45ed-832d-07490652f348"
    }
  }, {
    "fullUrl": "https://madie.cms.gov/Observation/5d30c318-b4e8-4284-9b36-a76ca3df00ca",
    "resource": {
      "resourceType": "Observation",
      "id": "5d30c318-b4e8-4284-9b36-a76ca3df00ca",
      "meta": {
        "profile": [ "http://hl7.org/fhir/us/qicore/StructureDefinition/qicore-simple-observation" ]
      },
      "status": "final",
      "category": [ {
        "coding": [ {
          "system": "http://terminology.hl7.org/CodeSystem/observation-category",
          "code": "exam",
          "display": "exam",
          "userSelected": true
        } ]
      } ],
      "code": {
        "coding": [ {
          "system": "http://loinc.org",
          "code": "93857-1"
        } ]
      },
      "subject": {
        "reference": "Patient/ecf5375c-912c-483c-9c38-72d85df27f12"
      },
      "effectiveDateTime": "2026-06-08T19:00:00.000+00:00",
      "performer": [ {
        "reference": "Organization/example1",
        "display": "Hendricks Country Hospital"
      } ],
      "valueDateTime": "2026-06-08T19:00:00.000+00:00"
    },
    "request": {
      "method": "PUT",
      "url": "Observation/5d30c318-b4e8-4284-9b36-a76ca3df00ca"
    }
  }, {
    "fullUrl": "https://madie.cms.gov/Encounter/4364a49c-f1cf-4e5c-b22a-b02e244dbe25",
    "resource": {
      "resourceType": "Encounter",
      "id": "4364a49c-f1cf-4e5c-b22a-b02e244dbe25",
      "meta": {
        "profile": [ "http://hl7.org/fhir/us/qicore/StructureDefinition/qicore-encounter" ]
      },
      "status": "finished",
      "class": {
        "system": "http://terminology.hl7.org/CodeSystem/v3-ActCode",
        "code": "IMP",
        "display": "inpatient encounter"
      },
      "type": [ {
        "coding": [ {
          "system": "http://snomed.info/sct",
          "code": "183452005"
        } ]
      } ],
      "subject": {
        "reference": "Patient/ecf5375c-912c-483c-9c38-72d85df27f12"
      },
      "period": {
        "start": "2026-06-08T08:00:00.000+00:00",
        "end": "2026-06-10T08:15:00.000+00:00"
      },
      "length": {
        "value": 2,
        "unit": "days"
      },
      "reasonCode": [ {
        "coding": [ {
          "system": "http://snomed.info/sct",
          "code": "169826009",
          "display": "Single live birth from singleton pregnancy (finding)"
        } ]
      } ]
    },
    "request": {
      "method": "PUT",
      "url": "Encounter/4364a49c-f1cf-4e5c-b22a-b02e244dbe25"
    }
  }, {
    "fullUrl": "https://madie.cms.gov/Procedure/edb8b338-83e5-42d4-9969-9fe3b669f7de",
    "resource": {
      "resourceType": "Procedure",
      "id": "edb8b338-83e5-42d4-9969-9fe3b669f7de",
      "meta": {
        "profile": [ "http://hl7.org/fhir/us/qicore/StructureDefinition/qicore-procedure" ]
      },
      "extension": [ {
        "url": "http://hl7.org/fhir/us/qicore/StructureDefinition/qicore-recorded",
        "valueDateTime": "2014-04-05T13:35:00.000+00:00"
      } ],
      "status": "completed",
      "code": {
        "coding": [ {
          "system": "http://www.cms.gov/Medicare/Coding/ICD10",
          "code": "10D07Z3"
        } ]
      },
      "subject": {
        "reference": "Patient/ecf5375c-912c-483c-9c38-72d85df27f12"
      },
      "performedPeriod": {
        "start": "2026-06-08T08:10:00.000+00:00",
        "end": "2026-06-08T09:14:00.000+00:00"
      }
    },
    "request": {
      "method": "PUT",
      "url": "Procedure/edb8b338-83e5-42d4-9969-9fe3b669f7de"
    }
  }, {
    "fullUrl": "https://madie.cms.gov/Coverage/183dff30-bf50-4fd0-ba15-d54e4c0fb55a",
    "resource": {
      "resourceType": "Coverage",
      "id": "183dff30-bf50-4fd0-ba15-d54e4c0fb55a",
      "meta": {
        "profile": [ "http://hl7.org/fhir/us/qicore/StructureDefinition/qicore-coverage" ]
      },
      "status": "active",
      "subscriberId": "523435",
      "beneficiary": {
        "reference": "Patient/ecf5375c-912c-483c-9c38-72d85df27f12"
      },
      "relationship": {
        "coding": [ {
          "system": "http://terminology.hl7.org/CodeSystem/subscriber-relationship",
          "code": "self"
        } ]
      },
      "payor": [ {
        "reference": "Organization/b38310ea-16be-4df6-b18b-311b02130afa"
      } ]
    },
    "request": {
      "method": "PUT",
      "url": "Coverage/183dff30-bf50-4fd0-ba15-d54e4c0fb55a"
    }
  }, {
    "fullUrl": "https://madie.cms.gov/Organization/b38310ea-16be-4df6-b18b-311b02130afa",
    "resource": {
      "resourceType": "Organization",
      "id": "b38310ea-16be-4df6-b18b-311b02130afa",
      "meta": {
        "profile": [ "http://hl7.org/fhir/us/qicore/StructureDefinition/qicore-organization" ]
      },
      "identifier": [ {
        "use": "temp",
        "system": "urn:oid:2.16.840.1.113883.4.4",
        "value": "21-3259825"
      } ],
      "active": true,
      "type": [ {
        "coding": [ {
          "system": "http://terminology.hl7.org/CodeSystem/organization-type",
          "code": "pay",
          "display": "Payer"
        } ]
      } ],
      "name": "Blue Cross Blue Shield of Texas",
      "telecom": [ {
        "system": "phone",
        "value": "(+1) 972-766-6900"
      } ],
      "address": [ {
        "use": "billing",
        "type": "postal",
        "line": [ "P.O. Box 660044" ],
        "city": "Dallas",
        "state": "TX",
        "postalCode": "75266-0044",
        "country": "USA"
      } ]
    },
    "request": {
      "method": "PUT",
      "url": "Organization/b38310ea-16be-4df6-b18b-311b02130afa"
    }
  }, {
    "fullUrl": "https://madie.cms.gov/Practitioner/20de49d8-9102-4733-b7a0-1c29275f9727",
    "resource": {
      "resourceType": "Practitioner",
      "id": "20de49d8-9102-4733-b7a0-1c29275f9727",
      "meta": {
        "profile": [ "http://hl7.org/fhir/us/qicore/StructureDefinition/qicore-practitioner" ]
      },
      "identifier": [ {
        "system": "http://hl7.org/fhir/sid/us-npi",
        "value": "1234567890"
      } ],
      "name": [ {
        "family": "Evil",
        "prefix": [ "Dr" ]
      } ]
    },
    "request": {
      "method": "PUT",
      "url": "Practitioner/20de49d8-9102-4733-b7a0-1c29275f9727"
    }
  }, {
    "fullUrl": "https://madie.cms.gov/MeasureReport/853e7b52-7d62-4837-8535-ecefc3146f3a",
    "resource": {
      "resourceType": "MeasureReport",
      "id": "853e7b52-7d62-4837-8535-ecefc3146f3a",
      "meta": {
        "profile": [ "http://hl7.org/fhir/us/cqfmeasures/StructureDefinition/test-case-cqfm" ]
      },
      "contained": [ {
        "resourceType": "Parameters",
        "id": "8a028ef7-9271-4612-bec4-ad2b6e80239a-parameters",
        "parameter": [ {
          "name": "subject",
          "valueString": "ecf5375c-912c-483c-9c38-72d85df27f12"
        } ]
      } ],
      "extension": [ {
        "url": "http://hl7.org/fhir/StructureDefinition/cqf-inputParameters",
        "valueReference": {
          "reference": "#8a028ef7-9271-4612-bec4-ad2b6e80239a-parameters"
        }
      }, {
        "url": "http://hl7.org/fhir/us/cqfmeasures/StructureDefinition/cqfm-testCaseDescription",
        "valueMarkdown": "Tests that Assess Gravida Rel Date is 1 Minute before the Time of Delivery Rel Date.  \n"
      } ],
      "modifierExtension": [ {
        "url": "http://hl7.org/fhir/us/cqfmeasures/StructureDefinition/cqfm-isTestCase",
        "valueBoolean": true
      } ],
      "status": "complete",
      "type": "individual",
      "measure": "https://madie.cms.gov/Measure/CMS0334FHIRPCCesareanBirth",
      "period": {
        "start": "2026-01-01",
        "end": "2026-12-31"
      },
      "group": [ {
        "id": "Group_1",
        "population": [ {
          "id": "InitialPopulation_1",
          "code": {
            "coding": [ {
              "system": "http://terminology.hl7.org/CodeSystem/measure-population",
              "code": "initial-population",
              "display": "Initial Population"
            } ]
          },
          "count": 1
        }, {
          "id": "Denominator_1",
          "code": {
            "coding": [ {
              "system": "http://terminology.hl7.org/CodeSystem/measure-population",
              "code": "denominator",
              "display": "Denominator"
            } ]
          },
          "count": 1
        }, {
          "id": "DenominatorExclusion_1",
          "code": {
            "coding": [ {
              "system": "http://terminology.hl7.org/CodeSystem/measure-population",
              "code": "denominator-exclusion",
              "display": "Denominator Exclusion"
            } ]
          },
          "count": 0
        }, {
          "id": "Numerator_1",
          "code": {
            "coding": [ {
              "system": "http://terminology.hl7.org/CodeSystem/measure-population",
              "code": "numerator",
              "display": "Numerator"
            } ]
          },
          "count": 0
        } ],
        "measureScore": {
          "value": 0.0
        }
      } ],
      "evaluatedResource": [ {
        "reference": "Patient/ecf5375c-912c-483c-9c38-72d85df27f12"
      }, {
        "reference": "Observation/42decf5e-224f-4ec9-992b-6fc896cbeccd"
      }, {
        "reference": "Observation/239ed332-350b-45ed-832d-07490652f348"
      }, {
        "reference": "Observation/5d30c318-b4e8-4284-9b36-a76ca3df00ca"
      }, {
        "reference": "Encounter/4364a49c-f1cf-4e5c-b22a-b02e244dbe25"
      }, {
        "reference": "Procedure/edb8b338-83e5-42d4-9969-9fe3b669f7de"
      }, {
        "reference": "Coverage/183dff30-bf50-4fd0-ba15-d54e4c0fb55a"
      }, {
        "reference": "Organization/b38310ea-16be-4df6-b18b-311b02130afa"
      }, {
        "reference": "Practitioner/20de49d8-9102-4733-b7a0-1c29275f9727"
      } ]
    },
    "request": {
      "method": "PUT",
      "url": "MeasureReport/853e7b52-7d62-4837-8535-ecefc3146f3a"
    }
  } ]
}