{
    "entry": [
        {
            "request": {
                "method": "PUT",
                "url": "Patient/9b11d2b8-872b-49c5-90b2-740f4e218a92"
            },
            "resource": {
                "identifier": [{
                    "system": "https://bonnie-fhir.healthit.gov/",
                    "type": {"coding": [{
                        "system": "http://terminology.hl7.org/CodeSystem/v2-0203",
                        "code": "MR"
                    }]},
                    "value": "62d03365d15ad008a13f69e7"
                }],
                "extension": [
                    {
                        "extension": [
                            {
                                "valueCoding": {
                                    "system": "urn:oid:2.16.840.1.113883.6.238",
                                    "code": "2054-5",
                                    "userSelected": true,
                                    "display": "Black or African American"
                                },
                                "url": "ombCategory"
                            },
                            {
                                "valueString": "Black or African American",
                                "url": "text"
                            }
                        ],
                        "url": "http://hl7.org/fhir/us/core/StructureDefinition/us-core-race"
                    },
                    {
                        "extension": [
                            {
                                "valueCoding": {
                                    "system": "urn:oid:2.16.840.1.113883.6.238",
                                    "code": "2135-2",
                                    "userSelected": true,
                                    "display": "Hispanic or Latino"
                                },
                                "url": "ombCategory"
                            },
                            {
                                "valueString": "Hispanic or Latino",
                                "url": "text"
                            }
                        ],
                        "url": "http://hl7.org/fhir/us/core/StructureDefinition/us-core-ethnicity"
                    }
                ],
                "gender": "male",
                "meta": {"profile": ["http://hl7.org/fhir/us/qicore/StructureDefinition/qicore-patient"]},
                "name": [{
                    "given": ["ElevatedBPDeclinedNonPharm"],
                    "family": "DENEXCEPPass"
                }],
                "id": "9b11d2b8-872b-49c5-90b2-740f4e218a92",
                "birthDate": "2006-01-31",
                "resourceType": "Patient"
            },
            "fullUrl": "https://madie.cms.gov/Patient/9b11d2b8-872b-49c5-90b2-740f4e218a92"
        },
        {
            "request": {
                "method": "PUT",
                "url": "Encounter/19526947-9b1d-4613-8643-507909a05a54"
            },
            "resource": {
                "period": {
                    "start": "2026-12-31T08:00:00.000+00:00",
                    "end": "2026-12-31T08:30:00.000+00:00"
                },
                "meta": {"profile": ["http://hl7.org/fhir/us/qicore/StructureDefinition/qicore-encounter"]},
                "subject": {"reference": "Patient/9b11d2b8-872b-49c5-90b2-740f4e218a92"},
                "id": "19526947-9b1d-4613-8643-507909a05a54",
                "type": [{"coding": [{
                    "system": "http://snomed.info/sct",
                    "code": "103705002",
                    "userSelected": true,
                    "display": "Patient status observation (procedure)",
                    "version": "2022-03"
                }]}],
                "class": {
                    "system": "http://terminology.hl7.org/CodeSystem/v3-ActCode",
                    "code": "AMB",
                    "display": "ambulatory"
                },
                "resourceType": "Encounter",
                "status": "finished"
            },
            "fullUrl": "https://madie.cms.gov/Encounter/19526947-9b1d-4613-8643-507909a05a54"
        },
        {
            "request": {
                "method": "PUT",
                "url": "Observation/8247671c-7acc-4751-88e5-8fbdea64103f"
            },
            "resource": {
                "component": [
                    {
                        "code": {"coding": [{
                            "system": "http://loinc.org",
                            "code": "8480-6",
                            "display": "Systolic blood pressure"
                        }]},
                        "valueQuantity": {
                            "unit": "mmHg",
                            "system": "http://unitsofmeasure.org",
                            "code": "mm[Hg]",
                            "value": 120
                        }
                    },
                    {
                        "code": {"coding": [{
                            "system": "http://loinc.org",
                            "code": "8462-4",
                            "display": "Diastolic blood pressure"
                        }]},
                        "valueQuantity": {
                            "unit": "mmHg",
                            "system": "http://unitsofmeasure.org",
                            "code": "mm[Hg]",
                            "value": 79
                        }
                    }
                ],
                "code": {"coding": [{
                    "system": "http://loinc.org",
                    "code": "85354-9",
                    "display": "Blood pressure panel"
                }]},
                "effectiveDateTime": "2026-12-31T08:01:00.000+00:00",
                "meta": {"profile": ["http://hl7.org/fhir/us/core/StructureDefinition/us-core-blood-pressure"]},
                "subject": {"reference": "Patient/9b11d2b8-872b-49c5-90b2-740f4e218a92"},
                "id": "8247671c-7acc-4751-88e5-8fbdea64103f",
                "category": [{
                    "coding": [{
                        "system": "http://terminology.hl7.org/CodeSystem/observation-category",
                        "code": "vital-signs",
                        "display": "Vital Signs"
                    }],
                    "text": "Vital Signs"
                }],
                "resourceType": "Observation",
                "status": "final"
            },
            "fullUrl": "https://madie.cms.gov/Observation/8247671c-7acc-4751-88e5-8fbdea64103f"
        },
        {
            "request": {
                "method": "PUT",
                "url": "Observation/1e09645e-3c63-4ca2-b64a-1b45dd09f33d"
            },
            "resource": {
                "valueBoolean": true,
                "extension": [{
                    "valueCodeableConcept": {"coding": [{
                        "system": "http://snomed.info/sct",
                        "code": "183932001",
                        "userSelected": true,
                        "display": "Procedure contraindicated (situation)"
                    }]},
                    "url": "http://hl7.org/fhir/us/qicore/StructureDefinition/qicore-notDoneReason"
                }],
                "code": {"coding": [{
                    "system": "http://loinc.org",
                    "code": "85354-9",
                    "userSelected": true,
                    "display": "Blood pressure panel with all children optional"
                }]},
                "effectiveDateTime": "2026-01-01T08:10:00.000+00:00",
                "meta": {"profile": ["http://hl7.org/fhir/us/qicore/StructureDefinition/qicore-observationcancelled"]},
                "subject": {"reference": "Patient/9b11d2b8-872b-49c5-90b2-740f4e218a92"},
                "id": "1e09645e-3c63-4ca2-b64a-1b45dd09f33d",
                "category": [{"coding": [{
                    "system": "http://terminology.hl7.org/CodeSystem/observation-category",
                    "code": "procedure",
                    "display": "Procedure"
                }]}],
                "issued": "2026-01-01T08:05:00.000+00:00",
                "resourceType": "Observation",
                "status": "cancelled"
            },
            "fullUrl": "https://madie.cms.gov/Observation/1e09645e-3c63-4ca2-b64a-1b45dd09f33d"
        },
        {
            "request": {
                "method": "PUT",
                "url": "ServiceRequest/f5ecc19c-b68d-4e02-9f50-1b1ed01f685a"
            },
            "resource": {
                "extension": [{
                    "valueCodeableConcept": {"coding": [{
                        "system": "http://snomed.info/sct",
                        "code": "1296859006",
                        "userSelected": true,
                        "display": "Procedure declined by patient (situation)"
                    }]},
                    "url": "http://hl7.org/fhir/us/qicore/StructureDefinition/qicore-doNotPerformReason"
                }],
                "code": {"coding": [{
                    "system": "http://snomed.info/sct",
                    "code": "313204009",
                    "userSelected": true,
                    "display": "Lifestyle education (procedure)",
                    "version": "2022-03"
                }]},
                "authoredOn": "2026-12-31T08:02:00.000+00:00",
                "meta": {"profile": ["http://hl7.org/fhir/us/qicore/StructureDefinition/qicore-servicenotrequested"]},
                "subject": {"reference": "Patient/9b11d2b8-872b-49c5-90b2-740f4e218a92"},
                "id": "f5ecc19c-b68d-4e02-9f50-1b1ed01f685a",
                "reasonCode": [{"coding": [{
                    "system": "http://snomed.info/sct",
                    "code": "1296859006",
                    "userSelected": true,
                    "display": "Procedure declined by patient (situation)"
                }]}],
                "doNotPerform": true,
                "intent": "order",
                "resourceType": "ServiceRequest",
                "status": "completed"
            },
            "fullUrl": "https://madie.cms.gov/ServiceRequest/f5ecc19c-b68d-4e02-9f50-1b1ed01f685a"
        },
        {
            "request": {
                "method": "PUT",
                "url": "Coverage/db15ea30-3c8c-4413-b5ec-e71d63990ca4"
            },
            "resource": {
                "payor": [{"reference": "Organization/5096094a-a64a-40ef-80bc-111551363a5e"}],
                "beneficiary": {"reference": "Patient/9b11d2b8-872b-49c5-90b2-740f4e218a92"},
                "meta": {"profile": ["http://hl7.org/fhir/us/qicore/StructureDefinition/qicore-coverage"]},
                "id": "db15ea30-3c8c-4413-b5ec-e71d63990ca4",
                "resourceType": "Coverage",
                "status": "active"
            },
            "fullUrl": "https://madie.cms.gov/Coverage/db15ea30-3c8c-4413-b5ec-e71d63990ca4"
        },
        {
            "request": {
                "method": "PUT",
                "url": "Organization/5096094a-a64a-40ef-80bc-111551363a5e"
            },
            "resource": {
                "identifier": [{
                    "system": "urn:oid:2.16.840.1.113883.4.4",
                    "use": "temp",
                    "value": "21-3259825"
                }],
                "address": [{
                    "country": "USA",
                    "city": "Dallas",
                    "use": "billing",
                    "line": ["P.O. Box 660044"],
                    "postalCode": "75266-0044",
                    "state": "TX",
                    "type": "postal"
                }],
                "meta": {"profile": ["http://hl7.org/fhir/us/qicore/StructureDefinition/qicore-organization"]},
                "name": "Blue Cross Blue Shield of Texas",
                "active": true,
                "telecom": [{
                    "system": "phone",
                    "value": "(+1) 972-766-6900"
                }],
                "id": "5096094a-a64a-40ef-80bc-111551363a5e",
                "type": [{"coding": [{
                    "system": "http://terminology.hl7.org/CodeSystem/organization-type",
                    "code": "pay",
                    "display": "Payer"
                }]}],
                "resourceType": "Organization"
            },
            "fullUrl": "https://madie.cms.gov/Organization/5096094a-a64a-40ef-80bc-111551363a5e"
        },
        {
            "request": {
                "method": "PUT",
                "url": "Practitioner/bbd93936-0936-4bea-8514-2c9ea35b832c"
            },
            "resource": {
                "identifier": [{
                    "system": "http://hl7.org/fhir/sid/us-npi",
                    "value": "123456"
                }],
                "meta": {"profile": ["http://hl7.org/fhir/us/qicore/StructureDefinition/qicore-practitioner"]},
                "name": [{
                    "prefix": ["Dr"],
                    "family": "Evil"
                }],
                "id": "bbd93936-0936-4bea-8514-2c9ea35b832c",
                "resourceType": "Practitioner"
            },
            "fullUrl": "https://madie.cms.gov/Practitioner/bbd93936-0936-4bea-8514-2c9ea35b832c"
        },
        {
            "request": {
                "method": "PUT",
                "url": "MeasureReport/d7c223aa-caea-4797-8fe9-f2516dc916d9"
            },
            "resource": {
                "contained": [{
                    "parameter": [{
                        "valueString": "9b11d2b8-872b-49c5-90b2-740f4e218a92",
                        "name": "subject"
                    }],
                    "id": "e5cc71bc-b71a-4392-ae90-3a5e36fd20c8-parameters",
                    "resourceType": "Parameters"
                }],
                "extension": [
                    {
                        "valueReference": {"reference": "#e5cc71bc-b71a-4392-ae90-3a5e36fd20c8-parameters"},
                        "url": "http://hl7.org/fhir/StructureDefinition/cqf-inputParameters"
                    },
                    {
                        "valueMarkdown": "Enc .12/31 0800-0830 during MP, age 20, BP 120/79 at 0801, , declined lifestyle education @0802. ",
                        "url": "http://hl7.org/fhir/us/cqfmeasures/StructureDefinition/cqfm-testCaseDescription"
                    }
                ],
                "period": {
                    "start": "2026-01-01",
                    "end": "2026-12-31"
                },
                "measure": "https://madie.cms.gov/Measure/CMS22FHIRPCSBPScreeningFollowUp",
                "meta": {"profile": ["http://hl7.org/fhir/us/cqfmeasures/StructureDefinition/test-case-cqfm"]},
                "modifierExtension": [{
                    "valueBoolean": true,
                    "url": "http://hl7.org/fhir/us/cqfmeasures/StructureDefinition/cqfm-isTestCase"
                }],
                "id": "d7c223aa-caea-4797-8fe9-f2516dc916d9",
                "evaluatedResource": [
                    {"reference": "Patient/9b11d2b8-872b-49c5-90b2-740f4e218a92"},
                    {"reference": "Encounter/19526947-9b1d-4613-8643-507909a05a54"},
                    {"reference": "Observation/8247671c-7acc-4751-88e5-8fbdea64103f"},
                    {"reference": "Observation/1e09645e-3c63-4ca2-b64a-1b45dd09f33d"},
                    {"reference": "ServiceRequest/f5ecc19c-b68d-4e02-9f50-1b1ed01f685a"},
                    {"reference": "Coverage/db15ea30-3c8c-4413-b5ec-e71d63990ca4"},
                    {"reference": "Organization/5096094a-a64a-40ef-80bc-111551363a5e"},
                    {"reference": "Practitioner/bbd93936-0936-4bea-8514-2c9ea35b832c"}
                ],
                "type": "individual",
                "resourceType": "MeasureReport",
                "status": "complete",
                "group": [{
                    "id": "Group_1",
                    "measureScore": {"value": 0},
                    "population": [
                        {
                            "code": {"coding": [{
                                "system": "http://terminology.hl7.org/CodeSystem/measure-population",
                                "code": "initial-population",
                                "display": "Initial Population"
                            }]},
                            "count": 1,
                            "id": "InitialPopulation_1"
                        },
                        {
                            "code": {"coding": [{
                                "system": "http://terminology.hl7.org/CodeSystem/measure-population",
                                "code": "denominator",
                                "display": "Denominator"
                            }]},
                            "count": 1,
                            "id": "Denominator_1"
                        },
                        {
                            "code": {"coding": [{
                                "system": "http://terminology.hl7.org/CodeSystem/measure-population",
                                "code": "denominator-exclusion",
                                "display": "Denominator Exclusion"
                            }]},
                            "count": 0,
                            "id": "DenominatorExclusion_1"
                        },
                        {
                            "code": {"coding": [{
                                "system": "http://terminology.hl7.org/CodeSystem/measure-population",
                                "code": "numerator",
                                "display": "Numerator"
                            }]},
                            "count": 0,
                            "id": "Numerator_1"
                        },
                        {
                            "code": {"coding": [{
                                "system": "http://terminology.hl7.org/CodeSystem/measure-population",
                                "code": "denominator-exception",
                                "display": "Denominator Exception"
                            }]},
                            "count": 1,
                            "id": "DenominatorException_1"
                        }
                    ]
                }]
            },
            "fullUrl": "https://madie.cms.gov/MeasureReport/d7c223aa-caea-4797-8fe9-f2516dc916d9"
        }
    ],
    "id": "62d03365d15ad008a13f69e7",
    "type": "transaction",
    "resourceType": "Bundle"
}