{
  "resourceType": "Bundle",
  "id": "633b3f9e0968f80122503cc2",
  "type": "transaction",
  "entry": [ {
    "fullUrl": "https://madie.cms.gov/Patient/b5231904-2642-40fc-beb2-846bf8e96647",
    "resource": {
      "resourceType": "Patient",
      "id": "b5231904-2642-40fc-beb2-846bf8e96647",
      "meta": {
        "profile": [ "http://hl7.org/fhir/us/qicore/StructureDefinition/qicore-patient" ]
      },
      "text": {
        "status": "generated",
        "div": "<div xmlns=\"http://www.w3.org/1999/xhtml\"><div class=\"hapiHeaderText\">EncEndEQMPEndMinus1Minute<b>IPPASS</b></div><table class=\"hapiPropertyTable\"><tbody><tr><td>Date of birth</td><td><span>31 January 2004</span></td></tr></tbody></table></div>"
      },
      "extension": [ {
        "url": "http://hl7.org/fhir/us/core/StructureDefinition/us-core-race",
        "extension": [ {
          "url": "ombCategory",
          "valueCoding": {
            "system": "urn:oid:2.16.840.1.113883.6.238",
            "code": "1002-5",
            "display": "American Indian or Alaska Native",
            "userSelected": true
          }
        }, {
          "url": "text",
          "valueString": "American Indian or Alaska Native"
        } ]
      }, {
        "url": "http://hl7.org/fhir/us/core/StructureDefinition/us-core-ethnicity",
        "extension": [ {
          "url": "ombCategory",
          "valueCoding": {
            "system": "urn:oid:2.16.840.1.113883.6.238",
            "code": "2135-2",
            "display": "Hispanic or Latino",
            "userSelected": true
          }
        }, {
          "url": "text",
          "valueString": "Hispanic or Latino"
        } ]
      } ],
      "identifier": [ {
        "type": {
          "coding": [ {
            "system": "http://terminology.hl7.org/CodeSystem/v2-0203",
            "code": "MR"
          } ]
        },
        "system": "https://bonnie-fhir.healthit.gov/",
        "value": "633b3f9e0968f80122503cc2"
      } ],
      "active": true,
      "name": [ {
        "use": "usual",
        "family": "IPPass",
        "given": [ "EncEndEQMPEndMinus1Minute" ]
      } ],
      "gender": "female",
      "birthDate": "2005-01-31"
    },
    "request": {
      "method": "PUT",
      "url": "Patient/b5231904-2642-40fc-beb2-846bf8e96647"
    }
  }, {
    "fullUrl": "https://madie.cms.gov/Encounter/06250ab7-cfa7-41ad-81fe-bb353af14e02",
    "resource": {
      "resourceType": "Encounter",
      "id": "06250ab7-cfa7-41ad-81fe-bb353af14e02",
      "meta": {
        "profile": [ "http://hl7.org/fhir/us/qicore/StructureDefinition/qicore-encounter" ]
      },
      "status": "finished",
      "class": {
        "system": "http://terminology.hl7.org/CodeSystem/v3-ActCode",
        "code": "IMP",
        "display": "inpatient encounter"
      },
      "type": [ {
        "coding": [ {
          "system": "http://snomed.info/sct",
          "code": "183452005"
        } ]
      } ],
      "subject": {
        "reference": "Patient/b5231904-2642-40fc-beb2-846bf8e96647"
      },
      "period": {
        "start": "2026-02-01T08:00:00Z",
        "end": "2026-12-31T23:58:00.000+00:00"
      }
    },
    "request": {
      "method": "PUT",
      "url": "Encounter/06250ab7-cfa7-41ad-81fe-bb353af14e02"
    }
  }, {
    "fullUrl": "https://madie.cms.gov/Procedure/b757d332-34eb-4a95-bb9c-089770258ef7",
    "resource": {
      "resourceType": "Procedure",
      "id": "b757d332-34eb-4a95-bb9c-089770258ef7",
      "meta": {
        "profile": [ "http://hl7.org/fhir/us/qicore/StructureDefinition/qicore-procedure" ]
      },
      "extension": [ {
        "url": "http://hl7.org/fhir/us/qicore/StructureDefinition/qicore-recorded",
        "valueDateTime": "2014-04-05T13:35:00Z"
      } ],
      "status": "completed",
      "code": {
        "coding": [ {
          "system": "http://snomed.info/sct",
          "code": "10745001"
        } ]
      },
      "subject": {
        "reference": "Patient/b5231904-2642-40fc-beb2-846bf8e96647"
      },
      "performedPeriod": {
        "start": "2026-02-01T08:00:00Z",
        "end": "2026-02-05T08:15:00.000+00:00"
      }
    },
    "request": {
      "method": "PUT",
      "url": "Procedure/b757d332-34eb-4a95-bb9c-089770258ef7"
    }
  }, {
    "fullUrl": "https://madie.cms.gov/Coverage/6ffbdb79-8b8c-42d4-9646-8a7a1998c309",
    "resource": {
      "resourceType": "Coverage",
      "id": "6ffbdb79-8b8c-42d4-9646-8a7a1998c309",
      "meta": {
        "profile": [ "http://hl7.org/fhir/us/qicore/StructureDefinition/qicore-coverage" ]
      },
      "status": "active",
      "beneficiary": {
        "reference": "Patient/b5231904-2642-40fc-beb2-846bf8e96647"
      },
      "payor": [ {
        "reference": "Organization/9ee27690-d331-4e5a-8f4e-63e3d34246a4"
      } ]
    },
    "request": {
      "method": "PUT",
      "url": "Coverage/6ffbdb79-8b8c-42d4-9646-8a7a1998c309"
    }
  }, {
    "fullUrl": "https://madie.cms.gov/Organization/9ee27690-d331-4e5a-8f4e-63e3d34246a4",
    "resource": {
      "resourceType": "Organization",
      "id": "9ee27690-d331-4e5a-8f4e-63e3d34246a4",
      "meta": {
        "profile": [ "http://hl7.org/fhir/us/qicore/StructureDefinition/qicore-organization" ]
      },
      "identifier": [ {
        "use": "temp",
        "system": "urn:oid:2.16.840.1.113883.4.4",
        "value": "21-3259825"
      } ],
      "active": true,
      "type": [ {
        "coding": [ {
          "system": "http://terminology.hl7.org/CodeSystem/organization-type",
          "code": "pay",
          "display": "Payer"
        } ]
      } ],
      "name": "Blue Cross Blue Shield of Texas",
      "telecom": [ {
        "system": "phone",
        "value": "(+1) 972-766-6900"
      } ],
      "address": [ {
        "use": "billing",
        "type": "postal",
        "line": [ "P.O. Box 660044" ],
        "city": "Dallas",
        "state": "TX",
        "postalCode": "75266-0044",
        "country": "USA"
      } ]
    },
    "request": {
      "method": "PUT",
      "url": "Organization/9ee27690-d331-4e5a-8f4e-63e3d34246a4"
    }
  }, {
    "fullUrl": "https://madie.cms.gov/Practitioner/a14e14ae-c616-42b7-98f4-d363408065bf",
    "resource": {
      "resourceType": "Practitioner",
      "id": "a14e14ae-c616-42b7-98f4-d363408065bf",
      "identifier": [ {
        "system": "http://hl7.org/fhir/sid/us-npi",
        "value": "123456"
      } ],
      "name": [ {
        "family": "Evil",
        "prefix": [ "Dr" ]
      } ]
    },
    "request": {
      "method": "PUT",
      "url": "Practitioner/a14e14ae-c616-42b7-98f4-d363408065bf"
    }
  }, {
    "fullUrl": "https://madie.cms.gov/MeasureReport/21ed59f4-42de-4cae-b59d-b2e9ca54300f",
    "resource": {
      "resourceType": "MeasureReport",
      "id": "21ed59f4-42de-4cae-b59d-b2e9ca54300f",
      "meta": {
        "profile": [ "http://hl7.org/fhir/us/cqfmeasures/StructureDefinition/test-case-cqfm" ]
      },
      "contained": [ {
        "resourceType": "Parameters",
        "id": "0c9ffe41-3121-435b-ad54-6f808dc20f9d-parameters",
        "parameter": [ {
          "name": "subject",
          "valueString": "b5231904-2642-40fc-beb2-846bf8e96647"
        } ]
      } ],
      "extension": [ {
        "url": "http://hl7.org/fhir/StructureDefinition/cqf-inputParameters",
        "valueReference": {
          "reference": "#0c9ffe41-3121-435b-ad54-6f808dc20f9d-parameters"
        }
      }, {
        "url": "http://hl7.org/fhir/us/cqfmeasures/StructureDefinition/cqfm-testCaseDescription",
        "valueMarkdown": "Encounter end equals  measurement period end minus one minute.\n"
      } ],
      "modifierExtension": [ {
        "url": "http://hl7.org/fhir/us/cqfmeasures/StructureDefinition/cqfm-isTestCase",
        "valueBoolean": true
      } ],
      "status": "complete",
      "type": "individual",
      "measure": "https://madie.cms.gov/Measure/CMS1028FHIRPCSevereOBComps",
      "period": {
        "start": "2026-01-01",
        "end": "2026-12-31"
      },
      "group": [ {
        "id": "Group_1",
        "population": [ {
          "id": "InitialPopulation_1",
          "code": {
            "coding": [ {
              "system": "http://terminology.hl7.org/CodeSystem/measure-population",
              "code": "initial-population",
              "display": "Initial Population"
            } ]
          },
          "count": 1
        }, {
          "id": "Denominator_1",
          "code": {
            "coding": [ {
              "system": "http://terminology.hl7.org/CodeSystem/measure-population",
              "code": "denominator",
              "display": "Denominator"
            } ]
          },
          "count": 0
        }, {
          "id": "Numerator_1",
          "code": {
            "coding": [ {
              "system": "http://terminology.hl7.org/CodeSystem/measure-population",
              "code": "numerator",
              "display": "Numerator"
            } ]
          },
          "count": 0
        }, {
          "id": "NumeratorExclusion_1",
          "code": {
            "coding": [ {
              "system": "http://terminology.hl7.org/CodeSystem/measure-population",
              "code": "numerator-exclusion",
              "display": "Numerator Exclusion"
            } ]
          },
          "count": 0
        } ],
        "measureScore": {
          "value": 0.0
        }
      }, {
        "id": "Group_2",
        "population": [ {
          "id": "InitialPopulation_2",
          "code": {
            "coding": [ {
              "system": "http://terminology.hl7.org/CodeSystem/measure-population",
              "code": "initial-population",
              "display": "Initial Population"
            } ]
          },
          "count": 1
        }, {
          "id": "Denominator_2",
          "code": {
            "coding": [ {
              "system": "http://terminology.hl7.org/CodeSystem/measure-population",
              "code": "denominator",
              "display": "Denominator"
            } ]
          },
          "count": 0
        }, {
          "id": "Numerator_2",
          "code": {
            "coding": [ {
              "system": "http://terminology.hl7.org/CodeSystem/measure-population",
              "code": "numerator",
              "display": "Numerator"
            } ]
          },
          "count": 0
        }, {
          "id": "NumeratorExclusion_2",
          "code": {
            "coding": [ {
              "system": "http://terminology.hl7.org/CodeSystem/measure-population",
              "code": "numerator-exclusion",
              "display": "Numerator Exclusion"
            } ]
          },
          "count": 0
        } ],
        "measureScore": {
          "value": 0.0
        }
      } ],
      "evaluatedResource": [ {
        "reference": "Patient/b5231904-2642-40fc-beb2-846bf8e96647"
      }, {
        "reference": "Encounter/06250ab7-cfa7-41ad-81fe-bb353af14e02"
      }, {
        "reference": "Procedure/b757d332-34eb-4a95-bb9c-089770258ef7"
      }, {
        "reference": "Coverage/6ffbdb79-8b8c-42d4-9646-8a7a1998c309"
      }, {
        "reference": "Organization/9ee27690-d331-4e5a-8f4e-63e3d34246a4"
      }, {
        "reference": "Practitioner/a14e14ae-c616-42b7-98f4-d363408065bf"
      } ]
    },
    "request": {
      "method": "PUT",
      "url": "MeasureReport/21ed59f4-42de-4cae-b59d-b2e9ca54300f"
    }
  } ]
}