{
  "resourceType": "Bundle",
  "id": "61095b0998086b53805591b5",
  "type": "transaction",
  "entry": [ {
    "fullUrl": "https://madie.cms.gov/Patient/4174257f-b236-41d3-b818-9b2b6527e59f",
    "resource": {
      "resourceType": "Patient",
      "id": "4174257f-b236-41d3-b818-9b2b6527e59f",
      "meta": {
        "profile": [ "http://hl7.org/fhir/us/qicore/StructureDefinition/qicore-patient" ]
      },
      "extension": [ {
        "url": "http://hl7.org/fhir/us/core/StructureDefinition/us-core-race",
        "extension": [ {
          "url": "ombCategory",
          "valueCoding": {
            "system": "urn:oid:2.16.840.1.113883.6.238",
            "code": "1002-5",
            "display": "American Indian or Alaska Native",
            "userSelected": true
          }
        }, {
          "url": "text",
          "valueString": "American Indian or Alaska Native"
        } ]
      }, {
        "url": "http://hl7.org/fhir/us/core/StructureDefinition/us-core-ethnicity",
        "extension": [ {
          "url": "ombCategory",
          "valueCoding": {
            "system": "urn:oid:2.16.840.1.113883.6.238",
            "code": "2135-2",
            "display": "Hispanic or Latino",
            "userSelected": true
          }
        }, {
          "url": "text",
          "valueString": "Hispanic or Latino"
        } ]
      } ],
      "identifier": [ {
        "type": {
          "coding": [ {
            "system": "http://terminology.hl7.org/CodeSystem/v2-0203",
            "code": "MR"
          } ]
        },
        "system": "https://bonnie-fhir.healthit.gov/",
        "value": "61095b0998086b53805591b5"
      } ],
      "active": true,
      "name": [ {
        "use": "usual",
        "family": "DENEXPASS",
        "given": [ "DisordersOverlapsCatSurg" ]
      } ],
      "gender": "female",
      "birthDate": "1996-01-01"
    },
    "request": {
      "method": "PUT",
      "url": "Patient/4174257f-b236-41d3-b818-9b2b6527e59f"
    }
  }, {
    "fullUrl": "https://madie.cms.gov/Observation/08b3c6ed-e80d-4a5f-a314-bc2920909bc0",
    "resource": {
      "resourceType": "Observation",
      "id": "08b3c6ed-e80d-4a5f-a314-bc2920909bc0",
      "meta": {
        "profile": [ "http://hl7.org/fhir/us/qicore/StructureDefinition/qicore-observation-clinical-result" ]
      },
      "status": "final",
      "category": [ {
        "coding": [ {
          "system": "http://terminology.hl7.org/CodeSystem/observation-category",
          "code": "exam",
          "display": "Exam"
        } ]
      } ],
      "code": {
        "coding": [ {
          "system": "http://snomed.info/sct",
          "code": "419775003"
        } ]
      },
      "subject": {
        "reference": "Patient/4174257f-b236-41d3-b818-9b2b6527e59f"
      },
      "effectivePeriod": {
        "start": "2026-03-13T09:00:00+00:00",
        "end": "2026-03-13T09:30:00+00:00"
      }
    },
    "request": {
      "method": "PUT",
      "url": "Observation/08b3c6ed-e80d-4a5f-a314-bc2920909bc0"
    }
  }, {
    "fullUrl": "https://madie.cms.gov/Procedure/740dbd62-0b14-481d-8ca6-7338cd8b8462",
    "resource": {
      "resourceType": "Procedure",
      "id": "740dbd62-0b14-481d-8ca6-7338cd8b8462",
      "meta": {
        "profile": [ "http://hl7.org/fhir/us/qicore/StructureDefinition/qicore-procedure" ]
      },
      "extension": [ {
        "url": "http://hl7.org/fhir/us/qicore/StructureDefinition/qicore-recorded",
        "valueDateTime": "2026-03-05T09:35:00-04:00"
      } ],
      "status": "completed",
      "code": {
        "coding": [ {
          "system": "http://snomed.info/sct",
          "code": "84149000"
        } ]
      },
      "subject": {
        "reference": "Patient/4174257f-b236-41d3-b818-9b2b6527e59f"
      },
      "performedPeriod": {
        "start": "2026-03-05T09:20:00-04:00",
        "end": "2026-04-05T10:30:00-04:00"
      }
    },
    "request": {
      "method": "PUT",
      "url": "Procedure/740dbd62-0b14-481d-8ca6-7338cd8b8462"
    }
  }, {
    "fullUrl": "https://madie.cms.gov/Condition/1791a940-69d6-4711-adc6-2d6886a6718d",
    "resource": {
      "resourceType": "Condition",
      "id": "1791a940-69d6-4711-adc6-2d6886a6718d",
      "meta": {
        "profile": [ "http://hl7.org/fhir/us/qicore/StructureDefinition/qicore-condition-encounter-diagnosis" ]
      },
      "clinicalStatus": {
        "coding": [ {
          "system": "http://terminology.hl7.org/CodeSystem/condition-clinical",
          "code": "active",
          "display": "active",
          "userSelected": true
        } ]
      },
      "category": [ {
        "coding": [ {
          "system": "http://terminology.hl7.org/CodeSystem/condition-clinical",
          "code": "active",
          "display": "active",
          "userSelected": true
        } ]
      } ],
      "code": {
        "coding": [ {
          "system": "http://hl7.org/fhir/sid/icd-10-cm",
          "code": "H31.301",
          "userSelected": true
        }, {
          "system": "http://hl7.org/fhir/sid/icd-10-cm",
          "code": "H55.00",
          "userSelected": true
        }, {
          "system": "http://hl7.org/fhir/sid/icd-10-cm",
          "code": "H47.20",
          "userSelected": true
        }, {
          "system": "http://hl7.org/fhir/sid/icd-10-cm",
          "code": "Q12.8",
          "userSelected": true
        }, {
          "system": "http://hl7.org/fhir/sid/icd-10-cm",
          "code": "H26.101",
          "userSelected": true
        }, {
          "system": "http://hl7.org/fhir/sid/icd-10-cm",
          "code": "H53.482",
          "userSelected": true
        }, {
          "system": "http://hl7.org/fhir/sid/icd-10-cm",
          "code": "H30.001",
          "userSelected": true
        }, {
          "system": "http://hl7.org/fhir/sid/icd-10-cm",
          "code": "H31.011",
          "userSelected": true
        }, {
          "system": "http://snomed.info/sct",
          "code": "128329001",
          "userSelected": true
        } ]
      },
      "subject": {
        "reference": "Patient/4174257f-b236-41d3-b818-9b2b6527e59f"
      },
      "onsetDateTime": "2024-11-01T08:00:00.000+00:00"
    },
    "request": {
      "method": "PUT",
      "url": "Condition/1791a940-69d6-4711-adc6-2d6886a6718d"
    }
  }, {
    "fullUrl": "https://madie.cms.gov/Coverage/05be342a-ed45-479a-be61-369e733b4d0c",
    "resource": {
      "resourceType": "Coverage",
      "id": "05be342a-ed45-479a-be61-369e733b4d0c",
      "meta": {
        "profile": [ "http://hl7.org/fhir/us/qicore/StructureDefinition/qicore-coverage" ]
      },
      "status": "active",
      "beneficiary": {
        "reference": "Patient/4174257f-b236-41d3-b818-9b2b6527e59f"
      },
      "payor": [ {
        "reference": "Organization/c994821d-cd74-46c4-ad4d-8dabd54cc4d2"
      } ]
    },
    "request": {
      "method": "PUT",
      "url": "Coverage/05be342a-ed45-479a-be61-369e733b4d0c"
    }
  }, {
    "fullUrl": "https://madie.cms.gov/Organization/c994821d-cd74-46c4-ad4d-8dabd54cc4d2",
    "resource": {
      "resourceType": "Organization",
      "id": "c994821d-cd74-46c4-ad4d-8dabd54cc4d2",
      "meta": {
        "profile": [ "http://hl7.org/fhir/us/qicore/StructureDefinition/qicore-organization" ]
      },
      "identifier": [ {
        "use": "temp",
        "system": "urn:oid:2.16.840.1.113883.4.4",
        "value": "21-3259825"
      } ],
      "active": true,
      "type": [ {
        "coding": [ {
          "system": "http://terminology.hl7.org/CodeSystem/organization-type",
          "code": "pay",
          "display": "Payer"
        } ]
      } ],
      "name": "Blue Cross Blue Shield of Texas",
      "telecom": [ {
        "system": "phone",
        "value": "(+1) 972-766-6900"
      } ],
      "address": [ {
        "use": "billing",
        "type": "postal",
        "line": [ "P.O. Box 660044" ],
        "city": "Dallas",
        "state": "TX",
        "postalCode": "75266-0044",
        "country": "USA"
      } ]
    },
    "request": {
      "method": "PUT",
      "url": "Organization/c994821d-cd74-46c4-ad4d-8dabd54cc4d2"
    }
  }, {
    "fullUrl": "https://madie.cms.gov/Practitioner/89a1b0fe-41a6-4121-9bb9-fd2b133c555a",
    "resource": {
      "resourceType": "Practitioner",
      "id": "89a1b0fe-41a6-4121-9bb9-fd2b133c555a",
      "meta": {
        "profile": [ "http://hl7.org/fhir/us/qicore/StructureDefinition/qicore-practitioner" ]
      },
      "identifier": [ {
        "system": "http://hl7.org/fhir/sid/us-npi",
        "value": "123456"
      } ],
      "name": [ {
        "family": "Evil",
        "prefix": [ "Dr" ]
      } ]
    },
    "request": {
      "method": "PUT",
      "url": "Practitioner/89a1b0fe-41a6-4121-9bb9-fd2b133c555a"
    }
  }, {
    "fullUrl": "https://madie.cms.gov/MeasureReport/3de9efcb-da25-4119-8975-d8d3ad2bb853",
    "resource": {
      "resourceType": "MeasureReport",
      "id": "3de9efcb-da25-4119-8975-d8d3ad2bb853",
      "meta": {
        "profile": [ "http://hl7.org/fhir/us/cqfmeasures/StructureDefinition/test-case-cqfm" ]
      },
      "contained": [ {
        "resourceType": "Parameters",
        "id": "ab5a17b2-a3bd-40f3-84e1-0d4a6ee8a10a-parameters",
        "parameter": [ {
          "name": "subject",
          "valueString": "4174257f-b236-41d3-b818-9b2b6527e59f"
        } ]
      } ],
      "extension": [ {
        "url": "http://hl7.org/fhir/StructureDefinition/cqf-inputParameters",
        "valueReference": {
          "reference": "#ab5a17b2-a3bd-40f3-84e1-0d4a6ee8a10a-parameters"
        }
      }, {
        "url": "http://hl7.org/fhir/us/cqfmeasures/StructureDefinition/cqfm-testCaseDescription",
        "valueMarkdown": "Patient with visual defects diagnosis overlapping cataract surgery"
      } ],
      "modifierExtension": [ {
        "url": "http://hl7.org/fhir/us/cqfmeasures/StructureDefinition/cqfm-isTestCase",
        "valueBoolean": true
      } ],
      "status": "complete",
      "type": "individual",
      "measure": "https://madie.cms.gov/Measure/CMS133FHIRCataracts2040BCVAwithin90Days",
      "period": {
        "start": "2026-01-01",
        "end": "2026-12-31"
      },
      "group": [ {
        "id": "Group_1",
        "population": [ {
          "id": "InitialPopulation_1",
          "code": {
            "coding": [ {
              "system": "http://terminology.hl7.org/CodeSystem/measure-population",
              "code": "initial-population",
              "display": "Initial Population"
            } ]
          },
          "count": 1
        }, {
          "id": "Denominator_1",
          "code": {
            "coding": [ {
              "system": "http://terminology.hl7.org/CodeSystem/measure-population",
              "code": "denominator",
              "display": "Denominator"
            } ]
          },
          "count": 1
        }, {
          "id": "DenominatorExclusion_1",
          "code": {
            "coding": [ {
              "system": "http://terminology.hl7.org/CodeSystem/measure-population",
              "code": "denominator-exclusion",
              "display": "Denominator Exclusion"
            } ]
          },
          "count": 1
        }, {
          "id": "Numerator_1",
          "code": {
            "coding": [ {
              "system": "http://terminology.hl7.org/CodeSystem/measure-population",
              "code": "numerator",
              "display": "Numerator"
            } ]
          },
          "count": 0
        } ],
        "measureScore": {
          "value": 0.0
        }
      } ],
      "evaluatedResource": [ {
        "reference": "Patient/4174257f-b236-41d3-b818-9b2b6527e59f"
      }, {
        "reference": "Observation/08b3c6ed-e80d-4a5f-a314-bc2920909bc0"
      }, {
        "reference": "Procedure/740dbd62-0b14-481d-8ca6-7338cd8b8462"
      }, {
        "reference": "Condition/1791a940-69d6-4711-adc6-2d6886a6718d"
      }, {
        "reference": "Coverage/05be342a-ed45-479a-be61-369e733b4d0c"
      }, {
        "reference": "Organization/c994821d-cd74-46c4-ad4d-8dabd54cc4d2"
      }, {
        "reference": "Practitioner/89a1b0fe-41a6-4121-9bb9-fd2b133c555a"
      } ]
    },
    "request": {
      "method": "PUT",
      "url": "MeasureReport/3de9efcb-da25-4119-8975-d8d3ad2bb853"
    }
  } ]
}