{
  "resourceType": "Bundle",
  "id": "612e6b2e02c62a011f2ecc81",
  "type": "transaction",
  "entry": [ {
    "fullUrl": "https://madie.cms.gov/Patient/f8f09525-80ac-4f58-80ff-74033387f5df",
    "resource": {
      "resourceType": "Patient",
      "id": "f8f09525-80ac-4f58-80ff-74033387f5df",
      "meta": {
        "profile": [ "http://hl7.org/fhir/us/qicore/StructureDefinition/qicore-patient" ]
      },
      "text": {
        "status": "generated",
        "div": "<div xmlns=\"http://www.w3.org/1999/xhtml\"><div class=\"hapiHeaderText\">PtRefMORivDayOfAnesProcRvltDT <b>NUMERPASS </b></div><table class=\"hapiPropertyTable\"><tbody><tr><td>Identifier</td><td>bec2580a47ed4bf7691b191e0654b2de</td></tr><tr><td>Date of birth</td><td><span>02 January 1974</span></td></tr></tbody></table></div>"
      },
      "extension": [ {
        "url": "http://hl7.org/fhir/us/core/StructureDefinition/us-core-race",
        "extension": [ {
          "url": "ombCategory",
          "valueCoding": {
            "system": "urn:oid:2.16.840.1.113883.6.238",
            "code": "1002-5",
            "display": "American Indian or Alaska Native",
            "userSelected": true
          }
        }, {
          "url": "text",
          "valueString": "American Indian or Alaska Native"
        } ]
      }, {
        "url": "http://hl7.org/fhir/us/core/StructureDefinition/us-core-ethnicity",
        "extension": [ {
          "url": "ombCategory",
          "valueCoding": {
            "system": "urn:oid:2.16.840.1.113883.6.238",
            "code": "2135-2",
            "display": "Hispanic or Latino",
            "userSelected": true
          }
        }, {
          "url": "text",
          "valueString": "Hispanic or Latino"
        } ]
      } ],
      "identifier": [ {
        "type": {
          "coding": [ {
            "system": "http://terminology.hl7.org/CodeSystem/v2-0203",
            "code": "MR"
          } ]
        },
        "system": "https://bonnie-fhir.healthit.gov/",
        "value": "612e6b2e02c62a011f2ecc81"
      } ],
      "active": true,
      "name": [ {
        "use": "usual",
        "family": "NUMERPass",
        "given": [ "PtRefMORivDayOfAnesProcRvltDT" ]
      } ],
      "gender": "male",
      "birthDate": "1975-01-02"
    },
    "request": {
      "method": "PUT",
      "url": "Patient/f8f09525-80ac-4f58-80ff-74033387f5df"
    }
  }, {
    "fullUrl": "https://madie.cms.gov/Encounter/ffe74beb-0319-4ce1-bc0d-de88ded0e9a8",
    "resource": {
      "resourceType": "Encounter",
      "id": "ffe74beb-0319-4ce1-bc0d-de88ded0e9a8",
      "meta": {
        "profile": [ "http://hl7.org/fhir/us/qicore/StructureDefinition/qicore-encounter" ]
      },
      "status": "finished",
      "class": {
        "system": "http://terminology.hl7.org/CodeSystem/v3-ActCode",
        "code": "IMP",
        "display": "inpatient encounter"
      },
      "type": [ {
        "coding": [ {
          "system": "http://snomed.info/sct",
          "code": "8715000"
        } ]
      } ],
      "subject": {
        "reference": "Patient/f8f09525-80ac-4f58-80ff-74033387f5df"
      },
      "period": {
        "start": "2026-11-01T08:00:00.000+00:00",
        "end": "2026-11-26T08:15:00.000+00:00"
      },
      "length": {
        "value": 25,
        "unit": "days"
      },
      "location": [ {
        "location": {
          "reference": "Location/aecbee80-4b0a-41ec-968a-67d2b432f8d0"
        },
        "period": {
          "start": "2026-11-04T09:00:00.000+00:00",
          "end": "2026-11-06T08:15:00.000+00:00"
        }
      } ]
    },
    "request": {
      "method": "PUT",
      "url": "Encounter/ffe74beb-0319-4ce1-bc0d-de88ded0e9a8"
    }
  }, {
    "fullUrl": "https://madie.cms.gov/Coverage/4769655d-efa6-4d8c-b3af-b3860e0e958c",
    "resource": {
      "resourceType": "Coverage",
      "id": "4769655d-efa6-4d8c-b3af-b3860e0e958c",
      "status": "active",
      "beneficiary": {
        "reference": "Patient/f8f09525-80ac-4f58-80ff-74033387f5df"
      },
      "period": {
        "start": "1975-01-02T08:00:00.000+00:00"
      },
      "payor": [ {
        "reference": "Organization/e49d8a5f-220e-4572-adf7-9ff7419926e3"
      } ]
    },
    "request": {
      "method": "PUT",
      "url": "Coverage/4769655d-efa6-4d8c-b3af-b3860e0e958c"
    }
  }, {
    "fullUrl": "https://madie.cms.gov/MedicationRequest/f2f7c0b2-6381-4298-b413-9b623c00f0a6",
    "resource": {
      "resourceType": "MedicationRequest",
      "id": "f2f7c0b2-6381-4298-b413-9b623c00f0a6",
      "meta": {
        "profile": [ "http://hl7.org/fhir/us/qicore/StructureDefinition/qicore-medicationnotrequested" ]
      },
      "status": "completed",
      "intent": "order",
      "category": [ {
        "coding": [ {
          "system": "http://terminology.hl7.org/CodeSystem/medicationrequest-category",
          "code": "community"
        } ]
      } ],
      "doNotPerform": true,
      "medicationCodeableConcept": {
        "coding": [ {
          "system": "http://www.nlm.nih.gov/research/umls/rxnorm",
          "code": "1114198"
        } ]
      },
      "subject": {
        "reference": "Patient/f8f09525-80ac-4f58-80ff-74033387f5df"
      },
      "authoredOn": "2026-11-05T07:00:00.000+00:00",
      "requester": {
        "reference": "Practitioner/123456"
      },
      "reasonCode": [ {
        "coding": [ {
          "system": "http://snomed.info/sct",
          "code": "443390004",
          "display": "Refusal of treatment by patient (situation)",
          "userSelected": true
        } ]
      } ]
    },
    "request": {
      "method": "PUT",
      "url": "MedicationRequest/f2f7c0b2-6381-4298-b413-9b623c00f0a6"
    }
  }, {
    "fullUrl": "https://madie.cms.gov/Procedure/20063ec1-cfba-4c21-b798-b5ba79a3def7",
    "resource": {
      "resourceType": "Procedure",
      "id": "20063ec1-cfba-4c21-b798-b5ba79a3def7",
      "meta": {
        "profile": [ "http://hl7.org/fhir/us/qicore/StructureDefinition/qicore-procedure" ]
      },
      "extension": [ {
        "url": "http://hl7.org/fhir/us/qicore/StructureDefinition/qicore-recorded",
        "valueDateTime": "2026-11-05T09:35:00.000+00:00"
      } ],
      "status": "completed",
      "code": {
        "coding": [ {
          "system": "http://snomed.info/sct",
          "code": "18946005"
        } ]
      },
      "subject": {
        "reference": "Patient/f8f09525-80ac-4f58-80ff-74033387f5df"
      },
      "performedDateTime": "2026-11-05T09:15:00.000+00:00"
    },
    "request": {
      "method": "PUT",
      "url": "Procedure/20063ec1-cfba-4c21-b798-b5ba79a3def7"
    }
  }, {
    "fullUrl": "https://madie.cms.gov/Location/aecbee80-4b0a-41ec-968a-67d2b432f8d0",
    "resource": {
      "resourceType": "Location",
      "id": "aecbee80-4b0a-41ec-968a-67d2b432f8d0",
      "meta": {
        "profile": [ "http://hl7.org/fhir/us/qicore/StructureDefinition/qicore-location" ]
      },
      "identifier": [ {
        "use": "usual",
        "system": "http://exampleoflocation.com",
        "value": "B1-S.F2"
      } ],
      "name": "Medical Surgical East, first floor",
      "type": [ {
        "coding": [ {
          "system": "https://www.cdc.gov/nhsn/cdaportal/terminology/codesystem/hsloc.html",
          "code": "1025-6",
          "display": "Trauma Critical Care",
          "userSelected": true
        } ]
      } ]
    },
    "request": {
      "method": "PUT",
      "url": "Location/aecbee80-4b0a-41ec-968a-67d2b432f8d0"
    }
  }, {
    "fullUrl": "https://madie.cms.gov/Organization/e49d8a5f-220e-4572-adf7-9ff7419926e3",
    "resource": {
      "resourceType": "Organization",
      "id": "e49d8a5f-220e-4572-adf7-9ff7419926e3",
      "meta": {
        "profile": [ "http://hl7.org/fhir/us/qicore/StructureDefinition/qicore-organization" ]
      },
      "identifier": [ {
        "use": "temp",
        "system": "urn:oid:2.16.840.1.113883.4.4",
        "value": "21-3259825"
      } ],
      "active": true,
      "type": [ {
        "coding": [ {
          "system": "http://terminology.hl7.org/CodeSystem/organization-type",
          "code": "pay",
          "display": "Payer"
        } ]
      } ],
      "name": "Blue Cross Blue Shield of Texas",
      "telecom": [ {
        "system": "phone",
        "value": "(+1) 972-766-6900"
      } ],
      "address": [ {
        "use": "billing",
        "type": "postal",
        "line": [ "P.O. Box 660044" ],
        "city": "Dallas",
        "state": "TX",
        "postalCode": "75266-0044",
        "country": "USA"
      } ]
    },
    "request": {
      "method": "PUT",
      "url": "Organization/e49d8a5f-220e-4572-adf7-9ff7419926e3"
    }
  }, {
    "fullUrl": "https://madie.cms.gov/Practitioner/5c15f7df-4931-48f3-8f58-b83334e65459",
    "resource": {
      "resourceType": "Practitioner",
      "id": "5c15f7df-4931-48f3-8f58-b83334e65459",
      "identifier": [ {
        "system": "http://hl7.org/fhir/sid/us-npi",
        "value": "123456"
      } ],
      "name": [ {
        "family": "Evil",
        "prefix": [ "Dr" ]
      } ]
    },
    "request": {
      "method": "PUT",
      "url": "Practitioner/5c15f7df-4931-48f3-8f58-b83334e65459"
    }
  }, {
    "fullUrl": "https://madie.cms.gov/MeasureReport/cafff5a8-b149-44b3-ad94-87d89ef5f738",
    "resource": {
      "resourceType": "MeasureReport",
      "id": "cafff5a8-b149-44b3-ad94-87d89ef5f738",
      "meta": {
        "profile": [ "http://hl7.org/fhir/us/cqfmeasures/StructureDefinition/test-case-cqfm" ]
      },
      "contained": [ {
        "resourceType": "Parameters",
        "id": "be02de56-d5ee-40ea-9d98-58c0f7d0114f-parameters",
        "parameter": [ {
          "name": "subject",
          "valueString": "f8f09525-80ac-4f58-80ff-74033387f5df"
        } ]
      } ],
      "extension": [ {
        "url": "http://hl7.org/fhir/StructureDefinition/cqf-inputParameters",
        "valueReference": {
          "reference": "#be02de56-d5ee-40ea-9d98-58c0f7d0114f-parameters"
        }
      }, {
        "url": "http://hl7.org/fhir/us/cqfmeasures/StructureDefinition/cqfm-testCaseDescription",
        "valueMarkdown": "Injectable factor Xa inhibitor  not ordered due to patient refusal after neuraxial anesthesia, which is 1 day after ICU adm\n"
      } ],
      "modifierExtension": [ {
        "url": "http://hl7.org/fhir/us/cqfmeasures/StructureDefinition/cqfm-isTestCase",
        "valueBoolean": true
      } ],
      "status": "complete",
      "type": "individual",
      "measure": "https://madie.cms.gov/Measure/CMS190VTEProphylaxisICUFHIR",
      "period": {
        "start": "2026-01-01",
        "end": "2026-12-31"
      },
      "group": [ {
        "id": "Group_1",
        "population": [ {
          "id": "InitialPopulation_1",
          "code": {
            "coding": [ {
              "system": "http://terminology.hl7.org/CodeSystem/measure-population",
              "code": "initial-population",
              "display": "Initial Population"
            } ]
          },
          "count": 1
        }, {
          "id": "Denominator_1",
          "code": {
            "coding": [ {
              "system": "http://terminology.hl7.org/CodeSystem/measure-population",
              "code": "denominator",
              "display": "Denominator"
            } ]
          },
          "count": 1
        }, {
          "id": "DenominatorExclusion_1",
          "code": {
            "coding": [ {
              "system": "http://terminology.hl7.org/CodeSystem/measure-population",
              "code": "denominator-exclusion",
              "display": "Denominator Exclusion"
            } ]
          },
          "count": 0
        }, {
          "id": "Numerator_1",
          "code": {
            "coding": [ {
              "system": "http://terminology.hl7.org/CodeSystem/measure-population",
              "code": "numerator",
              "display": "Numerator"
            } ]
          },
          "count": 1
        }, {
          "id": "DenominatorException_1",
          "code": {
            "coding": [ {
              "system": "http://terminology.hl7.org/CodeSystem/measure-population",
              "code": "denominator-exception",
              "display": "Denominator Exception"
            } ]
          },
          "count": 0
        } ],
        "measureScore": {
          "value": 0.0
        }
      } ],
      "evaluatedResource": [ {
        "reference": "Patient/f8f09525-80ac-4f58-80ff-74033387f5df"
      }, {
        "reference": "Encounter/ffe74beb-0319-4ce1-bc0d-de88ded0e9a8"
      }, {
        "reference": "Coverage/4769655d-efa6-4d8c-b3af-b3860e0e958c"
      }, {
        "reference": "MedicationRequest/f2f7c0b2-6381-4298-b413-9b623c00f0a6"
      }, {
        "reference": "Procedure/20063ec1-cfba-4c21-b798-b5ba79a3def7"
      }, {
        "reference": "Location/aecbee80-4b0a-41ec-968a-67d2b432f8d0"
      }, {
        "reference": "Organization/e49d8a5f-220e-4572-adf7-9ff7419926e3"
      }, {
        "reference": "Practitioner/5c15f7df-4931-48f3-8f58-b83334e65459"
      } ]
    },
    "request": {
      "method": "PUT",
      "url": "MeasureReport/cafff5a8-b149-44b3-ad94-87d89ef5f738"
    }
  } ]
}