{
    "entry": [
        {
            "request": {
                "method": "PUT",
                "url": "Patient/631fbecb-2bdc-4e1e-a9e1-52357222474a"
            },
            "resource": {
                "identifier": [{
                    "system": "https://bonnie-fhir.healthit.gov/",
                    "type": {"coding": [{
                        "system": "http://terminology.hl7.org/CodeSystem/v2-0203",
                        "code": "MR"
                    }]},
                    "value": "62fa89c3d13907679e12d618"
                }],
                "extension": [
                    {
                        "extension": [
                            {
                                "valueCoding": {
                                    "system": "urn:oid:2.16.840.1.113883.6.238",
                                    "code": "2028-9",
                                    "userSelected": true,
                                    "display": "Asian"
                                },
                                "url": "ombCategory"
                            },
                            {
                                "valueString": "Asian",
                                "url": "text"
                            }
                        ],
                        "url": "http://hl7.org/fhir/us/core/StructureDefinition/us-core-race"
                    },
                    {
                        "extension": [
                            {
                                "valueCoding": {
                                    "system": "urn:oid:2.16.840.1.113883.6.238",
                                    "code": "2186-5",
                                    "userSelected": true,
                                    "display": "Not Hispanic or Latino"
                                },
                                "url": "ombCategory"
                            },
                            {
                                "valueString": "Not Hispanic or Latino",
                                "url": "text"
                            }
                        ],
                        "url": "http://hl7.org/fhir/us/core/StructureDefinition/us-core-ethnicity"
                    }
                ],
                "gender": "female",
                "meta": {"profile": ["http://hl7.org/fhir/us/qicore/StructureDefinition/qicore-patient"]},
                "name": [{
                    "given": ["NormalBPStatusEnteredInError"],
                    "family": "NUMERFail"
                }],
                "id": "631fbecb-2bdc-4e1e-a9e1-52357222474a",
                "birthDate": "2006-01-31",
                "resourceType": "Patient"
            },
            "fullUrl": "https://madie.cms.gov/Patient/631fbecb-2bdc-4e1e-a9e1-52357222474a"
        },
        {
            "request": {
                "method": "PUT",
                "url": "Encounter/bf7ba0ef-c56a-4e51-a12d-d45ee43e71a0"
            },
            "resource": {
                "period": {
                    "start": "2026-01-01T08:00:00.000+00:00",
                    "end": "2026-01-01T11:30:00.000+00:00"
                },
                "meta": {"profile": ["http://hl7.org/fhir/us/qicore/StructureDefinition/qicore-encounter"]},
                "subject": {"reference": "Patient/631fbecb-2bdc-4e1e-a9e1-52357222474a"},
                "id": "bf7ba0ef-c56a-4e51-a12d-d45ee43e71a0",
                "type": [{"coding": [{
                    "system": "http://snomed.info/sct",
                    "code": "103705002",
                    "userSelected": true,
                    "display": "Patient status observation (procedure)",
                    "version": "2022-03"
                }]}],
                "class": {
                    "system": "http://terminology.hl7.org/CodeSystem/v3-ActCode",
                    "code": "AMB",
                    "display": "ambulatory"
                },
                "resourceType": "Encounter",
                "status": "finished"
            },
            "fullUrl": "https://madie.cms.gov/Encounter/bf7ba0ef-c56a-4e51-a12d-d45ee43e71a0"
        },
        {
            "request": {
                "method": "PUT",
                "url": "Observation/ce6a9d6e-ba80-424e-8da1-6ab2f4d36d9e"
            },
            "resource": {
                "component": [
                    {
                        "code": {
                            "coding": [{
                                "system": "http://loinc.org",
                                "code": "8480-6",
                                "display": "Systolic blood pressure"
                            }],
                            "text": "Systolic blood pressure"
                        },
                        "valueQuantity": {
                            "unit": "mmHg",
                            "system": "http://unitsofmeasure.org",
                            "code": "mm[Hg]",
                            "value": 119
                        }
                    },
                    {
                        "code": {
                            "coding": [{
                                "system": "http://loinc.org",
                                "code": "8462-4",
                                "display": "Diastolic blood pressure"
                            }],
                            "text": "Diastolic blood pressure"
                        },
                        "valueQuantity": {
                            "unit": "mmHg",
                            "system": "http://unitsofmeasure.org",
                            "code": "mm[Hg]",
                            "value": 79
                        }
                    }
                ],
                "code": {
                    "coding": [{
                        "system": "http://loinc.org",
                        "code": "85354-9",
                        "display": "Blood pressure panel with all children optional"
                    }],
                    "text": "Blood pressure systolic and diastolic"
                },
                "effectiveDateTime": "2026-01-01T08:05:00.000+00:00",
                "meta": {"profile": ["http://hl7.org/fhir/us/core/StructureDefinition/us-core-blood-pressure"]},
                "subject": {"reference": "Patient/631fbecb-2bdc-4e1e-a9e1-52357222474a"},
                "id": "ce6a9d6e-ba80-424e-8da1-6ab2f4d36d9e",
                "category": [{
                    "coding": [{
                        "system": "http://terminology.hl7.org/CodeSystem/observation-category",
                        "code": "vital-signs",
                        "display": "Vital Signs"
                    }],
                    "text": "Vital Signs"
                }],
                "resourceType": "Observation",
                "status": "entered-in-error"
            },
            "fullUrl": "https://madie.cms.gov/Observation/ce6a9d6e-ba80-424e-8da1-6ab2f4d36d9e"
        },
        {
            "request": {
                "method": "PUT",
                "url": "Coverage/727c7fe8-0d56-44cb-82d6-632a1df2a001"
            },
            "resource": {
                "payor": [{"reference": "Organization/08d39482-9775-4676-8dcd-7ddca04e2e41"}],
                "beneficiary": {"reference": "Patient/631fbecb-2bdc-4e1e-a9e1-52357222474a"},
                "meta": {"profile": ["http://hl7.org/fhir/us/qicore/StructureDefinition/qicore-coverage"]},
                "id": "727c7fe8-0d56-44cb-82d6-632a1df2a001",
                "resourceType": "Coverage",
                "status": "active"
            },
            "fullUrl": "https://madie.cms.gov/Coverage/727c7fe8-0d56-44cb-82d6-632a1df2a001"
        },
        {
            "request": {
                "method": "PUT",
                "url": "Organization/08d39482-9775-4676-8dcd-7ddca04e2e41"
            },
            "resource": {
                "identifier": [{
                    "system": "urn:oid:2.16.840.1.113883.4.4",
                    "use": "temp",
                    "value": "21-3259825"
                }],
                "address": [{
                    "country": "USA",
                    "city": "Dallas",
                    "use": "billing",
                    "line": ["P.O. Box 660044"],
                    "postalCode": "75266-0044",
                    "state": "TX",
                    "type": "postal"
                }],
                "meta": {"profile": ["http://hl7.org/fhir/us/qicore/StructureDefinition/qicore-organization"]},
                "name": "Blue Cross Blue Shield of Texas",
                "active": true,
                "telecom": [{
                    "system": "phone",
                    "value": "(+1) 972-766-6900"
                }],
                "id": "08d39482-9775-4676-8dcd-7ddca04e2e41",
                "type": [{"coding": [{
                    "system": "http://terminology.hl7.org/CodeSystem/organization-type",
                    "code": "pay",
                    "display": "Payer"
                }]}],
                "resourceType": "Organization"
            },
            "fullUrl": "https://madie.cms.gov/Organization/08d39482-9775-4676-8dcd-7ddca04e2e41"
        },
        {
            "request": {
                "method": "PUT",
                "url": "Practitioner/1890c237-7bb4-4b97-bb09-75e70d0105cf"
            },
            "resource": {
                "identifier": [{
                    "system": "http://hl7.org/fhir/sid/us-npi",
                    "value": "123456"
                }],
                "meta": {"profile": ["http://hl7.org/fhir/us/qicore/StructureDefinition/qicore-practitioner"]},
                "name": [{
                    "prefix": ["Dr"],
                    "family": "Evil"
                }],
                "id": "1890c237-7bb4-4b97-bb09-75e70d0105cf",
                "resourceType": "Practitioner"
            },
            "fullUrl": "https://madie.cms.gov/Practitioner/1890c237-7bb4-4b97-bb09-75e70d0105cf"
        },
        {
            "request": {
                "method": "PUT",
                "url": "MeasureReport/4906f077-20a2-44f4-89f5-b52d3b08ca33"
            },
            "resource": {
                "contained": [{
                    "parameter": [{
                        "valueString": "631fbecb-2bdc-4e1e-a9e1-52357222474a",
                        "name": "subject"
                    }],
                    "id": "921cef2e-4c0a-420f-8521-99e9e2453f3b-parameters",
                    "resourceType": "Parameters"
                }],
                "extension": [
                    {
                        "valueReference": {"reference": "#921cef2e-4c0a-420f-8521-99e9e2453f3b-parameters"},
                        "url": "http://hl7.org/fhir/StructureDefinition/cqf-inputParameters"
                    },
                    {
                        "valueMarkdown": "Age 18 or older, encounter first day of MP, Normal BP reading but systolic status \"entered in error\". ",
                        "url": "http://hl7.org/fhir/us/cqfmeasures/StructureDefinition/cqfm-testCaseDescription"
                    }
                ],
                "period": {
                    "start": "2026-01-01",
                    "end": "2026-12-31"
                },
                "measure": "https://madie.cms.gov/Measure/CMS22FHIRPCSBPScreeningFollowUp",
                "meta": {"profile": ["http://hl7.org/fhir/us/cqfmeasures/StructureDefinition/test-case-cqfm"]},
                "modifierExtension": [{
                    "valueBoolean": true,
                    "url": "http://hl7.org/fhir/us/cqfmeasures/StructureDefinition/cqfm-isTestCase"
                }],
                "id": "4906f077-20a2-44f4-89f5-b52d3b08ca33",
                "evaluatedResource": [
                    {"reference": "Patient/631fbecb-2bdc-4e1e-a9e1-52357222474a"},
                    {"reference": "Encounter/bf7ba0ef-c56a-4e51-a12d-d45ee43e71a0"},
                    {"reference": "Observation/ce6a9d6e-ba80-424e-8da1-6ab2f4d36d9e"},
                    {"reference": "Coverage/727c7fe8-0d56-44cb-82d6-632a1df2a001"},
                    {"reference": "Organization/08d39482-9775-4676-8dcd-7ddca04e2e41"},
                    {"reference": "Practitioner/1890c237-7bb4-4b97-bb09-75e70d0105cf"}
                ],
                "type": "individual",
                "resourceType": "MeasureReport",
                "status": "complete",
                "group": [{
                    "id": "Group_1",
                    "measureScore": {"value": 0},
                    "population": [
                        {
                            "code": {"coding": [{
                                "system": "http://terminology.hl7.org/CodeSystem/measure-population",
                                "code": "initial-population",
                                "display": "Initial Population"
                            }]},
                            "count": 1,
                            "id": "InitialPopulation_1"
                        },
                        {
                            "code": {"coding": [{
                                "system": "http://terminology.hl7.org/CodeSystem/measure-population",
                                "code": "denominator",
                                "display": "Denominator"
                            }]},
                            "count": 1,
                            "id": "Denominator_1"
                        },
                        {
                            "code": {"coding": [{
                                "system": "http://terminology.hl7.org/CodeSystem/measure-population",
                                "code": "denominator-exclusion",
                                "display": "Denominator Exclusion"
                            }]},
                            "count": 0,
                            "id": "DenominatorExclusion_1"
                        },
                        {
                            "code": {"coding": [{
                                "system": "http://terminology.hl7.org/CodeSystem/measure-population",
                                "code": "numerator",
                                "display": "Numerator"
                            }]},
                            "count": 0,
                            "id": "Numerator_1"
                        },
                        {
                            "code": {"coding": [{
                                "system": "http://terminology.hl7.org/CodeSystem/measure-population",
                                "code": "denominator-exception",
                                "display": "Denominator Exception"
                            }]},
                            "count": 0,
                            "id": "DenominatorException_1"
                        }
                    ]
                }]
            },
            "fullUrl": "https://madie.cms.gov/MeasureReport/4906f077-20a2-44f4-89f5-b52d3b08ca33"
        }
    ],
    "id": "62fa89c3d13907679e12d618",
    "type": "transaction",
    "resourceType": "Bundle"
}