{
  "resourceType": "Bundle",
  "id": "ScreAtriRefNoasseDxNocp",
  "type": "transaction",
  "entry": [ {
    "fullUrl": "https://madie.cms.gov/Patient/37b7fdb2-4aa2-4cbb-ab87-5db3cf7bcf33",
    "resource": {
      "resourceType": "Patient",
      "id": "37b7fdb2-4aa2-4cbb-ab87-5db3cf7bcf33",
      "meta": {
        "profile": [ "http://hl7.org/fhir/us/qicore/StructureDefinition/qicore-patient" ]
      },
      "extension": [ {
        "url": "http://hl7.org/fhir/us/core/StructureDefinition/us-core-race",
        "extension": [ {
          "url": "ombCategory",
          "valueCoding": {
            "system": "urn:oid:2.16.840.1.113883.6.238",
            "code": "2076-8",
            "display": "Native Hawaiian or other Pacific Islander",
            "userSelected": true
          }
        }, {
          "url": "text",
          "valueString": "Native Hawaiian or other Pacific Islander"
        } ]
      }, {
        "url": "http://hl7.org/fhir/us/core/StructureDefinition/us-core-ethnicity",
        "extension": [ {
          "url": "ombCategory",
          "valueCoding": {
            "system": "urn:oid:2.16.840.1.113883.6.238",
            "code": "2186-5",
            "display": "Not Hispanic or Latino",
            "userSelected": true
          }
        }, {
          "url": "text",
          "valueString": "Not Hispanic or Latino"
        } ]
      }, {
        "url": "http://hl7.org/fhir/us/core/StructureDefinition/us-core-sex",
        "valueCode": "248153007"
      } ],
      "identifier": [ {
        "type": {
          "coding": [ {
            "system": "http://terminology.hl7.org/CodeSystem/v2-0203",
            "code": "MR"
          } ]
        },
        "system": "https://madie.cms.gov/",
        "value": "ScreAtriRefNoasseDxNocp"
      } ],
      "active": true,
      "name": [ {
        "use": "usual",
        "text": "ScreAtriRefNoasseDxNocp",
        "family": "MSROBSPass2",
        "given": [ "ScreAtriRefNoasseDxNocp" ]
      } ],
      "gender": "male",
      "birthDate": "1956-01-01",
      "address": [ {
        "text": "ScreAtriRefNoasseDxNocp, Screened at risk not Assessed Severely Malnourished Diagnosed Care Plan, ID=ScreAtriRefNoasseDxNocp, DOB: 01 Jan 1956"
      } ]
    },
    "request": {
      "method": "PUT",
      "url": "Patient/37b7fdb2-4aa2-4cbb-ab87-5db3cf7bcf33"
    }
  }, {
    "fullUrl": "https://madie.cms.gov/Encounter/f0f31462-e680-48bc-a03e-dcf444e77c8a",
    "resource": {
      "resourceType": "Encounter",
      "id": "f0f31462-e680-48bc-a03e-dcf444e77c8a",
      "meta": {
        "profile": [ "http://hl7.org/fhir/us/qicore/StructureDefinition/qicore-encounter" ]
      },
      "status": "finished",
      "class": {
        "system": "http://terminology.hl7.org/CodeSystem/v3-ActCode",
        "code": "IMP",
        "display": "inpatient encounter"
      },
      "type": [ {
        "coding": [ {
          "system": "http://snomed.info/sct",
          "code": "32485007"
        } ]
      } ],
      "subject": {
        "reference": "Patient/37b7fdb2-4aa2-4cbb-ab87-5db3cf7bcf33"
      },
      "period": {
        "start": "2026-07-01T08:00:00.000+00:00",
        "end": "2026-07-11T08:15:00.000+00:00"
      }
    },
    "request": {
      "method": "PUT",
      "url": "Encounter/f0f31462-e680-48bc-a03e-dcf444e77c8a"
    }
  }, {
    "fullUrl": "https://madie.cms.gov/Condition/c622aea0-04fd-4ea5-896a-654ccea12182",
    "resource": {
      "resourceType": "Condition",
      "id": "c622aea0-04fd-4ea5-896a-654ccea12182",
      "meta": {
        "profile": [ "http://hl7.org/fhir/us/qicore/StructureDefinition/qicore-condition-encounter-diagnosis" ]
      },
      "clinicalStatus": {
        "coding": [ {
          "system": "http://terminology.hl7.org/CodeSystem/condition-clinical",
          "code": "active",
          "display": "Active",
          "userSelected": true
        } ]
      },
      "verificationStatus": {
        "coding": [ {
          "system": "http://terminology.hl7.org/CodeSystem/condition-ver-status",
          "code": "confirmed",
          "display": "Confirmed",
          "userSelected": true
        } ]
      },
      "category": [ {
        "coding": [ {
          "system": "http://terminology.hl7.org/CodeSystem/condition-category",
          "code": "encounter-diagnosis",
          "display": "Encounter Diagnosis",
          "userSelected": true
        } ]
      } ],
      "code": {
        "coding": [ {
          "system": "http://snomed.info/sct",
          "code": "371597004",
          "display": "Emaciated (finding)",
          "userSelected": true
        } ]
      },
      "subject": {
        "reference": "Patient/37b7fdb2-4aa2-4cbb-ab87-5db3cf7bcf33"
      },
      "onsetPeriod": {
        "start": "2026-07-01T08:00:00.000+00:00"
      },
      "recordedDate": "2026-07-01T11:00:00.000+00:00"
    },
    "request": {
      "method": "PUT",
      "url": "Condition/c622aea0-04fd-4ea5-896a-654ccea12182"
    }
  }, {
    "fullUrl": "https://madie.cms.gov/Observation/bfd18f43-fe0f-4a6e-b4dd-efb77098055a",
    "resource": {
      "resourceType": "Observation",
      "id": "bfd18f43-fe0f-4a6e-b4dd-efb77098055a",
      "meta": {
        "profile": [ "http://hl7.org/fhir/us/qicore/StructureDefinition/qicore-observation-screening-assessment" ]
      },
      "status": "final",
      "category": [ {
        "coding": [ {
          "system": "http://terminology.hl7.org/CodeSystem/observation-category",
          "code": "survey",
          "display": "Survey"
        } ]
      } ],
      "code": {
        "coding": [ {
          "system": "http://loinc.org",
          "code": "98968-1",
          "display": "Initial screening NRS_2002",
          "userSelected": true
        } ]
      },
      "subject": {
        "reference": "Patient/37b7fdb2-4aa2-4cbb-ab87-5db3cf7bcf33"
      },
      "effectiveDateTime": "2026-07-01T09:00:00.000+00:00",
      "valueCodeableConcept": {
        "coding": [ {
          "system": "http://snomed.info/sct",
          "code": "129845004",
          "display": "At increased risk for imbalanced nutrition, less than body requirements (finding)",
          "userSelected": true
        } ]
      }
    },
    "request": {
      "method": "PUT",
      "url": "Observation/bfd18f43-fe0f-4a6e-b4dd-efb77098055a"
    }
  }, {
    "fullUrl": "https://madie.cms.gov/Procedure/7aaf19be-5e0c-4f74-ac2f-bb98f6c39cd3",
    "resource": {
      "resourceType": "Procedure",
      "id": "7aaf19be-5e0c-4f74-ac2f-bb98f6c39cd3",
      "meta": {
        "profile": [ "http://hl7.org/fhir/us/qicore/StructureDefinition/qicore-procedure" ]
      },
      "extension": [ {
        "url": "http://hl7.org/fhir/us/qicore/StructureDefinition/qicore-recorded",
        "valueDateTime": "2025-07-01T11:30:00.000+00:00"
      } ],
      "status": "completed",
      "code": {
        "coding": [ {
          "system": "http://snomed.info/sct",
          "code": "306354000",
          "display": "Referral to hospital-based dietitian (procedure)"
        } ],
        "text": "Referral to hospital-based dietitian (procedure)"
      },
      "subject": {
        "reference": "Patient/37b7fdb2-4aa2-4cbb-ab87-5db3cf7bcf33"
      },
      "encounter": {
        "reference": "Encounter/ScreAtriRefNoasseDxNocpMSROBSPass2"
      },
      "performedPeriod": {
        "start": "2026-07-01T11:30:00.000+00:00",
        "end": "2026-07-07T08:15:00.000+00:00"
      }
    },
    "request": {
      "method": "PUT",
      "url": "Procedure/7aaf19be-5e0c-4f74-ac2f-bb98f6c39cd3"
    }
  }, {
    "fullUrl": "https://madie.cms.gov/Coverage/f43fbda3-36a8-497d-981b-da496132cf64",
    "resource": {
      "resourceType": "Coverage",
      "id": "f43fbda3-36a8-497d-981b-da496132cf64",
      "meta": {
        "profile": [ "http://hl7.org/fhir/us/qicore/StructureDefinition/qicore-coverage" ]
      },
      "status": "active",
      "type": {
        "coding": [ {
          "system": "https://nahdo.org/sopt",
          "version": "9.2",
          "code": "11",
          "display": "Medicare Managed Care (Includes Medicare Advantage Plans)"
        } ]
      },
      "subscriberId": "97531",
      "beneficiary": {
        "reference": "Patient/37b7fdb2-4aa2-4cbb-ab87-5db3cf7bcf33"
      },
      "dependent": "0",
      "relationship": {
        "coding": [ {
          "system": "http://terminology.hl7.org/CodeSystem/subscriber-relationship",
          "code": "self"
        } ]
      },
      "period": {
        "start": "2024-10-01T00:00:00.000+00:00"
      },
      "payor": [ {
        "reference": "Organization/ScreAtriRefNoasseDxNocp-98"
      } ]
    },
    "request": {
      "method": "PUT",
      "url": "Coverage/f43fbda3-36a8-497d-981b-da496132cf64"
    }
  }, {
    "fullUrl": "https://madie.cms.gov/MeasureReport/921931e2-153c-486a-a162-37ec607d80c4",
    "resource": {
      "resourceType": "MeasureReport",
      "id": "921931e2-153c-486a-a162-37ec607d80c4",
      "meta": {
        "profile": [ "http://hl7.org/fhir/us/cqfmeasures/StructureDefinition/test-case-cqfm" ]
      },
      "contained": [ {
        "resourceType": "Parameters",
        "id": "9e50454d-2a24-4617-b295-e0fd27515cfe-parameters",
        "parameter": [ {
          "name": "subject",
          "valueString": "37b7fdb2-4aa2-4cbb-ab87-5db3cf7bcf33"
        } ]
      } ],
      "extension": [ {
        "url": "http://hl7.org/fhir/StructureDefinition/cqf-inputParameters",
        "valueReference": {
          "reference": "#9e50454d-2a24-4617-b295-e0fd27515cfe-parameters"
        }
      }, {
        "url": "http://hl7.org/fhir/us/cqfmeasures/StructureDefinition/cqfm-testCaseDescription",
        "valueMarkdown": "Screened, At Risk, Referral, Not Assessed, Diagnosis, No Nutrition Care Plan"
      } ],
      "modifierExtension": [ {
        "url": "http://hl7.org/fhir/us/cqfmeasures/StructureDefinition/cqfm-isTestCase",
        "valueBoolean": true
      } ],
      "status": "complete",
      "type": "individual",
      "measure": "https://madie.cms.gov/Measure/CMS986FHIRMalnutritionScore",
      "period": {
        "start": "2026-01-01",
        "end": "2026-12-31"
      },
      "group": [ {
        "id": "Group_1",
        "population": [ {
          "id": "InitialPopulation_1",
          "code": {
            "coding": [ {
              "system": "http://terminology.hl7.org/CodeSystem/measure-population",
              "code": "initial-population",
              "display": "Initial Population"
            } ]
          },
          "count": 1
        }, {
          "id": "MeasurePopulation_1",
          "code": {
            "coding": [ {
              "system": "http://terminology.hl7.org/CodeSystem/measure-population",
              "code": "measure-population",
              "display": "Measure Population"
            } ]
          },
          "count": 1
        }, {
          "id": "MeasurePopulationExclusion_1",
          "code": {
            "coding": [ {
              "system": "http://terminology.hl7.org/CodeSystem/measure-population",
              "code": "measure-population-exclusion",
              "display": "Measure Population Exclusion"
            } ]
          },
          "count": 0
        }, {
          "id": "MeasureObservation_1_1",
          "code": {
            "coding": [ {
              "system": "http://terminology.hl7.org/CodeSystem/measure-population",
              "code": "measure-population-observation",
              "display": "Measure Population Observation"
            } ]
          },
          "count": 1
        } ],
        "measureScore": {
          "value": 0.0
        }
      }, {
        "id": "Group_2",
        "population": [ {
          "id": "InitialPopulation_2",
          "code": {
            "coding": [ {
              "system": "http://terminology.hl7.org/CodeSystem/measure-population",
              "code": "initial-population",
              "display": "Initial Population"
            } ]
          },
          "count": 1
        }, {
          "id": "MeasurePopulation_2",
          "code": {
            "coding": [ {
              "system": "http://terminology.hl7.org/CodeSystem/measure-population",
              "code": "measure-population",
              "display": "Measure Population"
            } ]
          },
          "count": 1
        }, {
          "id": "MeasurePopulationExclusion_2",
          "code": {
            "coding": [ {
              "system": "http://terminology.hl7.org/CodeSystem/measure-population",
              "code": "measure-population-exclusion",
              "display": "Measure Population Exclusion"
            } ]
          },
          "count": 0
        }, {
          "id": "MeasureObservation_2_1",
          "code": {
            "coding": [ {
              "system": "http://terminology.hl7.org/CodeSystem/measure-population",
              "code": "measure-population-observation",
              "display": "Measure Population Observation"
            } ]
          },
          "count": 0
        } ],
        "measureScore": {
          "value": 0.0
        }
      }, {
        "id": "Group_3",
        "population": [ {
          "id": "InitialPopulation_3",
          "code": {
            "coding": [ {
              "system": "http://terminology.hl7.org/CodeSystem/measure-population",
              "code": "initial-population",
              "display": "Initial Population"
            } ]
          },
          "count": 1
        }, {
          "id": "MeasurePopulation_3",
          "code": {
            "coding": [ {
              "system": "http://terminology.hl7.org/CodeSystem/measure-population",
              "code": "measure-population",
              "display": "Measure Population"
            } ]
          },
          "count": 1
        }, {
          "id": "MeasurePopulationExclusion_3",
          "code": {
            "coding": [ {
              "system": "http://terminology.hl7.org/CodeSystem/measure-population",
              "code": "measure-population-exclusion",
              "display": "Measure Population Exclusion"
            } ]
          },
          "count": 0
        }, {
          "id": "MeasureObservation_3_1",
          "code": {
            "coding": [ {
              "system": "http://terminology.hl7.org/CodeSystem/measure-population",
              "code": "measure-population-observation",
              "display": "Measure Population Observation"
            } ]
          },
          "count": 0
        } ],
        "measureScore": {
          "value": 0.0
        }
      }, {
        "id": "Group_4",
        "population": [ {
          "id": "InitialPopulation_4",
          "code": {
            "coding": [ {
              "system": "http://terminology.hl7.org/CodeSystem/measure-population",
              "code": "initial-population",
              "display": "Initial Population"
            } ]
          },
          "count": 1
        }, {
          "id": "MeasurePopulation_4",
          "code": {
            "coding": [ {
              "system": "http://terminology.hl7.org/CodeSystem/measure-population",
              "code": "measure-population",
              "display": "Measure Population"
            } ]
          },
          "count": 1
        }, {
          "id": "MeasurePopulationExclusion_4",
          "code": {
            "coding": [ {
              "system": "http://terminology.hl7.org/CodeSystem/measure-population",
              "code": "measure-population-exclusion",
              "display": "Measure Population Exclusion"
            } ]
          },
          "count": 0
        }, {
          "id": "MeasureObservation_4_1",
          "code": {
            "coding": [ {
              "system": "http://terminology.hl7.org/CodeSystem/measure-population",
              "code": "measure-population-observation",
              "display": "Measure Population Observation"
            } ]
          },
          "count": 0
        } ],
        "measureScore": {
          "value": 0.0
        }
      }, {
        "id": "Group_5",
        "population": [ {
          "id": "InitialPopulation_5",
          "code": {
            "coding": [ {
              "system": "http://terminology.hl7.org/CodeSystem/measure-population",
              "code": "initial-population",
              "display": "Initial Population"
            } ]
          },
          "count": 1
        }, {
          "id": "MeasurePopulation_5",
          "code": {
            "coding": [ {
              "system": "http://terminology.hl7.org/CodeSystem/measure-population",
              "code": "measure-population",
              "display": "Measure Population"
            } ]
          },
          "count": 1
        }, {
          "id": "MeasurePopulationExclusion_5",
          "code": {
            "coding": [ {
              "system": "http://terminology.hl7.org/CodeSystem/measure-population",
              "code": "measure-population-exclusion",
              "display": "Measure Population Exclusion"
            } ]
          },
          "count": 0
        }, {
          "id": "MeasureObservation_5_1",
          "code": {
            "coding": [ {
              "system": "http://terminology.hl7.org/CodeSystem/measure-population",
              "code": "measure-population-observation",
              "display": "Measure Population Observation"
            } ]
          },
          "count": 1
        } ],
        "measureScore": {
          "value": 0.0
        }
      }, {
        "id": "Group_6",
        "population": [ {
          "id": "InitialPopulation_6",
          "code": {
            "coding": [ {
              "system": "http://terminology.hl7.org/CodeSystem/measure-population",
              "code": "initial-population",
              "display": "Initial Population"
            } ]
          },
          "count": 1
        }, {
          "id": "MeasurePopulation_6",
          "code": {
            "coding": [ {
              "system": "http://terminology.hl7.org/CodeSystem/measure-population",
              "code": "measure-population",
              "display": "Measure Population"
            } ]
          },
          "count": 1
        }, {
          "id": "MeasurePopulationExclusion_6",
          "code": {
            "coding": [ {
              "system": "http://terminology.hl7.org/CodeSystem/measure-population",
              "code": "measure-population-exclusion",
              "display": "Measure Population Exclusion"
            } ]
          },
          "count": 0
        }, {
          "id": "MeasureObservation_6_1",
          "code": {
            "coding": [ {
              "system": "http://terminology.hl7.org/CodeSystem/measure-population",
              "code": "measure-population-observation",
              "display": "Measure Population Observation"
            } ]
          },
          "count": 50
        } ],
        "measureScore": {
          "value": 0.0
        }
      } ],
      "evaluatedResource": [ {
        "reference": "Patient/37b7fdb2-4aa2-4cbb-ab87-5db3cf7bcf33"
      }, {
        "reference": "Encounter/f0f31462-e680-48bc-a03e-dcf444e77c8a"
      }, {
        "reference": "Condition/c622aea0-04fd-4ea5-896a-654ccea12182"
      }, {
        "reference": "Observation/bfd18f43-fe0f-4a6e-b4dd-efb77098055a"
      }, {
        "reference": "Procedure/7aaf19be-5e0c-4f74-ac2f-bb98f6c39cd3"
      }, {
        "reference": "Coverage/f43fbda3-36a8-497d-981b-da496132cf64"
      } ]
    },
    "request": {
      "method": "PUT",
      "url": "MeasureReport/921931e2-153c-486a-a162-37ec607d80c4"
    }
  } ]
}