{
  "resourceType": "Bundle",
  "id": "ScreNotatriRefNoasseDxNcp",
  "type": "transaction",
  "entry": [ {
    "fullUrl": "https://madie.cms.gov/Patient/ae722bd4-32c2-4e5f-a1a8-743bdd9800f6",
    "resource": {
      "resourceType": "Patient",
      "id": "ae722bd4-32c2-4e5f-a1a8-743bdd9800f6",
      "meta": {
        "profile": [ "http://hl7.org/fhir/us/qicore/StructureDefinition/qicore-patient" ]
      },
      "extension": [ {
        "url": "http://hl7.org/fhir/us/core/StructureDefinition/us-core-race",
        "extension": [ {
          "url": "ombCategory",
          "valueCoding": {
            "system": "urn:oid:2.16.840.1.113883.6.238",
            "code": "2106-3",
            "display": "White",
            "userSelected": true
          }
        }, {
          "url": "text",
          "valueString": "White"
        } ]
      }, {
        "url": "http://hl7.org/fhir/us/core/StructureDefinition/us-core-ethnicity",
        "extension": [ {
          "url": "ombCategory",
          "valueCoding": {
            "system": "urn:oid:2.16.840.1.113883.6.238",
            "code": "2186-5",
            "display": "Not Hispanic or Latino",
            "userSelected": true
          }
        }, {
          "url": "text",
          "valueString": "Not Hispanic or Latino"
        } ]
      }, {
        "url": "http://hl7.org/fhir/us/core/StructureDefinition/us-core-sex",
        "valueCode": "248153007"
      } ],
      "identifier": [ {
        "type": {
          "coding": [ {
            "system": "http://terminology.hl7.org/CodeSystem/v2-0203",
            "code": "MR"
          } ]
        },
        "system": "https://madie.cms.gov/",
        "value": "ScreNotatriRefNoasseDxNcp"
      } ],
      "active": true,
      "name": [ {
        "use": "usual",
        "text": "ScreNotatriRefNoasseDxNcp",
        "family": "MSROBSPass2",
        "given": [ "ScreNotatriRefNoasseDxNcp" ]
      } ],
      "gender": "male",
      "birthDate": "1941-01-01",
      "address": [ {
        "text": "ScreNotatriRefNoasseDxNcp, Screened Not at risk Assessed Severely Malnourished Diagnosed Care Plan, ID=ScreNotatriRefNoasseDxNcp, DOB: 01 Jan 1941"
      } ]
    },
    "request": {
      "method": "PUT",
      "url": "Patient/ae722bd4-32c2-4e5f-a1a8-743bdd9800f6"
    }
  }, {
    "fullUrl": "https://madie.cms.gov/Encounter/a9da8b9e-626a-44f6-b67e-f1959967fd68",
    "resource": {
      "resourceType": "Encounter",
      "id": "a9da8b9e-626a-44f6-b67e-f1959967fd68",
      "meta": {
        "profile": [ "http://hl7.org/fhir/us/qicore/StructureDefinition/qicore-encounter" ]
      },
      "status": "finished",
      "class": {
        "system": "http://terminology.hl7.org/CodeSystem/v3-ActCode",
        "code": "IMP",
        "display": "Hospital admission (procedure)"
      },
      "type": [ {
        "coding": [ {
          "system": "http://snomed.info/sct",
          "code": "183452005"
        } ]
      } ],
      "subject": {
        "reference": "Patient/ae722bd4-32c2-4e5f-a1a8-743bdd9800f6"
      },
      "period": {
        "start": "2026-02-01T08:15:00.000+00:00",
        "end": "2026-02-07T08:15:00.000+00:00"
      }
    },
    "request": {
      "method": "PUT",
      "url": "Encounter/a9da8b9e-626a-44f6-b67e-f1959967fd68"
    }
  }, {
    "fullUrl": "https://madie.cms.gov/Condition/2b6636f7-205b-4500-9cc4-5dd41f7f930f",
    "resource": {
      "resourceType": "Condition",
      "id": "2b6636f7-205b-4500-9cc4-5dd41f7f930f",
      "meta": {
        "profile": [ "http://hl7.org/fhir/us/qicore/StructureDefinition/qicore-condition-encounter-diagnosis" ]
      },
      "clinicalStatus": {
        "coding": [ {
          "system": "http://terminology.hl7.org/CodeSystem/condition-clinical",
          "code": "active",
          "display": "Active",
          "userSelected": true
        } ]
      },
      "verificationStatus": {
        "coding": [ {
          "system": "http://terminology.hl7.org/CodeSystem/condition-ver-status",
          "code": "confirmed",
          "display": "Confirmed",
          "userSelected": true
        } ]
      },
      "category": [ {
        "coding": [ {
          "system": "http://terminology.hl7.org/CodeSystem/condition-category",
          "code": "encounter-diagnosis",
          "display": "Encounter Diagnosis",
          "userSelected": true
        } ]
      } ],
      "code": {
        "coding": [ {
          "system": "http://snomed.info/sct",
          "code": "288517002",
          "display": "Wasting disease (disorder)",
          "userSelected": true
        } ]
      },
      "subject": {
        "reference": "Patient/ae722bd4-32c2-4e5f-a1a8-743bdd9800f6"
      },
      "onsetPeriod": {
        "start": "2026-02-02T08:00:00.000+00:00"
      },
      "recordedDate": "2026-02-02T11:00:00.000+00:00"
    },
    "request": {
      "method": "PUT",
      "url": "Condition/2b6636f7-205b-4500-9cc4-5dd41f7f930f"
    }
  }, {
    "fullUrl": "https://madie.cms.gov/Observation/3c2faab3-cffe-4e5c-919f-921121e1ff28",
    "resource": {
      "resourceType": "Observation",
      "id": "3c2faab3-cffe-4e5c-919f-921121e1ff28",
      "meta": {
        "profile": [ "http://hl7.org/fhir/us/qicore/StructureDefinition/qicore-observation-screening-assessment" ]
      },
      "status": "final",
      "category": [ {
        "coding": [ {
          "system": "http://terminology.hl7.org/CodeSystem/observation-category",
          "code": "survey",
          "display": "Survey"
        } ]
      } ],
      "code": {
        "coding": [ {
          "system": "http://loinc.org",
          "code": "98972-3",
          "display": "Final screening NRS_2002",
          "userSelected": true
        } ]
      },
      "subject": {
        "reference": "Patient/ae722bd4-32c2-4e5f-a1a8-743bdd9800f6"
      },
      "effectiveDateTime": "2026-02-05T08:00:00.000+00:00",
      "valueCodeableConcept": {
        "coding": [ {
          "system": "http://loinc.org",
          "code": "LA33699-2",
          "display": "Not at risk for malnutrition",
          "userSelected": true
        } ]
      }
    },
    "request": {
      "method": "PUT",
      "url": "Observation/3c2faab3-cffe-4e5c-919f-921121e1ff28"
    }
  }, {
    "fullUrl": "https://madie.cms.gov/Procedure/6d46a1ed-e7ea-4343-a35e-76c206707c5b",
    "resource": {
      "resourceType": "Procedure",
      "id": "6d46a1ed-e7ea-4343-a35e-76c206707c5b",
      "meta": {
        "profile": [ "http://hl7.org/fhir/us/qicore/StructureDefinition/qicore-procedure" ]
      },
      "extension": [ {
        "url": "http://hl7.org/fhir/us/qicore/StructureDefinition/qicore-recorded",
        "valueDateTime": "2026-02-01T11:30:00.000+00:00"
      } ],
      "status": "completed",
      "code": {
        "coding": [ {
          "system": "http://snomed.info/sct",
          "code": "306354000",
          "display": "Referral to hospital-based dietitian (procedure)"
        } ],
        "text": "Referral to hospital-based dietitian (procedure)"
      },
      "subject": {
        "reference": "Patient/ae722bd4-32c2-4e5f-a1a8-743bdd9800f6"
      },
      "encounter": {
        "reference": "Encounter/ScreNotatriRefNoasseDxNcpMSROBSPass2"
      },
      "performedPeriod": {
        "start": "2026-02-05T08:00:00.000+00:00"
      }
    },
    "request": {
      "method": "PUT",
      "url": "Procedure/6d46a1ed-e7ea-4343-a35e-76c206707c5b"
    }
  }, {
    "fullUrl": "https://madie.cms.gov/Coverage/f32e045d-469b-426a-a4b4-df976e8ced22",
    "resource": {
      "resourceType": "Coverage",
      "id": "f32e045d-469b-426a-a4b4-df976e8ced22",
      "meta": {
        "profile": [ "http://hl7.org/fhir/us/qicore/StructureDefinition/qicore-coverage" ]
      },
      "status": "active",
      "type": {
        "coding": [ {
          "system": "https://nahdo.org/sopt",
          "version": "9.2",
          "code": "11",
          "display": "Medicare Managed Care (Includes Medicare Advantage Plans)"
        } ]
      },
      "subscriberId": "97531",
      "beneficiary": {
        "reference": "Patient/ae722bd4-32c2-4e5f-a1a8-743bdd9800f6"
      },
      "dependent": "0",
      "relationship": {
        "coding": [ {
          "system": "http://terminology.hl7.org/CodeSystem/subscriber-relationship",
          "code": "self"
        } ]
      },
      "period": {
        "start": "2026-10-01T00:00:00.000+00:00"
      },
      "payor": [ {
        "reference": "Organization/eb94c41c-76f2-4184-8cf0-c7270150aa77"
      } ]
    },
    "request": {
      "method": "PUT",
      "url": "Coverage/f32e045d-469b-426a-a4b4-df976e8ced22"
    }
  }, {
    "fullUrl": "https://madie.cms.gov/Organization/eb94c41c-76f2-4184-8cf0-c7270150aa77",
    "resource": {
      "resourceType": "Organization",
      "id": "eb94c41c-76f2-4184-8cf0-c7270150aa77",
      "meta": {
        "profile": [ "http://hl7.org/fhir/us/qicore/StructureDefinition/qicore-organization" ]
      },
      "identifier": [ {
        "use": "temp",
        "system": "urn:oid:2.16.840.1.113883.4.4",
        "value": "21-3259825"
      } ],
      "active": true,
      "type": [ {
        "coding": [ {
          "system": "http://terminology.hl7.org/CodeSystem/organization-type",
          "code": "pay",
          "display": "Payer"
        } ]
      } ],
      "name": "Blue Cross Blue Shield of Texas",
      "telecom": [ {
        "system": "phone",
        "value": "(+1) 972-766-6900"
      } ],
      "address": [ {
        "use": "billing",
        "type": "postal",
        "line": [ "P.O. Box 660044" ],
        "city": "Dallas",
        "state": "TX",
        "postalCode": "75266-0044",
        "country": "USA"
      } ]
    },
    "request": {
      "method": "PUT",
      "url": "Organization/eb94c41c-76f2-4184-8cf0-c7270150aa77"
    }
  }, {
    "fullUrl": "https://madie.cms.gov/MeasureReport/a90a6051-84da-42cf-86f3-df1e21c056ba",
    "resource": {
      "resourceType": "MeasureReport",
      "id": "a90a6051-84da-42cf-86f3-df1e21c056ba",
      "meta": {
        "profile": [ "http://hl7.org/fhir/us/cqfmeasures/StructureDefinition/test-case-cqfm" ]
      },
      "contained": [ {
        "resourceType": "Parameters",
        "id": "e703730c-5cbb-4457-8f14-7b37301108f8-parameters",
        "parameter": [ {
          "name": "subject",
          "valueString": "ae722bd4-32c2-4e5f-a1a8-743bdd9800f6"
        } ]
      } ],
      "extension": [ {
        "url": "http://hl7.org/fhir/StructureDefinition/cqf-inputParameters",
        "valueReference": {
          "reference": "#e703730c-5cbb-4457-8f14-7b37301108f8-parameters"
        }
      }, {
        "url": "http://hl7.org/fhir/us/cqfmeasures/StructureDefinition/cqfm-testCaseDescription",
        "valueMarkdown": "Screened, Not at Risk, Referral, Not Assessed, Diagnosis, No Nutrition Care Plan"
      } ],
      "modifierExtension": [ {
        "url": "http://hl7.org/fhir/us/cqfmeasures/StructureDefinition/cqfm-isTestCase",
        "valueBoolean": true
      } ],
      "status": "complete",
      "type": "individual",
      "measure": "https://madie.cms.gov/Measure/CMS986FHIRMalnutritionScore",
      "period": {
        "start": "2026-01-01",
        "end": "2026-12-31"
      },
      "group": [ {
        "id": "Group_1",
        "population": [ {
          "id": "InitialPopulation_1",
          "code": {
            "coding": [ {
              "system": "http://terminology.hl7.org/CodeSystem/measure-population",
              "code": "initial-population",
              "display": "Initial Population"
            } ]
          },
          "count": 1
        }, {
          "id": "MeasurePopulation_1",
          "code": {
            "coding": [ {
              "system": "http://terminology.hl7.org/CodeSystem/measure-population",
              "code": "measure-population",
              "display": "Measure Population"
            } ]
          },
          "count": 1
        }, {
          "id": "MeasurePopulationExclusion_1",
          "code": {
            "coding": [ {
              "system": "http://terminology.hl7.org/CodeSystem/measure-population",
              "code": "measure-population-exclusion",
              "display": "Measure Population Exclusion"
            } ]
          },
          "count": 0
        }, {
          "id": "MeasureObservation_1_1",
          "code": {
            "coding": [ {
              "system": "http://terminology.hl7.org/CodeSystem/measure-population",
              "code": "measure-population-observation",
              "display": "Measure Population Observation"
            } ]
          },
          "count": 1
        } ],
        "measureScore": {
          "value": 0.0
        }
      }, {
        "id": "Group_2",
        "population": [ {
          "id": "InitialPopulation_2",
          "code": {
            "coding": [ {
              "system": "http://terminology.hl7.org/CodeSystem/measure-population",
              "code": "initial-population",
              "display": "Initial Population"
            } ]
          },
          "count": 1
        }, {
          "id": "MeasurePopulation_2",
          "code": {
            "coding": [ {
              "system": "http://terminology.hl7.org/CodeSystem/measure-population",
              "code": "measure-population",
              "display": "Measure Population"
            } ]
          },
          "count": 1
        }, {
          "id": "MeasurePopulationExclusion_2",
          "code": {
            "coding": [ {
              "system": "http://terminology.hl7.org/CodeSystem/measure-population",
              "code": "measure-population-exclusion",
              "display": "Measure Population Exclusion"
            } ]
          },
          "count": 0
        }, {
          "id": "MeasureObservation_2_1",
          "code": {
            "coding": [ {
              "system": "http://terminology.hl7.org/CodeSystem/measure-population",
              "code": "measure-population-observation",
              "display": "Measure Population Observation"
            } ]
          },
          "count": 0
        } ],
        "measureScore": {
          "value": 0.0
        }
      }, {
        "id": "Group_3",
        "population": [ {
          "id": "InitialPopulation_3",
          "code": {
            "coding": [ {
              "system": "http://terminology.hl7.org/CodeSystem/measure-population",
              "code": "initial-population",
              "display": "Initial Population"
            } ]
          },
          "count": 1
        }, {
          "id": "MeasurePopulation_3",
          "code": {
            "coding": [ {
              "system": "http://terminology.hl7.org/CodeSystem/measure-population",
              "code": "measure-population",
              "display": "Measure Population"
            } ]
          },
          "count": 1
        }, {
          "id": "MeasurePopulationExclusion_3",
          "code": {
            "coding": [ {
              "system": "http://terminology.hl7.org/CodeSystem/measure-population",
              "code": "measure-population-exclusion",
              "display": "Measure Population Exclusion"
            } ]
          },
          "count": 0
        }, {
          "id": "MeasureObservation_3_1",
          "code": {
            "coding": [ {
              "system": "http://terminology.hl7.org/CodeSystem/measure-population",
              "code": "measure-population-observation",
              "display": "Measure Population Observation"
            } ]
          },
          "count": 0
        } ],
        "measureScore": {
          "value": 0.0
        }
      }, {
        "id": "Group_4",
        "population": [ {
          "id": "InitialPopulation_4",
          "code": {
            "coding": [ {
              "system": "http://terminology.hl7.org/CodeSystem/measure-population",
              "code": "initial-population",
              "display": "Initial Population"
            } ]
          },
          "count": 1
        }, {
          "id": "MeasurePopulation_4",
          "code": {
            "coding": [ {
              "system": "http://terminology.hl7.org/CodeSystem/measure-population",
              "code": "measure-population",
              "display": "Measure Population"
            } ]
          },
          "count": 1
        }, {
          "id": "MeasurePopulationExclusion_4",
          "code": {
            "coding": [ {
              "system": "http://terminology.hl7.org/CodeSystem/measure-population",
              "code": "measure-population-exclusion",
              "display": "Measure Population Exclusion"
            } ]
          },
          "count": 0
        }, {
          "id": "MeasureObservation_4_1",
          "code": {
            "coding": [ {
              "system": "http://terminology.hl7.org/CodeSystem/measure-population",
              "code": "measure-population-observation",
              "display": "Measure Population Observation"
            } ]
          },
          "count": 0
        } ],
        "measureScore": {
          "value": 0.0
        }
      }, {
        "id": "Group_5",
        "population": [ {
          "id": "InitialPopulation_5",
          "code": {
            "coding": [ {
              "system": "http://terminology.hl7.org/CodeSystem/measure-population",
              "code": "initial-population",
              "display": "Initial Population"
            } ]
          },
          "count": 1
        }, {
          "id": "MeasurePopulation_5",
          "code": {
            "coding": [ {
              "system": "http://terminology.hl7.org/CodeSystem/measure-population",
              "code": "measure-population",
              "display": "Measure Population"
            } ]
          },
          "count": 1
        }, {
          "id": "MeasurePopulationExclusion_5",
          "code": {
            "coding": [ {
              "system": "http://terminology.hl7.org/CodeSystem/measure-population",
              "code": "measure-population-exclusion",
              "display": "Measure Population Exclusion"
            } ]
          },
          "count": 0
        }, {
          "id": "MeasureObservation_5_1",
          "code": {
            "coding": [ {
              "system": "http://terminology.hl7.org/CodeSystem/measure-population",
              "code": "measure-population-observation",
              "display": "Measure Population Observation"
            } ]
          },
          "count": 1
        } ],
        "measureScore": {
          "value": 0.0
        }
      }, {
        "id": "Group_6",
        "population": [ {
          "id": "InitialPopulation_6",
          "code": {
            "coding": [ {
              "system": "http://terminology.hl7.org/CodeSystem/measure-population",
              "code": "initial-population",
              "display": "Initial Population"
            } ]
          },
          "count": 1
        }, {
          "id": "MeasurePopulation_6",
          "code": {
            "coding": [ {
              "system": "http://terminology.hl7.org/CodeSystem/measure-population",
              "code": "measure-population",
              "display": "Measure Population"
            } ]
          },
          "count": 1
        }, {
          "id": "MeasurePopulationExclusion_6",
          "code": {
            "coding": [ {
              "system": "http://terminology.hl7.org/CodeSystem/measure-population",
              "code": "measure-population-exclusion",
              "display": "Measure Population Exclusion"
            } ]
          },
          "count": 0
        }, {
          "id": "MeasureObservation_6_1",
          "code": {
            "coding": [ {
              "system": "http://terminology.hl7.org/CodeSystem/measure-population",
              "code": "measure-population-observation",
              "display": "Measure Population Observation"
            } ]
          },
          "count": 50
        } ],
        "measureScore": {
          "value": 0.0
        }
      } ],
      "evaluatedResource": [ {
        "reference": "Patient/ae722bd4-32c2-4e5f-a1a8-743bdd9800f6"
      }, {
        "reference": "Encounter/a9da8b9e-626a-44f6-b67e-f1959967fd68"
      }, {
        "reference": "Condition/2b6636f7-205b-4500-9cc4-5dd41f7f930f"
      }, {
        "reference": "Observation/3c2faab3-cffe-4e5c-919f-921121e1ff28"
      }, {
        "reference": "Procedure/6d46a1ed-e7ea-4343-a35e-76c206707c5b"
      }, {
        "reference": "Coverage/f32e045d-469b-426a-a4b4-df976e8ced22"
      }, {
        "reference": "Organization/eb94c41c-76f2-4184-8cf0-c7270150aa77"
      } ]
    },
    "request": {
      "method": "PUT",
      "url": "MeasureReport/a90a6051-84da-42cf-86f3-df1e21c056ba"
    }
  } ]
}