{
  "resourceType": "Bundle",
  "id": "YearOverlap",
  "type": "transaction",
  "entry": [ {
    "fullUrl": "https://madie.cms.gov/Patient/7645d28b-089e-4126-b8e4-b02a73d6493f",
    "resource": {
      "resourceType": "Patient",
      "id": "7645d28b-089e-4126-b8e4-b02a73d6493f",
      "meta": {
        "profile": [ "http://hl7.org/fhir/us/qicore/StructureDefinition/qicore-patient" ]
      },
      "text": {
        "status": "generated",
        "div": "<div xmlns=\"http://www.w3.org/1999/xhtml\"><div class=\"hapiHeaderText\">YearOverlap, Screened Not at risk Assessed Severely Malnourished Diagnosed Care Plan, <b>mo1111d4p100 </b></div><table class=\"hapiPropertyTable\"><tbody><tr><td>Identifier</td><td>YearOverlap</td></tr><tr><td>Date of birth</td><td><span>01 Jan 1961</span></td></tr></tbody></table></div>"
      },
      "extension": [ {
        "url": "http://hl7.org/fhir/us/core/StructureDefinition/us-core-race",
        "extension": [ {
          "url": "ombCategory",
          "valueCoding": {
            "system": "urn:oid:2.16.840.1.113883.6.238",
            "code": "2106-3",
            "display": "White",
            "userSelected": true
          }
        }, {
          "url": "text",
          "valueString": "White"
        } ]
      }, {
        "url": "http://hl7.org/fhir/us/core/StructureDefinition/us-core-sex",
        "valueCode": "248153007"
      }, {
        "url": "http://hl7.org/fhir/us/core/StructureDefinition/us-core-ethnicity",
        "extension": [ {
          "url": "ombCategory",
          "valueCoding": {
            "system": "urn:oid:2.16.840.1.113883.6.238",
            "code": "2186-5",
            "display": "Not Hispanic or Latino",
            "userSelected": true
          }
        }, {
          "url": "text",
          "valueString": "Not Hispanic or Latino"
        } ]
      } ],
      "identifier": [ {
        "type": {
          "coding": [ {
            "system": "http://terminology.hl7.org/CodeSystem/v2-0203",
            "code": "MR"
          } ]
        },
        "system": "https://madie.cms.gov/",
        "value": "YearOverlap"
      } ],
      "active": true,
      "name": [ {
        "use": "usual",
        "text": "YearOverlap",
        "family": "IPPFAIL",
        "given": [ "YearOverlap" ]
      } ],
      "gender": "male",
      "birthDate": "1961-01-01",
      "address": [ {
        "text": "YearOverlap, Screened Not at risk Assessed Severely Malnourished Diagnosed Care Plan, ID=YearOverlap, DOB: 01 Jan 1961"
      } ]
    },
    "request": {
      "method": "PUT",
      "url": "Patient/7645d28b-089e-4126-b8e4-b02a73d6493f"
    }
  }, {
    "fullUrl": "https://madie.cms.gov/Encounter/8e4f4526-7817-4b55-b243-41397ebb0d8d",
    "resource": {
      "resourceType": "Encounter",
      "id": "8e4f4526-7817-4b55-b243-41397ebb0d8d",
      "meta": {
        "profile": [ "http://hl7.org/fhir/us/qicore/StructureDefinition/qicore-encounter" ]
      },
      "status": "finished",
      "class": {
        "system": "http://terminology.hl7.org/CodeSystem/v3-ActCode",
        "code": "IMP",
        "display": "inpatient encounter"
      },
      "type": [ {
        "coding": [ {
          "system": "http://snomed.info/sct",
          "code": "183452005"
        } ]
      } ],
      "subject": {
        "reference": "Patient/7645d28b-089e-4126-b8e4-b02a73d6493f"
      },
      "period": {
        "start": "2026-12-28T08:00:00.000+00:00",
        "end": "2027-01-01T08:15:00.000+00:00"
      }
    },
    "request": {
      "method": "PUT",
      "url": "Encounter/8e4f4526-7817-4b55-b243-41397ebb0d8d"
    }
  }, {
    "fullUrl": "https://madie.cms.gov/Condition/e94f337a-f38c-4ca0-9785-461ce1fe6ee0",
    "resource": {
      "resourceType": "Condition",
      "id": "e94f337a-f38c-4ca0-9785-461ce1fe6ee0",
      "meta": {
        "profile": [ "http://hl7.org/fhir/us/qicore/StructureDefinition/qicore-condition-encounter-diagnosis" ]
      },
      "clinicalStatus": {
        "coding": [ {
          "system": "http://terminology.hl7.org/CodeSystem/condition-clinical",
          "code": "active",
          "display": "Active",
          "userSelected": true
        } ]
      },
      "verificationStatus": {
        "coding": [ {
          "system": "http://terminology.hl7.org/CodeSystem/condition-ver-status",
          "code": "confirmed",
          "display": "Confirmed",
          "userSelected": true
        } ]
      },
      "category": [ {
        "coding": [ {
          "system": "http://terminology.hl7.org/CodeSystem/condition-category",
          "code": "encounter-diagnosis",
          "display": "Encounter Diagnosis",
          "userSelected": true
        } ]
      } ],
      "code": {
        "coding": [ {
          "system": "http://snomed.info/sct",
          "code": "190606006",
          "display": "Moderate protein energy malnutrition (disorder)",
          "userSelected": true
        } ]
      },
      "subject": {
        "reference": "Patient/7645d28b-089e-4126-b8e4-b02a73d6493f"
      },
      "onsetPeriod": {
        "start": "2025-12-31T08:00:00.000+00:00"
      },
      "recordedDate": "2026-01-04T11:00:00.000+00:00"
    },
    "request": {
      "method": "PUT",
      "url": "Condition/e94f337a-f38c-4ca0-9785-461ce1fe6ee0"
    }
  }, {
    "fullUrl": "https://madie.cms.gov/Observation/2e44ad17-fcbf-414d-80b3-ee93ae719aec",
    "resource": {
      "resourceType": "Observation",
      "id": "2e44ad17-fcbf-414d-80b3-ee93ae719aec",
      "meta": {
        "profile": [ "http://hl7.org/fhir/us/qicore/StructureDefinition/qicore-observation-screening-assessment" ]
      },
      "status": "final",
      "category": [ {
        "coding": [ {
          "system": "http://terminology.hl7.org/CodeSystem/observation-category",
          "code": "survey",
          "display": "Survey"
        } ]
      } ],
      "code": {
        "coding": [ {
          "system": "http://loinc.org",
          "code": "98967-3",
          "display": "Nutritional Risk Screening 2002 panel",
          "userSelected": true
        } ]
      },
      "subject": {
        "reference": "Patient/7645d28b-089e-4126-b8e4-b02a73d6493f"
      },
      "effectiveDateTime": "2025-12-31T08:00:00.000+00:00",
      "valueCodeableConcept": {
        "coding": [ {
          "system": "http://snomed.info/sct",
          "code": "129689002",
          "display": "At increased risk for nutritional problem (finding)",
          "userSelected": true
        } ]
      }
    },
    "request": {
      "method": "PUT",
      "url": "Observation/2e44ad17-fcbf-414d-80b3-ee93ae719aec"
    }
  }, {
    "fullUrl": "https://madie.cms.gov/Observation/a23d9340-f27f-4e9c-9d44-9a93abb4fb9f",
    "resource": {
      "resourceType": "Observation",
      "id": "a23d9340-f27f-4e9c-9d44-9a93abb4fb9f",
      "meta": {
        "profile": [ "http://hl7.org/fhir/us/qicore/StructureDefinition/qicore-observation-screening-assessment" ]
      },
      "status": "final",
      "category": [ {
        "coding": [ {
          "system": "http://terminology.hl7.org/CodeSystem/observation-category",
          "code": "survey",
          "display": "Survey"
        } ]
      } ],
      "code": {
        "coding": [ {
          "system": "http://loinc.org",
          "code": "75282-4",
          "display": "Nutrition assessment panel",
          "userSelected": true
        } ]
      },
      "subject": {
        "reference": "Patient/7645d28b-089e-4126-b8e4-b02a73d6493f"
      },
      "effectiveDateTime": "2025-12-31T10:00:00.000+00:00",
      "valueCodeableConcept": {
        "coding": [ {
          "system": "http://snomed.info/sct",
          "code": "102635008",
          "display": "Acute nutritional deficiency (finding)",
          "userSelected": true
        } ]
      }
    },
    "request": {
      "method": "PUT",
      "url": "Observation/a23d9340-f27f-4e9c-9d44-9a93abb4fb9f"
    }
  }, {
    "fullUrl": "https://madie.cms.gov/Procedure/b04de156-5103-4db9-b9ab-32b7c1efccd9",
    "resource": {
      "resourceType": "Procedure",
      "id": "b04de156-5103-4db9-b9ab-32b7c1efccd9",
      "meta": {
        "profile": [ "http://hl7.org/fhir/us/qicore/StructureDefinition/qicore-procedure" ]
      },
      "extension": [ {
        "url": "http://hl7.org/fhir/us/qicore/StructureDefinition/qicore-recorded",
        "valueDateTime": "2025-12-31T11:30:00.000+00:00"
      } ],
      "status": "completed",
      "code": {
        "coding": [ {
          "system": "http://snomed.info/sct",
          "code": "306165000",
          "display": "Referral to hospital-based dietetics service (procedure)"
        } ],
        "text": "Referral to hospital-based dietetics service (procedure)"
      },
      "subject": {
        "reference": "Patient/7645d28b-089e-4126-b8e4-b02a73d6493f"
      },
      "encounter": {
        "reference": "Encounter/YearOverlapIPPFAIL"
      },
      "performedPeriod": {
        "start": "2025-12-31T11:30:00.000+00:00",
        "end": "2026-01-04T08:15:00.000+00:00"
      }
    },
    "request": {
      "method": "PUT",
      "url": "Procedure/b04de156-5103-4db9-b9ab-32b7c1efccd9"
    }
  }, {
    "fullUrl": "https://madie.cms.gov/Procedure/85154ad6-66d2-4647-9a63-04128447238f",
    "resource": {
      "resourceType": "Procedure",
      "id": "85154ad6-66d2-4647-9a63-04128447238f",
      "meta": {
        "profile": [ "http://hl7.org/fhir/us/qicore/StructureDefinition/qicore-procedure" ]
      },
      "extension": [ {
        "url": "http://hl7.org/fhir/us/qicore/StructureDefinition/qicore-recorded",
        "valueDateTime": "2026-12-31T11:30:00.000+00:00"
      } ],
      "status": "completed",
      "code": {
        "coding": [ {
          "system": "http://snomed.info/sct",
          "code": "1279742004",
          "display": "Development of nutrition care plan (procedure)"
        } ],
        "text": "Development of nutrition care plan (procedure)"
      },
      "subject": {
        "reference": "Patient/7645d28b-089e-4126-b8e4-b02a73d6493f"
      },
      "encounter": {
        "reference": "Encounter/YearOverlapIPPFAIL"
      },
      "performedPeriod": {
        "start": "2026-12-31T11:30:00.000+00:00",
        "end": "2027-01-04T08:15:00.000+00:00"
      }
    },
    "request": {
      "method": "PUT",
      "url": "Procedure/85154ad6-66d2-4647-9a63-04128447238f"
    }
  }, {
    "fullUrl": "https://madie.cms.gov/MeasureReport/9d7f3796-de62-4337-907d-3a1240780b28",
    "resource": {
      "resourceType": "MeasureReport",
      "id": "9d7f3796-de62-4337-907d-3a1240780b28",
      "meta": {
        "profile": [ "http://hl7.org/fhir/us/cqfmeasures/StructureDefinition/test-case-cqfm" ]
      },
      "contained": [ {
        "resourceType": "Parameters",
        "id": "67b22304-417c-4037-8e7f-6db26d6061a5-parameters",
        "parameter": [ {
          "name": "subject",
          "valueString": "7645d28b-089e-4126-b8e4-b02a73d6493f"
        } ]
      } ],
      "extension": [ {
        "url": "http://hl7.org/fhir/StructureDefinition/cqf-inputParameters",
        "valueReference": {
          "reference": "#67b22304-417c-4037-8e7f-6db26d6061a5-parameters"
        }
      }, {
        "url": "http://hl7.org/fhir/us/cqfmeasures/StructureDefinition/cqfm-testCaseDescription",
        "valueMarkdown": "Overlaps Year Boundary to end during following year"
      } ],
      "modifierExtension": [ {
        "url": "http://hl7.org/fhir/us/cqfmeasures/StructureDefinition/cqfm-isTestCase",
        "valueBoolean": true
      } ],
      "status": "complete",
      "type": "individual",
      "measure": "https://madie.cms.gov/Measure/CMS986FHIRMalnutritionScore",
      "period": {
        "start": "2026-01-01",
        "end": "2026-12-31"
      },
      "group": [ {
        "id": "Group_1",
        "population": [ {
          "id": "InitialPopulation_1",
          "code": {
            "coding": [ {
              "system": "http://terminology.hl7.org/CodeSystem/measure-population",
              "code": "initial-population",
              "display": "Initial Population"
            } ]
          },
          "count": 0
        }, {
          "id": "MeasurePopulation_1",
          "code": {
            "coding": [ {
              "system": "http://terminology.hl7.org/CodeSystem/measure-population",
              "code": "measure-population",
              "display": "Measure Population"
            } ]
          },
          "count": 0
        }, {
          "id": "MeasurePopulationExclusion_1",
          "code": {
            "coding": [ {
              "system": "http://terminology.hl7.org/CodeSystem/measure-population",
              "code": "measure-population-exclusion",
              "display": "Measure Population Exclusion"
            } ]
          },
          "count": 0
        } ],
        "measureScore": {
          "value": 0.0
        }
      }, {
        "id": "Group_2",
        "population": [ {
          "id": "InitialPopulation_2",
          "code": {
            "coding": [ {
              "system": "http://terminology.hl7.org/CodeSystem/measure-population",
              "code": "initial-population",
              "display": "Initial Population"
            } ]
          },
          "count": 0
        }, {
          "id": "MeasurePopulation_2",
          "code": {
            "coding": [ {
              "system": "http://terminology.hl7.org/CodeSystem/measure-population",
              "code": "measure-population",
              "display": "Measure Population"
            } ]
          },
          "count": 0
        }, {
          "id": "MeasurePopulationExclusion_2",
          "code": {
            "coding": [ {
              "system": "http://terminology.hl7.org/CodeSystem/measure-population",
              "code": "measure-population-exclusion",
              "display": "Measure Population Exclusion"
            } ]
          },
          "count": 0
        } ],
        "measureScore": {
          "value": 0.0
        }
      }, {
        "id": "Group_3",
        "population": [ {
          "id": "InitialPopulation_3",
          "code": {
            "coding": [ {
              "system": "http://terminology.hl7.org/CodeSystem/measure-population",
              "code": "initial-population",
              "display": "Initial Population"
            } ]
          },
          "count": 0
        }, {
          "id": "MeasurePopulation_3",
          "code": {
            "coding": [ {
              "system": "http://terminology.hl7.org/CodeSystem/measure-population",
              "code": "measure-population",
              "display": "Measure Population"
            } ]
          },
          "count": 0
        }, {
          "id": "MeasurePopulationExclusion_3",
          "code": {
            "coding": [ {
              "system": "http://terminology.hl7.org/CodeSystem/measure-population",
              "code": "measure-population-exclusion",
              "display": "Measure Population Exclusion"
            } ]
          },
          "count": 0
        } ],
        "measureScore": {
          "value": 0.0
        }
      }, {
        "id": "Group_4",
        "population": [ {
          "id": "InitialPopulation_4",
          "code": {
            "coding": [ {
              "system": "http://terminology.hl7.org/CodeSystem/measure-population",
              "code": "initial-population",
              "display": "Initial Population"
            } ]
          },
          "count": 0
        }, {
          "id": "MeasurePopulation_4",
          "code": {
            "coding": [ {
              "system": "http://terminology.hl7.org/CodeSystem/measure-population",
              "code": "measure-population",
              "display": "Measure Population"
            } ]
          },
          "count": 0
        }, {
          "id": "MeasurePopulationExclusion_4",
          "code": {
            "coding": [ {
              "system": "http://terminology.hl7.org/CodeSystem/measure-population",
              "code": "measure-population-exclusion",
              "display": "Measure Population Exclusion"
            } ]
          },
          "count": 0
        } ],
        "measureScore": {
          "value": 0.0
        }
      }, {
        "id": "Group_5",
        "population": [ {
          "id": "InitialPopulation_5",
          "code": {
            "coding": [ {
              "system": "http://terminology.hl7.org/CodeSystem/measure-population",
              "code": "initial-population",
              "display": "Initial Population"
            } ]
          },
          "count": 0
        }, {
          "id": "MeasurePopulation_5",
          "code": {
            "coding": [ {
              "system": "http://terminology.hl7.org/CodeSystem/measure-population",
              "code": "measure-population",
              "display": "Measure Population"
            } ]
          },
          "count": 0
        }, {
          "id": "MeasurePopulationExclusion_5",
          "code": {
            "coding": [ {
              "system": "http://terminology.hl7.org/CodeSystem/measure-population",
              "code": "measure-population-exclusion",
              "display": "Measure Population Exclusion"
            } ]
          },
          "count": 0
        } ],
        "measureScore": {
          "value": 0.0
        }
      }, {
        "id": "Group_6",
        "population": [ {
          "id": "InitialPopulation_6",
          "code": {
            "coding": [ {
              "system": "http://terminology.hl7.org/CodeSystem/measure-population",
              "code": "initial-population",
              "display": "Initial Population"
            } ]
          },
          "count": 0
        }, {
          "id": "MeasurePopulation_6",
          "code": {
            "coding": [ {
              "system": "http://terminology.hl7.org/CodeSystem/measure-population",
              "code": "measure-population",
              "display": "Measure Population"
            } ]
          },
          "count": 0
        }, {
          "id": "MeasurePopulationExclusion_6",
          "code": {
            "coding": [ {
              "system": "http://terminology.hl7.org/CodeSystem/measure-population",
              "code": "measure-population-exclusion",
              "display": "Measure Population Exclusion"
            } ]
          },
          "count": 0
        } ],
        "measureScore": {
          "value": 0.0
        }
      } ],
      "evaluatedResource": [ {
        "reference": "Patient/7645d28b-089e-4126-b8e4-b02a73d6493f"
      }, {
        "reference": "Encounter/8e4f4526-7817-4b55-b243-41397ebb0d8d"
      }, {
        "reference": "Condition/e94f337a-f38c-4ca0-9785-461ce1fe6ee0"
      }, {
        "reference": "Observation/2e44ad17-fcbf-414d-80b3-ee93ae719aec"
      }, {
        "reference": "Observation/a23d9340-f27f-4e9c-9d44-9a93abb4fb9f"
      }, {
        "reference": "Procedure/b04de156-5103-4db9-b9ab-32b7c1efccd9"
      }, {
        "reference": "Procedure/85154ad6-66d2-4647-9a63-04128447238f"
      } ]
    },
    "request": {
      "method": "PUT",
      "url": "MeasureReport/9d7f3796-de62-4337-907d-3a1240780b28"
    }
  } ]
}