{
  "resourceType": "Bundle",
  "id": "FirstMinMP",
  "type": "transaction",
  "entry": [ {
    "fullUrl": "https://madie.cms.gov/Patient/d5946dae-72bb-4b13-984d-ce4da0add583",
    "resource": {
      "resourceType": "Patient",
      "id": "d5946dae-72bb-4b13-984d-ce4da0add583",
      "meta": {
        "profile": [ "http://hl7.org/fhir/us/qicore/StructureDefinition/qicore-patient" ]
      },
      "extension": [ {
        "url": "http://hl7.org/fhir/us/core/StructureDefinition/us-core-race",
        "extension": [ {
          "url": "ombCategory",
          "valueCoding": {
            "system": "urn:oid:2.16.840.1.113883.6.238",
            "code": "2106-3",
            "display": "White",
            "userSelected": true
          }
        }, {
          "url": "text",
          "valueString": "White"
        } ]
      }, {
        "url": "http://hl7.org/fhir/us/core/StructureDefinition/us-core-ethnicity",
        "extension": [ {
          "url": "ombCategory",
          "valueCoding": {
            "system": "urn:oid:2.16.840.1.113883.6.238",
            "code": "2135-2",
            "display": "Hispanic or Latino",
            "userSelected": true
          }
        }, {
          "url": "text",
          "valueString": "Hispanic or Latino"
        } ]
      }, {
        "url": "http://hl7.org/fhir/us/core/StructureDefinition/us-core-sex",
        "valueCode": "248153007"
      } ],
      "identifier": [ {
        "type": {
          "coding": [ {
            "system": "http://terminology.hl7.org/CodeSystem/v2-0203",
            "code": "MR"
          } ]
        },
        "system": "https://madie.cms.gov/",
        "value": "FirstMinMP"
      } ],
      "active": true,
      "name": [ {
        "use": "usual",
        "text": "FirstMinMP",
        "family": "MSROBSPass4",
        "given": [ "FirstMinMP" ]
      } ],
      "gender": "male",
      "birthDate": "2007-03-02",
      "address": [ {
        "text": "FirstMinMP, Screened Not at risk Assessed Severely Malnourished Diagnosed Care Plan, ID=FirstMinMP, DOB: 03 Feb 2007"
      } ]
    },
    "request": {
      "method": "PUT",
      "url": "Patient/d5946dae-72bb-4b13-984d-ce4da0add583"
    }
  }, {
    "fullUrl": "https://madie.cms.gov/Encounter/20931821-2718-4923-b857-270842e3abbd",
    "resource": {
      "resourceType": "Encounter",
      "id": "20931821-2718-4923-b857-270842e3abbd",
      "meta": {
        "profile": [ "http://hl7.org/fhir/us/qicore/StructureDefinition/qicore-encounter" ]
      },
      "status": "finished",
      "class": {
        "system": "http://terminology.hl7.org/CodeSystem/v3-ActCode",
        "code": "IMP",
        "display": "Hospital admission (procedure)"
      },
      "type": [ {
        "coding": [ {
          "system": "http://snomed.info/sct",
          "code": "183452005"
        } ]
      } ],
      "subject": {
        "reference": "Patient/d5946dae-72bb-4b13-984d-ce4da0add583"
      },
      "period": {
        "start": "2026-01-01T00:01:00.000+00:00",
        "end": "2026-02-07T08:15:00.000+00:00"
      },
      "reasonReference": [ {
        "reference": "Condition/507b4ffe-a12e-4513-9d0b-1382003a4fae"
      } ]
    },
    "request": {
      "method": "PUT",
      "url": "Encounter/20931821-2718-4923-b857-270842e3abbd"
    }
  }, {
    "fullUrl": "https://madie.cms.gov/Condition/507b4ffe-a12e-4513-9d0b-1382003a4fae",
    "resource": {
      "resourceType": "Condition",
      "id": "507b4ffe-a12e-4513-9d0b-1382003a4fae",
      "meta": {
        "profile": [ "http://hl7.org/fhir/us/qicore/StructureDefinition/qicore-condition-encounter-diagnosis" ]
      },
      "clinicalStatus": {
        "coding": [ {
          "system": "http://terminology.hl7.org/CodeSystem/condition-clinical",
          "code": "active",
          "display": "Active",
          "userSelected": true
        } ]
      },
      "verificationStatus": {
        "coding": [ {
          "system": "http://terminology.hl7.org/CodeSystem/condition-ver-status",
          "code": "confirmed",
          "display": "Confirmed",
          "userSelected": true
        } ]
      },
      "category": [ {
        "coding": [ {
          "system": "http://terminology.hl7.org/CodeSystem/condition-category",
          "code": "encounter-diagnosis",
          "display": "Encounter Diagnosis",
          "userSelected": true
        } ]
      } ],
      "code": {
        "coding": [ {
          "system": "http://hl7.org/fhir/sid/icd-10-cm",
          "code": "R62.7",
          "display": "Adult failure to thrive",
          "userSelected": true
        } ]
      },
      "subject": {
        "reference": "Patient/d5946dae-72bb-4b13-984d-ce4da0add583"
      },
      "onsetPeriod": {
        "start": "2026-02-01T08:00:00.000+00:00"
      },
      "recordedDate": "2026-02-07T08:15:00.000+00:00"
    },
    "request": {
      "method": "PUT",
      "url": "Condition/507b4ffe-a12e-4513-9d0b-1382003a4fae"
    }
  }, {
    "fullUrl": "https://madie.cms.gov/Observation/657a29dc-ebe1-4dda-baee-c3d5e8fabf42",
    "resource": {
      "resourceType": "Observation",
      "id": "657a29dc-ebe1-4dda-baee-c3d5e8fabf42",
      "meta": {
        "profile": [ "http://hl7.org/fhir/us/qicore/StructureDefinition/qicore-observation-screening-assessment" ]
      },
      "status": "final",
      "category": [ {
        "coding": [ {
          "system": "http://terminology.hl7.org/CodeSystem/observation-category",
          "code": "survey",
          "display": "Survey"
        } ]
      } ],
      "code": {
        "coding": [ {
          "system": "http://loinc.org",
          "code": "98967-3",
          "display": "Nutritional Risk Screening 2002 panel",
          "userSelected": true
        } ]
      },
      "subject": {
        "reference": "Patient/d5946dae-72bb-4b13-984d-ce4da0add583"
      },
      "effectiveDateTime": "2026-02-07T08:15:00.000+00:00",
      "valueCodeableConcept": {
        "coding": [ {
          "system": "http://snomed.info/sct",
          "code": "129689002",
          "display": "At increased risk for nutritional problem (finding)",
          "userSelected": true
        } ]
      }
    },
    "request": {
      "method": "PUT",
      "url": "Observation/657a29dc-ebe1-4dda-baee-c3d5e8fabf42"
    }
  }, {
    "fullUrl": "https://madie.cms.gov/Observation/cfd91744-d586-41b5-9572-f7b8a95309d2",
    "resource": {
      "resourceType": "Observation",
      "id": "cfd91744-d586-41b5-9572-f7b8a95309d2",
      "meta": {
        "profile": [ "http://hl7.org/fhir/us/qicore/StructureDefinition/qicore-observation-screening-assessment" ]
      },
      "status": "final",
      "category": [ {
        "coding": [ {
          "system": "http://terminology.hl7.org/CodeSystem/observation-category",
          "code": "survey",
          "display": "Survey"
        } ]
      } ],
      "code": {
        "coding": [ {
          "system": "http://loinc.org",
          "code": "75285-7",
          "display": "Comparative nutrition assessment standards panel",
          "userSelected": true
        } ]
      },
      "subject": {
        "reference": "Patient/d5946dae-72bb-4b13-984d-ce4da0add583"
      },
      "effectiveDateTime": "2026-02-01T10:00:00.000+00:00",
      "valueCodeableConcept": {
        "coding": [ {
          "system": "http://loinc.org",
          "code": "LA33705-7",
          "display": "Severely malnourished",
          "userSelected": true
        } ]
      }
    },
    "request": {
      "method": "PUT",
      "url": "Observation/cfd91744-d586-41b5-9572-f7b8a95309d2"
    }
  }, {
    "fullUrl": "https://madie.cms.gov/Procedure/d4328a3a-bbdd-4711-b8cb-80e80b32c67f",
    "resource": {
      "resourceType": "Procedure",
      "id": "d4328a3a-bbdd-4711-b8cb-80e80b32c67f",
      "meta": {
        "profile": [ "http://hl7.org/fhir/us/qicore/StructureDefinition/qicore-procedure" ]
      },
      "extension": [ {
        "url": "http://hl7.org/fhir/us/qicore/StructureDefinition/qicore-recorded",
        "valueDateTime": "2026-02-01T11:30:00.000+00:00"
      } ],
      "status": "completed",
      "code": {
        "coding": [ {
          "system": "http://snomed.info/sct",
          "code": "306165000",
          "display": "Referral to hospital-based dietetics service (procedure)"
        } ],
        "text": "Referral to hospital-based dietetics service (procedure)"
      },
      "subject": {
        "reference": "Patient/d5946dae-72bb-4b13-984d-ce4da0add583"
      },
      "encounter": {
        "reference": "Encounter/FirstMinMPMSROBSPass4"
      },
      "performedPeriod": {
        "start": "2026-02-02T08:00:00.000+00:00",
        "end": "2026-02-07T08:00:00.000+00:00"
      }
    },
    "request": {
      "method": "PUT",
      "url": "Procedure/d4328a3a-bbdd-4711-b8cb-80e80b32c67f"
    }
  }, {
    "fullUrl": "https://madie.cms.gov/Procedure/e2d8f389-30df-4e63-a340-5fd0c64ec437",
    "resource": {
      "resourceType": "Procedure",
      "id": "e2d8f389-30df-4e63-a340-5fd0c64ec437",
      "meta": {
        "profile": [ "http://hl7.org/fhir/us/qicore/StructureDefinition/qicore-procedure" ]
      },
      "extension": [ {
        "url": "http://hl7.org/fhir/us/qicore/StructureDefinition/qicore-recorded",
        "valueDateTime": "2026-02-02T11:30:00.000+00:00"
      } ],
      "status": "completed",
      "code": {
        "coding": [ {
          "system": "http://snomed.info/sct",
          "code": "1279742004",
          "display": "Development of nutrition care plan (procedure)"
        } ],
        "text": "Development of nutrition care plan (procedure)"
      },
      "subject": {
        "reference": "Patient/d5946dae-72bb-4b13-984d-ce4da0add583"
      },
      "encounter": {
        "reference": "Encounter/FirstMinMPMSROBSPass4"
      },
      "performedPeriod": {
        "start": "2026-02-01T10:00:00.000+00:00",
        "end": "2026-02-01T10:00:00.000+00:00"
      }
    },
    "request": {
      "method": "PUT",
      "url": "Procedure/e2d8f389-30df-4e63-a340-5fd0c64ec437"
    }
  }, {
    "fullUrl": "https://madie.cms.gov/Coverage/9b0ac4b0-0016-4488-9a32-7c01eeaf1119",
    "resource": {
      "resourceType": "Coverage",
      "id": "9b0ac4b0-0016-4488-9a32-7c01eeaf1119",
      "meta": {
        "profile": [ "http://hl7.org/fhir/us/qicore/StructureDefinition/qicore-coverage" ]
      },
      "status": "active",
      "type": {
        "coding": [ {
          "system": "https://nahdo.org/sopt",
          "version": "9.2",
          "code": "11",
          "display": "Medicare Managed Care (Includes Medicare Advantage Plans)"
        } ]
      },
      "subscriberId": "97531",
      "beneficiary": {
        "reference": "Patient/d5946dae-72bb-4b13-984d-ce4da0add583"
      },
      "dependent": "0",
      "relationship": {
        "coding": [ {
          "system": "http://terminology.hl7.org/CodeSystem/subscriber-relationship",
          "code": "self"
        } ]
      },
      "period": {
        "start": "2026-10-01T00:00:00.000+00:00"
      },
      "payor": [ {
        "reference": "Organization/00b65ed7-be17-4835-bc4e-4b80c848e235"
      } ]
    },
    "request": {
      "method": "PUT",
      "url": "Coverage/9b0ac4b0-0016-4488-9a32-7c01eeaf1119"
    }
  }, {
    "fullUrl": "https://madie.cms.gov/Organization/00b65ed7-be17-4835-bc4e-4b80c848e235",
    "resource": {
      "resourceType": "Organization",
      "id": "00b65ed7-be17-4835-bc4e-4b80c848e235",
      "meta": {
        "profile": [ "http://hl7.org/fhir/us/qicore/StructureDefinition/qicore-organization" ]
      },
      "identifier": [ {
        "use": "temp",
        "system": "urn:oid:2.16.840.1.113883.4.4",
        "value": "21-3259825"
      } ],
      "active": true,
      "type": [ {
        "coding": [ {
          "system": "http://terminology.hl7.org/CodeSystem/organization-type",
          "code": "pay",
          "display": "Payer"
        } ]
      } ],
      "name": "Blue Cross Blue Shield of Texas",
      "telecom": [ {
        "system": "phone",
        "value": "(+1) 972-766-6900"
      } ],
      "address": [ {
        "use": "billing",
        "type": "postal",
        "line": [ "P.O. Box 660044" ],
        "city": "Dallas",
        "state": "TX",
        "postalCode": "75266-0044",
        "country": "USA"
      } ]
    },
    "request": {
      "method": "PUT",
      "url": "Organization/00b65ed7-be17-4835-bc4e-4b80c848e235"
    }
  }, {
    "fullUrl": "https://madie.cms.gov/MeasureReport/8b8920cf-1056-4fef-b3ac-c8e0c4f6b470",
    "resource": {
      "resourceType": "MeasureReport",
      "id": "8b8920cf-1056-4fef-b3ac-c8e0c4f6b470",
      "meta": {
        "profile": [ "http://hl7.org/fhir/us/cqfmeasures/StructureDefinition/test-case-cqfm" ]
      },
      "contained": [ {
        "resourceType": "Parameters",
        "id": "c742faed-198e-4a60-b7a7-782f6412ac09-parameters",
        "parameter": [ {
          "name": "subject",
          "valueString": "d5946dae-72bb-4b13-984d-ce4da0add583"
        } ]
      } ],
      "extension": [ {
        "url": "http://hl7.org/fhir/StructureDefinition/cqf-inputParameters",
        "valueReference": {
          "reference": "#c742faed-198e-4a60-b7a7-782f6412ac09-parameters"
        }
      }, {
        "url": "http://hl7.org/fhir/us/cqfmeasures/StructureDefinition/cqfm-testCaseDescription",
        "valueMarkdown": "encounter that starts the first minute of the first minute of the MP"
      } ],
      "modifierExtension": [ {
        "url": "http://hl7.org/fhir/us/cqfmeasures/StructureDefinition/cqfm-isTestCase",
        "valueBoolean": true
      } ],
      "status": "complete",
      "type": "individual",
      "measure": "https://madie.cms.gov/Measure/CMS986FHIRMalnutritionScore",
      "period": {
        "start": "2026-01-01",
        "end": "2026-12-31"
      },
      "group": [ {
        "id": "Group_1",
        "population": [ {
          "id": "InitialPopulation_1",
          "code": {
            "coding": [ {
              "system": "http://terminology.hl7.org/CodeSystem/measure-population",
              "code": "initial-population",
              "display": "Initial Population"
            } ]
          },
          "count": 1
        }, {
          "id": "MeasurePopulation_1",
          "code": {
            "coding": [ {
              "system": "http://terminology.hl7.org/CodeSystem/measure-population",
              "code": "measure-population",
              "display": "Measure Population"
            } ]
          },
          "count": 1
        }, {
          "id": "MeasurePopulationExclusion_1",
          "code": {
            "coding": [ {
              "system": "http://terminology.hl7.org/CodeSystem/measure-population",
              "code": "measure-population-exclusion",
              "display": "Measure Population Exclusion"
            } ]
          },
          "count": 0
        }, {
          "id": "MeasureObservation_1_1",
          "code": {
            "coding": [ {
              "system": "http://terminology.hl7.org/CodeSystem/measure-population",
              "code": "measure-population-observation",
              "display": "Measure Population Observation"
            } ]
          },
          "count": 1
        } ],
        "measureScore": {
          "value": 0.0
        }
      }, {
        "id": "Group_2",
        "population": [ {
          "id": "InitialPopulation_2",
          "code": {
            "coding": [ {
              "system": "http://terminology.hl7.org/CodeSystem/measure-population",
              "code": "initial-population",
              "display": "Initial Population"
            } ]
          },
          "count": 1
        }, {
          "id": "MeasurePopulation_2",
          "code": {
            "coding": [ {
              "system": "http://terminology.hl7.org/CodeSystem/measure-population",
              "code": "measure-population",
              "display": "Measure Population"
            } ]
          },
          "count": 1
        }, {
          "id": "MeasurePopulationExclusion_2",
          "code": {
            "coding": [ {
              "system": "http://terminology.hl7.org/CodeSystem/measure-population",
              "code": "measure-population-exclusion",
              "display": "Measure Population Exclusion"
            } ]
          },
          "count": 0
        }, {
          "id": "MeasureObservation_2_1",
          "code": {
            "coding": [ {
              "system": "http://terminology.hl7.org/CodeSystem/measure-population",
              "code": "measure-population-observation",
              "display": "Measure Population Observation"
            } ]
          },
          "count": 1
        } ],
        "measureScore": {
          "value": 0.0
        }
      }, {
        "id": "Group_3",
        "population": [ {
          "id": "InitialPopulation_3",
          "code": {
            "coding": [ {
              "system": "http://terminology.hl7.org/CodeSystem/measure-population",
              "code": "initial-population",
              "display": "Initial Population"
            } ]
          },
          "count": 1
        }, {
          "id": "MeasurePopulation_3",
          "code": {
            "coding": [ {
              "system": "http://terminology.hl7.org/CodeSystem/measure-population",
              "code": "measure-population",
              "display": "Measure Population"
            } ]
          },
          "count": 1
        }, {
          "id": "MeasurePopulationExclusion_3",
          "code": {
            "coding": [ {
              "system": "http://terminology.hl7.org/CodeSystem/measure-population",
              "code": "measure-population-exclusion",
              "display": "Measure Population Exclusion"
            } ]
          },
          "count": 0
        }, {
          "id": "MeasureObservation_3_1",
          "code": {
            "coding": [ {
              "system": "http://terminology.hl7.org/CodeSystem/measure-population",
              "code": "measure-population-observation",
              "display": "Measure Population Observation"
            } ]
          },
          "count": 1
        } ],
        "measureScore": {
          "value": 0.0
        }
      }, {
        "id": "Group_4",
        "population": [ {
          "id": "InitialPopulation_4",
          "code": {
            "coding": [ {
              "system": "http://terminology.hl7.org/CodeSystem/measure-population",
              "code": "initial-population",
              "display": "Initial Population"
            } ]
          },
          "count": 1
        }, {
          "id": "MeasurePopulation_4",
          "code": {
            "coding": [ {
              "system": "http://terminology.hl7.org/CodeSystem/measure-population",
              "code": "measure-population",
              "display": "Measure Population"
            } ]
          },
          "count": 1
        }, {
          "id": "MeasurePopulationExclusion_4",
          "code": {
            "coding": [ {
              "system": "http://terminology.hl7.org/CodeSystem/measure-population",
              "code": "measure-population-exclusion",
              "display": "Measure Population Exclusion"
            } ]
          },
          "count": 0
        }, {
          "id": "MeasureObservation_4_1",
          "code": {
            "coding": [ {
              "system": "http://terminology.hl7.org/CodeSystem/measure-population",
              "code": "measure-population-observation",
              "display": "Measure Population Observation"
            } ]
          },
          "count": 1
        } ],
        "measureScore": {
          "value": 0.0
        }
      }, {
        "id": "Group_5",
        "population": [ {
          "id": "InitialPopulation_5",
          "code": {
            "coding": [ {
              "system": "http://terminology.hl7.org/CodeSystem/measure-population",
              "code": "initial-population",
              "display": "Initial Population"
            } ]
          },
          "count": 1
        }, {
          "id": "MeasurePopulation_5",
          "code": {
            "coding": [ {
              "system": "http://terminology.hl7.org/CodeSystem/measure-population",
              "code": "measure-population",
              "display": "Measure Population"
            } ]
          },
          "count": 1
        }, {
          "id": "MeasurePopulationExclusion_5",
          "code": {
            "coding": [ {
              "system": "http://terminology.hl7.org/CodeSystem/measure-population",
              "code": "measure-population-exclusion",
              "display": "Measure Population Exclusion"
            } ]
          },
          "count": 0
        }, {
          "id": "MeasureObservation_5_1",
          "code": {
            "coding": [ {
              "system": "http://terminology.hl7.org/CodeSystem/measure-population",
              "code": "measure-population-observation",
              "display": "Measure Population Observation"
            } ]
          },
          "count": 4
        } ],
        "measureScore": {
          "value": 0.0
        }
      }, {
        "id": "Group_6",
        "population": [ {
          "id": "InitialPopulation_6",
          "code": {
            "coding": [ {
              "system": "http://terminology.hl7.org/CodeSystem/measure-population",
              "code": "initial-population",
              "display": "Initial Population"
            } ]
          },
          "count": 1
        }, {
          "id": "MeasurePopulation_6",
          "code": {
            "coding": [ {
              "system": "http://terminology.hl7.org/CodeSystem/measure-population",
              "code": "measure-population",
              "display": "Measure Population"
            } ]
          },
          "count": 1
        }, {
          "id": "MeasurePopulationExclusion_6",
          "code": {
            "coding": [ {
              "system": "http://terminology.hl7.org/CodeSystem/measure-population",
              "code": "measure-population-exclusion",
              "display": "Measure Population Exclusion"
            } ]
          },
          "count": 0
        }, {
          "id": "MeasureObservation_6_1",
          "code": {
            "coding": [ {
              "system": "http://terminology.hl7.org/CodeSystem/measure-population",
              "code": "measure-population-observation",
              "display": "Measure Population Observation"
            } ]
          },
          "count": 100
        } ],
        "measureScore": {
          "value": 0.0
        }
      } ],
      "evaluatedResource": [ {
        "reference": "Patient/d5946dae-72bb-4b13-984d-ce4da0add583"
      }, {
        "reference": "Encounter/20931821-2718-4923-b857-270842e3abbd"
      }, {
        "reference": "Condition/507b4ffe-a12e-4513-9d0b-1382003a4fae"
      }, {
        "reference": "Observation/657a29dc-ebe1-4dda-baee-c3d5e8fabf42"
      }, {
        "reference": "Observation/cfd91744-d586-41b5-9572-f7b8a95309d2"
      }, {
        "reference": "Procedure/d4328a3a-bbdd-4711-b8cb-80e80b32c67f"
      }, {
        "reference": "Procedure/e2d8f389-30df-4e63-a340-5fd0c64ec437"
      }, {
        "reference": "Coverage/9b0ac4b0-0016-4488-9a32-7c01eeaf1119"
      }, {
        "reference": "Organization/00b65ed7-be17-4835-bc4e-4b80c848e235"
      } ]
    },
    "request": {
      "method": "PUT",
      "url": "MeasureReport/8b8920cf-1056-4fef-b3ac-c8e0c4f6b470"
    }
  } ]
}