{
  "resourceType": "Bundle",
  "id": "EDthenObsInpAll4Components",
  "type": "transaction",
  "entry": [ {
    "fullUrl": "https://madie.cms.gov/Patient/ab327433-5304-4665-b195-dcf90754a581",
    "resource": {
      "resourceType": "Patient",
      "id": "ab327433-5304-4665-b195-dcf90754a581",
      "meta": {
        "profile": [ "http://hl7.org/fhir/us/qicore/StructureDefinition/qicore-patient" ]
      },
      "extension": [ {
        "url": "http://hl7.org/fhir/us/core/StructureDefinition/us-core-race",
        "extension": [ {
          "url": "ombCategory",
          "valueCoding": {
            "system": "urn:oid:2.16.840.1.113883.6.238",
            "code": "2106-3",
            "display": "White",
            "userSelected": true
          }
        }, {
          "url": "text",
          "valueString": "White"
        } ]
      }, {
        "url": "http://hl7.org/fhir/us/core/StructureDefinition/us-core-ethnicity",
        "extension": [ {
          "url": "ombCategory",
          "valueCoding": {
            "system": "urn:oid:2.16.840.1.113883.6.238",
            "code": "2186-5",
            "display": "Not Hispanic or Latino",
            "userSelected": true
          }
        }, {
          "url": "text",
          "valueString": "Not Hispanic or Latino"
        } ]
      }, {
        "url": "http://hl7.org/fhir/us/core/StructureDefinition/us-core-sex",
        "valueCode": "248153007"
      } ],
      "identifier": [ {
        "type": {
          "coding": [ {
            "system": "http://terminology.hl7.org/CodeSystem/v2-0203",
            "code": "MR"
          } ]
        },
        "system": "https://madie.cms.gov/",
        "value": "EDthenObsInpAll4Components"
      } ],
      "active": true,
      "name": [ {
        "use": "usual",
        "text": "EDthenObsInpAll4Components",
        "family": "MSROBSPass4",
        "given": [ "EDthenObsInpAll4Components" ]
      } ],
      "gender": "male",
      "birthDate": "1939-01-01",
      "address": [ {
        "text": "EDthenObsInpAll4Components, Screened at risk Assessed Severely Malnourished Diagnosed Care Plan, ID=EDthenObsInpAll4Components, DOB: 01 Jan 1939"
      } ]
    },
    "request": {
      "method": "PUT",
      "url": "Patient/ab327433-5304-4665-b195-dcf90754a581"
    }
  }, {
    "fullUrl": "https://madie.cms.gov/Encounter/da2e77a4-ba83-42cc-9b06-dccfcda966d4",
    "resource": {
      "resourceType": "Encounter",
      "id": "da2e77a4-ba83-42cc-9b06-dccfcda966d4",
      "meta": {
        "profile": [ "http://hl7.org/fhir/us/qicore/StructureDefinition/qicore-encounter" ]
      },
      "status": "finished",
      "class": {
        "system": "http://terminology.hl7.org/CodeSystem/v3-ActCode",
        "code": "IMP",
        "display": "inpatient encounter"
      },
      "type": [ {
        "coding": [ {
          "system": "http://snomed.info/sct",
          "code": "183452005"
        } ]
      } ],
      "subject": {
        "reference": "Patient/ab327433-5304-4665-b195-dcf90754a581"
      },
      "period": {
        "start": "2026-03-02T08:00:00.000+00:00",
        "end": "2026-06-05T08:15:00.000+00:00"
      },
      "reasonReference": [ {
        "reference": "Condition/4d63a3d6-095f-47b5-9b7b-faabe90c15c7"
      } ]
    },
    "request": {
      "method": "PUT",
      "url": "Encounter/da2e77a4-ba83-42cc-9b06-dccfcda966d4"
    }
  }, {
    "fullUrl": "https://madie.cms.gov/Encounter/fe558bb9-292e-4d87-9400-a36b135a797d",
    "resource": {
      "resourceType": "Encounter",
      "id": "fe558bb9-292e-4d87-9400-a36b135a797d",
      "meta": {
        "profile": [ "http://hl7.org/fhir/us/qicore/StructureDefinition/qicore-encounter" ]
      },
      "status": "finished",
      "class": {
        "system": "http://terminology.hl7.org/CodeSystem/v3-ActCode",
        "code": "IMP",
        "display": "admission to observation unit (procedure)"
      },
      "type": [ {
        "coding": [ {
          "system": "http://snomed.info/sct",
          "code": "448951000124107"
        } ]
      } ],
      "subject": {
        "reference": "Patient/ab327433-5304-4665-b195-dcf90754a581"
      },
      "period": {
        "start": "2026-03-01T08:00:00.000+00:00",
        "end": "2026-03-02T08:00:00.000+00:00"
      }
    },
    "request": {
      "method": "PUT",
      "url": "Encounter/fe558bb9-292e-4d87-9400-a36b135a797d"
    }
  }, {
    "fullUrl": "https://madie.cms.gov/Encounter/9fcb12d3-10e6-4b4c-851f-fdab973db620",
    "resource": {
      "resourceType": "Encounter",
      "id": "9fcb12d3-10e6-4b4c-851f-fdab973db620",
      "meta": {
        "profile": [ "http://hl7.org/fhir/us/qicore/StructureDefinition/qicore-encounter" ]
      },
      "status": "finished",
      "class": {
        "system": "http://terminology.hl7.org/CodeSystem/v3-ActCode",
        "code": "IMP",
        "display": "emergency department patient visit (procedure)"
      },
      "type": [ {
        "coding": [ {
          "system": "http://snomed.info/sct",
          "code": "4525004"
        } ]
      } ],
      "subject": {
        "reference": "Patient/ab327433-5304-4665-b195-dcf90754a581"
      },
      "period": {
        "start": "2026-02-01T08:00:00.000+00:00",
        "end": "2026-02-02T08:15:00.000+00:00"
      }
    },
    "request": {
      "method": "PUT",
      "url": "Encounter/9fcb12d3-10e6-4b4c-851f-fdab973db620"
    }
  }, {
    "fullUrl": "https://madie.cms.gov/Condition/4d63a3d6-095f-47b5-9b7b-faabe90c15c7",
    "resource": {
      "resourceType": "Condition",
      "id": "4d63a3d6-095f-47b5-9b7b-faabe90c15c7",
      "meta": {
        "profile": [ "http://hl7.org/fhir/us/qicore/StructureDefinition/qicore-condition-encounter-diagnosis" ]
      },
      "clinicalStatus": {
        "coding": [ {
          "system": "http://terminology.hl7.org/CodeSystem/condition-clinical",
          "code": "active",
          "display": "Active",
          "userSelected": true
        } ]
      },
      "verificationStatus": {
        "coding": [ {
          "system": "http://terminology.hl7.org/CodeSystem/condition-ver-status",
          "code": "confirmed",
          "display": "Confirmed",
          "userSelected": true
        } ]
      },
      "category": [ {
        "coding": [ {
          "system": "http://terminology.hl7.org/CodeSystem/condition-category",
          "code": "encounter-diagnosis",
          "display": "Encounter Diagnosis",
          "userSelected": true
        } ]
      } ],
      "code": {
        "coding": [ {
          "system": "http://hl7.org/fhir/sid/icd-10-cm",
          "code": "O25.10",
          "display": "Malnutrition in pregnancy, unspecified trimester",
          "userSelected": true
        } ]
      },
      "subject": {
        "reference": "Patient/ab327433-5304-4665-b195-dcf90754a581"
      },
      "onsetPeriod": {
        "start": "2026-03-02T08:00:00.000+00:00"
      },
      "recordedDate": "2026-03-02T11:00:00.000+00:00"
    },
    "request": {
      "method": "PUT",
      "url": "Condition/4d63a3d6-095f-47b5-9b7b-faabe90c15c7"
    }
  }, {
    "fullUrl": "https://madie.cms.gov/Observation/6ca6fb03-4a00-4a5d-b46b-807ad43150b8",
    "resource": {
      "resourceType": "Observation",
      "id": "6ca6fb03-4a00-4a5d-b46b-807ad43150b8",
      "meta": {
        "profile": [ "http://hl7.org/fhir/us/qicore/StructureDefinition/qicore-observation-screening-assessment" ]
      },
      "status": "final",
      "category": [ {
        "coding": [ {
          "system": "http://terminology.hl7.org/CodeSystem/observation-category",
          "code": "survey",
          "display": "Survey"
        } ]
      } ],
      "code": {
        "coding": [ {
          "system": "http://loinc.org",
          "code": "101807-6",
          "display": "Malnutrition risk screen results indicator",
          "userSelected": true
        } ]
      },
      "subject": {
        "reference": "Patient/ab327433-5304-4665-b195-dcf90754a581"
      },
      "effectiveDateTime": "2026-03-02T09:00:00.000+00:00",
      "valueCodeableConcept": {
        "coding": [ {
          "system": "http://loinc.org",
          "code": "LA27538-0",
          "display": "At risk for malnutrition",
          "userSelected": true
        } ]
      }
    },
    "request": {
      "method": "PUT",
      "url": "Observation/6ca6fb03-4a00-4a5d-b46b-807ad43150b8"
    }
  }, {
    "fullUrl": "https://madie.cms.gov/Observation/eef0aeef-20dc-487b-9ca6-e0b6479e7086",
    "resource": {
      "resourceType": "Observation",
      "id": "eef0aeef-20dc-487b-9ca6-e0b6479e7086",
      "meta": {
        "profile": [ "http://hl7.org/fhir/us/qicore/StructureDefinition/qicore-observation-screening-assessment" ]
      },
      "status": "final",
      "category": [ {
        "coding": [ {
          "system": "http://terminology.hl7.org/CodeSystem/observation-category",
          "code": "survey",
          "display": "Survey"
        } ]
      } ],
      "code": {
        "coding": [ {
          "system": "http://loinc.org",
          "code": "98967-3",
          "display": "Nutritional Risk Screening 2002 panel",
          "userSelected": true
        } ]
      },
      "subject": {
        "reference": "Patient/ab327433-5304-4665-b195-dcf90754a581"
      },
      "effectiveDateTime": "2026-01-02T09:00:00.000+00:00",
      "valueCodeableConcept": {
        "coding": [ {
          "system": "http://loinc.org",
          "code": "LA33699-2",
          "display": "Not at risk for malnutrition",
          "userSelected": true
        } ]
      }
    },
    "request": {
      "method": "PUT",
      "url": "Observation/eef0aeef-20dc-487b-9ca6-e0b6479e7086"
    }
  }, {
    "fullUrl": "https://madie.cms.gov/Observation/ef5dec1a-b29c-480b-9895-271a72eead3f",
    "resource": {
      "resourceType": "Observation",
      "id": "ef5dec1a-b29c-480b-9895-271a72eead3f",
      "meta": {
        "profile": [ "http://hl7.org/fhir/us/qicore/StructureDefinition/qicore-observation-screening-assessment" ]
      },
      "status": "final",
      "category": [ {
        "coding": [ {
          "system": "http://terminology.hl7.org/CodeSystem/observation-category",
          "code": "survey",
          "display": "Survey"
        } ]
      } ],
      "code": {
        "coding": [ {
          "system": "http://loinc.org",
          "code": "101819-1",
          "display": "Nutritional assessment for malnutrition status",
          "userSelected": true
        } ]
      },
      "subject": {
        "reference": "Patient/ab327433-5304-4665-b195-dcf90754a581"
      },
      "effectiveDateTime": "2026-03-02T10:00:00.000+00:00",
      "valueCodeableConcept": {
        "coding": [ {
          "system": "http://snomed.info/sct",
          "code": "788876001",
          "display": "Cachexia due to malignant neoplastic disease (finding)",
          "userSelected": true
        } ]
      }
    },
    "request": {
      "method": "PUT",
      "url": "Observation/ef5dec1a-b29c-480b-9895-271a72eead3f"
    }
  }, {
    "fullUrl": "https://madie.cms.gov/Procedure/d07519b0-fcba-4c71-ab2c-137d9d3b3245",
    "resource": {
      "resourceType": "Procedure",
      "id": "d07519b0-fcba-4c71-ab2c-137d9d3b3245",
      "meta": {
        "profile": [ "http://hl7.org/fhir/us/qicore/StructureDefinition/qicore-procedure" ]
      },
      "extension": [ {
        "url": "http://hl7.org/fhir/us/qicore/StructureDefinition/qicore-recorded",
        "valueDateTime": "2026-03-02T11:30:00.000+00:00"
      } ],
      "status": "completed",
      "code": {
        "coding": [ {
          "system": "http://snomed.info/sct",
          "code": "410175003",
          "display": "Dietary regime management (procedure)"
        } ],
        "text": "Dietary regime management (procedure)"
      },
      "subject": {
        "reference": "Patient/ab327433-5304-4665-b195-dcf90754a581"
      },
      "encounter": {
        "reference": "Encounter/EDthenObsInpAll4ComponentsMSROBSPass4"
      },
      "performedPeriod": {
        "start": "2026-03-02T11:30:00.000+00:00",
        "end": "2026-03-07T08:15:00.000+00:00"
      }
    },
    "request": {
      "method": "PUT",
      "url": "Procedure/d07519b0-fcba-4c71-ab2c-137d9d3b3245"
    }
  }, {
    "fullUrl": "https://madie.cms.gov/Coverage/df3d7f51-9436-4dd3-90cc-28484219ff6b",
    "resource": {
      "resourceType": "Coverage",
      "id": "df3d7f51-9436-4dd3-90cc-28484219ff6b",
      "meta": {
        "profile": [ "http://hl7.org/fhir/us/qicore/StructureDefinition/qicore-coverage" ]
      },
      "status": "active",
      "type": {
        "coding": [ {
          "system": "https://nahdo.org/sopt",
          "version": "9.2",
          "code": "11",
          "display": "Medicare Managed Care (Includes Medicare Advantage Plans)"
        } ]
      },
      "subscriberId": "97531",
      "beneficiary": {
        "reference": "Patient/ab327433-5304-4665-b195-dcf90754a581"
      },
      "dependent": "0",
      "relationship": {
        "coding": [ {
          "system": "http://terminology.hl7.org/CodeSystem/subscriber-relationship",
          "code": "self"
        } ]
      },
      "period": {
        "start": "2024-10-01T00:00:00.000+00:00"
      },
      "payor": [ {
        "reference": "Organization/b71006f9-f347-4243-bf79-c03ce43c7145"
      } ]
    },
    "request": {
      "method": "PUT",
      "url": "Coverage/df3d7f51-9436-4dd3-90cc-28484219ff6b"
    }
  }, {
    "fullUrl": "https://madie.cms.gov/Organization/b71006f9-f347-4243-bf79-c03ce43c7145",
    "resource": {
      "resourceType": "Organization",
      "id": "b71006f9-f347-4243-bf79-c03ce43c7145",
      "meta": {
        "profile": [ "http://hl7.org/fhir/us/qicore/StructureDefinition/qicore-organization" ]
      },
      "identifier": [ {
        "use": "temp",
        "system": "urn:oid:2.16.840.1.113883.4.4",
        "value": "21-3259825"
      } ],
      "active": true,
      "type": [ {
        "coding": [ {
          "system": "http://terminology.hl7.org/CodeSystem/organization-type",
          "code": "pay",
          "display": "Payer"
        } ]
      } ],
      "name": "Blue Cross Blue Shield of Texas",
      "telecom": [ {
        "system": "phone",
        "value": "(+1) 972-766-6900"
      } ],
      "address": [ {
        "use": "billing",
        "type": "postal",
        "line": [ "P.O. Box 660044" ],
        "city": "Dallas",
        "state": "TX",
        "postalCode": "75266-0044",
        "country": "USA"
      } ]
    },
    "request": {
      "method": "PUT",
      "url": "Organization/b71006f9-f347-4243-bf79-c03ce43c7145"
    }
  }, {
    "fullUrl": "https://madie.cms.gov/MeasureReport/91b5ddca-4d5e-4ffb-992e-6c8637a33122",
    "resource": {
      "resourceType": "MeasureReport",
      "id": "91b5ddca-4d5e-4ffb-992e-6c8637a33122",
      "meta": {
        "profile": [ "http://hl7.org/fhir/us/cqfmeasures/StructureDefinition/test-case-cqfm" ]
      },
      "contained": [ {
        "resourceType": "Parameters",
        "id": "2ca463eb-c226-42f4-a16c-5448fb8d3a9e-parameters",
        "parameter": [ {
          "name": "subject",
          "valueString": "ab327433-5304-4665-b195-dcf90754a581"
        } ]
      } ],
      "extension": [ {
        "url": "http://hl7.org/fhir/StructureDefinition/cqf-inputParameters",
        "valueReference": {
          "reference": "#2ca463eb-c226-42f4-a16c-5448fb8d3a9e-parameters"
        }
      }, {
        "url": "http://hl7.org/fhir/us/cqfmeasures/StructureDefinition/cqfm-testCaseDescription",
        "valueMarkdown": "ED Visit with Screen, not at risk, then obs and inpatient encounter with all 4 MOS"
      } ],
      "modifierExtension": [ {
        "url": "http://hl7.org/fhir/us/cqfmeasures/StructureDefinition/cqfm-isTestCase",
        "valueBoolean": true
      } ],
      "status": "complete",
      "type": "individual",
      "measure": "https://madie.cms.gov/Measure/CMS986FHIRMalnutritionScore",
      "period": {
        "start": "2026-01-01",
        "end": "2026-12-31"
      },
      "group": [ {
        "id": "Group_1",
        "population": [ {
          "id": "InitialPopulation_1",
          "code": {
            "coding": [ {
              "system": "http://terminology.hl7.org/CodeSystem/measure-population",
              "code": "initial-population",
              "display": "Initial Population"
            } ]
          },
          "count": 1
        }, {
          "id": "MeasurePopulation_1",
          "code": {
            "coding": [ {
              "system": "http://terminology.hl7.org/CodeSystem/measure-population",
              "code": "measure-population",
              "display": "Measure Population"
            } ]
          },
          "count": 1
        }, {
          "id": "MeasurePopulationExclusion_1",
          "code": {
            "coding": [ {
              "system": "http://terminology.hl7.org/CodeSystem/measure-population",
              "code": "measure-population-exclusion",
              "display": "Measure Population Exclusion"
            } ]
          },
          "count": 0
        }, {
          "id": "MeasureObservation_1_1",
          "code": {
            "coding": [ {
              "system": "http://terminology.hl7.org/CodeSystem/measure-population",
              "code": "measure-population-observation",
              "display": "Measure Population Observation"
            } ]
          },
          "count": 1
        } ],
        "measureScore": {
          "value": 0.0
        }
      }, {
        "id": "Group_2",
        "population": [ {
          "id": "InitialPopulation_2",
          "code": {
            "coding": [ {
              "system": "http://terminology.hl7.org/CodeSystem/measure-population",
              "code": "initial-population",
              "display": "Initial Population"
            } ]
          },
          "count": 1
        }, {
          "id": "MeasurePopulation_2",
          "code": {
            "coding": [ {
              "system": "http://terminology.hl7.org/CodeSystem/measure-population",
              "code": "measure-population",
              "display": "Measure Population"
            } ]
          },
          "count": 1
        }, {
          "id": "MeasurePopulationExclusion_2",
          "code": {
            "coding": [ {
              "system": "http://terminology.hl7.org/CodeSystem/measure-population",
              "code": "measure-population-exclusion",
              "display": "Measure Population Exclusion"
            } ]
          },
          "count": 0
        }, {
          "id": "MeasureObservation_2_1",
          "code": {
            "coding": [ {
              "system": "http://terminology.hl7.org/CodeSystem/measure-population",
              "code": "measure-population-observation",
              "display": "Measure Population Observation"
            } ]
          },
          "count": 1
        } ],
        "measureScore": {
          "value": 0.0
        }
      }, {
        "id": "Group_3",
        "population": [ {
          "id": "InitialPopulation_3",
          "code": {
            "coding": [ {
              "system": "http://terminology.hl7.org/CodeSystem/measure-population",
              "code": "initial-population",
              "display": "Initial Population"
            } ]
          },
          "count": 1
        }, {
          "id": "MeasurePopulation_3",
          "code": {
            "coding": [ {
              "system": "http://terminology.hl7.org/CodeSystem/measure-population",
              "code": "measure-population",
              "display": "Measure Population"
            } ]
          },
          "count": 1
        }, {
          "id": "MeasurePopulationExclusion_3",
          "code": {
            "coding": [ {
              "system": "http://terminology.hl7.org/CodeSystem/measure-population",
              "code": "measure-population-exclusion",
              "display": "Measure Population Exclusion"
            } ]
          },
          "count": 0
        }, {
          "id": "MeasureObservation_3_1",
          "code": {
            "coding": [ {
              "system": "http://terminology.hl7.org/CodeSystem/measure-population",
              "code": "measure-population-observation",
              "display": "Measure Population Observation"
            } ]
          },
          "count": 1
        } ],
        "measureScore": {
          "value": 0.0
        }
      }, {
        "id": "Group_4",
        "population": [ {
          "id": "InitialPopulation_4",
          "code": {
            "coding": [ {
              "system": "http://terminology.hl7.org/CodeSystem/measure-population",
              "code": "initial-population",
              "display": "Initial Population"
            } ]
          },
          "count": 1
        }, {
          "id": "MeasurePopulation_4",
          "code": {
            "coding": [ {
              "system": "http://terminology.hl7.org/CodeSystem/measure-population",
              "code": "measure-population",
              "display": "Measure Population"
            } ]
          },
          "count": 1
        }, {
          "id": "MeasurePopulationExclusion_4",
          "code": {
            "coding": [ {
              "system": "http://terminology.hl7.org/CodeSystem/measure-population",
              "code": "measure-population-exclusion",
              "display": "Measure Population Exclusion"
            } ]
          },
          "count": 0
        }, {
          "id": "MeasureObservation_4_1",
          "code": {
            "coding": [ {
              "system": "http://terminology.hl7.org/CodeSystem/measure-population",
              "code": "measure-population-observation",
              "display": "Measure Population Observation"
            } ]
          },
          "count": 1
        } ],
        "measureScore": {
          "value": 0.0
        }
      }, {
        "id": "Group_5",
        "population": [ {
          "id": "InitialPopulation_5",
          "code": {
            "coding": [ {
              "system": "http://terminology.hl7.org/CodeSystem/measure-population",
              "code": "initial-population",
              "display": "Initial Population"
            } ]
          },
          "count": 1
        }, {
          "id": "MeasurePopulation_5",
          "code": {
            "coding": [ {
              "system": "http://terminology.hl7.org/CodeSystem/measure-population",
              "code": "measure-population",
              "display": "Measure Population"
            } ]
          },
          "count": 1
        }, {
          "id": "MeasurePopulationExclusion_5",
          "code": {
            "coding": [ {
              "system": "http://terminology.hl7.org/CodeSystem/measure-population",
              "code": "measure-population-exclusion",
              "display": "Measure Population Exclusion"
            } ]
          },
          "count": 0
        }, {
          "id": "MeasureObservation_5_1",
          "code": {
            "coding": [ {
              "system": "http://terminology.hl7.org/CodeSystem/measure-population",
              "code": "measure-population-observation",
              "display": "Measure Population Observation"
            } ]
          },
          "count": 4
        } ],
        "measureScore": {
          "value": 0.0
        }
      }, {
        "id": "Group_6",
        "population": [ {
          "id": "InitialPopulation_6",
          "code": {
            "coding": [ {
              "system": "http://terminology.hl7.org/CodeSystem/measure-population",
              "code": "initial-population",
              "display": "Initial Population"
            } ]
          },
          "count": 1
        }, {
          "id": "MeasurePopulation_6",
          "code": {
            "coding": [ {
              "system": "http://terminology.hl7.org/CodeSystem/measure-population",
              "code": "measure-population",
              "display": "Measure Population"
            } ]
          },
          "count": 1
        }, {
          "id": "MeasurePopulationExclusion_6",
          "code": {
            "coding": [ {
              "system": "http://terminology.hl7.org/CodeSystem/measure-population",
              "code": "measure-population-exclusion",
              "display": "Measure Population Exclusion"
            } ]
          },
          "count": 0
        }, {
          "id": "MeasureObservation_6_1",
          "code": {
            "coding": [ {
              "system": "http://terminology.hl7.org/CodeSystem/measure-population",
              "code": "measure-population-observation",
              "display": "Measure Population Observation"
            } ]
          },
          "count": 100
        } ],
        "measureScore": {
          "value": 0.0
        }
      } ],
      "evaluatedResource": [ {
        "reference": "Patient/ab327433-5304-4665-b195-dcf90754a581"
      }, {
        "reference": "Encounter/da2e77a4-ba83-42cc-9b06-dccfcda966d4"
      }, {
        "reference": "Encounter/fe558bb9-292e-4d87-9400-a36b135a797d"
      }, {
        "reference": "Encounter/9fcb12d3-10e6-4b4c-851f-fdab973db620"
      }, {
        "reference": "Condition/4d63a3d6-095f-47b5-9b7b-faabe90c15c7"
      }, {
        "reference": "Observation/6ca6fb03-4a00-4a5d-b46b-807ad43150b8"
      }, {
        "reference": "Observation/eef0aeef-20dc-487b-9ca6-e0b6479e7086"
      }, {
        "reference": "Observation/ef5dec1a-b29c-480b-9895-271a72eead3f"
      }, {
        "reference": "Procedure/d07519b0-fcba-4c71-ab2c-137d9d3b3245"
      }, {
        "reference": "Coverage/df3d7f51-9436-4dd3-90cc-28484219ff6b"
      }, {
        "reference": "Organization/b71006f9-f347-4243-bf79-c03ce43c7145"
      } ]
    },
    "request": {
      "method": "PUT",
      "url": "MeasureReport/91b5ddca-4d5e-4ffb-992e-6c8637a33122"
    }
  } ]
}