{
  "resourceType": "Bundle",
  "id": "3EncountersinMp",
  "type": "transaction",
  "entry": [ {
    "fullUrl": "https://madie.cms.gov/Patient/b1b79c28-6fb7-4900-8332-1378089486dd",
    "resource": {
      "resourceType": "Patient",
      "id": "b1b79c28-6fb7-4900-8332-1378089486dd",
      "meta": {
        "profile": [ "http://hl7.org/fhir/us/qicore/StructureDefinition/qicore-patient" ]
      },
      "extension": [ {
        "url": "http://hl7.org/fhir/us/core/StructureDefinition/us-core-race",
        "extension": [ {
          "url": "ombCategory",
          "valueCoding": {
            "system": "urn:oid:2.16.840.1.113883.6.238",
            "code": "2106-3",
            "display": "White",
            "userSelected": true
          }
        }, {
          "url": "text",
          "valueString": "White"
        } ]
      }, {
        "url": "http://hl7.org/fhir/us/core/StructureDefinition/us-core-ethnicity",
        "extension": [ {
          "url": "ombCategory",
          "valueCoding": {
            "system": "urn:oid:2.16.840.1.113883.6.238",
            "code": "2186-5",
            "display": "Not Hispanic or Latino",
            "userSelected": true
          }
        }, {
          "url": "text",
          "valueString": "Not Hispanic or Latino"
        } ]
      }, {
        "url": "http://hl7.org/fhir/us/core/StructureDefinition/us-core-sex",
        "valueCode": "248153007"
      } ],
      "identifier": [ {
        "type": {
          "coding": [ {
            "system": "http://terminology.hl7.org/CodeSystem/v2-0203",
            "code": "MR"
          } ]
        },
        "system": "https://madie.cms.gov/",
        "value": "3EncountersinMp"
      } ],
      "active": true,
      "name": [ {
        "use": "usual",
        "text": "3EncountersinMp",
        "family": "MSROBSpass4",
        "given": [ "3EncountersinMp" ]
      } ],
      "gender": "male",
      "birthDate": "1952-01-01",
      "address": [ {
        "text": "3EncountersinMp, Screened Not at risk Assessed Severely Malnourished Diagnosed Care Plan, ID=3EncountersinMp, DOB: 01 Jan 1952"
      } ]
    },
    "request": {
      "method": "PUT",
      "url": "Patient/b1b79c28-6fb7-4900-8332-1378089486dd"
    }
  }, {
    "fullUrl": "https://madie.cms.gov/Encounter/20a6b833-37a8-46a8-8083-09a376b29ef9",
    "resource": {
      "resourceType": "Encounter",
      "id": "20a6b833-37a8-46a8-8083-09a376b29ef9",
      "meta": {
        "profile": [ "http://hl7.org/fhir/us/qicore/StructureDefinition/qicore-encounter" ]
      },
      "status": "finished",
      "class": {
        "system": "http://terminology.hl7.org/CodeSystem/v3-ActCode",
        "code": "IMP",
        "display": "inpatient encounter"
      },
      "type": [ {
        "coding": [ {
          "system": "http://snomed.info/sct",
          "code": "183452005"
        } ]
      } ],
      "subject": {
        "reference": "Patient/b1b79c28-6fb7-4900-8332-1378089486dd"
      },
      "period": {
        "start": "2026-02-01T08:00:00.000+00:00",
        "end": "2026-02-07T08:15:00.000+00:00"
      }
    },
    "request": {
      "method": "PUT",
      "url": "Encounter/20a6b833-37a8-46a8-8083-09a376b29ef9"
    }
  }, {
    "fullUrl": "https://madie.cms.gov/Condition/5dc99f1f-1985-4251-8bd5-e1cd35eafe1f",
    "resource": {
      "resourceType": "Condition",
      "id": "5dc99f1f-1985-4251-8bd5-e1cd35eafe1f",
      "meta": {
        "profile": [ "http://hl7.org/fhir/us/qicore/StructureDefinition/qicore-condition-encounter-diagnosis" ]
      },
      "clinicalStatus": {
        "coding": [ {
          "system": "http://terminology.hl7.org/CodeSystem/condition-clinical",
          "code": "active",
          "display": "Active",
          "userSelected": true
        } ]
      },
      "verificationStatus": {
        "coding": [ {
          "system": "http://terminology.hl7.org/CodeSystem/condition-ver-status",
          "code": "confirmed",
          "display": "Confirmed",
          "userSelected": true
        } ]
      },
      "category": [ {
        "coding": [ {
          "system": "http://terminology.hl7.org/CodeSystem/condition-category",
          "code": "encounter-diagnosis",
          "display": "Encounter Diagnosis",
          "userSelected": true
        } ]
      } ],
      "code": {
        "coding": [ {
          "system": "http://snomed.info/sct",
          "code": "190606006",
          "display": "Moderate protein energy malnutrition (disorder)",
          "userSelected": true
        } ]
      },
      "subject": {
        "reference": "Patient/b1b79c28-6fb7-4900-8332-1378089486dd"
      },
      "onsetPeriod": {
        "start": "2026-02-01T08:00:00.000+00:00"
      },
      "recordedDate": "2026-02-01T11:00:00.000+00:00"
    },
    "request": {
      "method": "PUT",
      "url": "Condition/5dc99f1f-1985-4251-8bd5-e1cd35eafe1f"
    }
  }, {
    "fullUrl": "https://madie.cms.gov/Observation/f362ee59-9731-4818-807e-64ff5cf712f5",
    "resource": {
      "resourceType": "Observation",
      "id": "f362ee59-9731-4818-807e-64ff5cf712f5",
      "meta": {
        "profile": [ "http://hl7.org/fhir/us/qicore/StructureDefinition/qicore-observation-screening-assessment" ]
      },
      "status": "final",
      "category": [ {
        "coding": [ {
          "system": "http://terminology.hl7.org/CodeSystem/observation-category",
          "code": "survey",
          "display": "Survey"
        } ]
      } ],
      "code": {
        "coding": [ {
          "system": "http://loinc.org",
          "code": "98967-3",
          "display": "Nutritional Risk Screening 2002 Panel",
          "userSelected": true
        } ]
      },
      "subject": {
        "reference": "Patient/b1b79c28-6fb7-4900-8332-1378089486dd"
      },
      "effectiveDateTime": "2026-02-01T09:00:00.000+00:00",
      "valueCodeableConcept": {
        "coding": [ {
          "system": "http://snomed.info/sct",
          "code": "129689002",
          "display": "At increased risk for nutritional problem (finding)",
          "userSelected": true
        } ]
      }
    },
    "request": {
      "method": "PUT",
      "url": "Observation/f362ee59-9731-4818-807e-64ff5cf712f5"
    }
  }, {
    "fullUrl": "https://madie.cms.gov/Observation/f7e8e599-3198-47a8-91d9-f41b899591c5",
    "resource": {
      "resourceType": "Observation",
      "id": "f7e8e599-3198-47a8-91d9-f41b899591c5",
      "meta": {
        "profile": [ "http://hl7.org/fhir/us/qicore/StructureDefinition/qicore-observation-screening-assessment" ]
      },
      "status": "final",
      "category": [ {
        "coding": [ {
          "system": "http://terminology.hl7.org/CodeSystem/observation-category",
          "code": "survey",
          "display": "Survey"
        } ]
      } ],
      "code": {
        "coding": [ {
          "system": "http://loinc.org",
          "code": "75282-4",
          "display": "Nutrition assessment panel",
          "userSelected": true
        } ]
      },
      "subject": {
        "reference": "Patient/b1b79c28-6fb7-4900-8332-1378089486dd"
      },
      "effectiveDateTime": "2026-02-01T10:00:00.000+00:00",
      "valueCodeableConcept": {
        "coding": [ {
          "system": "http://snomed.info/sct",
          "code": "102636009",
          "display": "Chronic nutritional deficiency (finding)",
          "userSelected": true
        } ]
      }
    },
    "request": {
      "method": "PUT",
      "url": "Observation/f7e8e599-3198-47a8-91d9-f41b899591c5"
    }
  }, {
    "fullUrl": "https://madie.cms.gov/Procedure/0c2eaf2a-0dea-4e12-bc58-0c1d88f9c312",
    "resource": {
      "resourceType": "Procedure",
      "id": "0c2eaf2a-0dea-4e12-bc58-0c1d88f9c312",
      "meta": {
        "profile": [ "http://hl7.org/fhir/us/qicore/StructureDefinition/qicore-procedure" ]
      },
      "extension": [ {
        "url": "http://hl7.org/fhir/us/qicore/StructureDefinition/qicore-recorded",
        "valueDateTime": "2026-02-01T11:30:00.000+00:00"
      } ],
      "status": "completed",
      "code": {
        "coding": [ {
          "system": "http://snomed.info/sct",
          "code": "306354000",
          "display": "Referral to hospital-based dietitian (procedure)"
        } ],
        "text": "Referral to hospital-based dietitian (procedure)"
      },
      "subject": {
        "reference": "Patient/b1b79c28-6fb7-4900-8332-1378089486dd"
      },
      "encounter": {
        "reference": "Encounter/3EncountersinMpMSROBSpass4"
      },
      "performedPeriod": {
        "start": "2026-02-01T11:30:00.000+00:00",
        "end": "2026-02-07T08:15:00.000+00:00"
      }
    },
    "request": {
      "method": "PUT",
      "url": "Procedure/0c2eaf2a-0dea-4e12-bc58-0c1d88f9c312"
    }
  }, {
    "fullUrl": "https://madie.cms.gov/Procedure/d3d5e1b7-ed9e-41ae-971b-dadde42f559c",
    "resource": {
      "resourceType": "Procedure",
      "id": "d3d5e1b7-ed9e-41ae-971b-dadde42f559c",
      "meta": {
        "profile": [ "http://hl7.org/fhir/us/qicore/StructureDefinition/qicore-procedure" ]
      },
      "extension": [ {
        "url": "http://hl7.org/fhir/us/qicore/StructureDefinition/qicore-recorded",
        "valueDateTime": "2026-02-02T11:30:00.000+00:00"
      } ],
      "status": "completed",
      "code": {
        "coding": [ {
          "system": "http://snomed.info/sct",
          "code": "386372009",
          "display": "Nutrition management"
        } ],
        "text": "Nutrition management"
      },
      "subject": {
        "reference": "Patient/b1b79c28-6fb7-4900-8332-1378089486dd"
      },
      "encounter": {
        "reference": "Encounter/3EncountersinMpMSROBSpass4"
      },
      "performedPeriod": {
        "start": "2026-02-01T11:30:00.000+00:00",
        "end": "2026-02-07T08:15:00.000+00:00"
      }
    },
    "request": {
      "method": "PUT",
      "url": "Procedure/d3d5e1b7-ed9e-41ae-971b-dadde42f559c"
    }
  }, {
    "fullUrl": "https://madie.cms.gov/Coverage/207e6b3d-31ea-4818-a3f8-752914e1ceb6",
    "resource": {
      "resourceType": "Coverage",
      "id": "207e6b3d-31ea-4818-a3f8-752914e1ceb6",
      "meta": {
        "profile": [ "http://hl7.org/fhir/us/qicore/StructureDefinition/qicore-coverage" ]
      },
      "status": "active",
      "type": {
        "coding": [ {
          "system": "https://nahdo.org/sopt",
          "version": "9.2",
          "code": "11",
          "display": "Medicare Managed Care (Includes Medicare Advantage Plans)"
        } ]
      },
      "subscriberId": "97531",
      "beneficiary": {
        "reference": "Patient/b1b79c28-6fb7-4900-8332-1378089486dd"
      },
      "dependent": "0",
      "relationship": {
        "coding": [ {
          "system": "http://terminology.hl7.org/CodeSystem/subscriber-relationship",
          "code": "self"
        } ]
      },
      "period": {
        "start": "2026-10-01T00:00:00.000+00:00"
      },
      "payor": [ {
        "reference": "Organization/bd2f1cdc-fca2-455a-9c0d-6df58fef7450"
      } ]
    },
    "request": {
      "method": "PUT",
      "url": "Coverage/207e6b3d-31ea-4818-a3f8-752914e1ceb6"
    }
  }, {
    "fullUrl": "https://madie.cms.gov/Encounter/1ffbf9b4-100e-43d6-81ef-36fae99621bf",
    "resource": {
      "resourceType": "Encounter",
      "id": "1ffbf9b4-100e-43d6-81ef-36fae99621bf",
      "meta": {
        "profile": [ "http://hl7.org/fhir/us/qicore/StructureDefinition/qicore-encounter" ]
      },
      "status": "finished",
      "class": {
        "system": "http://terminology.hl7.org/CodeSystem/v3-ActCode",
        "code": "IMP",
        "display": "inpatient encounter"
      },
      "type": [ {
        "coding": [ {
          "system": "http://snomed.info/sct",
          "code": "183452005"
        } ]
      } ],
      "subject": {
        "reference": "Patient/b1b79c28-6fb7-4900-8332-1378089486dd"
      },
      "period": {
        "start": "2026-03-01T08:00:00.000+00:00",
        "end": "2026-03-07T08:15:00.000+00:00"
      },
      "reasonReference": [ {
        "reference": "Condition/7d6ff838-448a-4a6b-9b1f-51c80e0e1024"
      } ]
    },
    "request": {
      "method": "PUT",
      "url": "Encounter/1ffbf9b4-100e-43d6-81ef-36fae99621bf"
    }
  }, {
    "fullUrl": "https://madie.cms.gov/Condition/7d6ff838-448a-4a6b-9b1f-51c80e0e1024",
    "resource": {
      "resourceType": "Condition",
      "id": "7d6ff838-448a-4a6b-9b1f-51c80e0e1024",
      "meta": {
        "profile": [ "http://hl7.org/fhir/us/qicore/StructureDefinition/qicore-condition-encounter-diagnosis" ]
      },
      "clinicalStatus": {
        "coding": [ {
          "system": "http://terminology.hl7.org/CodeSystem/condition-clinical",
          "code": "active",
          "display": "Active",
          "userSelected": true
        } ]
      },
      "verificationStatus": {
        "coding": [ {
          "system": "http://terminology.hl7.org/CodeSystem/condition-ver-status",
          "code": "confirmed",
          "display": "Confirmed",
          "userSelected": true
        } ]
      },
      "category": [ {
        "coding": [ {
          "system": "http://terminology.hl7.org/CodeSystem/condition-category",
          "code": "encounter-diagnosis",
          "display": "Encounter Diagnosis",
          "userSelected": true
        } ]
      } ],
      "code": {
        "coding": [ {
          "system": "http://snomed.info/sct",
          "code": "272588001",
          "display": "Malnutrition (calorie) (disorder)",
          "userSelected": true
        } ]
      },
      "subject": {
        "reference": "Patient/b1b79c28-6fb7-4900-8332-1378089486dd"
      },
      "onsetPeriod": {
        "start": "2026-03-01T08:00:00.000+00:00"
      },
      "recordedDate": "2026-03-01T11:00:00.000+00:00"
    },
    "request": {
      "method": "PUT",
      "url": "Condition/7d6ff838-448a-4a6b-9b1f-51c80e0e1024"
    }
  }, {
    "fullUrl": "https://madie.cms.gov/Observation/eb6c657d-d5fc-4ace-b218-0538acc41bc1",
    "resource": {
      "resourceType": "Observation",
      "id": "eb6c657d-d5fc-4ace-b218-0538acc41bc1",
      "meta": {
        "profile": [ "http://hl7.org/fhir/us/qicore/StructureDefinition/qicore-observation-screening-assessment" ]
      },
      "status": "final",
      "category": [ {
        "coding": [ {
          "system": "http://terminology.hl7.org/CodeSystem/observation-category",
          "code": "survey",
          "display": "Survey"
        } ]
      } ],
      "code": {
        "coding": [ {
          "system": "http://loinc.org",
          "code": "98968-1",
          "display": "Initial Screening NRS_2002",
          "userSelected": true
        } ]
      },
      "subject": {
        "reference": "Patient/b1b79c28-6fb7-4900-8332-1378089486dd"
      },
      "effectiveDateTime": "2026-03-01T09:00:00.000+00:00",
      "valueCodeableConcept": {
        "coding": [ {
          "system": "http://snomed.info/sct",
          "code": "36823005",
          "display": "Normal diet (finding)",
          "userSelected": true
        } ]
      }
    },
    "request": {
      "method": "PUT",
      "url": "Observation/eb6c657d-d5fc-4ace-b218-0538acc41bc1"
    }
  }, {
    "fullUrl": "https://madie.cms.gov/Observation/d3d9710e-098f-4039-a952-1c756693c1b9",
    "resource": {
      "resourceType": "Observation",
      "id": "d3d9710e-098f-4039-a952-1c756693c1b9",
      "meta": {
        "profile": [ "http://hl7.org/fhir/us/qicore/StructureDefinition/qicore-observation-screening-assessment" ]
      },
      "status": "final",
      "category": [ {
        "coding": [ {
          "system": "http://terminology.hl7.org/CodeSystem/observation-category",
          "code": "survey",
          "display": "Survey"
        } ]
      } ],
      "code": {
        "coding": [ {
          "system": "http://loinc.org",
          "code": "75285-7",
          "display": "Comparative nutrition assessment standards panel",
          "userSelected": true
        } ]
      },
      "subject": {
        "reference": "Patient/b1b79c28-6fb7-4900-8332-1378089486dd"
      },
      "effectiveDateTime": "2026-03-01T10:00:00.000+00:00",
      "valueCodeableConcept": {
        "coding": [ {
          "system": "http://snomed.info/sct",
          "code": "272588001",
          "display": "Malnutrition (calorie) (disorder)",
          "userSelected": true
        } ]
      }
    },
    "request": {
      "method": "PUT",
      "url": "Observation/d3d9710e-098f-4039-a952-1c756693c1b9"
    }
  }, {
    "fullUrl": "https://madie.cms.gov/Procedure/1bc099d0-e189-4b05-9dea-b5c7a9be59a6",
    "resource": {
      "resourceType": "Procedure",
      "id": "1bc099d0-e189-4b05-9dea-b5c7a9be59a6",
      "meta": {
        "profile": [ "http://hl7.org/fhir/us/qicore/StructureDefinition/qicore-procedure" ]
      },
      "extension": [ {
        "url": "http://hl7.org/fhir/us/qicore/StructureDefinition/qicore-recorded",
        "valueDateTime": "2026-03-01T11:30:00.000+00:00"
      } ],
      "status": "completed",
      "code": {
        "coding": [ {
          "system": "http://snomed.info/sct",
          "code": "306354000",
          "display": "Referral to hospital-based dietitian (procedure)"
        } ],
        "text": "Referral to hospital-based dietitian (procedure)"
      },
      "subject": {
        "reference": "Patient/b1b79c28-6fb7-4900-8332-1378089486dd"
      },
      "encounter": {
        "reference": "Encounter/3EncountersinMpMSROBSpass4"
      },
      "performedPeriod": {
        "start": "2026-03-01T11:30:00.000+00:00",
        "end": "2026-03-07T08:15:00.000+00:00"
      }
    },
    "request": {
      "method": "PUT",
      "url": "Procedure/1bc099d0-e189-4b05-9dea-b5c7a9be59a6"
    }
  }, {
    "fullUrl": "https://madie.cms.gov/Procedure/69e02a91-0e00-4e79-80d5-df8aad63d140",
    "resource": {
      "resourceType": "Procedure",
      "id": "69e02a91-0e00-4e79-80d5-df8aad63d140",
      "meta": {
        "profile": [ "http://hl7.org/fhir/us/qicore/StructureDefinition/qicore-procedure" ]
      },
      "extension": [ {
        "url": "http://hl7.org/fhir/us/qicore/StructureDefinition/qicore-recorded",
        "valueDateTime": "2026-03-02T11:30:00.000+00:00"
      } ],
      "status": "completed",
      "code": {
        "coding": [ {
          "system": "http://snomed.info/sct",
          "code": "386372009",
          "display": "Nutrition management"
        } ],
        "text": "Nutrition management"
      },
      "subject": {
        "reference": "Patient/b1b79c28-6fb7-4900-8332-1378089486dd"
      },
      "encounter": {
        "reference": "Encounter/3EncountersinMpMSROBSpass4"
      },
      "performedPeriod": {
        "start": "2026-03-01T11:30:00.000+00:00",
        "end": "2026-03-07T08:15:00.000+00:00"
      }
    },
    "request": {
      "method": "PUT",
      "url": "Procedure/69e02a91-0e00-4e79-80d5-df8aad63d140"
    }
  }, {
    "fullUrl": "https://madie.cms.gov/Encounter/199da5f9-3a6b-4a9b-9803-2d84a22a1973",
    "resource": {
      "resourceType": "Encounter",
      "id": "199da5f9-3a6b-4a9b-9803-2d84a22a1973",
      "meta": {
        "profile": [ "http://hl7.org/fhir/us/qicore/StructureDefinition/qicore-encounter" ]
      },
      "status": "finished",
      "class": {
        "system": "http://terminology.hl7.org/CodeSystem/v3-ActCode",
        "code": "IMP",
        "display": "inpatient encounter"
      },
      "type": [ {
        "coding": [ {
          "system": "http://snomed.info/sct",
          "code": "183452005"
        } ]
      } ],
      "subject": {
        "reference": "Patient/b1b79c28-6fb7-4900-8332-1378089486dd"
      },
      "period": {
        "start": "2026-04-01T08:00:00.000+00:00",
        "end": "2026-04-07T08:15:00.000+00:00"
      }
    },
    "request": {
      "method": "PUT",
      "url": "Encounter/199da5f9-3a6b-4a9b-9803-2d84a22a1973"
    }
  }, {
    "fullUrl": "https://madie.cms.gov/Condition/5ac9124a-d929-4ef4-83ca-496aadad3567",
    "resource": {
      "resourceType": "Condition",
      "id": "5ac9124a-d929-4ef4-83ca-496aadad3567",
      "meta": {
        "profile": [ "http://hl7.org/fhir/us/qicore/StructureDefinition/qicore-condition-encounter-diagnosis" ]
      },
      "clinicalStatus": {
        "coding": [ {
          "system": "http://terminology.hl7.org/CodeSystem/condition-clinical",
          "code": "active",
          "display": "Active",
          "userSelected": true
        } ]
      },
      "verificationStatus": {
        "coding": [ {
          "system": "http://terminology.hl7.org/CodeSystem/condition-ver-status",
          "code": "confirmed",
          "display": "Confirmed",
          "userSelected": true
        } ]
      },
      "category": [ {
        "coding": [ {
          "system": "http://terminology.hl7.org/CodeSystem/condition-category",
          "code": "encounter-diagnosis",
          "display": "Encounter Diagnosis",
          "userSelected": true
        } ]
      } ],
      "code": {
        "coding": [ {
          "system": "http://snomed.info/sct",
          "code": "272588001",
          "display": "Malnutrition (calorie) (disorder)",
          "userSelected": true
        } ]
      },
      "subject": {
        "reference": "Patient/b1b79c28-6fb7-4900-8332-1378089486dd"
      },
      "onsetPeriod": {
        "start": "2026-04-01T08:00:00.000+00:00"
      },
      "recordedDate": "2026-04-01T11:00:00.000+00:00"
    },
    "request": {
      "method": "PUT",
      "url": "Condition/5ac9124a-d929-4ef4-83ca-496aadad3567"
    }
  }, {
    "fullUrl": "https://madie.cms.gov/Observation/b95cf4ed-0894-43a8-bde2-f1d14054a044",
    "resource": {
      "resourceType": "Observation",
      "id": "b95cf4ed-0894-43a8-bde2-f1d14054a044",
      "meta": {
        "profile": [ "http://hl7.org/fhir/us/qicore/StructureDefinition/qicore-observation-screening-assessment" ]
      },
      "status": "final",
      "category": [ {
        "coding": [ {
          "system": "http://terminology.hl7.org/CodeSystem/observation-category",
          "code": "survey",
          "display": "Survey"
        } ]
      } ],
      "code": {
        "coding": [ {
          "system": "http://loinc.org",
          "code": "98968-1",
          "display": "Initial Screening NRS_2002",
          "userSelected": true
        } ]
      },
      "subject": {
        "reference": "Patient/b1b79c28-6fb7-4900-8332-1378089486dd"
      },
      "effectiveDateTime": "2026-02-01T09:00:00.000+00:00",
      "valueCodeableConcept": {
        "coding": [ {
          "system": "http://snomed.info/sct",
          "code": "36823005",
          "display": "Normal diet (finding)",
          "userSelected": true
        } ]
      }
    },
    "request": {
      "method": "PUT",
      "url": "Observation/b95cf4ed-0894-43a8-bde2-f1d14054a044"
    }
  }, {
    "fullUrl": "https://madie.cms.gov/Observation/add2b7d8-2a5d-4613-8e99-aaa66e72d10d",
    "resource": {
      "resourceType": "Observation",
      "id": "add2b7d8-2a5d-4613-8e99-aaa66e72d10d",
      "meta": {
        "profile": [ "http://hl7.org/fhir/us/qicore/StructureDefinition/qicore-observation-screening-assessment" ]
      },
      "status": "final",
      "category": [ {
        "coding": [ {
          "system": "http://terminology.hl7.org/CodeSystem/observation-category",
          "code": "survey",
          "display": "Survey"
        } ]
      } ],
      "code": {
        "coding": [ {
          "system": "http://loinc.org",
          "code": "75285-7",
          "display": "Comparative nutrition assessment standards panel",
          "userSelected": true
        } ]
      },
      "subject": {
        "reference": "Patient/b1b79c28-6fb7-4900-8332-1378089486dd"
      },
      "effectiveDateTime": "2026-04-01T10:00:00.000+00:00",
      "valueCodeableConcept": {
        "coding": [ {
          "system": "http://snomed.info/sct",
          "code": "272588001",
          "display": "Malnutrition (calorie) (disorder)",
          "userSelected": true
        } ]
      }
    },
    "request": {
      "method": "PUT",
      "url": "Observation/add2b7d8-2a5d-4613-8e99-aaa66e72d10d"
    }
  }, {
    "fullUrl": "https://madie.cms.gov/Procedure/0489077c-3ab3-407e-8904-832d0c07a7da",
    "resource": {
      "resourceType": "Procedure",
      "id": "0489077c-3ab3-407e-8904-832d0c07a7da",
      "meta": {
        "profile": [ "http://hl7.org/fhir/us/qicore/StructureDefinition/qicore-procedure" ]
      },
      "extension": [ {
        "url": "http://hl7.org/fhir/us/qicore/StructureDefinition/qicore-recorded",
        "valueDateTime": "2026-04-01T11:30:00.000+00:00"
      } ],
      "status": "completed",
      "code": {
        "coding": [ {
          "system": "http://snomed.info/sct",
          "code": "306354000",
          "display": "Referral to hospital-based dietitian (procedure)"
        } ],
        "text": "Referral to hospital-based dietitian (procedure)"
      },
      "subject": {
        "reference": "Patient/b1b79c28-6fb7-4900-8332-1378089486dd"
      },
      "encounter": {
        "reference": "Encounter/3EncountersinMpMSROBSpass4"
      },
      "performedPeriod": {
        "start": "2026-04-01T11:30:00.000+00:00",
        "end": "2026-04-07T08:15:00.000+00:00"
      }
    },
    "request": {
      "method": "PUT",
      "url": "Procedure/0489077c-3ab3-407e-8904-832d0c07a7da"
    }
  }, {
    "fullUrl": "https://madie.cms.gov/Procedure/16752d26-46f4-407e-ae5e-49f02c0bfc68",
    "resource": {
      "resourceType": "Procedure",
      "id": "16752d26-46f4-407e-ae5e-49f02c0bfc68",
      "meta": {
        "profile": [ "http://hl7.org/fhir/us/qicore/StructureDefinition/qicore-procedure" ]
      },
      "extension": [ {
        "url": "http://hl7.org/fhir/us/qicore/StructureDefinition/qicore-recorded",
        "valueDateTime": "2026-04-02T11:30:00.000+00:00"
      } ],
      "status": "completed",
      "code": {
        "coding": [ {
          "system": "http://snomed.info/sct",
          "code": "386372009",
          "display": "Nutrition management"
        } ],
        "text": "Nutrition management"
      },
      "subject": {
        "reference": "Patient/b1b79c28-6fb7-4900-8332-1378089486dd"
      },
      "encounter": {
        "reference": "Encounter/3EncountersinMpMSROBSpass4"
      },
      "performedPeriod": {
        "start": "2026-04-01T11:30:00.000+00:00",
        "end": "2026-04-07T08:15:00.000+00:00"
      }
    },
    "request": {
      "method": "PUT",
      "url": "Procedure/16752d26-46f4-407e-ae5e-49f02c0bfc68"
    }
  }, {
    "fullUrl": "https://madie.cms.gov/Coverage/3cd74581-0e0a-4c8d-b6d9-5ae6a6195d8b",
    "resource": {
      "resourceType": "Coverage",
      "id": "3cd74581-0e0a-4c8d-b6d9-5ae6a6195d8b",
      "meta": {
        "profile": [ "http://hl7.org/fhir/us/qicore/StructureDefinition/qicore-coverage" ]
      },
      "status": "active",
      "type": {
        "coding": [ {
          "system": "https://nahdo.org/sopt",
          "version": "9.2",
          "code": "11",
          "display": "Medicare Managed Care (Includes Medicare Advantage Plans)"
        } ]
      },
      "subscriberId": "97531",
      "beneficiary": {
        "reference": "Patient/b1b79c28-6fb7-4900-8332-1378089486dd"
      },
      "dependent": "0",
      "relationship": {
        "coding": [ {
          "system": "http://terminology.hl7.org/CodeSystem/subscriber-relationship",
          "code": "self"
        } ]
      },
      "period": {
        "start": "2026-10-01T00:00:00.000+00:00"
      },
      "payor": [ {
        "reference": "Organization/bd2f1cdc-fca2-455a-9c0d-6df58fef7450"
      } ]
    },
    "request": {
      "method": "PUT",
      "url": "Coverage/3cd74581-0e0a-4c8d-b6d9-5ae6a6195d8b"
    }
  }, {
    "fullUrl": "https://madie.cms.gov/Organization/bd2f1cdc-fca2-455a-9c0d-6df58fef7450",
    "resource": {
      "resourceType": "Organization",
      "id": "bd2f1cdc-fca2-455a-9c0d-6df58fef7450",
      "meta": {
        "profile": [ "http://hl7.org/fhir/us/qicore/StructureDefinition/qicore-organization" ]
      },
      "identifier": [ {
        "use": "temp",
        "system": "urn:oid:2.16.840.1.113883.4.4",
        "value": "21-3259825"
      } ],
      "active": true,
      "type": [ {
        "coding": [ {
          "system": "http://terminology.hl7.org/CodeSystem/organization-type",
          "code": "pay",
          "display": "Payer"
        } ]
      } ],
      "name": "Blue Cross Blue Shield of Texas",
      "telecom": [ {
        "system": "phone",
        "value": "(+1) 972-766-6900"
      } ],
      "address": [ {
        "use": "billing",
        "type": "postal",
        "line": [ "P.O. Box 660044" ],
        "city": "Dallas",
        "state": "TX",
        "postalCode": "75266-0044",
        "country": "USA"
      } ]
    },
    "request": {
      "method": "PUT",
      "url": "Organization/bd2f1cdc-fca2-455a-9c0d-6df58fef7450"
    }
  }, {
    "fullUrl": "https://madie.cms.gov/MeasureReport/6b5ecb71-72a1-403b-a899-fc7191601f7a",
    "resource": {
      "resourceType": "MeasureReport",
      "id": "6b5ecb71-72a1-403b-a899-fc7191601f7a",
      "meta": {
        "profile": [ "http://hl7.org/fhir/us/cqfmeasures/StructureDefinition/test-case-cqfm" ]
      },
      "contained": [ {
        "resourceType": "Parameters",
        "id": "75f6f62e-ec07-48bf-a5b0-bf6b2facdf55-parameters",
        "parameter": [ {
          "name": "subject",
          "valueString": "b1b79c28-6fb7-4900-8332-1378089486dd"
        } ]
      } ],
      "extension": [ {
        "url": "http://hl7.org/fhir/StructureDefinition/cqf-inputParameters",
        "valueReference": {
          "reference": "#75f6f62e-ec07-48bf-a5b0-bf6b2facdf55-parameters"
        }
      }, {
        "url": "http://hl7.org/fhir/us/cqfmeasures/StructureDefinition/cqfm-testCaseDescription",
        "valueMarkdown": "3 Encounters, all components met in each"
      } ],
      "modifierExtension": [ {
        "url": "http://hl7.org/fhir/us/cqfmeasures/StructureDefinition/cqfm-isTestCase",
        "valueBoolean": true
      } ],
      "status": "complete",
      "type": "individual",
      "measure": "https://madie.cms.gov/Measure/CMS986FHIRMalnutritionScore",
      "period": {
        "start": "2026-01-01",
        "end": "2026-12-31"
      },
      "group": [ {
        "id": "Group_1",
        "population": [ {
          "id": "InitialPopulation_1",
          "code": {
            "coding": [ {
              "system": "http://terminology.hl7.org/CodeSystem/measure-population",
              "code": "initial-population",
              "display": "Initial Population"
            } ]
          },
          "count": 3
        }, {
          "id": "MeasurePopulation_1",
          "code": {
            "coding": [ {
              "system": "http://terminology.hl7.org/CodeSystem/measure-population",
              "code": "measure-population",
              "display": "Measure Population"
            } ]
          },
          "count": 3
        }, {
          "id": "MeasurePopulationExclusion_1",
          "code": {
            "coding": [ {
              "system": "http://terminology.hl7.org/CodeSystem/measure-population",
              "code": "measure-population-exclusion",
              "display": "Measure Population Exclusion"
            } ]
          },
          "count": 0
        }, {
          "id": "MeasureObservation_1_1",
          "code": {
            "coding": [ {
              "system": "http://terminology.hl7.org/CodeSystem/measure-population",
              "code": "measure-population-observation",
              "display": "Measure Population Observation"
            } ]
          },
          "count": 1
        }, {
          "id": "MeasureObservation_1_2",
          "code": {
            "coding": [ {
              "system": "http://terminology.hl7.org/CodeSystem/measure-population",
              "code": "measure-population-observation",
              "display": "Measure Population Observation"
            } ]
          },
          "count": 1
        }, {
          "id": "MeasureObservation_1_3",
          "code": {
            "coding": [ {
              "system": "http://terminology.hl7.org/CodeSystem/measure-population",
              "code": "measure-population-observation",
              "display": "Measure Population Observation"
            } ]
          },
          "count": 1
        } ],
        "measureScore": {
          "value": 0.0
        }
      }, {
        "id": "Group_2",
        "population": [ {
          "id": "InitialPopulation_2",
          "code": {
            "coding": [ {
              "system": "http://terminology.hl7.org/CodeSystem/measure-population",
              "code": "initial-population",
              "display": "Initial Population"
            } ]
          },
          "count": 3
        }, {
          "id": "MeasurePopulation_2",
          "code": {
            "coding": [ {
              "system": "http://terminology.hl7.org/CodeSystem/measure-population",
              "code": "measure-population",
              "display": "Measure Population"
            } ]
          },
          "count": 3
        }, {
          "id": "MeasurePopulationExclusion_2",
          "code": {
            "coding": [ {
              "system": "http://terminology.hl7.org/CodeSystem/measure-population",
              "code": "measure-population-exclusion",
              "display": "Measure Population Exclusion"
            } ]
          },
          "count": 0
        }, {
          "id": "MeasureObservation_2_1",
          "code": {
            "coding": [ {
              "system": "http://terminology.hl7.org/CodeSystem/measure-population",
              "code": "measure-population-observation",
              "display": "Measure Population Observation"
            } ]
          },
          "count": 1
        }, {
          "id": "MeasureObservation_2_2",
          "code": {
            "coding": [ {
              "system": "http://terminology.hl7.org/CodeSystem/measure-population",
              "code": "measure-population-observation",
              "display": "Measure Population Observation"
            } ]
          },
          "count": 1
        }, {
          "id": "MeasureObservation_2_3",
          "code": {
            "coding": [ {
              "system": "http://terminology.hl7.org/CodeSystem/measure-population",
              "code": "measure-population-observation",
              "display": "Measure Population Observation"
            } ]
          },
          "count": 1
        } ],
        "measureScore": {
          "value": 0.0
        }
      }, {
        "id": "Group_3",
        "population": [ {
          "id": "InitialPopulation_3",
          "code": {
            "coding": [ {
              "system": "http://terminology.hl7.org/CodeSystem/measure-population",
              "code": "initial-population",
              "display": "Initial Population"
            } ]
          },
          "count": 3
        }, {
          "id": "MeasurePopulation_3",
          "code": {
            "coding": [ {
              "system": "http://terminology.hl7.org/CodeSystem/measure-population",
              "code": "measure-population",
              "display": "Measure Population"
            } ]
          },
          "count": 3
        }, {
          "id": "MeasurePopulationExclusion_3",
          "code": {
            "coding": [ {
              "system": "http://terminology.hl7.org/CodeSystem/measure-population",
              "code": "measure-population-exclusion",
              "display": "Measure Population Exclusion"
            } ]
          },
          "count": 0
        }, {
          "id": "MeasureObservation_3_1",
          "code": {
            "coding": [ {
              "system": "http://terminology.hl7.org/CodeSystem/measure-population",
              "code": "measure-population-observation",
              "display": "Measure Population Observation"
            } ]
          },
          "count": 1
        }, {
          "id": "MeasureObservation_3_2",
          "code": {
            "coding": [ {
              "system": "http://terminology.hl7.org/CodeSystem/measure-population",
              "code": "measure-population-observation",
              "display": "Measure Population Observation"
            } ]
          },
          "count": 1
        }, {
          "id": "MeasureObservation_3_3",
          "code": {
            "coding": [ {
              "system": "http://terminology.hl7.org/CodeSystem/measure-population",
              "code": "measure-population-observation",
              "display": "Measure Population Observation"
            } ]
          },
          "count": 1
        } ],
        "measureScore": {
          "value": 0.0
        }
      }, {
        "id": "Group_4",
        "population": [ {
          "id": "InitialPopulation_4",
          "code": {
            "coding": [ {
              "system": "http://terminology.hl7.org/CodeSystem/measure-population",
              "code": "initial-population",
              "display": "Initial Population"
            } ]
          },
          "count": 3
        }, {
          "id": "MeasurePopulation_4",
          "code": {
            "coding": [ {
              "system": "http://terminology.hl7.org/CodeSystem/measure-population",
              "code": "measure-population",
              "display": "Measure Population"
            } ]
          },
          "count": 3
        }, {
          "id": "MeasurePopulationExclusion_4",
          "code": {
            "coding": [ {
              "system": "http://terminology.hl7.org/CodeSystem/measure-population",
              "code": "measure-population-exclusion",
              "display": "Measure Population Exclusion"
            } ]
          },
          "count": 0
        }, {
          "id": "MeasureObservation_4_1",
          "code": {
            "coding": [ {
              "system": "http://terminology.hl7.org/CodeSystem/measure-population",
              "code": "measure-population-observation",
              "display": "Measure Population Observation"
            } ]
          },
          "count": 1
        }, {
          "id": "MeasureObservation_4_2",
          "code": {
            "coding": [ {
              "system": "http://terminology.hl7.org/CodeSystem/measure-population",
              "code": "measure-population-observation",
              "display": "Measure Population Observation"
            } ]
          },
          "count": 1
        }, {
          "id": "MeasureObservation_4_3",
          "code": {
            "coding": [ {
              "system": "http://terminology.hl7.org/CodeSystem/measure-population",
              "code": "measure-population-observation",
              "display": "Measure Population Observation"
            } ]
          },
          "count": 1
        } ],
        "measureScore": {
          "value": 0.0
        }
      }, {
        "id": "Group_5",
        "population": [ {
          "id": "InitialPopulation_5",
          "code": {
            "coding": [ {
              "system": "http://terminology.hl7.org/CodeSystem/measure-population",
              "code": "initial-population",
              "display": "Initial Population"
            } ]
          },
          "count": 3
        }, {
          "id": "MeasurePopulation_5",
          "code": {
            "coding": [ {
              "system": "http://terminology.hl7.org/CodeSystem/measure-population",
              "code": "measure-population",
              "display": "Measure Population"
            } ]
          },
          "count": 3
        }, {
          "id": "MeasurePopulationExclusion_5",
          "code": {
            "coding": [ {
              "system": "http://terminology.hl7.org/CodeSystem/measure-population",
              "code": "measure-population-exclusion",
              "display": "Measure Population Exclusion"
            } ]
          },
          "count": 0
        }, {
          "id": "MeasureObservation_5_1",
          "code": {
            "coding": [ {
              "system": "http://terminology.hl7.org/CodeSystem/measure-population",
              "code": "measure-population-observation",
              "display": "Measure Population Observation"
            } ]
          },
          "count": 4
        }, {
          "id": "MeasureObservation_5_2",
          "code": {
            "coding": [ {
              "system": "http://terminology.hl7.org/CodeSystem/measure-population",
              "code": "measure-population-observation",
              "display": "Measure Population Observation"
            } ]
          },
          "count": 4
        }, {
          "id": "MeasureObservation_5_3",
          "code": {
            "coding": [ {
              "system": "http://terminology.hl7.org/CodeSystem/measure-population",
              "code": "measure-population-observation",
              "display": "Measure Population Observation"
            } ]
          },
          "count": 4
        } ],
        "measureScore": {
          "value": 0.0
        }
      }, {
        "id": "Group_6",
        "population": [ {
          "id": "InitialPopulation_6",
          "code": {
            "coding": [ {
              "system": "http://terminology.hl7.org/CodeSystem/measure-population",
              "code": "initial-population",
              "display": "Initial Population"
            } ]
          },
          "count": 3
        }, {
          "id": "MeasurePopulation_6",
          "code": {
            "coding": [ {
              "system": "http://terminology.hl7.org/CodeSystem/measure-population",
              "code": "measure-population",
              "display": "Measure Population"
            } ]
          },
          "count": 3
        }, {
          "id": "MeasurePopulationExclusion_6",
          "code": {
            "coding": [ {
              "system": "http://terminology.hl7.org/CodeSystem/measure-population",
              "code": "measure-population-exclusion",
              "display": "Measure Population Exclusion"
            } ]
          },
          "count": 0
        }, {
          "id": "MeasureObservation_6_1",
          "code": {
            "coding": [ {
              "system": "http://terminology.hl7.org/CodeSystem/measure-population",
              "code": "measure-population-observation",
              "display": "Measure Population Observation"
            } ]
          },
          "count": 100
        }, {
          "id": "MeasureObservation_6_2",
          "code": {
            "coding": [ {
              "system": "http://terminology.hl7.org/CodeSystem/measure-population",
              "code": "measure-population-observation",
              "display": "Measure Population Observation"
            } ]
          },
          "count": 100
        }, {
          "id": "MeasureObservation_6_3",
          "code": {
            "coding": [ {
              "system": "http://terminology.hl7.org/CodeSystem/measure-population",
              "code": "measure-population-observation",
              "display": "Measure Population Observation"
            } ]
          },
          "count": 100
        } ],
        "measureScore": {
          "value": 0.0
        }
      } ],
      "evaluatedResource": [ {
        "reference": "Patient/b1b79c28-6fb7-4900-8332-1378089486dd"
      }, {
        "reference": "Encounter/20a6b833-37a8-46a8-8083-09a376b29ef9"
      }, {
        "reference": "Condition/5dc99f1f-1985-4251-8bd5-e1cd35eafe1f"
      }, {
        "reference": "Observation/f362ee59-9731-4818-807e-64ff5cf712f5"
      }, {
        "reference": "Observation/f7e8e599-3198-47a8-91d9-f41b899591c5"
      }, {
        "reference": "Procedure/0c2eaf2a-0dea-4e12-bc58-0c1d88f9c312"
      }, {
        "reference": "Procedure/d3d5e1b7-ed9e-41ae-971b-dadde42f559c"
      }, {
        "reference": "Coverage/207e6b3d-31ea-4818-a3f8-752914e1ceb6"
      }, {
        "reference": "Encounter/1ffbf9b4-100e-43d6-81ef-36fae99621bf"
      }, {
        "reference": "Condition/7d6ff838-448a-4a6b-9b1f-51c80e0e1024"
      }, {
        "reference": "Observation/eb6c657d-d5fc-4ace-b218-0538acc41bc1"
      }, {
        "reference": "Observation/d3d9710e-098f-4039-a952-1c756693c1b9"
      }, {
        "reference": "Procedure/1bc099d0-e189-4b05-9dea-b5c7a9be59a6"
      }, {
        "reference": "Procedure/69e02a91-0e00-4e79-80d5-df8aad63d140"
      }, {
        "reference": "Encounter/199da5f9-3a6b-4a9b-9803-2d84a22a1973"
      }, {
        "reference": "Condition/5ac9124a-d929-4ef4-83ca-496aadad3567"
      }, {
        "reference": "Observation/b95cf4ed-0894-43a8-bde2-f1d14054a044"
      }, {
        "reference": "Observation/add2b7d8-2a5d-4613-8e99-aaa66e72d10d"
      }, {
        "reference": "Procedure/0489077c-3ab3-407e-8904-832d0c07a7da"
      }, {
        "reference": "Procedure/16752d26-46f4-407e-ae5e-49f02c0bfc68"
      }, {
        "reference": "Coverage/3cd74581-0e0a-4c8d-b6d9-5ae6a6195d8b"
      }, {
        "reference": "Organization/bd2f1cdc-fca2-455a-9c0d-6df58fef7450"
      } ]
    },
    "request": {
      "method": "PUT",
      "url": "MeasureReport/6b5ecb71-72a1-403b-a899-fc7191601f7a"
    }
  } ]
}