{
  "resourceType": "Bundle",
  "id": "2EncounterNotAtriskThenAtrisk",
  "type": "transaction",
  "entry": [ {
    "fullUrl": "https://madie.cms.gov/Patient/08bd110c-dfda-403c-91cd-34dfc9f16dc8",
    "resource": {
      "resourceType": "Patient",
      "id": "08bd110c-dfda-403c-91cd-34dfc9f16dc8",
      "meta": {
        "profile": [ "http://hl7.org/fhir/us/qicore/StructureDefinition/qicore-patient" ]
      },
      "extension": [ {
        "url": "http://hl7.org/fhir/us/core/StructureDefinition/us-core-race",
        "extension": [ {
          "url": "ombCategory",
          "valueCoding": {
            "system": "urn:oid:2.16.840.1.113883.6.238",
            "code": "2106-3",
            "display": "White",
            "userSelected": true
          }
        }, {
          "url": "text",
          "valueString": "White"
        } ]
      }, {
        "url": "http://hl7.org/fhir/us/core/StructureDefinition/us-core-ethnicity",
        "extension": [ {
          "url": "ombCategory",
          "valueCoding": {
            "system": "urn:oid:2.16.840.1.113883.6.238",
            "code": "2186-5",
            "display": "Not Hispanic or Latino",
            "userSelected": true
          }
        }, {
          "url": "text",
          "valueString": "Not Hispanic or Latino"
        } ]
      }, {
        "url": "http://hl7.org/fhir/us/core/StructureDefinition/us-core-sex",
        "valueCode": "248153007"
      } ],
      "identifier": [ {
        "type": {
          "coding": [ {
            "system": "http://terminology.hl7.org/CodeSystem/v2-0203",
            "code": "MR"
          } ]
        },
        "system": "https://madie.cms.gov/",
        "value": "2EncounterNotAtriskThenAtrisk"
      } ],
      "active": true,
      "name": [ {
        "use": "usual",
        "text": "2EncounterNotAtriskThenAtrisk",
        "family": "MSROBSPass4",
        "given": [ "2EncounterNotAtriskThenAtriskMSROBSPass4" ]
      } ],
      "gender": "male",
      "birthDate": "1954-01-01",
      "address": [ {
        "text": "2EncounterNotAtriskThenAtrisk, Screened at risk then not at risk, ID=2EncounterNotAtriskThenAtrisk, DOB: 01 Jan 1954"
      } ]
    },
    "request": {
      "method": "PUT",
      "url": "Patient/08bd110c-dfda-403c-91cd-34dfc9f16dc8"
    }
  }, {
    "fullUrl": "https://madie.cms.gov/Encounter/81b3aba9-ec61-4ef9-b24f-3ccd51c1282b",
    "resource": {
      "resourceType": "Encounter",
      "id": "81b3aba9-ec61-4ef9-b24f-3ccd51c1282b",
      "meta": {
        "profile": [ "http://hl7.org/fhir/us/qicore/StructureDefinition/qicore-encounter" ]
      },
      "status": "finished",
      "class": {
        "system": "http://terminology.hl7.org/CodeSystem/v3-ActCode",
        "code": "IMP",
        "display": "inpatient encounter"
      },
      "type": [ {
        "coding": [ {
          "system": "http://snomed.info/sct",
          "code": "183452005"
        } ]
      } ],
      "subject": {
        "reference": "Patient/08bd110c-dfda-403c-91cd-34dfc9f16dc8"
      },
      "period": {
        "start": "2026-10-01T08:00:00.000+00:00",
        "end": "2026-10-07T08:15:00.000+00:00"
      },
      "reasonReference": [ {
        "reference": "Condition/33a66618-5ccc-4e05-88e7-538f54466e7f"
      } ]
    },
    "request": {
      "method": "PUT",
      "url": "Encounter/81b3aba9-ec61-4ef9-b24f-3ccd51c1282b"
    }
  }, {
    "fullUrl": "https://madie.cms.gov/Condition/33a66618-5ccc-4e05-88e7-538f54466e7f",
    "resource": {
      "resourceType": "Condition",
      "id": "33a66618-5ccc-4e05-88e7-538f54466e7f",
      "meta": {
        "profile": [ "http://hl7.org/fhir/us/qicore/StructureDefinition/qicore-condition-problems-health-concerns" ]
      },
      "clinicalStatus": {
        "coding": [ {
          "system": "http://terminology.hl7.org/CodeSystem/condition-clinical",
          "code": "active",
          "display": "Active",
          "userSelected": true
        } ]
      },
      "verificationStatus": {
        "coding": [ {
          "system": "http://terminology.hl7.org/CodeSystem/condition-ver-status",
          "code": "confirmed",
          "display": "Confirmed",
          "userSelected": true
        } ]
      },
      "category": [ {
        "coding": [ {
          "system": "http://terminology.hl7.org/CodeSystem/condition-category",
          "code": "problem-list-item",
          "display": "Problem List Item",
          "userSelected": true
        } ]
      } ],
      "code": {
        "coding": [ {
          "system": "http://hl7.org/fhir/sid/icd-10-cm",
          "code": "O25.2",
          "display": "Malnutrition in childbirth",
          "userSelected": true
        } ]
      },
      "subject": {
        "reference": "Patient/08bd110c-dfda-403c-91cd-34dfc9f16dc8"
      },
      "onsetPeriod": {
        "start": "2026-10-01T08:00:00.000+00:00"
      },
      "recordedDate": "2026-10-01T11:00:00.000+00:00"
    },
    "request": {
      "method": "PUT",
      "url": "Condition/33a66618-5ccc-4e05-88e7-538f54466e7f"
    }
  }, {
    "fullUrl": "https://madie.cms.gov/Observation/79368360-efaa-4de0-a7ab-3e09fb47ac85",
    "resource": {
      "resourceType": "Observation",
      "id": "79368360-efaa-4de0-a7ab-3e09fb47ac85",
      "meta": {
        "profile": [ "http://hl7.org/fhir/us/qicore/StructureDefinition/qicore-observation-screening-assessment" ]
      },
      "status": "final",
      "category": [ {
        "coding": [ {
          "system": "http://terminology.hl7.org/CodeSystem/observation-category",
          "code": "survey",
          "display": "Survey"
        } ]
      } ],
      "code": {
        "coding": [ {
          "system": "http://loinc.org",
          "code": "98967-3",
          "display": "Nutritional Risk Screening 2002 panel",
          "userSelected": true
        } ]
      },
      "subject": {
        "reference": "Patient/08bd110c-dfda-403c-91cd-34dfc9f16dc8"
      },
      "effectiveDateTime": "2026-10-01T09:00:00.000+00:00",
      "valueCodeableConcept": {
        "coding": [ {
          "system": "http://snomed.info/sct",
          "code": "129689002",
          "display": "At increased risk for nutritional problem (finding)",
          "userSelected": true
        } ]
      }
    },
    "request": {
      "method": "PUT",
      "url": "Observation/79368360-efaa-4de0-a7ab-3e09fb47ac85"
    }
  }, {
    "fullUrl": "https://madie.cms.gov/Observation/e40810c0-8a42-4662-8807-41df86ad484e",
    "resource": {
      "resourceType": "Observation",
      "id": "e40810c0-8a42-4662-8807-41df86ad484e",
      "meta": {
        "profile": [ "http://hl7.org/fhir/us/qicore/StructureDefinition/qicore-observation-screening-assessment" ]
      },
      "status": "final",
      "category": [ {
        "coding": [ {
          "system": "http://terminology.hl7.org/CodeSystem/observation-category",
          "code": "survey",
          "display": "Survey"
        } ]
      } ],
      "code": {
        "coding": [ {
          "system": "http://loinc.org",
          "code": "75282-4",
          "display": "Nutrition assessment panel",
          "userSelected": true
        } ]
      },
      "subject": {
        "reference": "Patient/08bd110c-dfda-403c-91cd-34dfc9f16dc8"
      },
      "effectiveDateTime": "2026-10-01T10:00:00.000+00:00",
      "valueCodeableConcept": {
        "coding": [ {
          "system": "http://snomed.info/sct",
          "code": "102636009",
          "display": "Chronic nutritional deficiency (finding)",
          "userSelected": true
        } ]
      }
    },
    "request": {
      "method": "PUT",
      "url": "Observation/e40810c0-8a42-4662-8807-41df86ad484e"
    }
  }, {
    "fullUrl": "https://madie.cms.gov/Procedure/556ee58c-73d1-4ff7-a017-5de2412d43d6",
    "resource": {
      "resourceType": "Procedure",
      "id": "556ee58c-73d1-4ff7-a017-5de2412d43d6",
      "meta": {
        "profile": [ "http://hl7.org/fhir/us/qicore/StructureDefinition/qicore-procedure" ]
      },
      "extension": [ {
        "url": "http://hl7.org/fhir/us/qicore/StructureDefinition/qicore-recorded",
        "valueDateTime": "2026-10-02T11:30:00.000+00:00"
      } ],
      "status": "completed",
      "code": {
        "coding": [ {
          "system": "http://snomed.info/sct",
          "code": "386372009",
          "display": "Nutrition management (procedure)"
        } ],
        "text": "Nutrition management (procedure)"
      },
      "subject": {
        "reference": "Patient/08bd110c-dfda-403c-91cd-34dfc9f16dc8"
      },
      "encounter": {
        "reference": "Encounter/2EncounterNotAtriskThenAtriskMSROBSPass4"
      },
      "performedPeriod": {
        "start": "2026-10-01T11:30:00.000+00:00",
        "end": "2026-10-07T08:15:00.000+00:00"
      }
    },
    "request": {
      "method": "PUT",
      "url": "Procedure/556ee58c-73d1-4ff7-a017-5de2412d43d6"
    }
  }, {
    "fullUrl": "https://madie.cms.gov/Coverage/0faa5cdb-2879-4209-ad6b-cb7ea538214f",
    "resource": {
      "resourceType": "Coverage",
      "id": "0faa5cdb-2879-4209-ad6b-cb7ea538214f",
      "meta": {
        "profile": [ "http://hl7.org/fhir/us/qicore/StructureDefinition/qicore-coverage" ]
      },
      "status": "active",
      "type": {
        "coding": [ {
          "system": "https://nahdo.org/sopt",
          "version": "9.2",
          "code": "11",
          "display": "Medicare Managed Care (Includes Medicare Advantage Plans)"
        } ]
      },
      "subscriberId": "97531",
      "beneficiary": {
        "reference": "Patient/08bd110c-dfda-403c-91cd-34dfc9f16dc8"
      },
      "dependent": "0",
      "relationship": {
        "coding": [ {
          "system": "http://terminology.hl7.org/CodeSystem/subscriber-relationship",
          "code": "self"
        } ]
      },
      "period": {
        "start": "2024-10-01T00:00:00.000+00:00"
      },
      "payor": [ {
        "reference": "Organization/1573cfb4-af90-4bd2-bdfb-04e2c10f65ec"
      } ]
    },
    "request": {
      "method": "PUT",
      "url": "Coverage/0faa5cdb-2879-4209-ad6b-cb7ea538214f"
    }
  }, {
    "fullUrl": "https://madie.cms.gov/Encounter/68fe2da9-5177-425d-b12e-b1442ac6d86d",
    "resource": {
      "resourceType": "Encounter",
      "id": "68fe2da9-5177-425d-b12e-b1442ac6d86d",
      "meta": {
        "profile": [ "http://hl7.org/fhir/us/qicore/StructureDefinition/qicore-encounter" ]
      },
      "status": "finished",
      "class": {
        "system": "http://terminology.hl7.org/CodeSystem/v3-ActCode",
        "code": "IMP",
        "display": "inpatient encounter"
      },
      "type": [ {
        "coding": [ {
          "system": "http://snomed.info/sct",
          "code": "183452005"
        } ]
      } ],
      "subject": {
        "reference": "Patient/08bd110c-dfda-403c-91cd-34dfc9f16dc8"
      },
      "period": {
        "start": "2026-08-01T08:00:00.000+00:00",
        "end": "2026-08-07T08:15:00.000+00:00"
      }
    },
    "request": {
      "method": "PUT",
      "url": "Encounter/68fe2da9-5177-425d-b12e-b1442ac6d86d"
    }
  }, {
    "fullUrl": "https://madie.cms.gov/Condition/d3fbf6e8-3d87-4f03-b570-d83804733a9e",
    "resource": {
      "resourceType": "Condition",
      "id": "d3fbf6e8-3d87-4f03-b570-d83804733a9e",
      "meta": {
        "profile": [ "http://hl7.org/fhir/us/qicore/StructureDefinition/qicore-condition-encounter-diagnosis" ]
      },
      "clinicalStatus": {
        "coding": [ {
          "system": "http://terminology.hl7.org/CodeSystem/condition-clinical",
          "code": "active",
          "display": "Active",
          "userSelected": true
        } ]
      },
      "verificationStatus": {
        "coding": [ {
          "system": "http://terminology.hl7.org/CodeSystem/condition-ver-status",
          "code": "confirmed",
          "display": "Confirmed",
          "userSelected": true
        } ]
      },
      "category": [ {
        "coding": [ {
          "system": "http://terminology.hl7.org/CodeSystem/condition-category",
          "code": "encounter-diagnosis",
          "display": "Encounter Diagnosis",
          "userSelected": true
        } ]
      } ],
      "code": {
        "coding": [ {
          "system": "http://snomed.info/sct",
          "code": "190606006",
          "display": "Moderate protein energy malnutrition (disorder)",
          "userSelected": true
        } ]
      },
      "subject": {
        "reference": "Patient/08bd110c-dfda-403c-91cd-34dfc9f16dc8"
      },
      "onsetPeriod": {
        "start": "2026-08-01T08:00:00.000+00:00"
      },
      "recordedDate": "2026-08-01T11:00:00.000+00:00"
    },
    "request": {
      "method": "PUT",
      "url": "Condition/d3fbf6e8-3d87-4f03-b570-d83804733a9e"
    }
  }, {
    "fullUrl": "https://madie.cms.gov/Observation/9627a68a-fa54-4d7e-b399-62419b7efc1a",
    "resource": {
      "resourceType": "Observation",
      "id": "9627a68a-fa54-4d7e-b399-62419b7efc1a",
      "meta": {
        "profile": [ "http://hl7.org/fhir/us/qicore/StructureDefinition/qicore-observation-screening-assessment" ]
      },
      "status": "final",
      "category": [ {
        "coding": [ {
          "system": "http://terminology.hl7.org/CodeSystem/observation-category",
          "code": "survey",
          "display": "Survey"
        } ]
      } ],
      "code": {
        "coding": [ {
          "system": "http://loinc.org",
          "code": "75282-4",
          "display": "Nutrition assessment panel",
          "userSelected": true
        } ]
      },
      "subject": {
        "reference": "Patient/08bd110c-dfda-403c-91cd-34dfc9f16dc8"
      },
      "effectiveDateTime": "2026-08-01T10:00:00.000+00:00",
      "valueCodeableConcept": {
        "coding": [ {
          "system": "http://snomed.info/sct",
          "code": "102636009",
          "display": "Chronic nutritional deficiency (finding)",
          "userSelected": true
        } ]
      }
    },
    "request": {
      "method": "PUT",
      "url": "Observation/9627a68a-fa54-4d7e-b399-62419b7efc1a"
    }
  }, {
    "fullUrl": "https://madie.cms.gov/Observation/095037f5-a0a9-4f62-b2b7-57e4e7f9927e",
    "resource": {
      "resourceType": "Observation",
      "id": "095037f5-a0a9-4f62-b2b7-57e4e7f9927e",
      "meta": {
        "profile": [ "http://hl7.org/fhir/us/qicore/StructureDefinition/qicore-observation-screening-assessment" ]
      },
      "status": "final",
      "category": [ {
        "coding": [ {
          "system": "http://terminology.hl7.org/CodeSystem/observation-category",
          "code": "survey",
          "display": "Survey"
        } ]
      } ],
      "code": {
        "coding": [ {
          "system": "http://loinc.org",
          "code": "98968-1",
          "display": "Initial screening NRS_2002",
          "userSelected": true
        } ]
      },
      "subject": {
        "reference": "Patient/08bd110c-dfda-403c-91cd-34dfc9f16dc8"
      },
      "effectiveDateTime": "2026-08-01T09:00:00.000+00:00",
      "valueCodeableConcept": {
        "coding": [ {
          "system": "http://loinc.org",
          "code": "LA33699-2",
          "display": "Not at risk for malnutrition",
          "userSelected": true
        } ]
      }
    },
    "request": {
      "method": "PUT",
      "url": "Observation/095037f5-a0a9-4f62-b2b7-57e4e7f9927e"
    }
  }, {
    "fullUrl": "https://madie.cms.gov/Procedure/fffc360c-59ba-4238-b936-07467dc07809",
    "resource": {
      "resourceType": "Procedure",
      "id": "fffc360c-59ba-4238-b936-07467dc07809",
      "meta": {
        "profile": [ "http://hl7.org/fhir/us/qicore/StructureDefinition/qicore-procedure" ]
      },
      "extension": [ {
        "url": "http://hl7.org/fhir/us/qicore/StructureDefinition/qicore-recorded",
        "valueDateTime": "2026-02-02T11:30:00.000+00:00"
      } ],
      "status": "completed",
      "code": {
        "coding": [ {
          "system": "http://snomed.info/sct",
          "code": "386372009",
          "display": "Nutrition management (procedure)"
        } ],
        "text": "Nutrition management (procedure)"
      },
      "subject": {
        "reference": "Patient/08bd110c-dfda-403c-91cd-34dfc9f16dc8"
      },
      "encounter": {
        "reference": "Encounter/2EncounterNotAtriskThenAtriskMSROBSPass4"
      },
      "performedPeriod": {
        "start": "2026-08-01T11:30:00.000+00:00",
        "end": "2026-08-07T08:15:00.000+00:00"
      }
    },
    "request": {
      "method": "PUT",
      "url": "Procedure/fffc360c-59ba-4238-b936-07467dc07809"
    }
  }, {
    "fullUrl": "https://madie.cms.gov/Coverage/97a74e24-6fd9-4cd3-9ee1-2b9552c0ecdb",
    "resource": {
      "resourceType": "Coverage",
      "id": "97a74e24-6fd9-4cd3-9ee1-2b9552c0ecdb",
      "meta": {
        "profile": [ "http://hl7.org/fhir/us/qicore/StructureDefinition/qicore-coverage" ]
      },
      "status": "active",
      "type": {
        "coding": [ {
          "system": "https://nahdo.org/sopt",
          "version": "9.2",
          "code": "11",
          "display": "Medicare Managed Care (Includes Medicare Advantage Plans)"
        } ]
      },
      "subscriberId": "97531",
      "beneficiary": {
        "reference": "Patient/08bd110c-dfda-403c-91cd-34dfc9f16dc8"
      },
      "dependent": "0",
      "relationship": {
        "coding": [ {
          "system": "http://terminology.hl7.org/CodeSystem/subscriber-relationship",
          "code": "self"
        } ]
      },
      "period": {
        "start": "2024-10-01T00:00:00.000+00:00"
      },
      "payor": [ {
        "reference": "Organization/1573cfb4-af90-4bd2-bdfb-04e2c10f65ec"
      } ]
    },
    "request": {
      "method": "PUT",
      "url": "Coverage/97a74e24-6fd9-4cd3-9ee1-2b9552c0ecdb"
    }
  }, {
    "fullUrl": "https://madie.cms.gov/Organization/1573cfb4-af90-4bd2-bdfb-04e2c10f65ec",
    "resource": {
      "resourceType": "Organization",
      "id": "1573cfb4-af90-4bd2-bdfb-04e2c10f65ec",
      "meta": {
        "profile": [ "http://hl7.org/fhir/us/qicore/StructureDefinition/qicore-organization" ]
      },
      "identifier": [ {
        "use": "temp",
        "system": "urn:oid:2.16.840.1.113883.4.4",
        "value": "21-3259825"
      } ],
      "active": true,
      "type": [ {
        "coding": [ {
          "system": "http://terminology.hl7.org/CodeSystem/organization-type",
          "code": "pay",
          "display": "Payer"
        } ]
      } ],
      "name": "Blue Cross Blue Shield of Texas",
      "telecom": [ {
        "system": "phone",
        "value": "(+1) 972-766-6900"
      } ],
      "address": [ {
        "use": "billing",
        "type": "postal",
        "line": [ "P.O. Box 660044" ],
        "city": "Dallas",
        "state": "TX",
        "postalCode": "75266-0044",
        "country": "USA"
      } ]
    },
    "request": {
      "method": "PUT",
      "url": "Organization/1573cfb4-af90-4bd2-bdfb-04e2c10f65ec"
    }
  }, {
    "fullUrl": "https://madie.cms.gov/MeasureReport/a1fafd16-2ae9-4240-a937-1c4eb9362b39",
    "resource": {
      "resourceType": "MeasureReport",
      "id": "a1fafd16-2ae9-4240-a937-1c4eb9362b39",
      "meta": {
        "profile": [ "http://hl7.org/fhir/us/cqfmeasures/StructureDefinition/test-case-cqfm" ]
      },
      "contained": [ {
        "resourceType": "Parameters",
        "id": "1e280a8b-1482-468e-987a-022bb5e55b2e-parameters",
        "parameter": [ {
          "name": "subject",
          "valueString": "08bd110c-dfda-403c-91cd-34dfc9f16dc8"
        } ]
      } ],
      "extension": [ {
        "url": "http://hl7.org/fhir/StructureDefinition/cqf-inputParameters",
        "valueReference": {
          "reference": "#1e280a8b-1482-468e-987a-022bb5e55b2e-parameters"
        }
      }, {
        "url": "http://hl7.org/fhir/us/cqfmeasures/StructureDefinition/cqfm-testCaseDescription",
        "valueMarkdown": "2 encounters first screen at not risk, second screen at risk, no referrals"
      } ],
      "modifierExtension": [ {
        "url": "http://hl7.org/fhir/us/cqfmeasures/StructureDefinition/cqfm-isTestCase",
        "valueBoolean": true
      } ],
      "status": "complete",
      "type": "individual",
      "measure": "https://madie.cms.gov/Measure/CMS986FHIRMalnutritionScore",
      "period": {
        "start": "2026-01-01",
        "end": "2026-12-31"
      },
      "group": [ {
        "id": "Group_1",
        "population": [ {
          "id": "InitialPopulation_1",
          "code": {
            "coding": [ {
              "system": "http://terminology.hl7.org/CodeSystem/measure-population",
              "code": "initial-population",
              "display": "Initial Population"
            } ]
          },
          "count": 2
        }, {
          "id": "MeasurePopulation_1",
          "code": {
            "coding": [ {
              "system": "http://terminology.hl7.org/CodeSystem/measure-population",
              "code": "measure-population",
              "display": "Measure Population"
            } ]
          },
          "count": 2
        }, {
          "id": "MeasurePopulationExclusion_1",
          "code": {
            "coding": [ {
              "system": "http://terminology.hl7.org/CodeSystem/measure-population",
              "code": "measure-population-exclusion",
              "display": "Measure Population Exclusion"
            } ]
          },
          "count": 0
        }, {
          "id": "MeasureObservation_1_1",
          "code": {
            "coding": [ {
              "system": "http://terminology.hl7.org/CodeSystem/measure-population",
              "code": "measure-population-observation",
              "display": "Measure Population Observation"
            } ]
          },
          "count": 1
        }, {
          "id": "MeasureObservation_1_2",
          "code": {
            "coding": [ {
              "system": "http://terminology.hl7.org/CodeSystem/measure-population",
              "code": "measure-population-observation",
              "display": "Measure Population Observation"
            } ]
          },
          "count": 1
        } ],
        "measureScore": {
          "value": 0.0
        }
      }, {
        "id": "Group_2",
        "population": [ {
          "id": "InitialPopulation_2",
          "code": {
            "coding": [ {
              "system": "http://terminology.hl7.org/CodeSystem/measure-population",
              "code": "initial-population",
              "display": "Initial Population"
            } ]
          },
          "count": 2
        }, {
          "id": "MeasurePopulation_2",
          "code": {
            "coding": [ {
              "system": "http://terminology.hl7.org/CodeSystem/measure-population",
              "code": "measure-population",
              "display": "Measure Population"
            } ]
          },
          "count": 2
        }, {
          "id": "MeasurePopulationExclusion_2",
          "code": {
            "coding": [ {
              "system": "http://terminology.hl7.org/CodeSystem/measure-population",
              "code": "measure-population-exclusion",
              "display": "Measure Population Exclusion"
            } ]
          },
          "count": 0
        }, {
          "id": "MeasureObservation_2_1",
          "code": {
            "coding": [ {
              "system": "http://terminology.hl7.org/CodeSystem/measure-population",
              "code": "measure-population-observation",
              "display": "Measure Population Observation"
            } ]
          },
          "count": 1
        }, {
          "id": "MeasureObservation_2_2",
          "code": {
            "coding": [ {
              "system": "http://terminology.hl7.org/CodeSystem/measure-population",
              "code": "measure-population-observation",
              "display": "Measure Population Observation"
            } ]
          },
          "count": 0
        } ],
        "measureScore": {
          "value": 0.0
        }
      }, {
        "id": "Group_3",
        "population": [ {
          "id": "InitialPopulation_3",
          "code": {
            "coding": [ {
              "system": "http://terminology.hl7.org/CodeSystem/measure-population",
              "code": "initial-population",
              "display": "Initial Population"
            } ]
          },
          "count": 2
        }, {
          "id": "MeasurePopulation_3",
          "code": {
            "coding": [ {
              "system": "http://terminology.hl7.org/CodeSystem/measure-population",
              "code": "measure-population",
              "display": "Measure Population"
            } ]
          },
          "count": 2
        }, {
          "id": "MeasurePopulationExclusion_3",
          "code": {
            "coding": [ {
              "system": "http://terminology.hl7.org/CodeSystem/measure-population",
              "code": "measure-population-exclusion",
              "display": "Measure Population Exclusion"
            } ]
          },
          "count": 0
        }, {
          "id": "MeasureObservation_3_1",
          "code": {
            "coding": [ {
              "system": "http://terminology.hl7.org/CodeSystem/measure-population",
              "code": "measure-population-observation",
              "display": "Measure Population Observation"
            } ]
          },
          "count": 1
        }, {
          "id": "MeasureObservation_3_2",
          "code": {
            "coding": [ {
              "system": "http://terminology.hl7.org/CodeSystem/measure-population",
              "code": "measure-population-observation",
              "display": "Measure Population Observation"
            } ]
          },
          "count": 0
        } ],
        "measureScore": {
          "value": 0.0
        }
      }, {
        "id": "Group_4",
        "population": [ {
          "id": "InitialPopulation_4",
          "code": {
            "coding": [ {
              "system": "http://terminology.hl7.org/CodeSystem/measure-population",
              "code": "initial-population",
              "display": "Initial Population"
            } ]
          },
          "count": 2
        }, {
          "id": "MeasurePopulation_4",
          "code": {
            "coding": [ {
              "system": "http://terminology.hl7.org/CodeSystem/measure-population",
              "code": "measure-population",
              "display": "Measure Population"
            } ]
          },
          "count": 2
        }, {
          "id": "MeasurePopulationExclusion_4",
          "code": {
            "coding": [ {
              "system": "http://terminology.hl7.org/CodeSystem/measure-population",
              "code": "measure-population-exclusion",
              "display": "Measure Population Exclusion"
            } ]
          },
          "count": 0
        }, {
          "id": "MeasureObservation_4_1",
          "code": {
            "coding": [ {
              "system": "http://terminology.hl7.org/CodeSystem/measure-population",
              "code": "measure-population-observation",
              "display": "Measure Population Observation"
            } ]
          },
          "count": 1
        }, {
          "id": "MeasureObservation_4_2",
          "code": {
            "coding": [ {
              "system": "http://terminology.hl7.org/CodeSystem/measure-population",
              "code": "measure-population-observation",
              "display": "Measure Population Observation"
            } ]
          },
          "count": 0
        } ],
        "measureScore": {
          "value": 0.0
        }
      }, {
        "id": "Group_5",
        "population": [ {
          "id": "InitialPopulation_5",
          "code": {
            "coding": [ {
              "system": "http://terminology.hl7.org/CodeSystem/measure-population",
              "code": "initial-population",
              "display": "Initial Population"
            } ]
          },
          "count": 2
        }, {
          "id": "MeasurePopulation_5",
          "code": {
            "coding": [ {
              "system": "http://terminology.hl7.org/CodeSystem/measure-population",
              "code": "measure-population",
              "display": "Measure Population"
            } ]
          },
          "count": 2
        }, {
          "id": "MeasurePopulationExclusion_5",
          "code": {
            "coding": [ {
              "system": "http://terminology.hl7.org/CodeSystem/measure-population",
              "code": "measure-population-exclusion",
              "display": "Measure Population Exclusion"
            } ]
          },
          "count": 0
        }, {
          "id": "MeasureObservation_5_1",
          "code": {
            "coding": [ {
              "system": "http://terminology.hl7.org/CodeSystem/measure-population",
              "code": "measure-population-observation",
              "display": "Measure Population Observation"
            } ]
          },
          "count": 4
        }, {
          "id": "MeasureObservation_5_2",
          "code": {
            "coding": [ {
              "system": "http://terminology.hl7.org/CodeSystem/measure-population",
              "code": "measure-population-observation",
              "display": "Measure Population Observation"
            } ]
          },
          "count": 1
        } ],
        "measureScore": {
          "value": 0.0
        }
      }, {
        "id": "Group_6",
        "population": [ {
          "id": "InitialPopulation_6",
          "code": {
            "coding": [ {
              "system": "http://terminology.hl7.org/CodeSystem/measure-population",
              "code": "initial-population",
              "display": "Initial Population"
            } ]
          },
          "count": 2
        }, {
          "id": "MeasurePopulation_6",
          "code": {
            "coding": [ {
              "system": "http://terminology.hl7.org/CodeSystem/measure-population",
              "code": "measure-population",
              "display": "Measure Population"
            } ]
          },
          "count": 2
        }, {
          "id": "MeasurePopulationExclusion_6",
          "code": {
            "coding": [ {
              "system": "http://terminology.hl7.org/CodeSystem/measure-population",
              "code": "measure-population-exclusion",
              "display": "Measure Population Exclusion"
            } ]
          },
          "count": 0
        }, {
          "id": "MeasureObservation_6_1",
          "code": {
            "coding": [ {
              "system": "http://terminology.hl7.org/CodeSystem/measure-population",
              "code": "measure-population-observation",
              "display": "Measure Population Observation"
            } ]
          },
          "count": 100
        }, {
          "id": "MeasureObservation_6_2",
          "code": {
            "coding": [ {
              "system": "http://terminology.hl7.org/CodeSystem/measure-population",
              "code": "measure-population-observation",
              "display": "Measure Population Observation"
            } ]
          },
          "count": 100
        } ],
        "measureScore": {
          "value": 0.0
        }
      } ],
      "evaluatedResource": [ {
        "reference": "Patient/08bd110c-dfda-403c-91cd-34dfc9f16dc8"
      }, {
        "reference": "Encounter/81b3aba9-ec61-4ef9-b24f-3ccd51c1282b"
      }, {
        "reference": "Condition/33a66618-5ccc-4e05-88e7-538f54466e7f"
      }, {
        "reference": "Observation/79368360-efaa-4de0-a7ab-3e09fb47ac85"
      }, {
        "reference": "Observation/e40810c0-8a42-4662-8807-41df86ad484e"
      }, {
        "reference": "Procedure/556ee58c-73d1-4ff7-a017-5de2412d43d6"
      }, {
        "reference": "Coverage/0faa5cdb-2879-4209-ad6b-cb7ea538214f"
      }, {
        "reference": "Encounter/68fe2da9-5177-425d-b12e-b1442ac6d86d"
      }, {
        "reference": "Condition/d3fbf6e8-3d87-4f03-b570-d83804733a9e"
      }, {
        "reference": "Observation/9627a68a-fa54-4d7e-b399-62419b7efc1a"
      }, {
        "reference": "Observation/095037f5-a0a9-4f62-b2b7-57e4e7f9927e"
      }, {
        "reference": "Procedure/fffc360c-59ba-4238-b936-07467dc07809"
      }, {
        "reference": "Coverage/97a74e24-6fd9-4cd3-9ee1-2b9552c0ecdb"
      }, {
        "reference": "Organization/1573cfb4-af90-4bd2-bdfb-04e2c10f65ec"
      } ]
    },
    "request": {
      "method": "PUT",
      "url": "MeasureReport/a1fafd16-2ae9-4240-a937-1c4eb9362b39"
    }
  } ]
}