{"resourceType":"Bundle","id":"tests-06aa2ec3-1620-4f65-90b0-8c5c11c91535-bundle","type":"transaction","entry":[{"fullUrl":"Organization/eab8672d-b845-43ec-8b2a-455f2caa46e1","resource":{"resourceType":"Organization","id":"eab8672d-b845-43ec-8b2a-455f2caa46e1","meta":{"profile":["http://hl7.org/fhir/us/qicore/StructureDefinition/qicore-organization"]},"identifier":[{"use":"temp","system":"urn:oid:2.16.840.1.113883.4.4","value":"21-3259825"}],"active":true,"type":[{"coding":[{"system":"http://terminology.hl7.org/CodeSystem/organization-type","code":"pay","display":"Payer"}]}],"name":"Blue Cross Blue Shield of Texas","telecom":[{"system":"phone","value":"(+1) 972-766-6900"}],"address":[{"use":"billing","type":"postal","line":["P.O. Box 660044"],"city":"Dallas","state":"TX","postalCode":"75266-0044","country":"USA"}]},"request":{"method":"PUT","url":"Organization/eab8672d-b845-43ec-8b2a-455f2caa46e1"}},{"fullUrl":"Observation/2980eeba-8657-4ef6-aaab-27c017b476a2","resource":{"resourceType":"Observation","id":"2980eeba-8657-4ef6-aaab-27c017b476a2","meta":{"profile":["http://hl7.org/fhir/us/qicore/StructureDefinition/qicore-observation-screening-assessment"]},"status":"final","category":[{"coding":[{"system":"http://terminology.hl7.org/CodeSystem/observation-category","code":"survey","display":"Survey"}]}],"code":{"coding":[{"system":"http://loinc.org","code":"75304-6","display":"Nutrition status observation panel","userSelected":true}]},"subject":{"reference":"Patient/06aa2ec3-1620-4f65-90b0-8c5c11c91535"},"effectiveDateTime":"2026-02-01T10:00:00.000+00:00","valueCodeableConcept":{"coding":[{"system":"http://snomed.info/sct","code":"2492009","display":"Nutritional disorder (disorder)","userSelected":true}]}},"request":{"method":"PUT","url":"Observation/2980eeba-8657-4ef6-aaab-27c017b476a2"}},{"fullUrl":"Procedure/08f7b1fe-2934-4c77-bef7-402c8ca2afdd","resource":{"resourceType":"Procedure","id":"08f7b1fe-2934-4c77-bef7-402c8ca2afdd","meta":{"profile":["http://hl7.org/fhir/us/qicore/StructureDefinition/qicore-procedure"]},"extension":[{"url":"http://hl7.org/fhir/us/qicore/StructureDefinition/qicore-recorded","valueDateTime":"2025-02-01T11:30:00.000+00:00"}],"status":"completed","code":{"coding":[{"system":"http://snomed.info/sct","code":"306354000","display":"Referral to hospital-based dietitian (procedure)"}],"text":"Referral to hospital-based dietitian (procedure)"},"subject":{"reference":"Patient/06aa2ec3-1620-4f65-90b0-8c5c11c91535"},"encounter":{"reference":"Encounter/ScreNotatriRefAsseModOldDxCpMSROBSPass4"},"performedPeriod":{"start":"2026-02-01T11:30:00.000+00:00","end":"2026-02-07T08:15:00.000+00:00"}},"request":{"method":"PUT","url":"Procedure/08f7b1fe-2934-4c77-bef7-402c8ca2afdd"}},{"fullUrl":"Bundle/ScreNotatriRefAsseModOldDxCp","resource":{"resourceType":"Bundle","id":"ScreNotatriRefAsseModOldDxCp","type":"transaction","entry":[{"fullUrl":"https://madie.cms.gov/Patient/06aa2ec3-1620-4f65-90b0-8c5c11c91535","resource":{"resourceType":"Patient","id":"06aa2ec3-1620-4f65-90b0-8c5c11c91535","meta":{"profile":["http://hl7.org/fhir/us/qicore/StructureDefinition/qicore-patient"]},"extension":[{"url":"http://hl7.org/fhir/us/core/StructureDefinition/us-core-race","extension":[{"url":"ombCategory","valueCoding":{"system":"urn:oid:2.16.840.1.113883.6.238","code":"2106-3","display":"White","userSelected":true}},{"url":"text","valueString":"White"}]},{"url":"http://hl7.org/fhir/us/core/StructureDefinition/us-core-ethnicity","extension":[{"url":"ombCategory","valueCoding":{"system":"urn:oid:2.16.840.1.113883.6.238","code":"2135-2","display":"Hispanic or Latino","userSelected":true}},{"url":"text","valueString":"Hispanic or Latino"}]},{"url":"http://hl7.org/fhir/us/core/StructureDefinition/us-core-sex","valueCode":"248153007"}],"identifier":[{"type":{"coding":[{"system":"http://terminology.hl7.org/CodeSystem/v2-0203","code":"MR"}]},"system":"https://madie.cms.gov/","value":"ScreNotatriRefAsseModOldDxCp"}],"active":true,"name":[{"use":"usual","text":"ScreNotatriRefAsseModOldDxCp","family":"MSROBSPass4","given":["ScreNotatriRefAsseModOldDxCp"]}],"gender":"male","birthDate":"1958-02-01","address":[{"text":"ScreNotatriRefAsseModOldDxCp, Screened Not at risk Assessed Severely Malnourished Diagnosed Care Plan, ID=ScreNotatriRefAsseModOldDxCp, DOB: 01 Feb 1958"}]},"request":{"method":"PUT","url":"Patient/06aa2ec3-1620-4f65-90b0-8c5c11c91535"}},{"fullUrl":"https://madie.cms.gov/Encounter/6fad7151-dcdb-4b18-8870-60ca8d4c15c5","resource":{"resourceType":"Encounter","id":"6fad7151-dcdb-4b18-8870-60ca8d4c15c5","meta":{"profile":["http://hl7.org/fhir/us/qicore/StructureDefinition/qicore-encounter"]},"status":"finished","class":{"system":"http://terminology.hl7.org/CodeSystem/v3-ActCode","code":"IMP","display":"inpatient encounter"},"type":[{"coding":[{"system":"http://snomed.info/sct","code":"183452005"}]}],"subject":{"reference":"Patient/06aa2ec3-1620-4f65-90b0-8c5c11c91535"},"period":{"start":"2026-02-01T08:00:00.000+00:00","end":"2026-02-07T08:15:00.000+00:00"},"reasonReference":[{"reference":"Condition/d8d349b9-4652-4913-be91-aa4c101109cc"}]},"request":{"method":"PUT","url":"Encounter/6fad7151-dcdb-4b18-8870-60ca8d4c15c5"}},{"fullUrl":"https://madie.cms.gov/Condition/d8d349b9-4652-4913-be91-aa4c101109cc","resource":{"resourceType":"Condition","id":"d8d349b9-4652-4913-be91-aa4c101109cc","meta":{"profile":["http://hl7.org/fhir/us/qicore/StructureDefinition/qicore-condition-encounter-diagnosis"]},"clinicalStatus":{"coding":[{"system":"http://terminology.hl7.org/CodeSystem/condition-clinical","code":"active","display":"Active","userSelected":true}]},"verificationStatus":{"coding":[{"system":"http://terminology.hl7.org/CodeSystem/condition-ver-status","code":"confirmed","display":"Confirmed","userSelected":true}]},"category":[{"coding":[{"system":"http://terminology.hl7.org/CodeSystem/condition-category","code":"encounter-diagnosis","display":"Encounter Diagnosis","userSelected":true}]}],"code":{"coding":[{"system":"http://snomed.info/sct","code":"281583001","display":"Nutritional wasting (disorder)","userSelected":true}]},"subject":{"reference":"Patient/06aa2ec3-1620-4f65-90b0-8c5c11c91535"},"onsetPeriod":{"start":"2026-02-01T08:00:00.000+00:00"},"recordedDate":"2026-02-01T11:00:00.000+00:00"},"request":{"method":"PUT","url":"Condition/d8d349b9-4652-4913-be91-aa4c101109cc"}},{"fullUrl":"https://madie.cms.gov/Observation/db731308-fa32-4fc4-9fd7-fee29d627ab7","resource":{"resourceType":"Observation","id":"db731308-fa32-4fc4-9fd7-fee29d627ab7","meta":{"profile":["http://hl7.org/fhir/us/qicore/StructureDefinition/qicore-observation-screening-assessment"]},"status":"final","category":[{"coding":[{"system":"http://terminology.hl7.org/CodeSystem/observation-category","code":"survey","display":"Survey"}]}],"code":{"coding":[{"system":"http://loinc.org","code":"98968-1","display":"Initial Screening NRS_2002","userSelected":true}]},"subject":{"reference":"Patient/06aa2ec3-1620-4f65-90b0-8c5c11c91535"},"effectiveDateTime":"2025-02-01T09:00:00.000+00:00","valueCodeableConcept":{"coding":[{"system":"http://loinc.org","code":"LA33699-2","display":"Not at risk for malnutrition","userSelected":true}]}},"request":{"method":"PUT","url":"Observation/db731308-fa32-4fc4-9fd7-fee29d627ab7"}},{"fullUrl":"https://madie.cms.gov/Observation/2980eeba-8657-4ef6-aaab-27c017b476a2","resource":{"resourceType":"Observation","id":"2980eeba-8657-4ef6-aaab-27c017b476a2","meta":{"profile":["http://hl7.org/fhir/us/qicore/StructureDefinition/qicore-observation-screening-assessment"]},"status":"final","category":[{"coding":[{"system":"http://terminology.hl7.org/CodeSystem/observation-category","code":"survey","display":"Survey"}]}],"code":{"coding":[{"system":"http://loinc.org","code":"75304-6","display":"Nutrition status observation panel","userSelected":true}]},"subject":{"reference":"Patient/06aa2ec3-1620-4f65-90b0-8c5c11c91535"},"effectiveDateTime":"2026-02-01T10:00:00.000+00:00","valueCodeableConcept":{"coding":[{"system":"http://snomed.info/sct","code":"2492009","display":"Nutritional disorder (disorder)","userSelected":true}]}},"request":{"method":"PUT","url":"Observation/2980eeba-8657-4ef6-aaab-27c017b476a2"}},{"fullUrl":"https://madie.cms.gov/Procedure/08f7b1fe-2934-4c77-bef7-402c8ca2afdd","resource":{"resourceType":"Procedure","id":"08f7b1fe-2934-4c77-bef7-402c8ca2afdd","meta":{"profile":["http://hl7.org/fhir/us/qicore/StructureDefinition/qicore-procedure"]},"extension":[{"url":"http://hl7.org/fhir/us/qicore/StructureDefinition/qicore-recorded","valueDateTime":"2025-02-01T11:30:00.000+00:00"}],"status":"completed","code":{"coding":[{"system":"http://snomed.info/sct","code":"306354000","display":"Referral to hospital-based dietitian (procedure)"}],"text":"Referral to hospital-based dietitian (procedure)"},"subject":{"reference":"Patient/06aa2ec3-1620-4f65-90b0-8c5c11c91535"},"encounter":{"reference":"Encounter/ScreNotatriRefAsseModOldDxCpMSROBSPass4"},"performedPeriod":{"start":"2026-02-01T11:30:00.000+00:00","end":"2026-02-07T08:15:00.000+00:00"}},"request":{"method":"PUT","url":"Procedure/08f7b1fe-2934-4c77-bef7-402c8ca2afdd"}},{"fullUrl":"https://madie.cms.gov/Procedure/d59e882a-e7fb-4ab4-9fff-5fc442c4d10d","resource":{"resourceType":"Procedure","id":"d59e882a-e7fb-4ab4-9fff-5fc442c4d10d","meta":{"profile":["http://hl7.org/fhir/us/qicore/StructureDefinition/qicore-procedure"]},"extension":[{"url":"http://hl7.org/fhir/us/qicore/StructureDefinition/qicore-recorded","valueDateTime":"2025-02-02T11:30:00.000+00:00"}],"status":"completed","code":{"coding":[{"system":"http://snomed.info/sct","code":"410175003","display":"Dietary regime management (procedure)"}],"text":"Dietary regime management (procedure)"},"subject":{"reference":"Patient/06aa2ec3-1620-4f65-90b0-8c5c11c91535"},"encounter":{"reference":"Encounter/ScreNotatriRefAsseModOldDxCpMSROBSPass4"},"performedPeriod":{"start":"2026-02-01T11:30:00.000+00:00","end":"2026-02-07T08:15:00.000+00:00"}},"request":{"method":"PUT","url":"Procedure/d59e882a-e7fb-4ab4-9fff-5fc442c4d10d"}},{"fullUrl":"https://madie.cms.gov/Coverage/7d2bbfdb-1773-431e-8075-15f08ba47b92","resource":{"resourceType":"Coverage","id":"7d2bbfdb-1773-431e-8075-15f08ba47b92","meta":{"profile":["http://hl7.org/fhir/us/qicore/StructureDefinition/qicore-coverage"]},"status":"active","type":{"coding":[{"system":"https://nahdo.org/sopt","version":"9.2","code":"11","display":"Medicare Managed Care (Includes Medicare Advantage Plans)"}]},"subscriberId":"97531","beneficiary":{"reference":"Patient/06aa2ec3-1620-4f65-90b0-8c5c11c91535"},"dependent":"0","relationship":{"coding":[{"system":"http://terminology.hl7.org/CodeSystem/subscriber-relationship","code":"self"}]},"period":{"start":"2024-10-01T00:00:00.000+00:00"},"payor":[{"reference":"Organization/eab8672d-b845-43ec-8b2a-455f2caa46e1"}]},"request":{"method":"PUT","url":"Coverage/7d2bbfdb-1773-431e-8075-15f08ba47b92"}},{"fullUrl":"https://madie.cms.gov/Organization/eab8672d-b845-43ec-8b2a-455f2caa46e1","resource":{"resourceType":"Organization","id":"eab8672d-b845-43ec-8b2a-455f2caa46e1","meta":{"profile":["http://hl7.org/fhir/us/qicore/StructureDefinition/qicore-organization"]},"identifier":[{"use":"temp","system":"urn:oid:2.16.840.1.113883.4.4","value":"21-3259825"}],"active":true,"type":[{"coding":[{"system":"http://terminology.hl7.org/CodeSystem/organization-type","code":"pay","display":"Payer"}]}],"name":"Blue Cross Blue Shield of Texas","telecom":[{"system":"phone","value":"(+1) 972-766-6900"}],"address":[{"use":"billing","type":"postal","line":["P.O. Box 660044"],"city":"Dallas","state":"TX","postalCode":"75266-0044","country":"USA"}]},"request":{"method":"PUT","url":"Organization/eab8672d-b845-43ec-8b2a-455f2caa46e1"}},{"fullUrl":"https://madie.cms.gov/MeasureReport/53bf94f8-3a11-4015-83ce-fa0a6d55e918","resource":{"resourceType":"MeasureReport","id":"53bf94f8-3a11-4015-83ce-fa0a6d55e918","meta":{"profile":["http://hl7.org/fhir/us/cqfmeasures/StructureDefinition/test-case-cqfm"]},"contained":[{"resourceType":"Parameters","id":"5b4d11bc-4502-4ae2-8731-774127d8a11b-parameters","parameter":[{"name":"subject","valueString":"06aa2ec3-1620-4f65-90b0-8c5c11c91535"}]}],"extension":[{"url":"http://hl7.org/fhir/StructureDefinition/cqf-inputParameters","valueReference":{"reference":"#5b4d11bc-4502-4ae2-8731-774127d8a11b-parameters"}},{"url":"http://hl7.org/fhir/us/cqfmeasures/StructureDefinition/cqfm-testCaseDescription","valueMarkdown":"Screened, At Risk, With Referral, Assessed, Moderately Malnourished, Diagnosis, Nutrition Care Plan, DX PTA"}],"modifierExtension":[{"url":"http://hl7.org/fhir/us/cqfmeasures/StructureDefinition/cqfm-isTestCase","valueBoolean":true}],"status":"complete","type":"individual","measure":"https://madie.cms.gov/Measure/CMS986FHIRMalnutritionScore","period":{"start":"2026-01-01","end":"2026-12-31"},"group":[{"id":"Group_1","population":[{"id":"InitialPopulation_1","code":{"coding":[{"system":"http://terminology.hl7.org/CodeSystem/measure-population","code":"initial-population","display":"Initial Population"}]},"count":1},{"id":"MeasurePopulation_1","code":{"coding":[{"system":"http://terminology.hl7.org/CodeSystem/measure-population","code":"measure-population","display":"Measure Population"}]},"count":1},{"id":"MeasurePopulationExclusion_1","code":{"coding":[{"system":"http://terminology.hl7.org/CodeSystem/measure-population","code":"measure-population-exclusion","display":"Measure Population Exclusion"}]},"count":0},{"id":"MeasureObservation_1_1","code":{"coding":[{"system":"http://terminology.hl7.org/CodeSystem/measure-population","code":"measure-population-observation","display":"Measure Population Observation"}]},"count":1}],"measureScore":{"value":0.0}},{"id":"Group_2","population":[{"id":"InitialPopulation_2","code":{"coding":[{"system":"http://terminology.hl7.org/CodeSystem/measure-population","code":"initial-population","display":"Initial Population"}]},"count":1},{"id":"MeasurePopulation_2","code":{"coding":[{"system":"http://terminology.hl7.org/CodeSystem/measure-population","code":"measure-population","display":"Measure Population"}]},"count":1},{"id":"MeasurePopulationExclusion_2","code":{"coding":[{"system":"http://terminology.hl7.org/CodeSystem/measure-population","code":"measure-population-exclusion","display":"Measure Population Exclusion"}]},"count":0},{"id":"MeasureObservation_2_1","code":{"coding":[{"system":"http://terminology.hl7.org/CodeSystem/measure-population","code":"measure-population-observation","display":"Measure Population Observation"}]},"count":1}],"measureScore":{"value":0.0}},{"id":"Group_3","population":[{"id":"InitialPopulation_3","code":{"coding":[{"system":"http://terminology.hl7.org/CodeSystem/measure-population","code":"initial-population","display":"Initial Population"}]},"count":1},{"id":"MeasurePopulation_3","code":{"coding":[{"system":"http://terminology.hl7.org/CodeSystem/measure-population","code":"measure-population","display":"Measure Population"}]},"count":1},{"id":"MeasurePopulationExclusion_3","code":{"coding":[{"system":"http://terminology.hl7.org/CodeSystem/measure-population","code":"measure-population-exclusion","display":"Measure Population Exclusion"}]},"count":0},{"id":"MeasureObservation_3_1","code":{"coding":[{"system":"http://terminology.hl7.org/CodeSystem/measure-population","code":"measure-population-observation","display":"Measure Population Observation"}]},"count":1}],"measureScore":{"value":0.0}},{"id":"Group_4","population":[{"id":"InitialPopulation_4","code":{"coding":[{"system":"http://terminology.hl7.org/CodeSystem/measure-population","code":"initial-population","display":"Initial Population"}]},"count":1},{"id":"MeasurePopulation_4","code":{"coding":[{"system":"http://terminology.hl7.org/CodeSystem/measure-population","code":"measure-population","display":"Measure Population"}]},"count":1},{"id":"MeasurePopulationExclusion_4","code":{"coding":[{"system":"http://terminology.hl7.org/CodeSystem/measure-population","code":"measure-population-exclusion","display":"Measure Population Exclusion"}]},"count":0},{"id":"MeasureObservation_4_1","code":{"coding":[{"system":"http://terminology.hl7.org/CodeSystem/measure-population","code":"measure-population-observation","display":"Measure Population Observation"}]},"count":1}],"measureScore":{"value":0.0}},{"id":"Group_5","population":[{"id":"InitialPopulation_5","code":{"coding":[{"system":"http://terminology.hl7.org/CodeSystem/measure-population","code":"initial-population","display":"Initial Population"}]},"count":1},{"id":"MeasurePopulation_5","code":{"coding":[{"system":"http://terminology.hl7.org/CodeSystem/measure-population","code":"measure-population","display":"Measure Population"}]},"count":1},{"id":"MeasurePopulationExclusion_5","code":{"coding":[{"system":"http://terminology.hl7.org/CodeSystem/measure-population","code":"measure-population-exclusion","display":"Measure Population Exclusion"}]},"count":0},{"id":"MeasureObservation_5_1","code":{"coding":[{"system":"http://terminology.hl7.org/CodeSystem/measure-population","code":"measure-population-observation","display":"Measure Population Observation"}]},"count":4}],"measureScore":{"value":0.0}},{"id":"Group_6","population":[{"id":"InitialPopulation_6","code":{"coding":[{"system":"http://terminology.hl7.org/CodeSystem/measure-population","code":"initial-population","display":"Initial Population"}]},"count":1},{"id":"MeasurePopulation_6","code":{"coding":[{"system":"http://terminology.hl7.org/CodeSystem/measure-population","code":"measure-population","display":"Measure Population"}]},"count":1},{"id":"MeasurePopulationExclusion_6","code":{"coding":[{"system":"http://terminology.hl7.org/CodeSystem/measure-population","code":"measure-population-exclusion","display":"Measure Population Exclusion"}]},"count":0},{"id":"MeasureObservation_6_1","code":{"coding":[{"system":"http://terminology.hl7.org/CodeSystem/measure-population","code":"measure-population-observation","display":"Measure Population Observation"}]},"count":100}],"measureScore":{"value":0.0}}],"evaluatedResource":[{"reference":"Patient/06aa2ec3-1620-4f65-90b0-8c5c11c91535"},{"reference":"Encounter/6fad7151-dcdb-4b18-8870-60ca8d4c15c5"},{"reference":"Condition/d8d349b9-4652-4913-be91-aa4c101109cc"},{"reference":"Observation/db731308-fa32-4fc4-9fd7-fee29d627ab7"},{"reference":"Observation/2980eeba-8657-4ef6-aaab-27c017b476a2"},{"reference":"Procedure/08f7b1fe-2934-4c77-bef7-402c8ca2afdd"},{"reference":"Procedure/d59e882a-e7fb-4ab4-9fff-5fc442c4d10d"},{"reference":"Coverage/7d2bbfdb-1773-431e-8075-15f08ba47b92"},{"reference":"Organization/eab8672d-b845-43ec-8b2a-455f2caa46e1"}]},"request":{"method":"PUT","url":"MeasureReport/53bf94f8-3a11-4015-83ce-fa0a6d55e918"}}]},"request":{"method":"PUT","url":"Bundle/ScreNotatriRefAsseModOldDxCp"}},{"fullUrl":"MeasureReport/53bf94f8-3a11-4015-83ce-fa0a6d55e918","resource":{"resourceType":"MeasureReport","id":"53bf94f8-3a11-4015-83ce-fa0a6d55e918","meta":{"profile":["http://hl7.org/fhir/us/cqfmeasures/StructureDefinition/test-case-cqfm"]},"contained":[{"resourceType":"Parameters","id":"5b4d11bc-4502-4ae2-8731-774127d8a11b-parameters","parameter":[{"name":"subject","valueString":"06aa2ec3-1620-4f65-90b0-8c5c11c91535"}]}],"extension":[{"url":"http://hl7.org/fhir/StructureDefinition/cqf-inputParameters","valueReference":{"reference":"#5b4d11bc-4502-4ae2-8731-774127d8a11b-parameters"}},{"url":"http://hl7.org/fhir/us/cqfmeasures/StructureDefinition/cqfm-testCaseDescription","valueMarkdown":"Screened, At Risk, With Referral, Assessed, Moderately Malnourished, Diagnosis, Nutrition Care Plan, DX PTA"}],"modifierExtension":[{"url":"http://hl7.org/fhir/us/cqfmeasures/StructureDefinition/cqfm-isTestCase","valueBoolean":true}],"status":"complete","type":"individual","measure":"https://madie.cms.gov/Measure/CMS986FHIRMalnutritionScore","period":{"start":"2026-01-01","end":"2026-12-31"},"group":[{"id":"Group_1","population":[{"id":"InitialPopulation_1","code":{"coding":[{"system":"http://terminology.hl7.org/CodeSystem/measure-population","code":"initial-population","display":"Initial Population"}]},"count":1},{"id":"MeasurePopulation_1","code":{"coding":[{"system":"http://terminology.hl7.org/CodeSystem/measure-population","code":"measure-population","display":"Measure Population"}]},"count":1},{"id":"MeasurePopulationExclusion_1","code":{"coding":[{"system":"http://terminology.hl7.org/CodeSystem/measure-population","code":"measure-population-exclusion","display":"Measure Population Exclusion"}]},"count":0},{"id":"MeasureObservation_1_1","code":{"coding":[{"system":"http://terminology.hl7.org/CodeSystem/measure-population","code":"measure-population-observation","display":"Measure Population Observation"}]},"count":1}],"measureScore":{"value":0.0}},{"id":"Group_2","population":[{"id":"InitialPopulation_2","code":{"coding":[{"system":"http://terminology.hl7.org/CodeSystem/measure-population","code":"initial-population","display":"Initial Population"}]},"count":1},{"id":"MeasurePopulation_2","code":{"coding":[{"system":"http://terminology.hl7.org/CodeSystem/measure-population","code":"measure-population","display":"Measure Population"}]},"count":1},{"id":"MeasurePopulationExclusion_2","code":{"coding":[{"system":"http://terminology.hl7.org/CodeSystem/measure-population","code":"measure-population-exclusion","display":"Measure Population Exclusion"}]},"count":0},{"id":"MeasureObservation_2_1","code":{"coding":[{"system":"http://terminology.hl7.org/CodeSystem/measure-population","code":"measure-population-observation","display":"Measure Population Observation"}]},"count":1}],"measureScore":{"value":0.0}},{"id":"Group_3","population":[{"id":"InitialPopulation_3","code":{"coding":[{"system":"http://terminology.hl7.org/CodeSystem/measure-population","code":"initial-population","display":"Initial Population"}]},"count":1},{"id":"MeasurePopulation_3","code":{"coding":[{"system":"http://terminology.hl7.org/CodeSystem/measure-population","code":"measure-population","display":"Measure Population"}]},"count":1},{"id":"MeasurePopulationExclusion_3","code":{"coding":[{"system":"http://terminology.hl7.org/CodeSystem/measure-population","code":"measure-population-exclusion","display":"Measure Population Exclusion"}]},"count":0},{"id":"MeasureObservation_3_1","code":{"coding":[{"system":"http://terminology.hl7.org/CodeSystem/measure-population","code":"measure-population-observation","display":"Measure Population Observation"}]},"count":1}],"measureScore":{"value":0.0}},{"id":"Group_4","population":[{"id":"InitialPopulation_4","code":{"coding":[{"system":"http://terminology.hl7.org/CodeSystem/measure-population","code":"initial-population","display":"Initial Population"}]},"count":1},{"id":"MeasurePopulation_4","code":{"coding":[{"system":"http://terminology.hl7.org/CodeSystem/measure-population","code":"measure-population","display":"Measure Population"}]},"count":1},{"id":"MeasurePopulationExclusion_4","code":{"coding":[{"system":"http://terminology.hl7.org/CodeSystem/measure-population","code":"measure-population-exclusion","display":"Measure Population Exclusion"}]},"count":0},{"id":"MeasureObservation_4_1","code":{"coding":[{"system":"http://terminology.hl7.org/CodeSystem/measure-population","code":"measure-population-observation","display":"Measure Population Observation"}]},"count":1}],"measureScore":{"value":0.0}},{"id":"Group_5","population":[{"id":"InitialPopulation_5","code":{"coding":[{"system":"http://terminology.hl7.org/CodeSystem/measure-population","code":"initial-population","display":"Initial Population"}]},"count":1},{"id":"MeasurePopulation_5","code":{"coding":[{"system":"http://terminology.hl7.org/CodeSystem/measure-population","code":"measure-population","display":"Measure Population"}]},"count":1},{"id":"MeasurePopulationExclusion_5","code":{"coding":[{"system":"http://terminology.hl7.org/CodeSystem/measure-population","code":"measure-population-exclusion","display":"Measure Population Exclusion"}]},"count":0},{"id":"MeasureObservation_5_1","code":{"coding":[{"system":"http://terminology.hl7.org/CodeSystem/measure-population","code":"measure-population-observation","display":"Measure Population Observation"}]},"count":4}],"measureScore":{"value":0.0}},{"id":"Group_6","population":[{"id":"InitialPopulation_6","code":{"coding":[{"system":"http://terminology.hl7.org/CodeSystem/measure-population","code":"initial-population","display":"Initial Population"}]},"count":1},{"id":"MeasurePopulation_6","code":{"coding":[{"system":"http://terminology.hl7.org/CodeSystem/measure-population","code":"measure-population","display":"Measure Population"}]},"count":1},{"id":"MeasurePopulationExclusion_6","code":{"coding":[{"system":"http://terminology.hl7.org/CodeSystem/measure-population","code":"measure-population-exclusion","display":"Measure Population Exclusion"}]},"count":0},{"id":"MeasureObservation_6_1","code":{"coding":[{"system":"http://terminology.hl7.org/CodeSystem/measure-population","code":"measure-population-observation","display":"Measure Population Observation"}]},"count":100}],"measureScore":{"value":0.0}}],"evaluatedResource":[{"reference":"Patient/06aa2ec3-1620-4f65-90b0-8c5c11c91535"},{"reference":"Encounter/6fad7151-dcdb-4b18-8870-60ca8d4c15c5"},{"reference":"Condition/d8d349b9-4652-4913-be91-aa4c101109cc"},{"reference":"Observation/db731308-fa32-4fc4-9fd7-fee29d627ab7"},{"reference":"Observation/2980eeba-8657-4ef6-aaab-27c017b476a2"},{"reference":"Procedure/08f7b1fe-2934-4c77-bef7-402c8ca2afdd"},{"reference":"Procedure/d59e882a-e7fb-4ab4-9fff-5fc442c4d10d"},{"reference":"Coverage/7d2bbfdb-1773-431e-8075-15f08ba47b92"},{"reference":"Organization/eab8672d-b845-43ec-8b2a-455f2caa46e1"}]},"request":{"method":"PUT","url":"MeasureReport/53bf94f8-3a11-4015-83ce-fa0a6d55e918"}},{"fullUrl":"Encounter/6fad7151-dcdb-4b18-8870-60ca8d4c15c5","resource":{"resourceType":"Encounter","id":"6fad7151-dcdb-4b18-8870-60ca8d4c15c5","meta":{"profile":["http://hl7.org/fhir/us/qicore/StructureDefinition/qicore-encounter"]},"status":"finished","class":{"system":"http://terminology.hl7.org/CodeSystem/v3-ActCode","code":"IMP","display":"inpatient encounter"},"type":[{"coding":[{"system":"http://snomed.info/sct","code":"183452005"}]}],"subject":{"reference":"Patient/06aa2ec3-1620-4f65-90b0-8c5c11c91535"},"period":{"start":"2026-02-01T08:00:00.000+00:00","end":"2026-02-07T08:15:00.000+00:00"},"reasonReference":[{"reference":"Condition/d8d349b9-4652-4913-be91-aa4c101109cc"}]},"request":{"method":"PUT","url":"Encounter/6fad7151-dcdb-4b18-8870-60ca8d4c15c5"}},{"fullUrl":"Observation/db731308-fa32-4fc4-9fd7-fee29d627ab7","resource":{"resourceType":"Observation","id":"db731308-fa32-4fc4-9fd7-fee29d627ab7","meta":{"profile":["http://hl7.org/fhir/us/qicore/StructureDefinition/qicore-observation-screening-assessment"]},"status":"final","category":[{"coding":[{"system":"http://terminology.hl7.org/CodeSystem/observation-category","code":"survey","display":"Survey"}]}],"code":{"coding":[{"system":"http://loinc.org","code":"98968-1","display":"Initial Screening NRS_2002","userSelected":true}]},"subject":{"reference":"Patient/06aa2ec3-1620-4f65-90b0-8c5c11c91535"},"effectiveDateTime":"2025-02-01T09:00:00.000+00:00","valueCodeableConcept":{"coding":[{"system":"http://loinc.org","code":"LA33699-2","display":"Not at risk for malnutrition","userSelected":true}]}},"request":{"method":"PUT","url":"Observation/db731308-fa32-4fc4-9fd7-fee29d627ab7"}},{"fullUrl":"Patient/06aa2ec3-1620-4f65-90b0-8c5c11c91535","resource":{"resourceType":"Patient","id":"06aa2ec3-1620-4f65-90b0-8c5c11c91535","meta":{"profile":["http://hl7.org/fhir/us/qicore/StructureDefinition/qicore-patient"]},"extension":[{"url":"http://hl7.org/fhir/us/core/StructureDefinition/us-core-race","extension":[{"url":"ombCategory","valueCoding":{"system":"urn:oid:2.16.840.1.113883.6.238","code":"2106-3","display":"White","userSelected":true}},{"url":"text","valueString":"White"}]},{"url":"http://hl7.org/fhir/us/core/StructureDefinition/us-core-ethnicity","extension":[{"url":"ombCategory","valueCoding":{"system":"urn:oid:2.16.840.1.113883.6.238","code":"2135-2","display":"Hispanic or Latino","userSelected":true}},{"url":"text","valueString":"Hispanic or Latino"}]},{"url":"http://hl7.org/fhir/us/core/StructureDefinition/us-core-sex","valueCode":"248153007"}],"identifier":[{"type":{"coding":[{"system":"http://terminology.hl7.org/CodeSystem/v2-0203","code":"MR"}]},"system":"https://madie.cms.gov/","value":"ScreNotatriRefAsseModOldDxCp"}],"active":true,"name":[{"use":"usual","text":"ScreNotatriRefAsseModOldDxCp","family":"MSROBSPass4","given":["ScreNotatriRefAsseModOldDxCp"]}],"gender":"male","birthDate":"1958-02-01","address":[{"text":"ScreNotatriRefAsseModOldDxCp, Screened Not at risk Assessed Severely Malnourished Diagnosed Care Plan, ID=ScreNotatriRefAsseModOldDxCp, DOB: 01 Feb 1958"}]},"request":{"method":"PUT","url":"Patient/06aa2ec3-1620-4f65-90b0-8c5c11c91535"}},{"fullUrl":"Condition/d8d349b9-4652-4913-be91-aa4c101109cc","resource":{"resourceType":"Condition","id":"d8d349b9-4652-4913-be91-aa4c101109cc","meta":{"profile":["http://hl7.org/fhir/us/qicore/StructureDefinition/qicore-condition-encounter-diagnosis"]},"clinicalStatus":{"coding":[{"system":"http://terminology.hl7.org/CodeSystem/condition-clinical","code":"active","display":"Active","userSelected":true}]},"verificationStatus":{"coding":[{"system":"http://terminology.hl7.org/CodeSystem/condition-ver-status","code":"confirmed","display":"Confirmed","userSelected":true}]},"category":[{"coding":[{"system":"http://terminology.hl7.org/CodeSystem/condition-category","code":"encounter-diagnosis","display":"Encounter Diagnosis","userSelected":true}]}],"code":{"coding":[{"system":"http://snomed.info/sct","code":"281583001","display":"Nutritional wasting (disorder)","userSelected":true}]},"subject":{"reference":"Patient/06aa2ec3-1620-4f65-90b0-8c5c11c91535"},"onsetPeriod":{"start":"2026-02-01T08:00:00.000+00:00"},"recordedDate":"2026-02-01T11:00:00.000+00:00"},"request":{"method":"PUT","url":"Condition/d8d349b9-4652-4913-be91-aa4c101109cc"}},{"fullUrl":"Coverage/7d2bbfdb-1773-431e-8075-15f08ba47b92","resource":{"resourceType":"Coverage","id":"7d2bbfdb-1773-431e-8075-15f08ba47b92","meta":{"profile":["http://hl7.org/fhir/us/qicore/StructureDefinition/qicore-coverage"]},"status":"active","type":{"coding":[{"system":"https://nahdo.org/sopt","version":"9.2","code":"11","display":"Medicare Managed Care (Includes Medicare Advantage Plans)"}]},"subscriberId":"97531","beneficiary":{"reference":"Patient/06aa2ec3-1620-4f65-90b0-8c5c11c91535"},"dependent":"0","relationship":{"coding":[{"system":"http://terminology.hl7.org/CodeSystem/subscriber-relationship","code":"self"}]},"period":{"start":"2024-10-01T00:00:00.000+00:00"},"payor":[{"reference":"Organization/eab8672d-b845-43ec-8b2a-455f2caa46e1"}]},"request":{"method":"PUT","url":"Coverage/7d2bbfdb-1773-431e-8075-15f08ba47b92"}},{"fullUrl":"Procedure/d59e882a-e7fb-4ab4-9fff-5fc442c4d10d","resource":{"resourceType":"Procedure","id":"d59e882a-e7fb-4ab4-9fff-5fc442c4d10d","meta":{"profile":["http://hl7.org/fhir/us/qicore/StructureDefinition/qicore-procedure"]},"extension":[{"url":"http://hl7.org/fhir/us/qicore/StructureDefinition/qicore-recorded","valueDateTime":"2025-02-02T11:30:00.000+00:00"}],"status":"completed","code":{"coding":[{"system":"http://snomed.info/sct","code":"410175003","display":"Dietary regime management (procedure)"}],"text":"Dietary regime management (procedure)"},"subject":{"reference":"Patient/06aa2ec3-1620-4f65-90b0-8c5c11c91535"},"encounter":{"reference":"Encounter/ScreNotatriRefAsseModOldDxCpMSROBSPass4"},"performedPeriod":{"start":"2026-02-01T11:30:00.000+00:00","end":"2026-02-07T08:15:00.000+00:00"}},"request":{"method":"PUT","url":"Procedure/d59e882a-e7fb-4ab4-9fff-5fc442c4d10d"}}]}