{"resourceType":"Bundle","id":"tests-33c0f746-578a-4747-8f99-35c44119cebf-bundle","type":"transaction","entry":[{"fullUrl":"Patient/33c0f746-578a-4747-8f99-35c44119cebf","resource":{"resourceType":"Patient","id":"33c0f746-578a-4747-8f99-35c44119cebf","meta":{"profile":["http://hl7.org/fhir/us/qicore/StructureDefinition/qicore-patient"]},"extension":[{"url":"http://hl7.org/fhir/us/core/StructureDefinition/us-core-race","extension":[{"url":"ombCategory","valueCoding":{"system":"urn:oid:2.16.840.1.113883.6.238","code":"1002-5","display":"American Indian or Alaska Native","userSelected":true}},{"url":"text","valueString":"American Indian or Alaska Native"}]},{"url":"http://hl7.org/fhir/us/core/StructureDefinition/us-core-sex","valueCode":"248153007"},{"url":"http://hl7.org/fhir/us/core/StructureDefinition/us-core-ethnicity","extension":[{"url":"ombCategory","valueCoding":{"system":"urn:oid:2.16.840.1.113883.6.238","code":"2135-2","display":"Hispanic or Latino","userSelected":true}},{"url":"text","valueString":"Hispanic or Latino"}]}],"identifier":[{"type":{"coding":[{"system":"http://terminology.hl7.org/CodeSystem/v2-0203","code":"MR"}]},"system":"https://madie.cms.gov/","value":"RefMinAftEncounter"}],"active":true,"name":[{"use":"usual","text":"RefMinAftEncounter","family":"MSROBSPass2","given":["RefMinAftEncounter"]}],"gender":"male","birthDate":"1952-01-01","address":[{"text":"RefMinAftEncounter, referral one minute into encounter, ID=RefMinAftEncounter, DOB: 01 Jan 1952"}]},"request":{"method":"PUT","url":"Patient/33c0f746-578a-4747-8f99-35c44119cebf"}},{"fullUrl":"Procedure/a2c7b6ad-c313-4295-8345-a34200b0cc64","resource":{"resourceType":"Procedure","id":"a2c7b6ad-c313-4295-8345-a34200b0cc64","meta":{"profile":["http://hl7.org/fhir/us/qicore/StructureDefinition/qicore-procedure"]},"extension":[{"url":"http://hl7.org/fhir/us/qicore/StructureDefinition/qicore-recorded","valueDateTime":"2026-02-01T11:30:00.000+00:00"}],"status":"completed","code":{"coding":[{"system":"http://snomed.info/sct","code":"306165000","display":"Referral to hospital-based dietetics service (procedure)"}],"text":"Referral to hospital-based dietetics service (procedure)"},"subject":{"reference":"Patient/33c0f746-578a-4747-8f99-35c44119cebf"},"performedPeriod":{"start":"2026-11-21T08:01:00.000+00:00","end":"2026-11-21T08:01:00.000+00:00"}},"request":{"method":"PUT","url":"Procedure/a2c7b6ad-c313-4295-8345-a34200b0cc64"}},{"fullUrl":"Organization/eaa262aa-8441-4e80-8703-84ab8c57e1c6","resource":{"resourceType":"Organization","id":"eaa262aa-8441-4e80-8703-84ab8c57e1c6","meta":{"profile":["http://hl7.org/fhir/us/qicore/StructureDefinition/qicore-organization"]},"identifier":[{"use":"temp","system":"urn:oid:2.16.840.1.113883.4.4","value":"21-3259825"}],"active":true,"type":[{"coding":[{"system":"http://terminology.hl7.org/CodeSystem/organization-type","code":"pay","display":"Payer"}]}],"name":"Blue Cross Blue Shield of Texas","telecom":[{"system":"phone","value":"(+1) 972-766-6900"}],"address":[{"use":"billing","type":"postal","line":["P.O. Box 660044"],"city":"Dallas","state":"TX","postalCode":"75266-0044","country":"USA"}]},"request":{"method":"PUT","url":"Organization/eaa262aa-8441-4e80-8703-84ab8c57e1c6"}},{"fullUrl":"MeasureReport/4b479958-458b-405f-9c37-b8fd97a317a8","resource":{"resourceType":"MeasureReport","id":"4b479958-458b-405f-9c37-b8fd97a317a8","meta":{"profile":["http://hl7.org/fhir/us/cqfmeasures/StructureDefinition/test-case-cqfm"]},"contained":[{"resourceType":"Parameters","id":"840a42ea-e302-436e-a1db-9a6a51d2dca2-parameters","parameter":[{"name":"subject","valueString":"33c0f746-578a-4747-8f99-35c44119cebf"}]}],"extension":[{"url":"http://hl7.org/fhir/StructureDefinition/cqf-inputParameters","valueReference":{"reference":"#840a42ea-e302-436e-a1db-9a6a51d2dca2-parameters"}},{"url":"http://hl7.org/fhir/us/cqfmeasures/StructureDefinition/cqfm-testCaseDescription","valueMarkdown":"Referral 1 min after start of encounter"}],"modifierExtension":[{"url":"http://hl7.org/fhir/us/cqfmeasures/StructureDefinition/cqfm-isTestCase","valueBoolean":true}],"status":"complete","type":"individual","measure":"https://madie.cms.gov/Measure/CMS986FHIRMalnutritionScore","period":{"start":"2026-01-01","end":"2026-12-31"},"group":[{"id":"Group_1","population":[{"id":"InitialPopulation_1","code":{"coding":[{"system":"http://terminology.hl7.org/CodeSystem/measure-population","code":"initial-population","display":"Initial Population"}]},"count":1},{"id":"MeasurePopulation_1","code":{"coding":[{"system":"http://terminology.hl7.org/CodeSystem/measure-population","code":"measure-population","display":"Measure Population"}]},"count":1},{"id":"MeasurePopulationExclusion_1","code":{"coding":[{"system":"http://terminology.hl7.org/CodeSystem/measure-population","code":"measure-population-exclusion","display":"Measure Population Exclusion"}]},"count":0},{"id":"MeasureObservation_1_1","code":{"coding":[{"system":"http://terminology.hl7.org/CodeSystem/measure-population","code":"measure-population-observation","display":"Measure Population Observation"}]},"count":1}],"measureScore":{"value":0.0}},{"id":"Group_2","population":[{"id":"InitialPopulation_2","code":{"coding":[{"system":"http://terminology.hl7.org/CodeSystem/measure-population","code":"initial-population","display":"Initial Population"}]},"count":1},{"id":"MeasurePopulation_2","code":{"coding":[{"system":"http://terminology.hl7.org/CodeSystem/measure-population","code":"measure-population","display":"Measure Population"}]},"count":1},{"id":"MeasurePopulationExclusion_2","code":{"coding":[{"system":"http://terminology.hl7.org/CodeSystem/measure-population","code":"measure-population-exclusion","display":"Measure Population Exclusion"}]},"count":0},{"id":"MeasureObservation_2_1","code":{"coding":[{"system":"http://terminology.hl7.org/CodeSystem/measure-population","code":"measure-population-observation","display":"Measure Population Observation"}]},"count":1}],"measureScore":{"value":0.0}},{"id":"Group_3","population":[{"id":"InitialPopulation_3","code":{"coding":[{"system":"http://terminology.hl7.org/CodeSystem/measure-population","code":"initial-population","display":"Initial Population"}]},"count":1},{"id":"MeasurePopulation_3","code":{"coding":[{"system":"http://terminology.hl7.org/CodeSystem/measure-population","code":"measure-population","display":"Measure Population"}]},"count":1},{"id":"MeasurePopulationExclusion_3","code":{"coding":[{"system":"http://terminology.hl7.org/CodeSystem/measure-population","code":"measure-population-exclusion","display":"Measure Population Exclusion"}]},"count":0},{"id":"MeasureObservation_3_1","code":{"coding":[{"system":"http://terminology.hl7.org/CodeSystem/measure-population","code":"measure-population-observation","display":"Measure Population Observation"}]},"count":0}],"measureScore":{"value":0.0}},{"id":"Group_4","population":[{"id":"InitialPopulation_4","code":{"coding":[{"system":"http://terminology.hl7.org/CodeSystem/measure-population","code":"initial-population","display":"Initial Population"}]},"count":1},{"id":"MeasurePopulation_4","code":{"coding":[{"system":"http://terminology.hl7.org/CodeSystem/measure-population","code":"measure-population","display":"Measure Population"}]},"count":1},{"id":"MeasurePopulationExclusion_4","code":{"coding":[{"system":"http://terminology.hl7.org/CodeSystem/measure-population","code":"measure-population-exclusion","display":"Measure Population Exclusion"}]},"count":0},{"id":"MeasureObservation_4_1","code":{"coding":[{"system":"http://terminology.hl7.org/CodeSystem/measure-population","code":"measure-population-observation","display":"Measure Population Observation"}]},"count":0}],"measureScore":{"value":0.0}},{"id":"Group_5","population":[{"id":"InitialPopulation_5","code":{"coding":[{"system":"http://terminology.hl7.org/CodeSystem/measure-population","code":"initial-population","display":"Initial Population"}]},"count":1},{"id":"MeasurePopulation_5","code":{"coding":[{"system":"http://terminology.hl7.org/CodeSystem/measure-population","code":"measure-population","display":"Measure Population"}]},"count":1},{"id":"MeasurePopulationExclusion_5","code":{"coding":[{"system":"http://terminology.hl7.org/CodeSystem/measure-population","code":"measure-population-exclusion","display":"Measure Population Exclusion"}]},"count":0},{"id":"MeasureObservation_5_1","code":{"coding":[{"system":"http://terminology.hl7.org/CodeSystem/measure-population","code":"measure-population-observation","display":"Measure Population Observation"}]},"count":2}],"measureScore":{"value":0.0}},{"id":"Group_6","population":[{"id":"InitialPopulation_6","code":{"coding":[{"system":"http://terminology.hl7.org/CodeSystem/measure-population","code":"initial-population","display":"Initial Population"}]},"count":1},{"id":"MeasurePopulation_6","code":{"coding":[{"system":"http://terminology.hl7.org/CodeSystem/measure-population","code":"measure-population","display":"Measure Population"}]},"count":1},{"id":"MeasurePopulationExclusion_6","code":{"coding":[{"system":"http://terminology.hl7.org/CodeSystem/measure-population","code":"measure-population-exclusion","display":"Measure Population Exclusion"}]},"count":0},{"id":"MeasureObservation_6_1","code":{"coding":[{"system":"http://terminology.hl7.org/CodeSystem/measure-population","code":"measure-population-observation","display":"Measure Population Observation"}]},"count":100}],"measureScore":{"value":0.0}}],"evaluatedResource":[{"reference":"Patient/33c0f746-578a-4747-8f99-35c44119cebf"},{"reference":"Encounter/217326a0-ec19-4434-9805-5b4d6bcf0dbe"},{"reference":"Observation/13ba63f6-b512-4f87-bfee-f279a5725bcf"},{"reference":"Procedure/a2c7b6ad-c313-4295-8345-a34200b0cc64"},{"reference":"Coverage/2aefe72a-e3af-46b5-a09c-7ebdeccdd979"},{"reference":"Organization/eaa262aa-8441-4e80-8703-84ab8c57e1c6"}]},"request":{"method":"PUT","url":"MeasureReport/4b479958-458b-405f-9c37-b8fd97a317a8"}},{"fullUrl":"Coverage/2aefe72a-e3af-46b5-a09c-7ebdeccdd979","resource":{"resourceType":"Coverage","id":"2aefe72a-e3af-46b5-a09c-7ebdeccdd979","meta":{"profile":["http://hl7.org/fhir/us/qicore/StructureDefinition/qicore-coverage"]},"status":"active","type":{"coding":[{"system":"https://nahdo.org/sopt","version":"9.2","code":"11","display":"Medicare Managed Care (Includes Medicare Advantage Plans)"}]},"subscriberId":"97531","beneficiary":{"reference":"Patient/33c0f746-578a-4747-8f99-35c44119cebf"},"dependent":"0","relationship":{"coding":[{"system":"http://terminology.hl7.org/CodeSystem/subscriber-relationship","code":"self"}]},"period":{"start":"2026-10-01T00:00:00.000+00:00"},"payor":[{"reference":"Organization/eaa262aa-8441-4e80-8703-84ab8c57e1c6"}]},"request":{"method":"PUT","url":"Coverage/2aefe72a-e3af-46b5-a09c-7ebdeccdd979"}},{"fullUrl":"Bundle/RefMinAftEncounter","resource":{"resourceType":"Bundle","id":"RefMinAftEncounter","type":"transaction","entry":[{"fullUrl":"https://madie.cms.gov/Patient/33c0f746-578a-4747-8f99-35c44119cebf","resource":{"resourceType":"Patient","id":"33c0f746-578a-4747-8f99-35c44119cebf","meta":{"profile":["http://hl7.org/fhir/us/qicore/StructureDefinition/qicore-patient"]},"extension":[{"url":"http://hl7.org/fhir/us/core/StructureDefinition/us-core-race","extension":[{"url":"ombCategory","valueCoding":{"system":"urn:oid:2.16.840.1.113883.6.238","code":"1002-5","display":"American Indian or Alaska Native","userSelected":true}},{"url":"text","valueString":"American Indian or Alaska Native"}]},{"url":"http://hl7.org/fhir/us/core/StructureDefinition/us-core-sex","valueCode":"248153007"},{"url":"http://hl7.org/fhir/us/core/StructureDefinition/us-core-ethnicity","extension":[{"url":"ombCategory","valueCoding":{"system":"urn:oid:2.16.840.1.113883.6.238","code":"2135-2","display":"Hispanic or Latino","userSelected":true}},{"url":"text","valueString":"Hispanic or Latino"}]}],"identifier":[{"type":{"coding":[{"system":"http://terminology.hl7.org/CodeSystem/v2-0203","code":"MR"}]},"system":"https://madie.cms.gov/","value":"RefMinAftEncounter"}],"active":true,"name":[{"use":"usual","text":"RefMinAftEncounter","family":"MSROBSPass2","given":["RefMinAftEncounter"]}],"gender":"male","birthDate":"1952-01-01","address":[{"text":"RefMinAftEncounter, referral one minute into encounter, ID=RefMinAftEncounter, DOB: 01 Jan 1952"}]},"request":{"method":"PUT","url":"Patient/33c0f746-578a-4747-8f99-35c44119cebf"}},{"fullUrl":"https://madie.cms.gov/Encounter/217326a0-ec19-4434-9805-5b4d6bcf0dbe","resource":{"resourceType":"Encounter","id":"217326a0-ec19-4434-9805-5b4d6bcf0dbe","meta":{"profile":["http://hl7.org/fhir/us/qicore/StructureDefinition/qicore-encounter"]},"status":"finished","class":{"system":"http://terminology.hl7.org/CodeSystem/v3-ActCode","code":"IMP","display":"inpatient encounter"},"type":[{"coding":[{"system":"http://snomed.info/sct","code":"183452005"}]}],"subject":{"reference":"Patient/33c0f746-578a-4747-8f99-35c44119cebf"},"period":{"start":"2026-11-21T08:00:00.000+00:00","end":"2026-11-24T08:15:00.000+00:00"}},"request":{"method":"PUT","url":"Encounter/217326a0-ec19-4434-9805-5b4d6bcf0dbe"}},{"fullUrl":"https://madie.cms.gov/Observation/13ba63f6-b512-4f87-bfee-f279a5725bcf","resource":{"resourceType":"Observation","id":"13ba63f6-b512-4f87-bfee-f279a5725bcf","meta":{"profile":["http://hl7.org/fhir/us/qicore/StructureDefinition/qicore-observation-screening-assessment"]},"status":"final","category":[{"coding":[{"system":"http://terminology.hl7.org/CodeSystem/observation-category","code":"survey","display":"Survey"}]}],"code":{"coding":[{"system":"http://loinc.org","code":"75303-8","display":"Nutrition assessment narrative","userSelected":true}]},"subject":{"reference":"Patient/33c0f746-578a-4747-8f99-35c44119cebf"},"effectiveDateTime":"2026-11-21T10:00:00.000+00:00","valueCodeableConcept":{"coding":[{"system":"http://loinc.org","code":"LA33702-4","display":"Not malnourished","userSelected":true}]}},"request":{"method":"PUT","url":"Observation/13ba63f6-b512-4f87-bfee-f279a5725bcf"}},{"fullUrl":"https://madie.cms.gov/Procedure/a2c7b6ad-c313-4295-8345-a34200b0cc64","resource":{"resourceType":"Procedure","id":"a2c7b6ad-c313-4295-8345-a34200b0cc64","meta":{"profile":["http://hl7.org/fhir/us/qicore/StructureDefinition/qicore-procedure"]},"extension":[{"url":"http://hl7.org/fhir/us/qicore/StructureDefinition/qicore-recorded","valueDateTime":"2026-02-01T11:30:00.000+00:00"}],"status":"completed","code":{"coding":[{"system":"http://snomed.info/sct","code":"306165000","display":"Referral to hospital-based dietetics service (procedure)"}],"text":"Referral to hospital-based dietetics service (procedure)"},"subject":{"reference":"Patient/33c0f746-578a-4747-8f99-35c44119cebf"},"performedPeriod":{"start":"2026-11-21T08:01:00.000+00:00","end":"2026-11-21T08:01:00.000+00:00"}},"request":{"method":"PUT","url":"Procedure/a2c7b6ad-c313-4295-8345-a34200b0cc64"}},{"fullUrl":"https://madie.cms.gov/Coverage/2aefe72a-e3af-46b5-a09c-7ebdeccdd979","resource":{"resourceType":"Coverage","id":"2aefe72a-e3af-46b5-a09c-7ebdeccdd979","meta":{"profile":["http://hl7.org/fhir/us/qicore/StructureDefinition/qicore-coverage"]},"status":"active","type":{"coding":[{"system":"https://nahdo.org/sopt","version":"9.2","code":"11","display":"Medicare Managed Care (Includes Medicare Advantage Plans)"}]},"subscriberId":"97531","beneficiary":{"reference":"Patient/33c0f746-578a-4747-8f99-35c44119cebf"},"dependent":"0","relationship":{"coding":[{"system":"http://terminology.hl7.org/CodeSystem/subscriber-relationship","code":"self"}]},"period":{"start":"2026-10-01T00:00:00.000+00:00"},"payor":[{"reference":"Organization/eaa262aa-8441-4e80-8703-84ab8c57e1c6"}]},"request":{"method":"PUT","url":"Coverage/2aefe72a-e3af-46b5-a09c-7ebdeccdd979"}},{"fullUrl":"https://madie.cms.gov/Organization/eaa262aa-8441-4e80-8703-84ab8c57e1c6","resource":{"resourceType":"Organization","id":"eaa262aa-8441-4e80-8703-84ab8c57e1c6","meta":{"profile":["http://hl7.org/fhir/us/qicore/StructureDefinition/qicore-organization"]},"identifier":[{"use":"temp","system":"urn:oid:2.16.840.1.113883.4.4","value":"21-3259825"}],"active":true,"type":[{"coding":[{"system":"http://terminology.hl7.org/CodeSystem/organization-type","code":"pay","display":"Payer"}]}],"name":"Blue Cross Blue Shield of Texas","telecom":[{"system":"phone","value":"(+1) 972-766-6900"}],"address":[{"use":"billing","type":"postal","line":["P.O. Box 660044"],"city":"Dallas","state":"TX","postalCode":"75266-0044","country":"USA"}]},"request":{"method":"PUT","url":"Organization/eaa262aa-8441-4e80-8703-84ab8c57e1c6"}},{"fullUrl":"https://madie.cms.gov/MeasureReport/4b479958-458b-405f-9c37-b8fd97a317a8","resource":{"resourceType":"MeasureReport","id":"4b479958-458b-405f-9c37-b8fd97a317a8","meta":{"profile":["http://hl7.org/fhir/us/cqfmeasures/StructureDefinition/test-case-cqfm"]},"contained":[{"resourceType":"Parameters","id":"840a42ea-e302-436e-a1db-9a6a51d2dca2-parameters","parameter":[{"name":"subject","valueString":"33c0f746-578a-4747-8f99-35c44119cebf"}]}],"extension":[{"url":"http://hl7.org/fhir/StructureDefinition/cqf-inputParameters","valueReference":{"reference":"#840a42ea-e302-436e-a1db-9a6a51d2dca2-parameters"}},{"url":"http://hl7.org/fhir/us/cqfmeasures/StructureDefinition/cqfm-testCaseDescription","valueMarkdown":"Referral 1 min after start of encounter"}],"modifierExtension":[{"url":"http://hl7.org/fhir/us/cqfmeasures/StructureDefinition/cqfm-isTestCase","valueBoolean":true}],"status":"complete","type":"individual","measure":"https://madie.cms.gov/Measure/CMS986FHIRMalnutritionScore","period":{"start":"2026-01-01","end":"2026-12-31"},"group":[{"id":"Group_1","population":[{"id":"InitialPopulation_1","code":{"coding":[{"system":"http://terminology.hl7.org/CodeSystem/measure-population","code":"initial-population","display":"Initial Population"}]},"count":1},{"id":"MeasurePopulation_1","code":{"coding":[{"system":"http://terminology.hl7.org/CodeSystem/measure-population","code":"measure-population","display":"Measure Population"}]},"count":1},{"id":"MeasurePopulationExclusion_1","code":{"coding":[{"system":"http://terminology.hl7.org/CodeSystem/measure-population","code":"measure-population-exclusion","display":"Measure Population Exclusion"}]},"count":0},{"id":"MeasureObservation_1_1","code":{"coding":[{"system":"http://terminology.hl7.org/CodeSystem/measure-population","code":"measure-population-observation","display":"Measure Population Observation"}]},"count":1}],"measureScore":{"value":0.0}},{"id":"Group_2","population":[{"id":"InitialPopulation_2","code":{"coding":[{"system":"http://terminology.hl7.org/CodeSystem/measure-population","code":"initial-population","display":"Initial Population"}]},"count":1},{"id":"MeasurePopulation_2","code":{"coding":[{"system":"http://terminology.hl7.org/CodeSystem/measure-population","code":"measure-population","display":"Measure Population"}]},"count":1},{"id":"MeasurePopulationExclusion_2","code":{"coding":[{"system":"http://terminology.hl7.org/CodeSystem/measure-population","code":"measure-population-exclusion","display":"Measure Population Exclusion"}]},"count":0},{"id":"MeasureObservation_2_1","code":{"coding":[{"system":"http://terminology.hl7.org/CodeSystem/measure-population","code":"measure-population-observation","display":"Measure Population Observation"}]},"count":1}],"measureScore":{"value":0.0}},{"id":"Group_3","population":[{"id":"InitialPopulation_3","code":{"coding":[{"system":"http://terminology.hl7.org/CodeSystem/measure-population","code":"initial-population","display":"Initial Population"}]},"count":1},{"id":"MeasurePopulation_3","code":{"coding":[{"system":"http://terminology.hl7.org/CodeSystem/measure-population","code":"measure-population","display":"Measure Population"}]},"count":1},{"id":"MeasurePopulationExclusion_3","code":{"coding":[{"system":"http://terminology.hl7.org/CodeSystem/measure-population","code":"measure-population-exclusion","display":"Measure Population Exclusion"}]},"count":0},{"id":"MeasureObservation_3_1","code":{"coding":[{"system":"http://terminology.hl7.org/CodeSystem/measure-population","code":"measure-population-observation","display":"Measure Population Observation"}]},"count":0}],"measureScore":{"value":0.0}},{"id":"Group_4","population":[{"id":"InitialPopulation_4","code":{"coding":[{"system":"http://terminology.hl7.org/CodeSystem/measure-population","code":"initial-population","display":"Initial Population"}]},"count":1},{"id":"MeasurePopulation_4","code":{"coding":[{"system":"http://terminology.hl7.org/CodeSystem/measure-population","code":"measure-population","display":"Measure Population"}]},"count":1},{"id":"MeasurePopulationExclusion_4","code":{"coding":[{"system":"http://terminology.hl7.org/CodeSystem/measure-population","code":"measure-population-exclusion","display":"Measure Population Exclusion"}]},"count":0},{"id":"MeasureObservation_4_1","code":{"coding":[{"system":"http://terminology.hl7.org/CodeSystem/measure-population","code":"measure-population-observation","display":"Measure Population Observation"}]},"count":0}],"measureScore":{"value":0.0}},{"id":"Group_5","population":[{"id":"InitialPopulation_5","code":{"coding":[{"system":"http://terminology.hl7.org/CodeSystem/measure-population","code":"initial-population","display":"Initial Population"}]},"count":1},{"id":"MeasurePopulation_5","code":{"coding":[{"system":"http://terminology.hl7.org/CodeSystem/measure-population","code":"measure-population","display":"Measure Population"}]},"count":1},{"id":"MeasurePopulationExclusion_5","code":{"coding":[{"system":"http://terminology.hl7.org/CodeSystem/measure-population","code":"measure-population-exclusion","display":"Measure Population Exclusion"}]},"count":0},{"id":"MeasureObservation_5_1","code":{"coding":[{"system":"http://terminology.hl7.org/CodeSystem/measure-population","code":"measure-population-observation","display":"Measure Population Observation"}]},"count":2}],"measureScore":{"value":0.0}},{"id":"Group_6","population":[{"id":"InitialPopulation_6","code":{"coding":[{"system":"http://terminology.hl7.org/CodeSystem/measure-population","code":"initial-population","display":"Initial Population"}]},"count":1},{"id":"MeasurePopulation_6","code":{"coding":[{"system":"http://terminology.hl7.org/CodeSystem/measure-population","code":"measure-population","display":"Measure Population"}]},"count":1},{"id":"MeasurePopulationExclusion_6","code":{"coding":[{"system":"http://terminology.hl7.org/CodeSystem/measure-population","code":"measure-population-exclusion","display":"Measure Population Exclusion"}]},"count":0},{"id":"MeasureObservation_6_1","code":{"coding":[{"system":"http://terminology.hl7.org/CodeSystem/measure-population","code":"measure-population-observation","display":"Measure Population Observation"}]},"count":100}],"measureScore":{"value":0.0}}],"evaluatedResource":[{"reference":"Patient/33c0f746-578a-4747-8f99-35c44119cebf"},{"reference":"Encounter/217326a0-ec19-4434-9805-5b4d6bcf0dbe"},{"reference":"Observation/13ba63f6-b512-4f87-bfee-f279a5725bcf"},{"reference":"Procedure/a2c7b6ad-c313-4295-8345-a34200b0cc64"},{"reference":"Coverage/2aefe72a-e3af-46b5-a09c-7ebdeccdd979"},{"reference":"Organization/eaa262aa-8441-4e80-8703-84ab8c57e1c6"}]},"request":{"method":"PUT","url":"MeasureReport/4b479958-458b-405f-9c37-b8fd97a317a8"}}]},"request":{"method":"PUT","url":"Bundle/RefMinAftEncounter"}},{"fullUrl":"Observation/13ba63f6-b512-4f87-bfee-f279a5725bcf","resource":{"resourceType":"Observation","id":"13ba63f6-b512-4f87-bfee-f279a5725bcf","meta":{"profile":["http://hl7.org/fhir/us/qicore/StructureDefinition/qicore-observation-screening-assessment"]},"status":"final","category":[{"coding":[{"system":"http://terminology.hl7.org/CodeSystem/observation-category","code":"survey","display":"Survey"}]}],"code":{"coding":[{"system":"http://loinc.org","code":"75303-8","display":"Nutrition assessment narrative","userSelected":true}]},"subject":{"reference":"Patient/33c0f746-578a-4747-8f99-35c44119cebf"},"effectiveDateTime":"2026-11-21T10:00:00.000+00:00","valueCodeableConcept":{"coding":[{"system":"http://loinc.org","code":"LA33702-4","display":"Not malnourished","userSelected":true}]}},"request":{"method":"PUT","url":"Observation/13ba63f6-b512-4f87-bfee-f279a5725bcf"}},{"fullUrl":"Encounter/217326a0-ec19-4434-9805-5b4d6bcf0dbe","resource":{"resourceType":"Encounter","id":"217326a0-ec19-4434-9805-5b4d6bcf0dbe","meta":{"profile":["http://hl7.org/fhir/us/qicore/StructureDefinition/qicore-encounter"]},"status":"finished","class":{"system":"http://terminology.hl7.org/CodeSystem/v3-ActCode","code":"IMP","display":"inpatient encounter"},"type":[{"coding":[{"system":"http://snomed.info/sct","code":"183452005"}]}],"subject":{"reference":"Patient/33c0f746-578a-4747-8f99-35c44119cebf"},"period":{"start":"2026-11-21T08:00:00.000+00:00","end":"2026-11-24T08:15:00.000+00:00"}},"request":{"method":"PUT","url":"Encounter/217326a0-ec19-4434-9805-5b4d6bcf0dbe"}}]}