{"resourceType":"Bundle","id":"tests-4df1538c-c20f-444c-a679-15de516ee684-bundle","type":"transaction","entry":[{"resource":{"resourceType":"Coverage","id":"5fc41b6e-52c0-41ae-b644-0d1b748bbd8e","meta":{"profile":["http://hl7.org/fhir/us/qicore/StructureDefinition/qicore-coverage"]},"status":"active","type":{"coding":[{"system":"https://nahdo.org/sopt","version":"9.2","code":"11","display":"Medicare Managed Care (Includes Medicare Advantage Plans)"}]},"subscriberId":"97531","beneficiary":{"reference":"Patient/4df1538c-c20f-444c-a679-15de516ee684"},"dependent":"0","relationship":{"coding":[{"system":"http://terminology.hl7.org/CodeSystem/subscriber-relationship","code":"self"}]},"period":{"start":"2025-10-01T00:00:00.000+00:00"},"payor":[{"reference":"Organization/57a3a5ec-43b4-420c-9457-0dcb54ca3a43"}]},"request":{"method":"PUT","url":"Coverage/5fc41b6e-52c0-41ae-b644-0d1b748bbd8e"}},{"resource":{"resourceType":"Procedure","id":"2d5b3505-041a-491d-bf23-30894fe29af8","meta":{"profile":["http://hl7.org/fhir/us/qicore/StructureDefinition/qicore-procedure"]},"extension":[{"url":"http://hl7.org/fhir/us/qicore/StructureDefinition/qicore-recorded","valueDateTime":"2026-02-02T11:30:00.000+00:00"}],"status":"completed","code":{"coding":[{"system":"http://snomed.info/sct","code":"410172000","display":"Nutrition care management (procedure)"}],"text":"Nutrition care management (procedure)"},"subject":{"reference":"Patient/4df1538c-c20f-444c-a679-15de516ee684"},"encounter":{"reference":"Encounter/NoscreRefNoasseNodxCpMSROBSPass2"},"performedPeriod":{"start":"2026-03-01T11:30:00.000+00:00","end":"2026-03-05T08:15:00.000+00:00"}},"request":{"method":"PUT","url":"Procedure/2d5b3505-041a-491d-bf23-30894fe29af8"}},{"resource":{"resourceType":"Patient","id":"4df1538c-c20f-444c-a679-15de516ee684","meta":{"profile":["http://hl7.org/fhir/us/qicore/StructureDefinition/qicore-patient"]},"extension":[{"url":"http://hl7.org/fhir/us/core/StructureDefinition/us-core-race","extension":[{"url":"ombCategory","valueCoding":{"system":"urn:oid:2.16.840.1.113883.6.238","code":"1002-5","display":"American Indian or Alaska Native","userSelected":true}},{"url":"text","valueString":"American Indian or Alaska Native"}]},{"url":"http://hl7.org/fhir/us/core/StructureDefinition/us-core-ethnicity","extension":[{"url":"ombCategory","valueCoding":{"system":"urn:oid:2.16.840.1.113883.6.238","code":"2135-2","display":"Hispanic or Latino","userSelected":true}},{"url":"text","valueString":"Hispanic or Latino"}]},{"url":"http://hl7.org/fhir/us/core/StructureDefinition/us-core-sex","valueCode":"248152002"}],"identifier":[{"type":{"coding":[{"system":"http://terminology.hl7.org/CodeSystem/v2-0203","code":"MR"}]},"system":"https://madie.cms.gov/","value":"NoscreRefNoasseNodxCp"}],"active":true,"name":[{"use":"usual","text":"NoscreRefNoasseNodxCp","family":"MSROBSPass2","given":["NoscreRefNoasseNodxCp"]}],"gender":"female","birthDate":"1951-06-01","address":[{"text":"NoscreRefNoasseNodxCp, Not Screened, Referral, Not Assessed, No Diagnosis, Care Plan, ID=NoscreRefNoasseNodxCp, DOB: 14 May 1950"}]},"request":{"method":"PUT","url":"Patient/4df1538c-c20f-444c-a679-15de516ee684"}},{"resource":{"resourceType":"MeasureReport","id":"1dd06ac7-3477-41df-b45a-505ba9058e65","meta":{"profile":["http://hl7.org/fhir/us/cqfmeasures/StructureDefinition/test-case-cqfm"]},"contained":[{"resourceType":"Parameters","id":"436fac5a-ef6a-4235-bdbb-ad5f3e57d8d1-parameters","parameter":[{"name":"subject","valueString":"4df1538c-c20f-444c-a679-15de516ee684"}]}],"extension":[{"url":"http://hl7.org/fhir/StructureDefinition/cqf-inputParameters","valueReference":{"reference":"#436fac5a-ef6a-4235-bdbb-ad5f3e57d8d1-parameters"}},{"url":"http://hl7.org/fhir/us/cqfmeasures/StructureDefinition/cqfm-testCaseDescription","valueMarkdown":"Not screened, Referral, Not Assessed, No Diagnosis, Nutrition Care Plan"}],"modifierExtension":[{"url":"http://hl7.org/fhir/us/cqfmeasures/StructureDefinition/cqfm-isTestCase","valueBoolean":true}],"status":"complete","type":"individual","measure":"https://madie.cms.gov/Measure/CMS986FHIRMalnutritionScore","period":{"start":"2026-01-01","end":"2026-12-31"},"group":[{"id":"Group_1","population":[{"id":"InitialPopulation_1","code":{"coding":[{"system":"http://terminology.hl7.org/CodeSystem/measure-population","code":"initial-population","display":"Initial Population"}]},"count":1},{"id":"MeasurePopulation_1","code":{"coding":[{"system":"http://terminology.hl7.org/CodeSystem/measure-population","code":"measure-population","display":"Measure Population"}]},"count":1},{"id":"MeasurePopulationExclusion_1","code":{"coding":[{"system":"http://terminology.hl7.org/CodeSystem/measure-population","code":"measure-population-exclusion","display":"Measure Population Exclusion"}]},"count":0},{"id":"MeasureObservation_1_1","code":{"coding":[{"system":"http://terminology.hl7.org/CodeSystem/measure-population","code":"measure-population-observation","display":"Measure Population Observation"}]},"count":1}],"measureScore":{"value":0.0}},{"id":"Group_2","population":[{"id":"InitialPopulation_2","code":{"coding":[{"system":"http://terminology.hl7.org/CodeSystem/measure-population","code":"initial-population","display":"Initial Population"}]},"count":1},{"id":"MeasurePopulation_2","code":{"coding":[{"system":"http://terminology.hl7.org/CodeSystem/measure-population","code":"measure-population","display":"Measure Population"}]},"count":1},{"id":"MeasurePopulationExclusion_2","code":{"coding":[{"system":"http://terminology.hl7.org/CodeSystem/measure-population","code":"measure-population-exclusion","display":"Measure Population Exclusion"}]},"count":0},{"id":"MeasureObservation_2_1","code":{"coding":[{"system":"http://terminology.hl7.org/CodeSystem/measure-population","code":"measure-population-observation","display":"Measure Population Observation"}]},"count":0}],"measureScore":{"value":0.0}},{"id":"Group_3","population":[{"id":"InitialPopulation_3","code":{"coding":[{"system":"http://terminology.hl7.org/CodeSystem/measure-population","code":"initial-population","display":"Initial Population"}]},"count":1},{"id":"MeasurePopulation_3","code":{"coding":[{"system":"http://terminology.hl7.org/CodeSystem/measure-population","code":"measure-population","display":"Measure Population"}]},"count":1},{"id":"MeasurePopulationExclusion_3","code":{"coding":[{"system":"http://terminology.hl7.org/CodeSystem/measure-population","code":"measure-population-exclusion","display":"Measure Population Exclusion"}]},"count":0},{"id":"MeasureObservation_3_1","code":{"coding":[{"system":"http://terminology.hl7.org/CodeSystem/measure-population","code":"measure-population-observation","display":"Measure Population Observation"}]},"count":0}],"measureScore":{"value":0.0}},{"id":"Group_4","population":[{"id":"InitialPopulation_4","code":{"coding":[{"system":"http://terminology.hl7.org/CodeSystem/measure-population","code":"initial-population","display":"Initial Population"}]},"count":1},{"id":"MeasurePopulation_4","code":{"coding":[{"system":"http://terminology.hl7.org/CodeSystem/measure-population","code":"measure-population","display":"Measure Population"}]},"count":1},{"id":"MeasurePopulationExclusion_4","code":{"coding":[{"system":"http://terminology.hl7.org/CodeSystem/measure-population","code":"measure-population-exclusion","display":"Measure Population Exclusion"}]},"count":0},{"id":"MeasureObservation_4_1","code":{"coding":[{"system":"http://terminology.hl7.org/CodeSystem/measure-population","code":"measure-population-observation","display":"Measure Population Observation"}]},"count":0}],"measureScore":{"value":0.0}},{"id":"Group_5","population":[{"id":"InitialPopulation_5","code":{"coding":[{"system":"http://terminology.hl7.org/CodeSystem/measure-population","code":"initial-population","display":"Initial Population"}]},"count":1},{"id":"MeasurePopulation_5","code":{"coding":[{"system":"http://terminology.hl7.org/CodeSystem/measure-population","code":"measure-population","display":"Measure Population"}]},"count":1},{"id":"MeasurePopulationExclusion_5","code":{"coding":[{"system":"http://terminology.hl7.org/CodeSystem/measure-population","code":"measure-population-exclusion","display":"Measure Population Exclusion"}]},"count":0},{"id":"MeasureObservation_5_1","code":{"coding":[{"system":"http://terminology.hl7.org/CodeSystem/measure-population","code":"measure-population-observation","display":"Measure Population Observation"}]},"count":1}],"measureScore":{"value":0.0}},{"id":"Group_6","population":[{"id":"InitialPopulation_6","code":{"coding":[{"system":"http://terminology.hl7.org/CodeSystem/measure-population","code":"initial-population","display":"Initial Population"}]},"count":1},{"id":"MeasurePopulation_6","code":{"coding":[{"system":"http://terminology.hl7.org/CodeSystem/measure-population","code":"measure-population","display":"Measure Population"}]},"count":1},{"id":"MeasurePopulationExclusion_6","code":{"coding":[{"system":"http://terminology.hl7.org/CodeSystem/measure-population","code":"measure-population-exclusion","display":"Measure Population Exclusion"}]},"count":0},{"id":"MeasureObservation_6_1","code":{"coding":[{"system":"http://terminology.hl7.org/CodeSystem/measure-population","code":"measure-population-observation","display":"Measure Population Observation"}]},"count":50}],"measureScore":{"value":0.0}}],"evaluatedResource":[{"reference":"Patient/4df1538c-c20f-444c-a679-15de516ee684"},{"reference":"Encounter/f528d62c-81fa-4124-a80a-c9ca4f7f2508"},{"reference":"Procedure/dcf18ac4-f2ba-4cf6-9fe2-132e586b16d8"},{"reference":"Procedure/2d5b3505-041a-491d-bf23-30894fe29af8"},{"reference":"Coverage/5fc41b6e-52c0-41ae-b644-0d1b748bbd8e"},{"reference":"Organization/57a3a5ec-43b4-420c-9457-0dcb54ca3a43"}]},"request":{"method":"PUT","url":"MeasureReport/1dd06ac7-3477-41df-b45a-505ba9058e65"}},{"resource":{"resourceType":"Encounter","id":"f528d62c-81fa-4124-a80a-c9ca4f7f2508","meta":{"profile":["http://hl7.org/fhir/us/qicore/StructureDefinition/qicore-encounter"]},"status":"finished","class":{"system":"http://terminology.hl7.org/CodeSystem/v3-ActCode","code":"IMP","display":"inpatient encounter"},"type":[{"coding":[{"system":"http://snomed.info/sct","code":"183452005"}]}],"subject":{"reference":"Patient/4df1538c-c20f-444c-a679-15de516ee684"},"period":{"start":"2026-03-01T08:00:00.000+00:00","end":"2026-03-05T08:15:00.000+00:00"}},"request":{"method":"PUT","url":"Encounter/f528d62c-81fa-4124-a80a-c9ca4f7f2508"}},{"resource":{"resourceType":"Procedure","id":"dcf18ac4-f2ba-4cf6-9fe2-132e586b16d8","meta":{"profile":["http://hl7.org/fhir/us/qicore/StructureDefinition/qicore-procedure"]},"extension":[{"url":"http://hl7.org/fhir/us/qicore/StructureDefinition/qicore-recorded","valueDateTime":"2026-02-01T11:30:00.000+00:00"}],"status":"completed","code":{"coding":[{"system":"http://snomed.info/sct","code":"306165000","display":"Referral to hospital-based dietetics service (procedure)"}],"text":"Referral to hospital-based dietetics service (procedure)"},"subject":{"reference":"Patient/4df1538c-c20f-444c-a679-15de516ee684"},"encounter":{"reference":"Encounter/NoscreRefNoasseNodxCpMSROBSPass2"},"performedPeriod":{"start":"2026-03-01T11:30:00.000+00:00","end":"2026-03-05T08:15:00.000+00:00"}},"request":{"method":"PUT","url":"Procedure/dcf18ac4-f2ba-4cf6-9fe2-132e586b16d8"}},{"resource":{"resourceType":"Organization","id":"57a3a5ec-43b4-420c-9457-0dcb54ca3a43","meta":{"profile":["http://hl7.org/fhir/us/qicore/StructureDefinition/qicore-organization"]},"identifier":[{"use":"temp","system":"urn:oid:2.16.840.1.113883.4.4","value":"21-3259825"}],"active":true,"type":[{"coding":[{"system":"http://terminology.hl7.org/CodeSystem/organization-type","code":"pay","display":"Payer"}]}],"name":"Blue Cross Blue Shield of Texas","telecom":[{"system":"phone","value":"(+1) 972-766-6900"}],"address":[{"use":"billing","type":"postal","line":["P.O. Box 660044"],"city":"Dallas","state":"TX","postalCode":"75266-0044","country":"USA"}]},"request":{"method":"PUT","url":"Organization/57a3a5ec-43b4-420c-9457-0dcb54ca3a43"}},{"resource":{"resourceType":"Bundle","id":"NoscreRefNoasseNodxCp","type":"transaction","entry":[{"fullUrl":"https://madie.cms.gov/Patient/4df1538c-c20f-444c-a679-15de516ee684","resource":{"resourceType":"Patient","id":"4df1538c-c20f-444c-a679-15de516ee684","meta":{"profile":["http://hl7.org/fhir/us/qicore/StructureDefinition/qicore-patient"]},"extension":[{"url":"http://hl7.org/fhir/us/core/StructureDefinition/us-core-race","extension":[{"url":"ombCategory","valueCoding":{"system":"urn:oid:2.16.840.1.113883.6.238","code":"1002-5","display":"American Indian or Alaska Native","userSelected":true}},{"url":"text","valueString":"American Indian or Alaska Native"}]},{"url":"http://hl7.org/fhir/us/core/StructureDefinition/us-core-ethnicity","extension":[{"url":"ombCategory","valueCoding":{"system":"urn:oid:2.16.840.1.113883.6.238","code":"2135-2","display":"Hispanic or Latino","userSelected":true}},{"url":"text","valueString":"Hispanic or Latino"}]},{"url":"http://hl7.org/fhir/us/core/StructureDefinition/us-core-sex","valueCode":"248152002"}],"identifier":[{"type":{"coding":[{"system":"http://terminology.hl7.org/CodeSystem/v2-0203","code":"MR"}]},"system":"https://madie.cms.gov/","value":"NoscreRefNoasseNodxCp"}],"active":true,"name":[{"use":"usual","text":"NoscreRefNoasseNodxCp","family":"MSROBSPass2","given":["NoscreRefNoasseNodxCp"]}],"gender":"female","birthDate":"1951-06-01","address":[{"text":"NoscreRefNoasseNodxCp, Not Screened, Referral, Not Assessed, No Diagnosis, Care Plan, ID=NoscreRefNoasseNodxCp, DOB: 14 May 1950"}]},"request":{"method":"PUT","url":"Patient/4df1538c-c20f-444c-a679-15de516ee684"}},{"fullUrl":"https://madie.cms.gov/Encounter/f528d62c-81fa-4124-a80a-c9ca4f7f2508","resource":{"resourceType":"Encounter","id":"f528d62c-81fa-4124-a80a-c9ca4f7f2508","meta":{"profile":["http://hl7.org/fhir/us/qicore/StructureDefinition/qicore-encounter"]},"status":"finished","class":{"system":"http://terminology.hl7.org/CodeSystem/v3-ActCode","code":"IMP","display":"inpatient encounter"},"type":[{"coding":[{"system":"http://snomed.info/sct","code":"183452005"}]}],"subject":{"reference":"Patient/4df1538c-c20f-444c-a679-15de516ee684"},"period":{"start":"2026-03-01T08:00:00.000+00:00","end":"2026-03-05T08:15:00.000+00:00"}},"request":{"method":"PUT","url":"Encounter/f528d62c-81fa-4124-a80a-c9ca4f7f2508"}},{"fullUrl":"https://madie.cms.gov/Procedure/dcf18ac4-f2ba-4cf6-9fe2-132e586b16d8","resource":{"resourceType":"Procedure","id":"dcf18ac4-f2ba-4cf6-9fe2-132e586b16d8","meta":{"profile":["http://hl7.org/fhir/us/qicore/StructureDefinition/qicore-procedure"]},"extension":[{"url":"http://hl7.org/fhir/us/qicore/StructureDefinition/qicore-recorded","valueDateTime":"2026-02-01T11:30:00.000+00:00"}],"status":"completed","code":{"coding":[{"system":"http://snomed.info/sct","code":"306165000","display":"Referral to hospital-based dietetics service (procedure)"}],"text":"Referral to hospital-based dietetics service (procedure)"},"subject":{"reference":"Patient/4df1538c-c20f-444c-a679-15de516ee684"},"encounter":{"reference":"Encounter/NoscreRefNoasseNodxCpMSROBSPass2"},"performedPeriod":{"start":"2026-03-01T11:30:00.000+00:00","end":"2026-03-05T08:15:00.000+00:00"}},"request":{"method":"PUT","url":"Procedure/dcf18ac4-f2ba-4cf6-9fe2-132e586b16d8"}},{"fullUrl":"https://madie.cms.gov/Procedure/2d5b3505-041a-491d-bf23-30894fe29af8","resource":{"resourceType":"Procedure","id":"2d5b3505-041a-491d-bf23-30894fe29af8","meta":{"profile":["http://hl7.org/fhir/us/qicore/StructureDefinition/qicore-procedure"]},"extension":[{"url":"http://hl7.org/fhir/us/qicore/StructureDefinition/qicore-recorded","valueDateTime":"2026-02-02T11:30:00.000+00:00"}],"status":"completed","code":{"coding":[{"system":"http://snomed.info/sct","code":"410172000","display":"Nutrition care management (procedure)"}],"text":"Nutrition care management (procedure)"},"subject":{"reference":"Patient/4df1538c-c20f-444c-a679-15de516ee684"},"encounter":{"reference":"Encounter/NoscreRefNoasseNodxCpMSROBSPass2"},"performedPeriod":{"start":"2026-03-01T11:30:00.000+00:00","end":"2026-03-05T08:15:00.000+00:00"}},"request":{"method":"PUT","url":"Procedure/2d5b3505-041a-491d-bf23-30894fe29af8"}},{"fullUrl":"https://madie.cms.gov/Coverage/5fc41b6e-52c0-41ae-b644-0d1b748bbd8e","resource":{"resourceType":"Coverage","id":"5fc41b6e-52c0-41ae-b644-0d1b748bbd8e","meta":{"profile":["http://hl7.org/fhir/us/qicore/StructureDefinition/qicore-coverage"]},"status":"active","type":{"coding":[{"system":"https://nahdo.org/sopt","version":"9.2","code":"11","display":"Medicare Managed Care (Includes Medicare Advantage Plans)"}]},"subscriberId":"97531","beneficiary":{"reference":"Patient/4df1538c-c20f-444c-a679-15de516ee684"},"dependent":"0","relationship":{"coding":[{"system":"http://terminology.hl7.org/CodeSystem/subscriber-relationship","code":"self"}]},"period":{"start":"2025-10-01T00:00:00.000+00:00"},"payor":[{"reference":"Organization/57a3a5ec-43b4-420c-9457-0dcb54ca3a43"}]},"request":{"method":"PUT","url":"Coverage/5fc41b6e-52c0-41ae-b644-0d1b748bbd8e"}},{"fullUrl":"https://madie.cms.gov/Organization/57a3a5ec-43b4-420c-9457-0dcb54ca3a43","resource":{"resourceType":"Organization","id":"57a3a5ec-43b4-420c-9457-0dcb54ca3a43","meta":{"profile":["http://hl7.org/fhir/us/qicore/StructureDefinition/qicore-organization"]},"identifier":[{"use":"temp","system":"urn:oid:2.16.840.1.113883.4.4","value":"21-3259825"}],"active":true,"type":[{"coding":[{"system":"http://terminology.hl7.org/CodeSystem/organization-type","code":"pay","display":"Payer"}]}],"name":"Blue Cross Blue Shield of Texas","telecom":[{"system":"phone","value":"(+1) 972-766-6900"}],"address":[{"use":"billing","type":"postal","line":["P.O. Box 660044"],"city":"Dallas","state":"TX","postalCode":"75266-0044","country":"USA"}]},"request":{"method":"PUT","url":"Organization/57a3a5ec-43b4-420c-9457-0dcb54ca3a43"}},{"fullUrl":"https://madie.cms.gov/MeasureReport/1dd06ac7-3477-41df-b45a-505ba9058e65","resource":{"resourceType":"MeasureReport","id":"1dd06ac7-3477-41df-b45a-505ba9058e65","meta":{"profile":["http://hl7.org/fhir/us/cqfmeasures/StructureDefinition/test-case-cqfm"]},"contained":[{"resourceType":"Parameters","id":"436fac5a-ef6a-4235-bdbb-ad5f3e57d8d1-parameters","parameter":[{"name":"subject","valueString":"4df1538c-c20f-444c-a679-15de516ee684"}]}],"extension":[{"url":"http://hl7.org/fhir/StructureDefinition/cqf-inputParameters","valueReference":{"reference":"#436fac5a-ef6a-4235-bdbb-ad5f3e57d8d1-parameters"}},{"url":"http://hl7.org/fhir/us/cqfmeasures/StructureDefinition/cqfm-testCaseDescription","valueMarkdown":"Not screened, Referral, Not Assessed, No Diagnosis, Nutrition Care Plan"}],"modifierExtension":[{"url":"http://hl7.org/fhir/us/cqfmeasures/StructureDefinition/cqfm-isTestCase","valueBoolean":true}],"status":"complete","type":"individual","measure":"https://madie.cms.gov/Measure/CMS986FHIRMalnutritionScore","period":{"start":"2026-01-01","end":"2026-12-31"},"group":[{"id":"Group_1","population":[{"id":"InitialPopulation_1","code":{"coding":[{"system":"http://terminology.hl7.org/CodeSystem/measure-population","code":"initial-population","display":"Initial Population"}]},"count":1},{"id":"MeasurePopulation_1","code":{"coding":[{"system":"http://terminology.hl7.org/CodeSystem/measure-population","code":"measure-population","display":"Measure Population"}]},"count":1},{"id":"MeasurePopulationExclusion_1","code":{"coding":[{"system":"http://terminology.hl7.org/CodeSystem/measure-population","code":"measure-population-exclusion","display":"Measure Population Exclusion"}]},"count":0},{"id":"MeasureObservation_1_1","code":{"coding":[{"system":"http://terminology.hl7.org/CodeSystem/measure-population","code":"measure-population-observation","display":"Measure Population Observation"}]},"count":1}],"measureScore":{"value":0.0}},{"id":"Group_2","population":[{"id":"InitialPopulation_2","code":{"coding":[{"system":"http://terminology.hl7.org/CodeSystem/measure-population","code":"initial-population","display":"Initial Population"}]},"count":1},{"id":"MeasurePopulation_2","code":{"coding":[{"system":"http://terminology.hl7.org/CodeSystem/measure-population","code":"measure-population","display":"Measure Population"}]},"count":1},{"id":"MeasurePopulationExclusion_2","code":{"coding":[{"system":"http://terminology.hl7.org/CodeSystem/measure-population","code":"measure-population-exclusion","display":"Measure Population Exclusion"}]},"count":0},{"id":"MeasureObservation_2_1","code":{"coding":[{"system":"http://terminology.hl7.org/CodeSystem/measure-population","code":"measure-population-observation","display":"Measure Population Observation"}]},"count":0}],"measureScore":{"value":0.0}},{"id":"Group_3","population":[{"id":"InitialPopulation_3","code":{"coding":[{"system":"http://terminology.hl7.org/CodeSystem/measure-population","code":"initial-population","display":"Initial Population"}]},"count":1},{"id":"MeasurePopulation_3","code":{"coding":[{"system":"http://terminology.hl7.org/CodeSystem/measure-population","code":"measure-population","display":"Measure Population"}]},"count":1},{"id":"MeasurePopulationExclusion_3","code":{"coding":[{"system":"http://terminology.hl7.org/CodeSystem/measure-population","code":"measure-population-exclusion","display":"Measure Population Exclusion"}]},"count":0},{"id":"MeasureObservation_3_1","code":{"coding":[{"system":"http://terminology.hl7.org/CodeSystem/measure-population","code":"measure-population-observation","display":"Measure Population Observation"}]},"count":0}],"measureScore":{"value":0.0}},{"id":"Group_4","population":[{"id":"InitialPopulation_4","code":{"coding":[{"system":"http://terminology.hl7.org/CodeSystem/measure-population","code":"initial-population","display":"Initial Population"}]},"count":1},{"id":"MeasurePopulation_4","code":{"coding":[{"system":"http://terminology.hl7.org/CodeSystem/measure-population","code":"measure-population","display":"Measure Population"}]},"count":1},{"id":"MeasurePopulationExclusion_4","code":{"coding":[{"system":"http://terminology.hl7.org/CodeSystem/measure-population","code":"measure-population-exclusion","display":"Measure Population Exclusion"}]},"count":0},{"id":"MeasureObservation_4_1","code":{"coding":[{"system":"http://terminology.hl7.org/CodeSystem/measure-population","code":"measure-population-observation","display":"Measure Population Observation"}]},"count":0}],"measureScore":{"value":0.0}},{"id":"Group_5","population":[{"id":"InitialPopulation_5","code":{"coding":[{"system":"http://terminology.hl7.org/CodeSystem/measure-population","code":"initial-population","display":"Initial Population"}]},"count":1},{"id":"MeasurePopulation_5","code":{"coding":[{"system":"http://terminology.hl7.org/CodeSystem/measure-population","code":"measure-population","display":"Measure Population"}]},"count":1},{"id":"MeasurePopulationExclusion_5","code":{"coding":[{"system":"http://terminology.hl7.org/CodeSystem/measure-population","code":"measure-population-exclusion","display":"Measure Population Exclusion"}]},"count":0},{"id":"MeasureObservation_5_1","code":{"coding":[{"system":"http://terminology.hl7.org/CodeSystem/measure-population","code":"measure-population-observation","display":"Measure Population Observation"}]},"count":1}],"measureScore":{"value":0.0}},{"id":"Group_6","population":[{"id":"InitialPopulation_6","code":{"coding":[{"system":"http://terminology.hl7.org/CodeSystem/measure-population","code":"initial-population","display":"Initial Population"}]},"count":1},{"id":"MeasurePopulation_6","code":{"coding":[{"system":"http://terminology.hl7.org/CodeSystem/measure-population","code":"measure-population","display":"Measure Population"}]},"count":1},{"id":"MeasurePopulationExclusion_6","code":{"coding":[{"system":"http://terminology.hl7.org/CodeSystem/measure-population","code":"measure-population-exclusion","display":"Measure Population Exclusion"}]},"count":0},{"id":"MeasureObservation_6_1","code":{"coding":[{"system":"http://terminology.hl7.org/CodeSystem/measure-population","code":"measure-population-observation","display":"Measure Population Observation"}]},"count":50}],"measureScore":{"value":0.0}}],"evaluatedResource":[{"reference":"Patient/4df1538c-c20f-444c-a679-15de516ee684"},{"reference":"Encounter/f528d62c-81fa-4124-a80a-c9ca4f7f2508"},{"reference":"Procedure/dcf18ac4-f2ba-4cf6-9fe2-132e586b16d8"},{"reference":"Procedure/2d5b3505-041a-491d-bf23-30894fe29af8"},{"reference":"Coverage/5fc41b6e-52c0-41ae-b644-0d1b748bbd8e"},{"reference":"Organization/57a3a5ec-43b4-420c-9457-0dcb54ca3a43"}]},"request":{"method":"PUT","url":"MeasureReport/1dd06ac7-3477-41df-b45a-505ba9058e65"}}]},"request":{"method":"PUT","url":"Bundle/NoscreRefNoasseNodxCp"}}]}