{"resourceType":"Bundle","id":"tests-b625bf76-24fe-4114-a609-434271f750ec-bundle","type":"transaction","entry":[{"fullUrl":"Procedure/6e57b904-9930-471e-aa37-5280d45cd408","resource":{"resourceType":"Procedure","id":"6e57b904-9930-471e-aa37-5280d45cd408","meta":{"profile":["http://hl7.org/fhir/us/qicore/StructureDefinition/qicore-procedure"]},"extension":[{"url":"http://hl7.org/fhir/us/qicore/StructureDefinition/qicore-recorded","valueDateTime":"2025-06-20T11:30:00.000+00:00"}],"status":"completed","code":{"coding":[{"system":"http://snomed.info/sct","code":"306354000","display":"Referral to hospital-based dietitian (procedure)"}],"text":"Referral to hospital-based dietitian (procedure)"},"subject":{"reference":"Patient/b625bf76-24fe-4114-a609-434271f750ec"},"encounter":{"reference":"Encounter/ScreAtriRefAsseDxNocpMSROBSPass4"},"performedPeriod":{"start":"2026-06-20T11:30:00.000+00:00","end":"2026-06-24T08:15:00.000+00:00"}},"request":{"method":"PUT","url":"Procedure/6e57b904-9930-471e-aa37-5280d45cd408"}},{"fullUrl":"Coverage/f0b9991f-defb-417a-9c24-b1c5e3853e9d","resource":{"resourceType":"Coverage","id":"f0b9991f-defb-417a-9c24-b1c5e3853e9d","meta":{"profile":["http://hl7.org/fhir/us/qicore/StructureDefinition/qicore-coverage"]},"status":"active","type":{"coding":[{"system":"https://nahdo.org/sopt","version":"9.2","code":"11","display":"Medicare Managed Care (Includes Medicare Advantage Plans)"}]},"subscriberId":"97531","beneficiary":{"reference":"Patient/b625bf76-24fe-4114-a609-434271f750ec"},"dependent":"0","relationship":{"coding":[{"system":"http://terminology.hl7.org/CodeSystem/subscriber-relationship","code":"self"}]},"period":{"start":"2024-10-01T00:00:00.000+00:00"},"payor":[{"reference":"Organization/2f238f38-44df-4e80-8082-5d7ce1b1ba63"}]},"request":{"method":"PUT","url":"Coverage/f0b9991f-defb-417a-9c24-b1c5e3853e9d"}},{"fullUrl":"MeasureReport/eb7f1525-86f9-42d0-9dad-4ced4083583c","resource":{"resourceType":"MeasureReport","id":"eb7f1525-86f9-42d0-9dad-4ced4083583c","meta":{"profile":["http://hl7.org/fhir/us/cqfmeasures/StructureDefinition/test-case-cqfm"]},"contained":[{"resourceType":"Parameters","id":"9949a526-8ded-4e0c-8af2-a954aca530f7-parameters","parameter":[{"name":"subject","valueString":"b625bf76-24fe-4114-a609-434271f750ec"}]}],"extension":[{"url":"http://hl7.org/fhir/StructureDefinition/cqf-inputParameters","valueReference":{"reference":"#9949a526-8ded-4e0c-8af2-a954aca530f7-parameters"}},{"url":"http://hl7.org/fhir/us/cqfmeasures/StructureDefinition/cqfm-testCaseDescription","valueMarkdown":"Screened, At Risk, Referral, Assessed, Severely Malnourished, Diagnosis, No Nutrition Care Plan"}],"modifierExtension":[{"url":"http://hl7.org/fhir/us/cqfmeasures/StructureDefinition/cqfm-isTestCase","valueBoolean":true}],"status":"complete","type":"individual","measure":"https://madie.cms.gov/Measure/CMS986FHIRMalnutritionScore","period":{"start":"2026-01-01","end":"2026-12-31"},"group":[{"id":"Group_1","population":[{"id":"InitialPopulation_1","code":{"coding":[{"system":"http://terminology.hl7.org/CodeSystem/measure-population","code":"initial-population","display":"Initial Population"}]},"count":1},{"id":"MeasurePopulation_1","code":{"coding":[{"system":"http://terminology.hl7.org/CodeSystem/measure-population","code":"measure-population","display":"Measure Population"}]},"count":1},{"id":"MeasurePopulationExclusion_1","code":{"coding":[{"system":"http://terminology.hl7.org/CodeSystem/measure-population","code":"measure-population-exclusion","display":"Measure Population Exclusion"}]},"count":0},{"id":"MeasureObservation_1_1","code":{"coding":[{"system":"http://terminology.hl7.org/CodeSystem/measure-population","code":"measure-population-observation","display":"Measure Population Observation"}]},"count":1}],"measureScore":{"value":0.0}},{"id":"Group_2","population":[{"id":"InitialPopulation_2","code":{"coding":[{"system":"http://terminology.hl7.org/CodeSystem/measure-population","code":"initial-population","display":"Initial Population"}]},"count":1},{"id":"MeasurePopulation_2","code":{"coding":[{"system":"http://terminology.hl7.org/CodeSystem/measure-population","code":"measure-population","display":"Measure Population"}]},"count":1},{"id":"MeasurePopulationExclusion_2","code":{"coding":[{"system":"http://terminology.hl7.org/CodeSystem/measure-population","code":"measure-population-exclusion","display":"Measure Population Exclusion"}]},"count":0},{"id":"MeasureObservation_2_1","code":{"coding":[{"system":"http://terminology.hl7.org/CodeSystem/measure-population","code":"measure-population-observation","display":"Measure Population Observation"}]},"count":1}],"measureScore":{"value":0.0}},{"id":"Group_3","population":[{"id":"InitialPopulation_3","code":{"coding":[{"system":"http://terminology.hl7.org/CodeSystem/measure-population","code":"initial-population","display":"Initial Population"}]},"count":1},{"id":"MeasurePopulation_3","code":{"coding":[{"system":"http://terminology.hl7.org/CodeSystem/measure-population","code":"measure-population","display":"Measure Population"}]},"count":1},{"id":"MeasurePopulationExclusion_3","code":{"coding":[{"system":"http://terminology.hl7.org/CodeSystem/measure-population","code":"measure-population-exclusion","display":"Measure Population Exclusion"}]},"count":0},{"id":"MeasureObservation_3_1","code":{"coding":[{"system":"http://terminology.hl7.org/CodeSystem/measure-population","code":"measure-population-observation","display":"Measure Population Observation"}]},"count":1}],"measureScore":{"value":0.0}},{"id":"Group_4","population":[{"id":"InitialPopulation_4","code":{"coding":[{"system":"http://terminology.hl7.org/CodeSystem/measure-population","code":"initial-population","display":"Initial Population"}]},"count":1},{"id":"MeasurePopulation_4","code":{"coding":[{"system":"http://terminology.hl7.org/CodeSystem/measure-population","code":"measure-population","display":"Measure Population"}]},"count":1},{"id":"MeasurePopulationExclusion_4","code":{"coding":[{"system":"http://terminology.hl7.org/CodeSystem/measure-population","code":"measure-population-exclusion","display":"Measure Population Exclusion"}]},"count":0},{"id":"MeasureObservation_4_1","code":{"coding":[{"system":"http://terminology.hl7.org/CodeSystem/measure-population","code":"measure-population-observation","display":"Measure Population Observation"}]},"count":0}],"measureScore":{"value":0.0}},{"id":"Group_5","population":[{"id":"InitialPopulation_5","code":{"coding":[{"system":"http://terminology.hl7.org/CodeSystem/measure-population","code":"initial-population","display":"Initial Population"}]},"count":1},{"id":"MeasurePopulation_5","code":{"coding":[{"system":"http://terminology.hl7.org/CodeSystem/measure-population","code":"measure-population","display":"Measure Population"}]},"count":1},{"id":"MeasurePopulationExclusion_5","code":{"coding":[{"system":"http://terminology.hl7.org/CodeSystem/measure-population","code":"measure-population-exclusion","display":"Measure Population Exclusion"}]},"count":0},{"id":"MeasureObservation_5_1","code":{"coding":[{"system":"http://terminology.hl7.org/CodeSystem/measure-population","code":"measure-population-observation","display":"Measure Population Observation"}]},"count":3}],"measureScore":{"value":0.0}},{"id":"Group_6","population":[{"id":"InitialPopulation_6","code":{"coding":[{"system":"http://terminology.hl7.org/CodeSystem/measure-population","code":"initial-population","display":"Initial Population"}]},"count":1},{"id":"MeasurePopulation_6","code":{"coding":[{"system":"http://terminology.hl7.org/CodeSystem/measure-population","code":"measure-population","display":"Measure Population"}]},"count":1},{"id":"MeasurePopulationExclusion_6","code":{"coding":[{"system":"http://terminology.hl7.org/CodeSystem/measure-population","code":"measure-population-exclusion","display":"Measure Population Exclusion"}]},"count":0},{"id":"MeasureObservation_6_1","code":{"coding":[{"system":"http://terminology.hl7.org/CodeSystem/measure-population","code":"measure-population-observation","display":"Measure Population Observation"}]},"count":75}],"measureScore":{"value":0.0}}],"evaluatedResource":[{"reference":"Patient/b625bf76-24fe-4114-a609-434271f750ec"},{"reference":"Encounter/21c3843d-89d3-4ac1-9528-304bd9fa4cd0"},{"reference":"Condition/ef57157d-371f-4341-86aa-4d2032ea8301"},{"reference":"Observation/b60e4cee-0fd6-4b85-a4a4-d593a50c45d4"},{"reference":"Observation/b4f363b2-544a-4c39-af31-8ddd1179587c"},{"reference":"Procedure/6e57b904-9930-471e-aa37-5280d45cd408"},{"reference":"Coverage/f0b9991f-defb-417a-9c24-b1c5e3853e9d"},{"reference":"Organization/2f238f38-44df-4e80-8082-5d7ce1b1ba63"}]},"request":{"method":"PUT","url":"MeasureReport/eb7f1525-86f9-42d0-9dad-4ced4083583c"}},{"fullUrl":"Patient/b625bf76-24fe-4114-a609-434271f750ec","resource":{"resourceType":"Patient","id":"b625bf76-24fe-4114-a609-434271f750ec","meta":{"profile":["http://hl7.org/fhir/us/qicore/StructureDefinition/qicore-patient"]},"extension":[{"url":"http://hl7.org/fhir/us/core/StructureDefinition/us-core-race","extension":[{"url":"ombCategory","valueCoding":{"system":"urn:oid:2.16.840.1.113883.6.238","code":"1002-5","display":"American Indian or Alaska Native","userSelected":true}},{"url":"text","valueString":"American Indian or Alaska Native"}]},{"url":"http://hl7.org/fhir/us/core/StructureDefinition/us-core-ethnicity","extension":[{"url":"ombCategory","valueCoding":{"system":"urn:oid:2.16.840.1.113883.6.238","code":"2135-2","display":"Hispanic or Latino","userSelected":true}},{"url":"text","valueString":"Hispanic or Latino"}]},{"url":"http://hl7.org/fhir/us/core/StructureDefinition/us-core-sex","valueCode":"248153007"}],"identifier":[{"type":{"coding":[{"system":"http://terminology.hl7.org/CodeSystem/v2-0203","code":"MR"}]},"system":"https://madie.cms.gov/","value":"ScreAtriRefAsseDxNocp"}],"active":true,"name":[{"use":"usual","text":"ScreAtriRefAsseDxNocp","family":"MSROBSPass4","given":["ScreAtriRefAsseDxNocp"]}],"gender":"male","birthDate":"1947-01-01","address":[{"text":"ScreAtriRefAsseDxNocp, Screened Not at risk Assessed Severely Malnourished Diagnosed Care Plan, ID=ScreAtriRefAsseDxNocp, DOB: 01 Jan 1947"}]},"request":{"method":"PUT","url":"Patient/b625bf76-24fe-4114-a609-434271f750ec"}},{"fullUrl":"Bundle/ScreAtriRefAsseDxNocp","resource":{"resourceType":"Bundle","id":"ScreAtriRefAsseDxNocp","type":"transaction","entry":[{"fullUrl":"https://madie.cms.gov/Patient/b625bf76-24fe-4114-a609-434271f750ec","resource":{"resourceType":"Patient","id":"b625bf76-24fe-4114-a609-434271f750ec","meta":{"profile":["http://hl7.org/fhir/us/qicore/StructureDefinition/qicore-patient"]},"extension":[{"url":"http://hl7.org/fhir/us/core/StructureDefinition/us-core-race","extension":[{"url":"ombCategory","valueCoding":{"system":"urn:oid:2.16.840.1.113883.6.238","code":"1002-5","display":"American Indian or Alaska Native","userSelected":true}},{"url":"text","valueString":"American Indian or Alaska Native"}]},{"url":"http://hl7.org/fhir/us/core/StructureDefinition/us-core-ethnicity","extension":[{"url":"ombCategory","valueCoding":{"system":"urn:oid:2.16.840.1.113883.6.238","code":"2135-2","display":"Hispanic or Latino","userSelected":true}},{"url":"text","valueString":"Hispanic or Latino"}]},{"url":"http://hl7.org/fhir/us/core/StructureDefinition/us-core-sex","valueCode":"248153007"}],"identifier":[{"type":{"coding":[{"system":"http://terminology.hl7.org/CodeSystem/v2-0203","code":"MR"}]},"system":"https://madie.cms.gov/","value":"ScreAtriRefAsseDxNocp"}],"active":true,"name":[{"use":"usual","text":"ScreAtriRefAsseDxNocp","family":"MSROBSPass4","given":["ScreAtriRefAsseDxNocp"]}],"gender":"male","birthDate":"1947-01-01","address":[{"text":"ScreAtriRefAsseDxNocp, Screened Not at risk Assessed Severely Malnourished Diagnosed Care Plan, ID=ScreAtriRefAsseDxNocp, DOB: 01 Jan 1947"}]},"request":{"method":"PUT","url":"Patient/b625bf76-24fe-4114-a609-434271f750ec"}},{"fullUrl":"https://madie.cms.gov/Encounter/21c3843d-89d3-4ac1-9528-304bd9fa4cd0","resource":{"resourceType":"Encounter","id":"21c3843d-89d3-4ac1-9528-304bd9fa4cd0","meta":{"profile":["http://hl7.org/fhir/us/qicore/StructureDefinition/qicore-encounter"]},"status":"finished","class":{"system":"http://terminology.hl7.org/CodeSystem/v3-ActCode","code":"IMP","display":"inpatient encounter"},"type":[{"coding":[{"system":"http://snomed.info/sct","code":"183452005"}]}],"subject":{"reference":"Patient/b625bf76-24fe-4114-a609-434271f750ec"},"period":{"start":"2026-06-20T08:00:00.000+00:00","end":"2026-06-24T08:15:00.000+00:00"},"reasonReference":[{"reference":"Condition/ef57157d-371f-4341-86aa-4d2032ea8301"}]},"request":{"method":"PUT","url":"Encounter/21c3843d-89d3-4ac1-9528-304bd9fa4cd0"}},{"fullUrl":"https://madie.cms.gov/Condition/ef57157d-371f-4341-86aa-4d2032ea8301","resource":{"resourceType":"Condition","id":"ef57157d-371f-4341-86aa-4d2032ea8301","meta":{"profile":["http://hl7.org/fhir/us/qicore/StructureDefinition/qicore-condition-encounter-diagnosis"]},"clinicalStatus":{"coding":[{"system":"http://terminology.hl7.org/CodeSystem/condition-clinical","code":"active","display":"Active","userSelected":true}]},"verificationStatus":{"coding":[{"system":"http://terminology.hl7.org/CodeSystem/condition-ver-status","code":"confirmed","display":"Confirmed","userSelected":true}]},"category":[{"coding":[{"system":"http://terminology.hl7.org/CodeSystem/condition-category","code":"encounter-diagnosis","display":"Encounter Diagnosis","userSelected":true}]}],"code":{"coding":[{"system":"http://hl7.org/fhir/sid/icd-10-cm","code":"E46","display":"Unspecified protein-calorie malnutrition","userSelected":true}]},"subject":{"reference":"Patient/b625bf76-24fe-4114-a609-434271f750ec"},"onsetPeriod":{"start":"2026-06-20T08:00:00.000+00:00"},"recordedDate":"2026-06-20T11:00:00.000+00:00"},"request":{"method":"PUT","url":"Condition/ef57157d-371f-4341-86aa-4d2032ea8301"}},{"fullUrl":"https://madie.cms.gov/Observation/b60e4cee-0fd6-4b85-a4a4-d593a50c45d4","resource":{"resourceType":"Observation","id":"b60e4cee-0fd6-4b85-a4a4-d593a50c45d4","meta":{"profile":["http://hl7.org/fhir/us/qicore/StructureDefinition/qicore-observation-screening-assessment"]},"status":"final","category":[{"coding":[{"system":"http://terminology.hl7.org/CodeSystem/observation-category","code":"survey","display":"Survey"}]}],"code":{"coding":[{"system":"http://loinc.org","code":"98967-3","display":"Nutritional Risk Screening 2002 panel","userSelected":true}]},"subject":{"reference":"Patient/b625bf76-24fe-4114-a609-434271f750ec"},"effectiveDateTime":"2026-06-20T09:00:00.000+00:00","valueCodeableConcept":{"coding":[{"system":"http://snomed.info/sct","code":"704361005","display":"At increased risk of deficient food intake (finding)","userSelected":true}]}},"request":{"method":"PUT","url":"Observation/b60e4cee-0fd6-4b85-a4a4-d593a50c45d4"}},{"fullUrl":"https://madie.cms.gov/Observation/b4f363b2-544a-4c39-af31-8ddd1179587c","resource":{"resourceType":"Observation","id":"b4f363b2-544a-4c39-af31-8ddd1179587c","meta":{"profile":["http://hl7.org/fhir/us/qicore/StructureDefinition/qicore-observation-screening-assessment"]},"status":"final","category":[{"coding":[{"system":"http://terminology.hl7.org/CodeSystem/observation-category","code":"survey","display":"Survey"}]}],"code":{"coding":[{"system":"http://loinc.org","code":"75303-8","display":"Nutrition assessment narrative","userSelected":true}]},"subject":{"reference":"Patient/b625bf76-24fe-4114-a609-434271f750ec"},"effectiveDateTime":"2026-06-20T10:00:00.000+00:00","valueCodeableConcept":{"coding":[{"system":"http://snomed.info/sct","code":"272588001","display":"Malnutrition (calorie) (disorder)","userSelected":true}]}},"request":{"method":"PUT","url":"Observation/b4f363b2-544a-4c39-af31-8ddd1179587c"}},{"fullUrl":"https://madie.cms.gov/Procedure/6e57b904-9930-471e-aa37-5280d45cd408","resource":{"resourceType":"Procedure","id":"6e57b904-9930-471e-aa37-5280d45cd408","meta":{"profile":["http://hl7.org/fhir/us/qicore/StructureDefinition/qicore-procedure"]},"extension":[{"url":"http://hl7.org/fhir/us/qicore/StructureDefinition/qicore-recorded","valueDateTime":"2025-06-20T11:30:00.000+00:00"}],"status":"completed","code":{"coding":[{"system":"http://snomed.info/sct","code":"306354000","display":"Referral to hospital-based dietitian (procedure)"}],"text":"Referral to hospital-based dietitian (procedure)"},"subject":{"reference":"Patient/b625bf76-24fe-4114-a609-434271f750ec"},"encounter":{"reference":"Encounter/ScreAtriRefAsseDxNocpMSROBSPass4"},"performedPeriod":{"start":"2026-06-20T11:30:00.000+00:00","end":"2026-06-24T08:15:00.000+00:00"}},"request":{"method":"PUT","url":"Procedure/6e57b904-9930-471e-aa37-5280d45cd408"}},{"fullUrl":"https://madie.cms.gov/Coverage/f0b9991f-defb-417a-9c24-b1c5e3853e9d","resource":{"resourceType":"Coverage","id":"f0b9991f-defb-417a-9c24-b1c5e3853e9d","meta":{"profile":["http://hl7.org/fhir/us/qicore/StructureDefinition/qicore-coverage"]},"status":"active","type":{"coding":[{"system":"https://nahdo.org/sopt","version":"9.2","code":"11","display":"Medicare Managed Care (Includes Medicare Advantage Plans)"}]},"subscriberId":"97531","beneficiary":{"reference":"Patient/b625bf76-24fe-4114-a609-434271f750ec"},"dependent":"0","relationship":{"coding":[{"system":"http://terminology.hl7.org/CodeSystem/subscriber-relationship","code":"self"}]},"period":{"start":"2024-10-01T00:00:00.000+00:00"},"payor":[{"reference":"Organization/2f238f38-44df-4e80-8082-5d7ce1b1ba63"}]},"request":{"method":"PUT","url":"Coverage/f0b9991f-defb-417a-9c24-b1c5e3853e9d"}},{"fullUrl":"https://madie.cms.gov/Organization/2f238f38-44df-4e80-8082-5d7ce1b1ba63","resource":{"resourceType":"Organization","id":"2f238f38-44df-4e80-8082-5d7ce1b1ba63","meta":{"profile":["http://hl7.org/fhir/us/qicore/StructureDefinition/qicore-organization"]},"identifier":[{"use":"temp","system":"urn:oid:2.16.840.1.113883.4.4","value":"21-3259825"}],"active":true,"type":[{"coding":[{"system":"http://terminology.hl7.org/CodeSystem/organization-type","code":"pay","display":"Payer"}]}],"name":"Blue Cross Blue Shield of Texas","telecom":[{"system":"phone","value":"(+1) 972-766-6900"}],"address":[{"use":"billing","type":"postal","line":["P.O. Box 660044"],"city":"Dallas","state":"TX","postalCode":"75266-0044","country":"USA"}]},"request":{"method":"PUT","url":"Organization/2f238f38-44df-4e80-8082-5d7ce1b1ba63"}},{"fullUrl":"https://madie.cms.gov/MeasureReport/eb7f1525-86f9-42d0-9dad-4ced4083583c","resource":{"resourceType":"MeasureReport","id":"eb7f1525-86f9-42d0-9dad-4ced4083583c","meta":{"profile":["http://hl7.org/fhir/us/cqfmeasures/StructureDefinition/test-case-cqfm"]},"contained":[{"resourceType":"Parameters","id":"9949a526-8ded-4e0c-8af2-a954aca530f7-parameters","parameter":[{"name":"subject","valueString":"b625bf76-24fe-4114-a609-434271f750ec"}]}],"extension":[{"url":"http://hl7.org/fhir/StructureDefinition/cqf-inputParameters","valueReference":{"reference":"#9949a526-8ded-4e0c-8af2-a954aca530f7-parameters"}},{"url":"http://hl7.org/fhir/us/cqfmeasures/StructureDefinition/cqfm-testCaseDescription","valueMarkdown":"Screened, At Risk, Referral, Assessed, Severely Malnourished, Diagnosis, No Nutrition Care Plan"}],"modifierExtension":[{"url":"http://hl7.org/fhir/us/cqfmeasures/StructureDefinition/cqfm-isTestCase","valueBoolean":true}],"status":"complete","type":"individual","measure":"https://madie.cms.gov/Measure/CMS986FHIRMalnutritionScore","period":{"start":"2026-01-01","end":"2026-12-31"},"group":[{"id":"Group_1","population":[{"id":"InitialPopulation_1","code":{"coding":[{"system":"http://terminology.hl7.org/CodeSystem/measure-population","code":"initial-population","display":"Initial Population"}]},"count":1},{"id":"MeasurePopulation_1","code":{"coding":[{"system":"http://terminology.hl7.org/CodeSystem/measure-population","code":"measure-population","display":"Measure Population"}]},"count":1},{"id":"MeasurePopulationExclusion_1","code":{"coding":[{"system":"http://terminology.hl7.org/CodeSystem/measure-population","code":"measure-population-exclusion","display":"Measure Population Exclusion"}]},"count":0},{"id":"MeasureObservation_1_1","code":{"coding":[{"system":"http://terminology.hl7.org/CodeSystem/measure-population","code":"measure-population-observation","display":"Measure Population Observation"}]},"count":1}],"measureScore":{"value":0.0}},{"id":"Group_2","population":[{"id":"InitialPopulation_2","code":{"coding":[{"system":"http://terminology.hl7.org/CodeSystem/measure-population","code":"initial-population","display":"Initial Population"}]},"count":1},{"id":"MeasurePopulation_2","code":{"coding":[{"system":"http://terminology.hl7.org/CodeSystem/measure-population","code":"measure-population","display":"Measure Population"}]},"count":1},{"id":"MeasurePopulationExclusion_2","code":{"coding":[{"system":"http://terminology.hl7.org/CodeSystem/measure-population","code":"measure-population-exclusion","display":"Measure Population Exclusion"}]},"count":0},{"id":"MeasureObservation_2_1","code":{"coding":[{"system":"http://terminology.hl7.org/CodeSystem/measure-population","code":"measure-population-observation","display":"Measure Population Observation"}]},"count":1}],"measureScore":{"value":0.0}},{"id":"Group_3","population":[{"id":"InitialPopulation_3","code":{"coding":[{"system":"http://terminology.hl7.org/CodeSystem/measure-population","code":"initial-population","display":"Initial Population"}]},"count":1},{"id":"MeasurePopulation_3","code":{"coding":[{"system":"http://terminology.hl7.org/CodeSystem/measure-population","code":"measure-population","display":"Measure Population"}]},"count":1},{"id":"MeasurePopulationExclusion_3","code":{"coding":[{"system":"http://terminology.hl7.org/CodeSystem/measure-population","code":"measure-population-exclusion","display":"Measure Population Exclusion"}]},"count":0},{"id":"MeasureObservation_3_1","code":{"coding":[{"system":"http://terminology.hl7.org/CodeSystem/measure-population","code":"measure-population-observation","display":"Measure Population Observation"}]},"count":1}],"measureScore":{"value":0.0}},{"id":"Group_4","population":[{"id":"InitialPopulation_4","code":{"coding":[{"system":"http://terminology.hl7.org/CodeSystem/measure-population","code":"initial-population","display":"Initial Population"}]},"count":1},{"id":"MeasurePopulation_4","code":{"coding":[{"system":"http://terminology.hl7.org/CodeSystem/measure-population","code":"measure-population","display":"Measure Population"}]},"count":1},{"id":"MeasurePopulationExclusion_4","code":{"coding":[{"system":"http://terminology.hl7.org/CodeSystem/measure-population","code":"measure-population-exclusion","display":"Measure Population Exclusion"}]},"count":0},{"id":"MeasureObservation_4_1","code":{"coding":[{"system":"http://terminology.hl7.org/CodeSystem/measure-population","code":"measure-population-observation","display":"Measure Population Observation"}]},"count":0}],"measureScore":{"value":0.0}},{"id":"Group_5","population":[{"id":"InitialPopulation_5","code":{"coding":[{"system":"http://terminology.hl7.org/CodeSystem/measure-population","code":"initial-population","display":"Initial Population"}]},"count":1},{"id":"MeasurePopulation_5","code":{"coding":[{"system":"http://terminology.hl7.org/CodeSystem/measure-population","code":"measure-population","display":"Measure Population"}]},"count":1},{"id":"MeasurePopulationExclusion_5","code":{"coding":[{"system":"http://terminology.hl7.org/CodeSystem/measure-population","code":"measure-population-exclusion","display":"Measure Population Exclusion"}]},"count":0},{"id":"MeasureObservation_5_1","code":{"coding":[{"system":"http://terminology.hl7.org/CodeSystem/measure-population","code":"measure-population-observation","display":"Measure Population Observation"}]},"count":3}],"measureScore":{"value":0.0}},{"id":"Group_6","population":[{"id":"InitialPopulation_6","code":{"coding":[{"system":"http://terminology.hl7.org/CodeSystem/measure-population","code":"initial-population","display":"Initial Population"}]},"count":1},{"id":"MeasurePopulation_6","code":{"coding":[{"system":"http://terminology.hl7.org/CodeSystem/measure-population","code":"measure-population","display":"Measure Population"}]},"count":1},{"id":"MeasurePopulationExclusion_6","code":{"coding":[{"system":"http://terminology.hl7.org/CodeSystem/measure-population","code":"measure-population-exclusion","display":"Measure Population Exclusion"}]},"count":0},{"id":"MeasureObservation_6_1","code":{"coding":[{"system":"http://terminology.hl7.org/CodeSystem/measure-population","code":"measure-population-observation","display":"Measure Population Observation"}]},"count":75}],"measureScore":{"value":0.0}}],"evaluatedResource":[{"reference":"Patient/b625bf76-24fe-4114-a609-434271f750ec"},{"reference":"Encounter/21c3843d-89d3-4ac1-9528-304bd9fa4cd0"},{"reference":"Condition/ef57157d-371f-4341-86aa-4d2032ea8301"},{"reference":"Observation/b60e4cee-0fd6-4b85-a4a4-d593a50c45d4"},{"reference":"Observation/b4f363b2-544a-4c39-af31-8ddd1179587c"},{"reference":"Procedure/6e57b904-9930-471e-aa37-5280d45cd408"},{"reference":"Coverage/f0b9991f-defb-417a-9c24-b1c5e3853e9d"},{"reference":"Organization/2f238f38-44df-4e80-8082-5d7ce1b1ba63"}]},"request":{"method":"PUT","url":"MeasureReport/eb7f1525-86f9-42d0-9dad-4ced4083583c"}}]},"request":{"method":"PUT","url":"Bundle/ScreAtriRefAsseDxNocp"}},{"fullUrl":"Organization/2f238f38-44df-4e80-8082-5d7ce1b1ba63","resource":{"resourceType":"Organization","id":"2f238f38-44df-4e80-8082-5d7ce1b1ba63","meta":{"profile":["http://hl7.org/fhir/us/qicore/StructureDefinition/qicore-organization"]},"identifier":[{"use":"temp","system":"urn:oid:2.16.840.1.113883.4.4","value":"21-3259825"}],"active":true,"type":[{"coding":[{"system":"http://terminology.hl7.org/CodeSystem/organization-type","code":"pay","display":"Payer"}]}],"name":"Blue Cross Blue Shield of Texas","telecom":[{"system":"phone","value":"(+1) 972-766-6900"}],"address":[{"use":"billing","type":"postal","line":["P.O. Box 660044"],"city":"Dallas","state":"TX","postalCode":"75266-0044","country":"USA"}]},"request":{"method":"PUT","url":"Organization/2f238f38-44df-4e80-8082-5d7ce1b1ba63"}},{"fullUrl":"Encounter/21c3843d-89d3-4ac1-9528-304bd9fa4cd0","resource":{"resourceType":"Encounter","id":"21c3843d-89d3-4ac1-9528-304bd9fa4cd0","meta":{"profile":["http://hl7.org/fhir/us/qicore/StructureDefinition/qicore-encounter"]},"status":"finished","class":{"system":"http://terminology.hl7.org/CodeSystem/v3-ActCode","code":"IMP","display":"inpatient encounter"},"type":[{"coding":[{"system":"http://snomed.info/sct","code":"183452005"}]}],"subject":{"reference":"Patient/b625bf76-24fe-4114-a609-434271f750ec"},"period":{"start":"2026-06-20T08:00:00.000+00:00","end":"2026-06-24T08:15:00.000+00:00"},"reasonReference":[{"reference":"Condition/ef57157d-371f-4341-86aa-4d2032ea8301"}]},"request":{"method":"PUT","url":"Encounter/21c3843d-89d3-4ac1-9528-304bd9fa4cd0"}},{"fullUrl":"Condition/ef57157d-371f-4341-86aa-4d2032ea8301","resource":{"resourceType":"Condition","id":"ef57157d-371f-4341-86aa-4d2032ea8301","meta":{"profile":["http://hl7.org/fhir/us/qicore/StructureDefinition/qicore-condition-encounter-diagnosis"]},"clinicalStatus":{"coding":[{"system":"http://terminology.hl7.org/CodeSystem/condition-clinical","code":"active","display":"Active","userSelected":true}]},"verificationStatus":{"coding":[{"system":"http://terminology.hl7.org/CodeSystem/condition-ver-status","code":"confirmed","display":"Confirmed","userSelected":true}]},"category":[{"coding":[{"system":"http://terminology.hl7.org/CodeSystem/condition-category","code":"encounter-diagnosis","display":"Encounter Diagnosis","userSelected":true}]}],"code":{"coding":[{"system":"http://hl7.org/fhir/sid/icd-10-cm","code":"E46","display":"Unspecified protein-calorie malnutrition","userSelected":true}]},"subject":{"reference":"Patient/b625bf76-24fe-4114-a609-434271f750ec"},"onsetPeriod":{"start":"2026-06-20T08:00:00.000+00:00"},"recordedDate":"2026-06-20T11:00:00.000+00:00"},"request":{"method":"PUT","url":"Condition/ef57157d-371f-4341-86aa-4d2032ea8301"}},{"fullUrl":"Observation/b4f363b2-544a-4c39-af31-8ddd1179587c","resource":{"resourceType":"Observation","id":"b4f363b2-544a-4c39-af31-8ddd1179587c","meta":{"profile":["http://hl7.org/fhir/us/qicore/StructureDefinition/qicore-observation-screening-assessment"]},"status":"final","category":[{"coding":[{"system":"http://terminology.hl7.org/CodeSystem/observation-category","code":"survey","display":"Survey"}]}],"code":{"coding":[{"system":"http://loinc.org","code":"75303-8","display":"Nutrition assessment narrative","userSelected":true}]},"subject":{"reference":"Patient/b625bf76-24fe-4114-a609-434271f750ec"},"effectiveDateTime":"2026-06-20T10:00:00.000+00:00","valueCodeableConcept":{"coding":[{"system":"http://snomed.info/sct","code":"272588001","display":"Malnutrition (calorie) (disorder)","userSelected":true}]}},"request":{"method":"PUT","url":"Observation/b4f363b2-544a-4c39-af31-8ddd1179587c"}},{"fullUrl":"Observation/b60e4cee-0fd6-4b85-a4a4-d593a50c45d4","resource":{"resourceType":"Observation","id":"b60e4cee-0fd6-4b85-a4a4-d593a50c45d4","meta":{"profile":["http://hl7.org/fhir/us/qicore/StructureDefinition/qicore-observation-screening-assessment"]},"status":"final","category":[{"coding":[{"system":"http://terminology.hl7.org/CodeSystem/observation-category","code":"survey","display":"Survey"}]}],"code":{"coding":[{"system":"http://loinc.org","code":"98967-3","display":"Nutritional Risk Screening 2002 panel","userSelected":true}]},"subject":{"reference":"Patient/b625bf76-24fe-4114-a609-434271f750ec"},"effectiveDateTime":"2026-06-20T09:00:00.000+00:00","valueCodeableConcept":{"coding":[{"system":"http://snomed.info/sct","code":"704361005","display":"At increased risk of deficient food intake (finding)","userSelected":true}]}},"request":{"method":"PUT","url":"Observation/b60e4cee-0fd6-4b85-a4a4-d593a50c45d4"}}]}