{"resourceType":"Bundle","id":"tests-31ed0db8-1972-40ed-be78-0653f2cd9a95-bundle","type":"transaction","entry":[{"resource":{"resourceType":"Procedure","id":"7f622802-e080-446d-b205-2b31415f92f5","meta":{"profile":["http://hl7.org/fhir/us/qicore/StructureDefinition/qicore-procedure"]},"extension":[{"url":"http://hl7.org/fhir/us/qicore/StructureDefinition/qicore-recorded","valueDateTime":"2026-02-02T11:30:00.000+00:00"}],"status":"completed","code":{"coding":[{"system":"http://snomed.info/sct","code":"410175003","display":"Dietary regime management (procedure)"}],"text":"Dietary regime management (procedure)"},"subject":{"reference":"Patient/31ed0db8-1972-40ed-be78-0653f2cd9a95"},"encounter":{"reference":"Encounter/2Encounters1007522MSROBSPass4"},"performedPeriod":{"start":"2026-05-05T08:00:00.000+00:00","end":"2026-05-05T08:15:00.000+00:00"}},"request":{"method":"PUT","url":"Procedure/7f622802-e080-446d-b205-2b31415f92f5"}},{"resource":{"resourceType":"Observation","id":"702e3670-ac02-41d5-812b-d0f6efa1ed0b","meta":{"profile":["http://hl7.org/fhir/us/qicore/StructureDefinition/qicore-observation-screening-assessment"]},"status":"final","category":[{"coding":[{"system":"http://terminology.hl7.org/CodeSystem/observation-category","code":"survey","display":"Survey"}]}],"code":{"coding":[{"system":"http://loinc.org","code":"75282-4","display":"Nutrition assessment panel","userSelected":true}]},"subject":{"reference":"Patient/31ed0db8-1972-40ed-be78-0653f2cd9a95"},"effectiveDateTime":"2026-07-05T08:00:00.000+00:00","valueCodeableConcept":{"coding":[{"system":"http://snomed.info/sct","code":"2492009","display":"Nutritional disorder (disorder)","userSelected":true}]}},"request":{"method":"PUT","url":"Observation/702e3670-ac02-41d5-812b-d0f6efa1ed0b"}},{"resource":{"resourceType":"ServiceRequest","id":"568c3f2e-91ce-4fd1-8921-0735452b580b","meta":{"profile":["http://hl7.org/fhir/us/qicore/StructureDefinition/qicore-servicerequest"]},"status":"completed","intent":"order","code":{"coding":[{"system":"http://snomed.info/sct","code":"306354000","display":"Referral to hospital-based dietitian (procedure)"}]},"subject":{"reference":"Patient/31ed0db8-1972-40ed-be78-0653f2cd9a95"},"authoredOn":"2026-05-02T00:00:00.000+00:00"},"request":{"method":"PUT","url":"ServiceRequest/568c3f2e-91ce-4fd1-8921-0735452b580b"}},{"resource":{"resourceType":"Procedure","id":"06e5a268-b2d2-4bd0-a56a-4434e6c92721","meta":{"profile":["http://hl7.org/fhir/us/qicore/StructureDefinition/qicore-procedure"]},"extension":[{"url":"http://hl7.org/fhir/us/qicore/StructureDefinition/qicore-recorded","valueDateTime":"2026-07-02T08:00:00.000+00:00"}],"status":"completed","code":{"coding":[{"system":"http://snomed.info/sct","code":"306165000","display":"Referral to hospital-based dietetics service (procedure)"}],"text":"Referral to hospital-based dietetics service (procedure)"},"subject":{"reference":"Patient/31ed0db8-1972-40ed-be78-0653f2cd9a95"},"encounter":{"reference":"Encounter/2Encounters1007522MSROBSPass4"},"performedPeriod":{"start":"2026-07-02T08:00:00.000+00:00","end":"2026-07-02T08:01:00.000+00:00"}},"request":{"method":"PUT","url":"Procedure/06e5a268-b2d2-4bd0-a56a-4434e6c92721"}},{"resource":{"resourceType":"Condition","id":"688e73f4-b607-4271-864e-2340e27917f3","meta":{"profile":["http://hl7.org/fhir/us/qicore/StructureDefinition/qicore-condition-encounter-diagnosis"]},"clinicalStatus":{"coding":[{"system":"http://terminology.hl7.org/CodeSystem/condition-clinical","code":"active","display":"Active","userSelected":true}]},"verificationStatus":{"coding":[{"system":"http://terminology.hl7.org/CodeSystem/condition-ver-status","code":"confirmed","display":"Confirmed","userSelected":true}]},"category":[{"coding":[{"system":"http://terminology.hl7.org/CodeSystem/condition-category","code":"encounter-diagnosis","display":"Encounter Diagnosis","userSelected":true}]}],"code":{"coding":[{"system":"http://hl7.org/fhir/sid/icd-10-cm","code":"E46","display":"Unspecified protein-calorie malnutrition","userSelected":true}]},"subject":{"reference":"Patient/31ed0db8-1972-40ed-be78-0653f2cd9a95"},"onsetPeriod":{"start":"2026-05-01T08:00:00.000+00:00","end":"2026-05-01T08:01:00.000+00:00"},"recordedDate":"2026-05-01T08:00:00.000+00:00"},"request":{"method":"PUT","url":"Condition/688e73f4-b607-4271-864e-2340e27917f3"}},{"resource":{"resourceType":"Organization","id":"dd86d9e3-1bff-4db7-931f-dba60ff53bfa","meta":{"profile":["http://hl7.org/fhir/us/qicore/StructureDefinition/qicore-organization"]},"identifier":[{"use":"temp","system":"urn:oid:2.16.840.1.113883.4.4","value":"21-3259825"}],"active":true,"type":[{"coding":[{"system":"http://terminology.hl7.org/CodeSystem/organization-type","code":"pay","display":"Payer"}]}],"name":"Blue Cross Blue Shield of Texas","telecom":[{"system":"phone","value":"(+1) 972-766-6900"}],"address":[{"use":"billing","type":"postal","line":["P.O. Box 660044"],"city":"Dallas","state":"TX","postalCode":"75266-0044","country":"USA"}]},"request":{"method":"PUT","url":"Organization/dd86d9e3-1bff-4db7-931f-dba60ff53bfa"}},{"resource":{"resourceType":"Encounter","id":"24cd0170-ecae-468c-8c13-e5e6fe317b45","meta":{"profile":["http://hl7.org/fhir/us/qicore/StructureDefinition/qicore-encounter"]},"status":"finished","class":{"system":"http://terminology.hl7.org/CodeSystem/v3-ActCode","code":"IMP","display":"inpatient encounter"},"type":[{"coding":[{"system":"http://snomed.info/sct","code":"8715000"}]}],"subject":{"reference":"Patient/31ed0db8-1972-40ed-be78-0653f2cd9a95"},"period":{"start":"2026-05-01T08:00:00.000+00:00","end":"2026-05-10T08:00:00.000+00:00"}},"request":{"method":"PUT","url":"Encounter/24cd0170-ecae-468c-8c13-e5e6fe317b45"}},{"resource":{"resourceType":"Patient","id":"31ed0db8-1972-40ed-be78-0653f2cd9a95","meta":{"profile":["http://hl7.org/fhir/us/qicore/StructureDefinition/qicore-patient"]},"extension":[{"url":"http://hl7.org/fhir/us/core/StructureDefinition/us-core-race","extension":[{"url":"ombCategory","valueCoding":{"system":"urn:oid:2.16.840.1.113883.6.238","code":"2106-3","display":"White","userSelected":true}},{"url":"text","valueString":"White"}]},{"url":"http://hl7.org/fhir/us/core/StructureDefinition/us-core-ethnicity","extension":[{"url":"ombCategory","valueCoding":{"system":"urn:oid:2.16.840.1.113883.6.238","code":"2186-5","display":"Not Hispanic or Latino","userSelected":true}},{"url":"text","valueString":"Not Hispanic or Latino"}]},{"url":"http://hl7.org/fhir/us/core/StructureDefinition/us-core-sex","valueCode":"248152002"}],"identifier":[{"type":{"coding":[{"system":"http://terminology.hl7.org/CodeSystem/v2-0203","code":"MR"}]},"system":"https://madie.cms.gov/","value":"2Encounters1007522"}],"active":true,"name":[{"use":"usual","text":"2Encounters1007522","family":"MSROBSPass4","given":["2Encounters1007522"]}],"gender":"female","birthDate":"1953-01-01","address":[{"text":"2Encounters100752 2, Screened Not at risk Assessed Severely Malnourished Diagnosed Care Plan, ID=2Encounters1007522, DOB: 03 Feb 1956"}]},"request":{"method":"PUT","url":"Patient/31ed0db8-1972-40ed-be78-0653f2cd9a95"}},{"resource":{"resourceType":"Coverage","id":"a65320b4-3703-4d13-80cb-5ee50d1677de","meta":{"profile":["http://hl7.org/fhir/us/qicore/StructureDefinition/qicore-coverage"]},"status":"active","type":{"coding":[{"system":"https://nahdo.org/sopt","version":"9.2","code":"11","display":"Medicare Managed Care (Includes Medicare Advantage Plans)"}]},"subscriberId":"97531","beneficiary":{"reference":"Patient/31ed0db8-1972-40ed-be78-0653f2cd9a95"},"dependent":"0","relationship":{"coding":[{"system":"http://terminology.hl7.org/CodeSystem/subscriber-relationship","code":"self"}]},"period":{"start":"2026-10-01T00:00:00.000+00:00"},"payor":[{"reference":"Organization/dd86d9e3-1bff-4db7-931f-dba60ff53bfa"}]},"request":{"method":"PUT","url":"Coverage/a65320b4-3703-4d13-80cb-5ee50d1677de"}},{"resource":{"resourceType":"Encounter","id":"e120089d-5590-4fe7-a08f-cdf47982b6d6","meta":{"profile":["http://hl7.org/fhir/us/qicore/StructureDefinition/qicore-encounter"]},"status":"finished","class":{"system":"http://terminology.hl7.org/CodeSystem/v3-ActCode","code":"IMP","display":"inpatient encounter"},"type":[{"coding":[{"system":"http://snomed.info/sct","code":"32485007"}]}],"subject":{"reference":"Patient/31ed0db8-1972-40ed-be78-0653f2cd9a95"},"period":{"start":"2026-07-01T08:00:00.000+00:00","end":"2026-07-07T08:00:00.000+00:00"},"reasonReference":[{"reference":"Condition/688e73f4-b607-4271-864e-2340e27917f3"}]},"request":{"method":"PUT","url":"Encounter/e120089d-5590-4fe7-a08f-cdf47982b6d6"}},{"resource":{"resourceType":"MeasureReport","id":"d61c9ea3-28c5-4c30-8339-df4a171fba36","meta":{"profile":["http://hl7.org/fhir/us/cqfmeasures/StructureDefinition/test-case-cqfm"]},"contained":[{"resourceType":"Parameters","id":"ce6e0215-4e15-4d21-84a1-a462fd734627-parameters","parameter":[{"name":"subject","valueString":"31ed0db8-1972-40ed-be78-0653f2cd9a95"}]}],"extension":[{"url":"http://hl7.org/fhir/StructureDefinition/cqf-inputParameters","valueReference":{"reference":"#ce6e0215-4e15-4d21-84a1-a462fd734627-parameters"}},{"url":"http://hl7.org/fhir/us/cqfmeasures/StructureDefinition/cqfm-testCaseDescription","valueMarkdown":"2 Encounters, no screens: 1-Referral (ServiceRequest), Assessment (mod), dx, care plan\n1-Referral, Assessment (mod), dx, no care plan"}],"modifierExtension":[{"url":"http://hl7.org/fhir/us/cqfmeasures/StructureDefinition/cqfm-isTestCase","valueBoolean":true}],"status":"complete","type":"individual","measure":"https://madie.cms.gov/Measure/CMS986FHIRMalnutritionScore","period":{"start":"2026-01-01","end":"2026-12-31"},"group":[{"id":"Group_1","population":[{"id":"InitialPopulation_1","code":{"coding":[{"system":"http://terminology.hl7.org/CodeSystem/measure-population","code":"initial-population","display":"Initial Population"}]},"count":2},{"id":"MeasurePopulation_1","code":{"coding":[{"system":"http://terminology.hl7.org/CodeSystem/measure-population","code":"measure-population","display":"Measure Population"}]},"count":2},{"id":"MeasurePopulationExclusion_1","code":{"coding":[{"system":"http://terminology.hl7.org/CodeSystem/measure-population","code":"measure-population-exclusion","display":"Measure Population Exclusion"}]},"count":0},{"id":"MeasureObservation_1_1","code":{"coding":[{"system":"http://terminology.hl7.org/CodeSystem/measure-population","code":"measure-population-observation","display":"Measure Population Observation"}]},"count":1},{"id":"MeasureObservation_1_2","code":{"coding":[{"system":"http://terminology.hl7.org/CodeSystem/measure-population","code":"measure-population-observation","display":"Measure Population Observation"}]},"count":1}],"measureScore":{"value":0.0}},{"id":"Group_2","population":[{"id":"InitialPopulation_2","code":{"coding":[{"system":"http://terminology.hl7.org/CodeSystem/measure-population","code":"initial-population","display":"Initial Population"}]},"count":2},{"id":"MeasurePopulation_2","code":{"coding":[{"system":"http://terminology.hl7.org/CodeSystem/measure-population","code":"measure-population","display":"Measure Population"}]},"count":2},{"id":"MeasurePopulationExclusion_2","code":{"coding":[{"system":"http://terminology.hl7.org/CodeSystem/measure-population","code":"measure-population-exclusion","display":"Measure Population Exclusion"}]},"count":0},{"id":"MeasureObservation_2_1","code":{"coding":[{"system":"http://terminology.hl7.org/CodeSystem/measure-population","code":"measure-population-observation","display":"Measure Population Observation"}]},"count":1},{"id":"MeasureObservation_2_2","code":{"coding":[{"system":"http://terminology.hl7.org/CodeSystem/measure-population","code":"measure-population-observation","display":"Measure Population Observation"}]},"count":1}],"measureScore":{"value":0.0}},{"id":"Group_3","population":[{"id":"InitialPopulation_3","code":{"coding":[{"system":"http://terminology.hl7.org/CodeSystem/measure-population","code":"initial-population","display":"Initial Population"}]},"count":2},{"id":"MeasurePopulation_3","code":{"coding":[{"system":"http://terminology.hl7.org/CodeSystem/measure-population","code":"measure-population","display":"Measure Population"}]},"count":2},{"id":"MeasurePopulationExclusion_3","code":{"coding":[{"system":"http://terminology.hl7.org/CodeSystem/measure-population","code":"measure-population-exclusion","display":"Measure Population Exclusion"}]},"count":0},{"id":"MeasureObservation_3_1","code":{"coding":[{"system":"http://terminology.hl7.org/CodeSystem/measure-population","code":"measure-population-observation","display":"Measure Population Observation"}]},"count":1},{"id":"MeasureObservation_3_2","code":{"coding":[{"system":"http://terminology.hl7.org/CodeSystem/measure-population","code":"measure-population-observation","display":"Measure Population Observation"}]},"count":1}],"measureScore":{"value":0.0}},{"id":"Group_4","population":[{"id":"InitialPopulation_4","code":{"coding":[{"system":"http://terminology.hl7.org/CodeSystem/measure-population","code":"initial-population","display":"Initial Population"}]},"count":2},{"id":"MeasurePopulation_4","code":{"coding":[{"system":"http://terminology.hl7.org/CodeSystem/measure-population","code":"measure-population","display":"Measure Population"}]},"count":2},{"id":"MeasurePopulationExclusion_4","code":{"coding":[{"system":"http://terminology.hl7.org/CodeSystem/measure-population","code":"measure-population-exclusion","display":"Measure Population Exclusion"}]},"count":0},{"id":"MeasureObservation_4_1","code":{"coding":[{"system":"http://terminology.hl7.org/CodeSystem/measure-population","code":"measure-population-observation","display":"Measure Population Observation"}]},"count":1},{"id":"MeasureObservation_4_2","code":{"coding":[{"system":"http://terminology.hl7.org/CodeSystem/measure-population","code":"measure-population-observation","display":"Measure Population Observation"}]},"count":0}],"measureScore":{"value":0.0}},{"id":"Group_5","population":[{"id":"InitialPopulation_5","code":{"coding":[{"system":"http://terminology.hl7.org/CodeSystem/measure-population","code":"initial-population","display":"Initial Population"}]},"count":2},{"id":"MeasurePopulation_5","code":{"coding":[{"system":"http://terminology.hl7.org/CodeSystem/measure-population","code":"measure-population","display":"Measure Population"}]},"count":2},{"id":"MeasurePopulationExclusion_5","code":{"coding":[{"system":"http://terminology.hl7.org/CodeSystem/measure-population","code":"measure-population-exclusion","display":"Measure Population Exclusion"}]},"count":0},{"id":"MeasureObservation_5_1","code":{"coding":[{"system":"http://terminology.hl7.org/CodeSystem/measure-population","code":"measure-population-observation","display":"Measure Population Observation"}]},"count":3},{"id":"MeasureObservation_5_2","code":{"coding":[{"system":"http://terminology.hl7.org/CodeSystem/measure-population","code":"measure-population-observation","display":"Measure Population Observation"}]},"count":4}],"measureScore":{"value":0.0}},{"id":"Group_6","population":[{"id":"InitialPopulation_6","code":{"coding":[{"system":"http://terminology.hl7.org/CodeSystem/measure-population","code":"initial-population","display":"Initial Population"}]},"count":2},{"id":"MeasurePopulation_6","code":{"coding":[{"system":"http://terminology.hl7.org/CodeSystem/measure-population","code":"measure-population","display":"Measure Population"}]},"count":2},{"id":"MeasurePopulationExclusion_6","code":{"coding":[{"system":"http://terminology.hl7.org/CodeSystem/measure-population","code":"measure-population-exclusion","display":"Measure Population Exclusion"}]},"count":0},{"id":"MeasureObservation_6_1","code":{"coding":[{"system":"http://terminology.hl7.org/CodeSystem/measure-population","code":"measure-population-observation","display":"Measure Population Observation"}]},"count":75},{"id":"MeasureObservation_6_2","code":{"coding":[{"system":"http://terminology.hl7.org/CodeSystem/measure-population","code":"measure-population-observation","display":"Measure Population Observation"}]},"count":100}],"measureScore":{"value":0.0}}],"evaluatedResource":[{"reference":"Patient/31ed0db8-1972-40ed-be78-0653f2cd9a95"},{"reference":"Encounter/e120089d-5590-4fe7-a08f-cdf47982b6d6"},{"reference":"Encounter/24cd0170-ecae-468c-8c13-e5e6fe317b45"},{"reference":"Condition/688e73f4-b607-4271-864e-2340e27917f3"},{"reference":"ServiceRequest/568c3f2e-91ce-4fd1-8921-0735452b580b"},{"reference":"Observation/702e3670-ac02-41d5-812b-d0f6efa1ed0b"},{"reference":"Observation/a4481153-b54d-4e32-ab31-783d51e437f9"},{"reference":"Procedure/06e5a268-b2d2-4bd0-a56a-4434e6c92721"},{"reference":"Procedure/7f622802-e080-446d-b205-2b31415f92f5"},{"reference":"Coverage/a65320b4-3703-4d13-80cb-5ee50d1677de"},{"reference":"Organization/dd86d9e3-1bff-4db7-931f-dba60ff53bfa"}]},"request":{"method":"PUT","url":"MeasureReport/d61c9ea3-28c5-4c30-8339-df4a171fba36"}},{"resource":{"resourceType":"Bundle","id":"2Encounters1007522","type":"transaction","entry":[{"fullUrl":"https://madie.cms.gov/Patient/31ed0db8-1972-40ed-be78-0653f2cd9a95","resource":{"resourceType":"Patient","id":"31ed0db8-1972-40ed-be78-0653f2cd9a95","meta":{"profile":["http://hl7.org/fhir/us/qicore/StructureDefinition/qicore-patient"]},"extension":[{"url":"http://hl7.org/fhir/us/core/StructureDefinition/us-core-race","extension":[{"url":"ombCategory","valueCoding":{"system":"urn:oid:2.16.840.1.113883.6.238","code":"2106-3","display":"White","userSelected":true}},{"url":"text","valueString":"White"}]},{"url":"http://hl7.org/fhir/us/core/StructureDefinition/us-core-ethnicity","extension":[{"url":"ombCategory","valueCoding":{"system":"urn:oid:2.16.840.1.113883.6.238","code":"2186-5","display":"Not Hispanic or Latino","userSelected":true}},{"url":"text","valueString":"Not Hispanic or Latino"}]},{"url":"http://hl7.org/fhir/us/core/StructureDefinition/us-core-sex","valueCode":"248152002"}],"identifier":[{"type":{"coding":[{"system":"http://terminology.hl7.org/CodeSystem/v2-0203","code":"MR"}]},"system":"https://madie.cms.gov/","value":"2Encounters1007522"}],"active":true,"name":[{"use":"usual","text":"2Encounters1007522","family":"MSROBSPass4","given":["2Encounters1007522"]}],"gender":"female","birthDate":"1953-01-01","address":[{"text":"2Encounters100752 2, Screened Not at risk Assessed Severely Malnourished Diagnosed Care Plan, ID=2Encounters1007522, DOB: 03 Feb 1956"}]},"request":{"method":"PUT","url":"Patient/31ed0db8-1972-40ed-be78-0653f2cd9a95"}},{"fullUrl":"https://madie.cms.gov/Encounter/e120089d-5590-4fe7-a08f-cdf47982b6d6","resource":{"resourceType":"Encounter","id":"e120089d-5590-4fe7-a08f-cdf47982b6d6","meta":{"profile":["http://hl7.org/fhir/us/qicore/StructureDefinition/qicore-encounter"]},"status":"finished","class":{"system":"http://terminology.hl7.org/CodeSystem/v3-ActCode","code":"IMP","display":"inpatient encounter"},"type":[{"coding":[{"system":"http://snomed.info/sct","code":"32485007"}]}],"subject":{"reference":"Patient/31ed0db8-1972-40ed-be78-0653f2cd9a95"},"period":{"start":"2026-07-01T08:00:00.000+00:00","end":"2026-07-07T08:00:00.000+00:00"},"reasonReference":[{"reference":"Condition/688e73f4-b607-4271-864e-2340e27917f3"}]},"request":{"method":"PUT","url":"Encounter/e120089d-5590-4fe7-a08f-cdf47982b6d6"}},{"fullUrl":"https://madie.cms.gov/Encounter/24cd0170-ecae-468c-8c13-e5e6fe317b45","resource":{"resourceType":"Encounter","id":"24cd0170-ecae-468c-8c13-e5e6fe317b45","meta":{"profile":["http://hl7.org/fhir/us/qicore/StructureDefinition/qicore-encounter"]},"status":"finished","class":{"system":"http://terminology.hl7.org/CodeSystem/v3-ActCode","code":"IMP","display":"inpatient encounter"},"type":[{"coding":[{"system":"http://snomed.info/sct","code":"8715000"}]}],"subject":{"reference":"Patient/31ed0db8-1972-40ed-be78-0653f2cd9a95"},"period":{"start":"2026-05-01T08:00:00.000+00:00","end":"2026-05-10T08:00:00.000+00:00"}},"request":{"method":"PUT","url":"Encounter/24cd0170-ecae-468c-8c13-e5e6fe317b45"}},{"fullUrl":"https://madie.cms.gov/Condition/688e73f4-b607-4271-864e-2340e27917f3","resource":{"resourceType":"Condition","id":"688e73f4-b607-4271-864e-2340e27917f3","meta":{"profile":["http://hl7.org/fhir/us/qicore/StructureDefinition/qicore-condition-encounter-diagnosis"]},"clinicalStatus":{"coding":[{"system":"http://terminology.hl7.org/CodeSystem/condition-clinical","code":"active","display":"Active","userSelected":true}]},"verificationStatus":{"coding":[{"system":"http://terminology.hl7.org/CodeSystem/condition-ver-status","code":"confirmed","display":"Confirmed","userSelected":true}]},"category":[{"coding":[{"system":"http://terminology.hl7.org/CodeSystem/condition-category","code":"encounter-diagnosis","display":"Encounter Diagnosis","userSelected":true}]}],"code":{"coding":[{"system":"http://hl7.org/fhir/sid/icd-10-cm","code":"E46","display":"Unspecified protein-calorie malnutrition","userSelected":true}]},"subject":{"reference":"Patient/31ed0db8-1972-40ed-be78-0653f2cd9a95"},"onsetPeriod":{"start":"2026-05-01T08:00:00.000+00:00","end":"2026-05-01T08:01:00.000+00:00"},"recordedDate":"2026-05-01T08:00:00.000+00:00"},"request":{"method":"PUT","url":"Condition/688e73f4-b607-4271-864e-2340e27917f3"}},{"fullUrl":"https://madie.cms.gov/ServiceRequest/568c3f2e-91ce-4fd1-8921-0735452b580b","resource":{"resourceType":"ServiceRequest","id":"568c3f2e-91ce-4fd1-8921-0735452b580b","meta":{"profile":["http://hl7.org/fhir/us/qicore/StructureDefinition/qicore-servicerequest"]},"status":"completed","intent":"order","code":{"coding":[{"system":"http://snomed.info/sct","code":"306354000","display":"Referral to hospital-based dietitian (procedure)"}]},"subject":{"reference":"Patient/31ed0db8-1972-40ed-be78-0653f2cd9a95"},"authoredOn":"2026-05-02T00:00:00.000+00:00"},"request":{"method":"PUT","url":"ServiceRequest/568c3f2e-91ce-4fd1-8921-0735452b580b"}},{"fullUrl":"https://madie.cms.gov/Observation/702e3670-ac02-41d5-812b-d0f6efa1ed0b","resource":{"resourceType":"Observation","id":"702e3670-ac02-41d5-812b-d0f6efa1ed0b","meta":{"profile":["http://hl7.org/fhir/us/qicore/StructureDefinition/qicore-observation-screening-assessment"]},"status":"final","category":[{"coding":[{"system":"http://terminology.hl7.org/CodeSystem/observation-category","code":"survey","display":"Survey"}]}],"code":{"coding":[{"system":"http://loinc.org","code":"75282-4","display":"Nutrition assessment panel","userSelected":true}]},"subject":{"reference":"Patient/31ed0db8-1972-40ed-be78-0653f2cd9a95"},"effectiveDateTime":"2026-07-05T08:00:00.000+00:00","valueCodeableConcept":{"coding":[{"system":"http://snomed.info/sct","code":"2492009","display":"Nutritional disorder (disorder)","userSelected":true}]}},"request":{"method":"PUT","url":"Observation/702e3670-ac02-41d5-812b-d0f6efa1ed0b"}},{"fullUrl":"https://madie.cms.gov/Observation/a4481153-b54d-4e32-ab31-783d51e437f9","resource":{"resourceType":"Observation","id":"a4481153-b54d-4e32-ab31-783d51e437f9","meta":{"profile":["http://hl7.org/fhir/us/qicore/StructureDefinition/qicore-observation-screening-assessment"]},"status":"final","category":[{"coding":[{"system":"http://terminology.hl7.org/CodeSystem/observation-category","code":"survey","display":"Survey"}]}],"code":{"coding":[{"system":"http://loinc.org","code":"75282-4","display":"Nutrition assessment panel","userSelected":true}]},"subject":{"reference":"Patient/31ed0db8-1972-40ed-be78-0653f2cd9a95"},"effectiveDateTime":"2026-05-05T08:00:00.000+00:00","valueCodeableConcept":{"coding":[{"system":"http://snomed.info/sct","code":"102636009","display":"Chronic nutritional deficiency (finding)","userSelected":true}]}},"request":{"method":"PUT","url":"Observation/a4481153-b54d-4e32-ab31-783d51e437f9"}},{"fullUrl":"https://madie.cms.gov/Procedure/06e5a268-b2d2-4bd0-a56a-4434e6c92721","resource":{"resourceType":"Procedure","id":"06e5a268-b2d2-4bd0-a56a-4434e6c92721","meta":{"profile":["http://hl7.org/fhir/us/qicore/StructureDefinition/qicore-procedure"]},"extension":[{"url":"http://hl7.org/fhir/us/qicore/StructureDefinition/qicore-recorded","valueDateTime":"2026-07-02T08:00:00.000+00:00"}],"status":"completed","code":{"coding":[{"system":"http://snomed.info/sct","code":"306165000","display":"Referral to hospital-based dietetics service (procedure)"}],"text":"Referral to hospital-based dietetics service (procedure)"},"subject":{"reference":"Patient/31ed0db8-1972-40ed-be78-0653f2cd9a95"},"encounter":{"reference":"Encounter/2Encounters1007522MSROBSPass4"},"performedPeriod":{"start":"2026-07-02T08:00:00.000+00:00","end":"2026-07-02T08:01:00.000+00:00"}},"request":{"method":"PUT","url":"Procedure/06e5a268-b2d2-4bd0-a56a-4434e6c92721"}},{"fullUrl":"https://madie.cms.gov/Procedure/7f622802-e080-446d-b205-2b31415f92f5","resource":{"resourceType":"Procedure","id":"7f622802-e080-446d-b205-2b31415f92f5","meta":{"profile":["http://hl7.org/fhir/us/qicore/StructureDefinition/qicore-procedure"]},"extension":[{"url":"http://hl7.org/fhir/us/qicore/StructureDefinition/qicore-recorded","valueDateTime":"2026-02-02T11:30:00.000+00:00"}],"status":"completed","code":{"coding":[{"system":"http://snomed.info/sct","code":"410175003","display":"Dietary regime management (procedure)"}],"text":"Dietary regime management (procedure)"},"subject":{"reference":"Patient/31ed0db8-1972-40ed-be78-0653f2cd9a95"},"encounter":{"reference":"Encounter/2Encounters1007522MSROBSPass4"},"performedPeriod":{"start":"2026-05-05T08:00:00.000+00:00","end":"2026-05-05T08:15:00.000+00:00"}},"request":{"method":"PUT","url":"Procedure/7f622802-e080-446d-b205-2b31415f92f5"}},{"fullUrl":"https://madie.cms.gov/Coverage/a65320b4-3703-4d13-80cb-5ee50d1677de","resource":{"resourceType":"Coverage","id":"a65320b4-3703-4d13-80cb-5ee50d1677de","meta":{"profile":["http://hl7.org/fhir/us/qicore/StructureDefinition/qicore-coverage"]},"status":"active","type":{"coding":[{"system":"https://nahdo.org/sopt","version":"9.2","code":"11","display":"Medicare Managed Care (Includes Medicare Advantage Plans)"}]},"subscriberId":"97531","beneficiary":{"reference":"Patient/31ed0db8-1972-40ed-be78-0653f2cd9a95"},"dependent":"0","relationship":{"coding":[{"system":"http://terminology.hl7.org/CodeSystem/subscriber-relationship","code":"self"}]},"period":{"start":"2026-10-01T00:00:00.000+00:00"},"payor":[{"reference":"Organization/dd86d9e3-1bff-4db7-931f-dba60ff53bfa"}]},"request":{"method":"PUT","url":"Coverage/a65320b4-3703-4d13-80cb-5ee50d1677de"}},{"fullUrl":"https://madie.cms.gov/Organization/dd86d9e3-1bff-4db7-931f-dba60ff53bfa","resource":{"resourceType":"Organization","id":"dd86d9e3-1bff-4db7-931f-dba60ff53bfa","meta":{"profile":["http://hl7.org/fhir/us/qicore/StructureDefinition/qicore-organization"]},"identifier":[{"use":"temp","system":"urn:oid:2.16.840.1.113883.4.4","value":"21-3259825"}],"active":true,"type":[{"coding":[{"system":"http://terminology.hl7.org/CodeSystem/organization-type","code":"pay","display":"Payer"}]}],"name":"Blue Cross Blue Shield of Texas","telecom":[{"system":"phone","value":"(+1) 972-766-6900"}],"address":[{"use":"billing","type":"postal","line":["P.O. Box 660044"],"city":"Dallas","state":"TX","postalCode":"75266-0044","country":"USA"}]},"request":{"method":"PUT","url":"Organization/dd86d9e3-1bff-4db7-931f-dba60ff53bfa"}},{"fullUrl":"https://madie.cms.gov/MeasureReport/d61c9ea3-28c5-4c30-8339-df4a171fba36","resource":{"resourceType":"MeasureReport","id":"d61c9ea3-28c5-4c30-8339-df4a171fba36","meta":{"profile":["http://hl7.org/fhir/us/cqfmeasures/StructureDefinition/test-case-cqfm"]},"contained":[{"resourceType":"Parameters","id":"ce6e0215-4e15-4d21-84a1-a462fd734627-parameters","parameter":[{"name":"subject","valueString":"31ed0db8-1972-40ed-be78-0653f2cd9a95"}]}],"extension":[{"url":"http://hl7.org/fhir/StructureDefinition/cqf-inputParameters","valueReference":{"reference":"#ce6e0215-4e15-4d21-84a1-a462fd734627-parameters"}},{"url":"http://hl7.org/fhir/us/cqfmeasures/StructureDefinition/cqfm-testCaseDescription","valueMarkdown":"2 Encounters, no screens: 1-Referral (ServiceRequest), Assessment (mod), dx, care plan\n1-Referral, Assessment (mod), dx, no care plan"}],"modifierExtension":[{"url":"http://hl7.org/fhir/us/cqfmeasures/StructureDefinition/cqfm-isTestCase","valueBoolean":true}],"status":"complete","type":"individual","measure":"https://madie.cms.gov/Measure/CMS986FHIRMalnutritionScore","period":{"start":"2026-01-01","end":"2026-12-31"},"group":[{"id":"Group_1","population":[{"id":"InitialPopulation_1","code":{"coding":[{"system":"http://terminology.hl7.org/CodeSystem/measure-population","code":"initial-population","display":"Initial Population"}]},"count":2},{"id":"MeasurePopulation_1","code":{"coding":[{"system":"http://terminology.hl7.org/CodeSystem/measure-population","code":"measure-population","display":"Measure Population"}]},"count":2},{"id":"MeasurePopulationExclusion_1","code":{"coding":[{"system":"http://terminology.hl7.org/CodeSystem/measure-population","code":"measure-population-exclusion","display":"Measure Population Exclusion"}]},"count":0},{"id":"MeasureObservation_1_1","code":{"coding":[{"system":"http://terminology.hl7.org/CodeSystem/measure-population","code":"measure-population-observation","display":"Measure Population Observation"}]},"count":1},{"id":"MeasureObservation_1_2","code":{"coding":[{"system":"http://terminology.hl7.org/CodeSystem/measure-population","code":"measure-population-observation","display":"Measure Population Observation"}]},"count":1}],"measureScore":{"value":0.0}},{"id":"Group_2","population":[{"id":"InitialPopulation_2","code":{"coding":[{"system":"http://terminology.hl7.org/CodeSystem/measure-population","code":"initial-population","display":"Initial Population"}]},"count":2},{"id":"MeasurePopulation_2","code":{"coding":[{"system":"http://terminology.hl7.org/CodeSystem/measure-population","code":"measure-population","display":"Measure Population"}]},"count":2},{"id":"MeasurePopulationExclusion_2","code":{"coding":[{"system":"http://terminology.hl7.org/CodeSystem/measure-population","code":"measure-population-exclusion","display":"Measure Population Exclusion"}]},"count":0},{"id":"MeasureObservation_2_1","code":{"coding":[{"system":"http://terminology.hl7.org/CodeSystem/measure-population","code":"measure-population-observation","display":"Measure Population Observation"}]},"count":1},{"id":"MeasureObservation_2_2","code":{"coding":[{"system":"http://terminology.hl7.org/CodeSystem/measure-population","code":"measure-population-observation","display":"Measure Population Observation"}]},"count":1}],"measureScore":{"value":0.0}},{"id":"Group_3","population":[{"id":"InitialPopulation_3","code":{"coding":[{"system":"http://terminology.hl7.org/CodeSystem/measure-population","code":"initial-population","display":"Initial Population"}]},"count":2},{"id":"MeasurePopulation_3","code":{"coding":[{"system":"http://terminology.hl7.org/CodeSystem/measure-population","code":"measure-population","display":"Measure Population"}]},"count":2},{"id":"MeasurePopulationExclusion_3","code":{"coding":[{"system":"http://terminology.hl7.org/CodeSystem/measure-population","code":"measure-population-exclusion","display":"Measure Population Exclusion"}]},"count":0},{"id":"MeasureObservation_3_1","code":{"coding":[{"system":"http://terminology.hl7.org/CodeSystem/measure-population","code":"measure-population-observation","display":"Measure Population Observation"}]},"count":1},{"id":"MeasureObservation_3_2","code":{"coding":[{"system":"http://terminology.hl7.org/CodeSystem/measure-population","code":"measure-population-observation","display":"Measure Population Observation"}]},"count":1}],"measureScore":{"value":0.0}},{"id":"Group_4","population":[{"id":"InitialPopulation_4","code":{"coding":[{"system":"http://terminology.hl7.org/CodeSystem/measure-population","code":"initial-population","display":"Initial Population"}]},"count":2},{"id":"MeasurePopulation_4","code":{"coding":[{"system":"http://terminology.hl7.org/CodeSystem/measure-population","code":"measure-population","display":"Measure Population"}]},"count":2},{"id":"MeasurePopulationExclusion_4","code":{"coding":[{"system":"http://terminology.hl7.org/CodeSystem/measure-population","code":"measure-population-exclusion","display":"Measure Population Exclusion"}]},"count":0},{"id":"MeasureObservation_4_1","code":{"coding":[{"system":"http://terminology.hl7.org/CodeSystem/measure-population","code":"measure-population-observation","display":"Measure Population Observation"}]},"count":1},{"id":"MeasureObservation_4_2","code":{"coding":[{"system":"http://terminology.hl7.org/CodeSystem/measure-population","code":"measure-population-observation","display":"Measure Population Observation"}]},"count":0}],"measureScore":{"value":0.0}},{"id":"Group_5","population":[{"id":"InitialPopulation_5","code":{"coding":[{"system":"http://terminology.hl7.org/CodeSystem/measure-population","code":"initial-population","display":"Initial Population"}]},"count":2},{"id":"MeasurePopulation_5","code":{"coding":[{"system":"http://terminology.hl7.org/CodeSystem/measure-population","code":"measure-population","display":"Measure Population"}]},"count":2},{"id":"MeasurePopulationExclusion_5","code":{"coding":[{"system":"http://terminology.hl7.org/CodeSystem/measure-population","code":"measure-population-exclusion","display":"Measure Population Exclusion"}]},"count":0},{"id":"MeasureObservation_5_1","code":{"coding":[{"system":"http://terminology.hl7.org/CodeSystem/measure-population","code":"measure-population-observation","display":"Measure Population Observation"}]},"count":3},{"id":"MeasureObservation_5_2","code":{"coding":[{"system":"http://terminology.hl7.org/CodeSystem/measure-population","code":"measure-population-observation","display":"Measure Population Observation"}]},"count":4}],"measureScore":{"value":0.0}},{"id":"Group_6","population":[{"id":"InitialPopulation_6","code":{"coding":[{"system":"http://terminology.hl7.org/CodeSystem/measure-population","code":"initial-population","display":"Initial Population"}]},"count":2},{"id":"MeasurePopulation_6","code":{"coding":[{"system":"http://terminology.hl7.org/CodeSystem/measure-population","code":"measure-population","display":"Measure Population"}]},"count":2},{"id":"MeasurePopulationExclusion_6","code":{"coding":[{"system":"http://terminology.hl7.org/CodeSystem/measure-population","code":"measure-population-exclusion","display":"Measure Population Exclusion"}]},"count":0},{"id":"MeasureObservation_6_1","code":{"coding":[{"system":"http://terminology.hl7.org/CodeSystem/measure-population","code":"measure-population-observation","display":"Measure Population Observation"}]},"count":75},{"id":"MeasureObservation_6_2","code":{"coding":[{"system":"http://terminology.hl7.org/CodeSystem/measure-population","code":"measure-population-observation","display":"Measure Population Observation"}]},"count":100}],"measureScore":{"value":0.0}}],"evaluatedResource":[{"reference":"Patient/31ed0db8-1972-40ed-be78-0653f2cd9a95"},{"reference":"Encounter/e120089d-5590-4fe7-a08f-cdf47982b6d6"},{"reference":"Encounter/24cd0170-ecae-468c-8c13-e5e6fe317b45"},{"reference":"Condition/688e73f4-b607-4271-864e-2340e27917f3"},{"reference":"ServiceRequest/568c3f2e-91ce-4fd1-8921-0735452b580b"},{"reference":"Observation/702e3670-ac02-41d5-812b-d0f6efa1ed0b"},{"reference":"Observation/a4481153-b54d-4e32-ab31-783d51e437f9"},{"reference":"Procedure/06e5a268-b2d2-4bd0-a56a-4434e6c92721"},{"reference":"Procedure/7f622802-e080-446d-b205-2b31415f92f5"},{"reference":"Coverage/a65320b4-3703-4d13-80cb-5ee50d1677de"},{"reference":"Organization/dd86d9e3-1bff-4db7-931f-dba60ff53bfa"}]},"request":{"method":"PUT","url":"MeasureReport/d61c9ea3-28c5-4c30-8339-df4a171fba36"}}]},"request":{"method":"PUT","url":"Bundle/2Encounters1007522"}},{"resource":{"resourceType":"Observation","id":"a4481153-b54d-4e32-ab31-783d51e437f9","meta":{"profile":["http://hl7.org/fhir/us/qicore/StructureDefinition/qicore-observation-screening-assessment"]},"status":"final","category":[{"coding":[{"system":"http://terminology.hl7.org/CodeSystem/observation-category","code":"survey","display":"Survey"}]}],"code":{"coding":[{"system":"http://loinc.org","code":"75282-4","display":"Nutrition assessment panel","userSelected":true}]},"subject":{"reference":"Patient/31ed0db8-1972-40ed-be78-0653f2cd9a95"},"effectiveDateTime":"2026-05-05T08:00:00.000+00:00","valueCodeableConcept":{"coding":[{"system":"http://snomed.info/sct","code":"102636009","display":"Chronic nutritional deficiency (finding)","userSelected":true}]}},"request":{"method":"PUT","url":"Observation/a4481153-b54d-4e32-ab31-783d51e437f9"}}]}