{"resourceType":"Bundle","id":"tests-165d4163-b24b-416b-8b12-5a3dfca5cd4c-bundle","type":"transaction","entry":[{"resource":{"resourceType":"Coverage","id":"877481d0-8d61-4700-93e6-9a2f4ab8007c","meta":{"profile":["http://hl7.org/fhir/us/qicore/StructureDefinition/qicore-coverage"]},"status":"active","type":{"coding":[{"system":"https://nahdo.org/sopt","version":"9.2","code":"11","display":"Medicare Managed Care (Includes Medicare Advantage Plans)"}]},"subscriberId":"97531","beneficiary":{"reference":"Patient/165d4163-b24b-416b-8b12-5a3dfca5cd4c"},"dependent":"0","relationship":{"coding":[{"system":"http://terminology.hl7.org/CodeSystem/subscriber-relationship","code":"self"}]},"period":{"start":"2026-10-01T00:00:00.000+00:00"},"payor":[{"reference":"Organization/a4020b4f-bf3b-4b9d-8408-fcbb7d1bf686"}]},"request":{"method":"PUT","url":"Coverage/877481d0-8d61-4700-93e6-9a2f4ab8007c"}},{"resource":{"resourceType":"Condition","id":"e5ef037d-7492-4cfd-bd75-3e185cc30d56","meta":{"profile":["http://hl7.org/fhir/us/qicore/StructureDefinition/qicore-condition-encounter-diagnosis"]},"clinicalStatus":{"coding":[{"system":"http://terminology.hl7.org/CodeSystem/condition-clinical","code":"active","display":"Active","userSelected":true}]},"verificationStatus":{"coding":[{"system":"http://terminology.hl7.org/CodeSystem/condition-ver-status","code":"confirmed","display":"Confirmed","userSelected":true}]},"category":[{"coding":[{"system":"http://terminology.hl7.org/CodeSystem/condition-category","code":"encounter-diagnosis","display":"Encounter Diagnosis","userSelected":true}]}],"code":{"coding":[{"system":"http://snomed.info/sct","code":"65404009","display":"Undernutrition (disorder)","userSelected":true}]},"subject":{"reference":"Patient/165d4163-b24b-416b-8b12-5a3dfca5cd4c"},"onsetPeriod":{"start":"2026-08-24T08:00:00.000+00:00"},"recordedDate":"2026-08-24T11:00:00.000+00:00"},"request":{"method":"PUT","url":"Condition/e5ef037d-7492-4cfd-bd75-3e185cc30d56"}},{"resource":{"resourceType":"Encounter","id":"2495e5d7-5faf-4845-be86-e3e2713b4558","meta":{"profile":["http://hl7.org/fhir/us/qicore/StructureDefinition/qicore-encounter"]},"status":"finished","class":{"system":"http://terminology.hl7.org/CodeSystem/v3-ActCode","code":"IMP","display":"inpatient encounter"},"type":[{"coding":[{"system":"http://snomed.info/sct","code":"183452005"}]}],"subject":{"reference":"Patient/165d4163-b24b-416b-8b12-5a3dfca5cd4c"},"period":{"start":"2026-08-24T08:00:00.000+00:00","end":"2026-08-29T08:15:00.000+00:00"},"reasonReference":[{"reference":"Condition/e5ef037d-7492-4cfd-bd75-3e185cc30d56"}]},"request":{"method":"PUT","url":"Encounter/2495e5d7-5faf-4845-be86-e3e2713b4558"}},{"resource":{"resourceType":"Patient","id":"165d4163-b24b-416b-8b12-5a3dfca5cd4c","meta":{"profile":["http://hl7.org/fhir/us/qicore/StructureDefinition/qicore-patient"]},"extension":[{"url":"http://hl7.org/fhir/us/core/StructureDefinition/us-core-race","extension":[{"url":"ombCategory","valueCoding":{"system":"urn:oid:2.16.840.1.113883.6.238","code":"2054-5","display":"Black or African American","userSelected":true}},{"url":"text","valueString":"Black or African American"}]},{"url":"http://hl7.org/fhir/us/core/StructureDefinition/us-core-ethnicity","extension":[{"url":"ombCategory","valueCoding":{"system":"urn:oid:2.16.840.1.113883.6.238","code":"2186-5","display":"Not Hispanic or Latino","userSelected":true}},{"url":"text","valueString":"Not Hispanic or Latino"}]},{"url":"http://hl7.org/fhir/us/core/StructureDefinition/us-core-sex","valueCode":"248152002"}],"identifier":[{"type":{"coding":[{"system":"http://terminology.hl7.org/CodeSystem/v2-0203","code":"MR"}]},"system":"https://madie.cms.gov/","value":"ScreAtriNorefAsseModDxNocp"}],"active":true,"name":[{"use":"usual","text":"ScreAtriNorefAsseModDxNocp","family":"MSROBSPass4","given":["ScreAtriNorefAsseModDxNocp"]}],"gender":"female","birthDate":"1954-12-02","address":[{"text":"ScreAtriNorefAsseModDxNocp, Screened Not at risk Assessed Severely Malnourished Diagnosed Care Plan, ID=ScreAtriNorefAsseModDxNocp, DOB: 02 Feb 1954"}]},"request":{"method":"PUT","url":"Patient/165d4163-b24b-416b-8b12-5a3dfca5cd4c"}},{"resource":{"resourceType":"Bundle","id":"ScreAtriNorefAsseModDxNocp","type":"transaction","entry":[{"fullUrl":"https://madie.cms.gov/Patient/165d4163-b24b-416b-8b12-5a3dfca5cd4c","resource":{"resourceType":"Patient","id":"165d4163-b24b-416b-8b12-5a3dfca5cd4c","meta":{"profile":["http://hl7.org/fhir/us/qicore/StructureDefinition/qicore-patient"]},"extension":[{"url":"http://hl7.org/fhir/us/core/StructureDefinition/us-core-race","extension":[{"url":"ombCategory","valueCoding":{"system":"urn:oid:2.16.840.1.113883.6.238","code":"2054-5","display":"Black or African American","userSelected":true}},{"url":"text","valueString":"Black or African American"}]},{"url":"http://hl7.org/fhir/us/core/StructureDefinition/us-core-ethnicity","extension":[{"url":"ombCategory","valueCoding":{"system":"urn:oid:2.16.840.1.113883.6.238","code":"2186-5","display":"Not Hispanic or Latino","userSelected":true}},{"url":"text","valueString":"Not Hispanic or Latino"}]},{"url":"http://hl7.org/fhir/us/core/StructureDefinition/us-core-sex","valueCode":"248152002"}],"identifier":[{"type":{"coding":[{"system":"http://terminology.hl7.org/CodeSystem/v2-0203","code":"MR"}]},"system":"https://madie.cms.gov/","value":"ScreAtriNorefAsseModDxNocp"}],"active":true,"name":[{"use":"usual","text":"ScreAtriNorefAsseModDxNocp","family":"MSROBSPass4","given":["ScreAtriNorefAsseModDxNocp"]}],"gender":"female","birthDate":"1954-12-02","address":[{"text":"ScreAtriNorefAsseModDxNocp, Screened Not at risk Assessed Severely Malnourished Diagnosed Care Plan, ID=ScreAtriNorefAsseModDxNocp, DOB: 02 Feb 1954"}]},"request":{"method":"PUT","url":"Patient/165d4163-b24b-416b-8b12-5a3dfca5cd4c"}},{"fullUrl":"https://madie.cms.gov/Encounter/2495e5d7-5faf-4845-be86-e3e2713b4558","resource":{"resourceType":"Encounter","id":"2495e5d7-5faf-4845-be86-e3e2713b4558","meta":{"profile":["http://hl7.org/fhir/us/qicore/StructureDefinition/qicore-encounter"]},"status":"finished","class":{"system":"http://terminology.hl7.org/CodeSystem/v3-ActCode","code":"IMP","display":"inpatient encounter"},"type":[{"coding":[{"system":"http://snomed.info/sct","code":"183452005"}]}],"subject":{"reference":"Patient/165d4163-b24b-416b-8b12-5a3dfca5cd4c"},"period":{"start":"2026-08-24T08:00:00.000+00:00","end":"2026-08-29T08:15:00.000+00:00"},"reasonReference":[{"reference":"Condition/e5ef037d-7492-4cfd-bd75-3e185cc30d56"}]},"request":{"method":"PUT","url":"Encounter/2495e5d7-5faf-4845-be86-e3e2713b4558"}},{"fullUrl":"https://madie.cms.gov/Encounter/60089b7c-1361-4198-a5d3-a48bed573c71","resource":{"resourceType":"Encounter","id":"60089b7c-1361-4198-a5d3-a48bed573c71","meta":{"profile":["http://hl7.org/fhir/us/qicore/StructureDefinition/qicore-encounter"]},"status":"finished","class":{"system":"http://terminology.hl7.org/CodeSystem/v3-ActCode","code":"IMP","display":"admission to obervation unit (procedure)"},"type":[{"coding":[{"system":"http://snomed.info/sct","code":"448951000124107"}]}],"subject":{"reference":"Patient/165d4163-b24b-416b-8b12-5a3dfca5cd4c"},"period":{"start":"2026-08-23T08:00:00.000+00:00","end":"2026-08-24T08:15:00.000+00:00"}},"request":{"method":"PUT","url":"Encounter/60089b7c-1361-4198-a5d3-a48bed573c71"}},{"fullUrl":"https://madie.cms.gov/Condition/e5ef037d-7492-4cfd-bd75-3e185cc30d56","resource":{"resourceType":"Condition","id":"e5ef037d-7492-4cfd-bd75-3e185cc30d56","meta":{"profile":["http://hl7.org/fhir/us/qicore/StructureDefinition/qicore-condition-encounter-diagnosis"]},"clinicalStatus":{"coding":[{"system":"http://terminology.hl7.org/CodeSystem/condition-clinical","code":"active","display":"Active","userSelected":true}]},"verificationStatus":{"coding":[{"system":"http://terminology.hl7.org/CodeSystem/condition-ver-status","code":"confirmed","display":"Confirmed","userSelected":true}]},"category":[{"coding":[{"system":"http://terminology.hl7.org/CodeSystem/condition-category","code":"encounter-diagnosis","display":"Encounter Diagnosis","userSelected":true}]}],"code":{"coding":[{"system":"http://snomed.info/sct","code":"65404009","display":"Undernutrition (disorder)","userSelected":true}]},"subject":{"reference":"Patient/165d4163-b24b-416b-8b12-5a3dfca5cd4c"},"onsetPeriod":{"start":"2026-08-24T08:00:00.000+00:00"},"recordedDate":"2026-08-24T11:00:00.000+00:00"},"request":{"method":"PUT","url":"Condition/e5ef037d-7492-4cfd-bd75-3e185cc30d56"}},{"fullUrl":"https://madie.cms.gov/Observation/b6b68ba1-75bf-4c4d-909f-b04243da288c","resource":{"resourceType":"Observation","id":"b6b68ba1-75bf-4c4d-909f-b04243da288c","meta":{"profile":["http://hl7.org/fhir/us/qicore/StructureDefinition/qicore-observation-screening-assessment"]},"status":"final","category":[{"coding":[{"system":"http://terminology.hl7.org/CodeSystem/observation-category","code":"survey","display":"Survey"}]}],"code":{"coding":[{"system":"http://loinc.org","code":"98968-1","display":"Initial screening NRS_2002","userSelected":true}]},"subject":{"reference":"Patient/165d4163-b24b-416b-8b12-5a3dfca5cd4c"},"effectiveDateTime":"2026-08-24T09:00:00.000+00:00","valueCodeableConcept":{"coding":[{"system":"http://loinc.org","code":"LA27538-0","display":"At risk for malnutrition","userSelected":true}]}},"request":{"method":"PUT","url":"Observation/b6b68ba1-75bf-4c4d-909f-b04243da288c"}},{"fullUrl":"https://madie.cms.gov/Observation/9e167c2b-db82-46d0-9aeb-41fd63aba585","resource":{"resourceType":"Observation","id":"9e167c2b-db82-46d0-9aeb-41fd63aba585","meta":{"profile":["http://hl7.org/fhir/us/qicore/StructureDefinition/qicore-observation-screening-assessment"]},"status":"final","category":[{"coding":[{"system":"http://terminology.hl7.org/CodeSystem/observation-category","code":"survey","display":"Survey"}]}],"code":{"coding":[{"system":"http://loinc.org","code":"75303-8","display":"Nutrition assessment narrative","userSelected":true}]},"subject":{"reference":"Patient/165d4163-b24b-416b-8b12-5a3dfca5cd4c"},"effectiveDateTime":"2026-08-25T10:00:00.000+00:00","valueCodeableConcept":{"coding":[{"system":"http://snomed.info/sct","code":"77675002","display":"Anorexia nervosa, restricting type (disorder)","userSelected":true}]}},"request":{"method":"PUT","url":"Observation/9e167c2b-db82-46d0-9aeb-41fd63aba585"}},{"fullUrl":"https://madie.cms.gov/Coverage/877481d0-8d61-4700-93e6-9a2f4ab8007c","resource":{"resourceType":"Coverage","id":"877481d0-8d61-4700-93e6-9a2f4ab8007c","meta":{"profile":["http://hl7.org/fhir/us/qicore/StructureDefinition/qicore-coverage"]},"status":"active","type":{"coding":[{"system":"https://nahdo.org/sopt","version":"9.2","code":"11","display":"Medicare Managed Care (Includes Medicare Advantage Plans)"}]},"subscriberId":"97531","beneficiary":{"reference":"Patient/165d4163-b24b-416b-8b12-5a3dfca5cd4c"},"dependent":"0","relationship":{"coding":[{"system":"http://terminology.hl7.org/CodeSystem/subscriber-relationship","code":"self"}]},"period":{"start":"2026-10-01T00:00:00.000+00:00"},"payor":[{"reference":"Organization/a4020b4f-bf3b-4b9d-8408-fcbb7d1bf686"}]},"request":{"method":"PUT","url":"Coverage/877481d0-8d61-4700-93e6-9a2f4ab8007c"}},{"fullUrl":"https://madie.cms.gov/Organization/a4020b4f-bf3b-4b9d-8408-fcbb7d1bf686","resource":{"resourceType":"Organization","id":"a4020b4f-bf3b-4b9d-8408-fcbb7d1bf686","meta":{"profile":["http://hl7.org/fhir/us/qicore/StructureDefinition/qicore-organization"]},"identifier":[{"use":"temp","system":"urn:oid:2.16.840.1.113883.4.4","value":"21-3259825"}],"active":true,"type":[{"coding":[{"system":"http://terminology.hl7.org/CodeSystem/organization-type","code":"pay","display":"Payer"}]}],"name":"Blue Cross Blue Shield of Texas","telecom":[{"system":"phone","value":"(+1) 972-766-6900"}],"address":[{"use":"billing","type":"postal","line":["P.O. Box 660044"],"city":"Dallas","state":"TX","postalCode":"75266-0044","country":"USA"}]},"request":{"method":"PUT","url":"Organization/a4020b4f-bf3b-4b9d-8408-fcbb7d1bf686"}},{"fullUrl":"https://madie.cms.gov/MeasureReport/da6a82ed-ede4-44bc-b4d1-55aeb037b1c5","resource":{"resourceType":"MeasureReport","id":"da6a82ed-ede4-44bc-b4d1-55aeb037b1c5","meta":{"profile":["http://hl7.org/fhir/us/cqfmeasures/StructureDefinition/test-case-cqfm"]},"contained":[{"resourceType":"Parameters","id":"9a7abe3a-186e-4b28-a800-e0a5da278a73-parameters","parameter":[{"name":"subject","valueString":"165d4163-b24b-416b-8b12-5a3dfca5cd4c"}]}],"extension":[{"url":"http://hl7.org/fhir/StructureDefinition/cqf-inputParameters","valueReference":{"reference":"#9a7abe3a-186e-4b28-a800-e0a5da278a73-parameters"}},{"url":"http://hl7.org/fhir/us/cqfmeasures/StructureDefinition/cqfm-testCaseDescription","valueMarkdown":"Screened, At Risk, No Referral, Assessed, Moderate Malnutrition, Diagnosis, No Care Plan"}],"modifierExtension":[{"url":"http://hl7.org/fhir/us/cqfmeasures/StructureDefinition/cqfm-isTestCase","valueBoolean":true}],"status":"complete","type":"individual","measure":"https://madie.cms.gov/Measure/CMS986FHIRMalnutritionScore","period":{"start":"2026-01-01","end":"2026-12-31"},"group":[{"id":"Group_1","population":[{"id":"InitialPopulation_1","code":{"coding":[{"system":"http://terminology.hl7.org/CodeSystem/measure-population","code":"initial-population","display":"Initial Population"}]},"count":1},{"id":"MeasurePopulation_1","code":{"coding":[{"system":"http://terminology.hl7.org/CodeSystem/measure-population","code":"measure-population","display":"Measure Population"}]},"count":1},{"id":"MeasurePopulationExclusion_1","code":{"coding":[{"system":"http://terminology.hl7.org/CodeSystem/measure-population","code":"measure-population-exclusion","display":"Measure Population Exclusion"}]},"count":0},{"id":"MeasureObservation_1_1","code":{"coding":[{"system":"http://terminology.hl7.org/CodeSystem/measure-population","code":"measure-population-observation","display":"Measure Population Observation"}]},"count":1}],"measureScore":{"value":0.0}},{"id":"Group_2","population":[{"id":"InitialPopulation_2","code":{"coding":[{"system":"http://terminology.hl7.org/CodeSystem/measure-population","code":"initial-population","display":"Initial Population"}]},"count":1},{"id":"MeasurePopulation_2","code":{"coding":[{"system":"http://terminology.hl7.org/CodeSystem/measure-population","code":"measure-population","display":"Measure Population"}]},"count":1},{"id":"MeasurePopulationExclusion_2","code":{"coding":[{"system":"http://terminology.hl7.org/CodeSystem/measure-population","code":"measure-population-exclusion","display":"Measure Population Exclusion"}]},"count":0},{"id":"MeasureObservation_2_1","code":{"coding":[{"system":"http://terminology.hl7.org/CodeSystem/measure-population","code":"measure-population-observation","display":"Measure Population Observation"}]},"count":1}],"measureScore":{"value":0.0}},{"id":"Group_3","population":[{"id":"InitialPopulation_3","code":{"coding":[{"system":"http://terminology.hl7.org/CodeSystem/measure-population","code":"initial-population","display":"Initial Population"}]},"count":1},{"id":"MeasurePopulation_3","code":{"coding":[{"system":"http://terminology.hl7.org/CodeSystem/measure-population","code":"measure-population","display":"Measure Population"}]},"count":1},{"id":"MeasurePopulationExclusion_3","code":{"coding":[{"system":"http://terminology.hl7.org/CodeSystem/measure-population","code":"measure-population-exclusion","display":"Measure Population Exclusion"}]},"count":0},{"id":"MeasureObservation_3_1","code":{"coding":[{"system":"http://terminology.hl7.org/CodeSystem/measure-population","code":"measure-population-observation","display":"Measure Population Observation"}]},"count":1}],"measureScore":{"value":0.0}},{"id":"Group_4","population":[{"id":"InitialPopulation_4","code":{"coding":[{"system":"http://terminology.hl7.org/CodeSystem/measure-population","code":"initial-population","display":"Initial Population"}]},"count":1},{"id":"MeasurePopulation_4","code":{"coding":[{"system":"http://terminology.hl7.org/CodeSystem/measure-population","code":"measure-population","display":"Measure Population"}]},"count":1},{"id":"MeasurePopulationExclusion_4","code":{"coding":[{"system":"http://terminology.hl7.org/CodeSystem/measure-population","code":"measure-population-exclusion","display":"Measure Population Exclusion"}]},"count":0},{"id":"MeasureObservation_4_1","code":{"coding":[{"system":"http://terminology.hl7.org/CodeSystem/measure-population","code":"measure-population-observation","display":"Measure Population Observation"}]},"count":0}],"measureScore":{"value":0.0}},{"id":"Group_5","population":[{"id":"InitialPopulation_5","code":{"coding":[{"system":"http://terminology.hl7.org/CodeSystem/measure-population","code":"initial-population","display":"Initial Population"}]},"count":1},{"id":"MeasurePopulation_5","code":{"coding":[{"system":"http://terminology.hl7.org/CodeSystem/measure-population","code":"measure-population","display":"Measure Population"}]},"count":1},{"id":"MeasurePopulationExclusion_5","code":{"coding":[{"system":"http://terminology.hl7.org/CodeSystem/measure-population","code":"measure-population-exclusion","display":"Measure Population Exclusion"}]},"count":0},{"id":"MeasureObservation_5_1","code":{"coding":[{"system":"http://terminology.hl7.org/CodeSystem/measure-population","code":"measure-population-observation","display":"Measure Population Observation"}]},"count":3}],"measureScore":{"value":0.0}},{"id":"Group_6","population":[{"id":"InitialPopulation_6","code":{"coding":[{"system":"http://terminology.hl7.org/CodeSystem/measure-population","code":"initial-population","display":"Initial Population"}]},"count":1},{"id":"MeasurePopulation_6","code":{"coding":[{"system":"http://terminology.hl7.org/CodeSystem/measure-population","code":"measure-population","display":"Measure Population"}]},"count":1},{"id":"MeasurePopulationExclusion_6","code":{"coding":[{"system":"http://terminology.hl7.org/CodeSystem/measure-population","code":"measure-population-exclusion","display":"Measure Population Exclusion"}]},"count":0},{"id":"MeasureObservation_6_1","code":{"coding":[{"system":"http://terminology.hl7.org/CodeSystem/measure-population","code":"measure-population-observation","display":"Measure Population Observation"}]},"count":75}],"measureScore":{"value":0.0}}],"evaluatedResource":[{"reference":"Patient/165d4163-b24b-416b-8b12-5a3dfca5cd4c"},{"reference":"Encounter/2495e5d7-5faf-4845-be86-e3e2713b4558"},{"reference":"Encounter/60089b7c-1361-4198-a5d3-a48bed573c71"},{"reference":"Condition/e5ef037d-7492-4cfd-bd75-3e185cc30d56"},{"reference":"Observation/b6b68ba1-75bf-4c4d-909f-b04243da288c"},{"reference":"Observation/9e167c2b-db82-46d0-9aeb-41fd63aba585"},{"reference":"Coverage/877481d0-8d61-4700-93e6-9a2f4ab8007c"},{"reference":"Organization/a4020b4f-bf3b-4b9d-8408-fcbb7d1bf686"}]},"request":{"method":"PUT","url":"MeasureReport/da6a82ed-ede4-44bc-b4d1-55aeb037b1c5"}}]},"request":{"method":"PUT","url":"Bundle/ScreAtriNorefAsseModDxNocp"}},{"resource":{"resourceType":"Encounter","id":"60089b7c-1361-4198-a5d3-a48bed573c71","meta":{"profile":["http://hl7.org/fhir/us/qicore/StructureDefinition/qicore-encounter"]},"status":"finished","class":{"system":"http://terminology.hl7.org/CodeSystem/v3-ActCode","code":"IMP","display":"admission to obervation unit (procedure)"},"type":[{"coding":[{"system":"http://snomed.info/sct","code":"448951000124107"}]}],"subject":{"reference":"Patient/165d4163-b24b-416b-8b12-5a3dfca5cd4c"},"period":{"start":"2026-08-23T08:00:00.000+00:00","end":"2026-08-24T08:15:00.000+00:00"}},"request":{"method":"PUT","url":"Encounter/60089b7c-1361-4198-a5d3-a48bed573c71"}},{"resource":{"resourceType":"Observation","id":"b6b68ba1-75bf-4c4d-909f-b04243da288c","meta":{"profile":["http://hl7.org/fhir/us/qicore/StructureDefinition/qicore-observation-screening-assessment"]},"status":"final","category":[{"coding":[{"system":"http://terminology.hl7.org/CodeSystem/observation-category","code":"survey","display":"Survey"}]}],"code":{"coding":[{"system":"http://loinc.org","code":"98968-1","display":"Initial screening NRS_2002","userSelected":true}]},"subject":{"reference":"Patient/165d4163-b24b-416b-8b12-5a3dfca5cd4c"},"effectiveDateTime":"2026-08-24T09:00:00.000+00:00","valueCodeableConcept":{"coding":[{"system":"http://loinc.org","code":"LA27538-0","display":"At risk for malnutrition","userSelected":true}]}},"request":{"method":"PUT","url":"Observation/b6b68ba1-75bf-4c4d-909f-b04243da288c"}},{"resource":{"resourceType":"MeasureReport","id":"da6a82ed-ede4-44bc-b4d1-55aeb037b1c5","meta":{"profile":["http://hl7.org/fhir/us/cqfmeasures/StructureDefinition/test-case-cqfm"]},"contained":[{"resourceType":"Parameters","id":"9a7abe3a-186e-4b28-a800-e0a5da278a73-parameters","parameter":[{"name":"subject","valueString":"165d4163-b24b-416b-8b12-5a3dfca5cd4c"}]}],"extension":[{"url":"http://hl7.org/fhir/StructureDefinition/cqf-inputParameters","valueReference":{"reference":"#9a7abe3a-186e-4b28-a800-e0a5da278a73-parameters"}},{"url":"http://hl7.org/fhir/us/cqfmeasures/StructureDefinition/cqfm-testCaseDescription","valueMarkdown":"Screened, At Risk, No Referral, Assessed, Moderate Malnutrition, Diagnosis, No Care Plan"}],"modifierExtension":[{"url":"http://hl7.org/fhir/us/cqfmeasures/StructureDefinition/cqfm-isTestCase","valueBoolean":true}],"status":"complete","type":"individual","measure":"https://madie.cms.gov/Measure/CMS986FHIRMalnutritionScore","period":{"start":"2026-01-01","end":"2026-12-31"},"group":[{"id":"Group_1","population":[{"id":"InitialPopulation_1","code":{"coding":[{"system":"http://terminology.hl7.org/CodeSystem/measure-population","code":"initial-population","display":"Initial Population"}]},"count":1},{"id":"MeasurePopulation_1","code":{"coding":[{"system":"http://terminology.hl7.org/CodeSystem/measure-population","code":"measure-population","display":"Measure Population"}]},"count":1},{"id":"MeasurePopulationExclusion_1","code":{"coding":[{"system":"http://terminology.hl7.org/CodeSystem/measure-population","code":"measure-population-exclusion","display":"Measure Population Exclusion"}]},"count":0},{"id":"MeasureObservation_1_1","code":{"coding":[{"system":"http://terminology.hl7.org/CodeSystem/measure-population","code":"measure-population-observation","display":"Measure Population Observation"}]},"count":1}],"measureScore":{"value":0.0}},{"id":"Group_2","population":[{"id":"InitialPopulation_2","code":{"coding":[{"system":"http://terminology.hl7.org/CodeSystem/measure-population","code":"initial-population","display":"Initial Population"}]},"count":1},{"id":"MeasurePopulation_2","code":{"coding":[{"system":"http://terminology.hl7.org/CodeSystem/measure-population","code":"measure-population","display":"Measure Population"}]},"count":1},{"id":"MeasurePopulationExclusion_2","code":{"coding":[{"system":"http://terminology.hl7.org/CodeSystem/measure-population","code":"measure-population-exclusion","display":"Measure Population Exclusion"}]},"count":0},{"id":"MeasureObservation_2_1","code":{"coding":[{"system":"http://terminology.hl7.org/CodeSystem/measure-population","code":"measure-population-observation","display":"Measure Population Observation"}]},"count":1}],"measureScore":{"value":0.0}},{"id":"Group_3","population":[{"id":"InitialPopulation_3","code":{"coding":[{"system":"http://terminology.hl7.org/CodeSystem/measure-population","code":"initial-population","display":"Initial Population"}]},"count":1},{"id":"MeasurePopulation_3","code":{"coding":[{"system":"http://terminology.hl7.org/CodeSystem/measure-population","code":"measure-population","display":"Measure Population"}]},"count":1},{"id":"MeasurePopulationExclusion_3","code":{"coding":[{"system":"http://terminology.hl7.org/CodeSystem/measure-population","code":"measure-population-exclusion","display":"Measure Population Exclusion"}]},"count":0},{"id":"MeasureObservation_3_1","code":{"coding":[{"system":"http://terminology.hl7.org/CodeSystem/measure-population","code":"measure-population-observation","display":"Measure Population Observation"}]},"count":1}],"measureScore":{"value":0.0}},{"id":"Group_4","population":[{"id":"InitialPopulation_4","code":{"coding":[{"system":"http://terminology.hl7.org/CodeSystem/measure-population","code":"initial-population","display":"Initial Population"}]},"count":1},{"id":"MeasurePopulation_4","code":{"coding":[{"system":"http://terminology.hl7.org/CodeSystem/measure-population","code":"measure-population","display":"Measure Population"}]},"count":1},{"id":"MeasurePopulationExclusion_4","code":{"coding":[{"system":"http://terminology.hl7.org/CodeSystem/measure-population","code":"measure-population-exclusion","display":"Measure Population Exclusion"}]},"count":0},{"id":"MeasureObservation_4_1","code":{"coding":[{"system":"http://terminology.hl7.org/CodeSystem/measure-population","code":"measure-population-observation","display":"Measure Population Observation"}]},"count":0}],"measureScore":{"value":0.0}},{"id":"Group_5","population":[{"id":"InitialPopulation_5","code":{"coding":[{"system":"http://terminology.hl7.org/CodeSystem/measure-population","code":"initial-population","display":"Initial Population"}]},"count":1},{"id":"MeasurePopulation_5","code":{"coding":[{"system":"http://terminology.hl7.org/CodeSystem/measure-population","code":"measure-population","display":"Measure Population"}]},"count":1},{"id":"MeasurePopulationExclusion_5","code":{"coding":[{"system":"http://terminology.hl7.org/CodeSystem/measure-population","code":"measure-population-exclusion","display":"Measure Population Exclusion"}]},"count":0},{"id":"MeasureObservation_5_1","code":{"coding":[{"system":"http://terminology.hl7.org/CodeSystem/measure-population","code":"measure-population-observation","display":"Measure Population Observation"}]},"count":3}],"measureScore":{"value":0.0}},{"id":"Group_6","population":[{"id":"InitialPopulation_6","code":{"coding":[{"system":"http://terminology.hl7.org/CodeSystem/measure-population","code":"initial-population","display":"Initial Population"}]},"count":1},{"id":"MeasurePopulation_6","code":{"coding":[{"system":"http://terminology.hl7.org/CodeSystem/measure-population","code":"measure-population","display":"Measure Population"}]},"count":1},{"id":"MeasurePopulationExclusion_6","code":{"coding":[{"system":"http://terminology.hl7.org/CodeSystem/measure-population","code":"measure-population-exclusion","display":"Measure Population Exclusion"}]},"count":0},{"id":"MeasureObservation_6_1","code":{"coding":[{"system":"http://terminology.hl7.org/CodeSystem/measure-population","code":"measure-population-observation","display":"Measure Population Observation"}]},"count":75}],"measureScore":{"value":0.0}}],"evaluatedResource":[{"reference":"Patient/165d4163-b24b-416b-8b12-5a3dfca5cd4c"},{"reference":"Encounter/2495e5d7-5faf-4845-be86-e3e2713b4558"},{"reference":"Encounter/60089b7c-1361-4198-a5d3-a48bed573c71"},{"reference":"Condition/e5ef037d-7492-4cfd-bd75-3e185cc30d56"},{"reference":"Observation/b6b68ba1-75bf-4c4d-909f-b04243da288c"},{"reference":"Observation/9e167c2b-db82-46d0-9aeb-41fd63aba585"},{"reference":"Coverage/877481d0-8d61-4700-93e6-9a2f4ab8007c"},{"reference":"Organization/a4020b4f-bf3b-4b9d-8408-fcbb7d1bf686"}]},"request":{"method":"PUT","url":"MeasureReport/da6a82ed-ede4-44bc-b4d1-55aeb037b1c5"}},{"resource":{"resourceType":"Observation","id":"9e167c2b-db82-46d0-9aeb-41fd63aba585","meta":{"profile":["http://hl7.org/fhir/us/qicore/StructureDefinition/qicore-observation-screening-assessment"]},"status":"final","category":[{"coding":[{"system":"http://terminology.hl7.org/CodeSystem/observation-category","code":"survey","display":"Survey"}]}],"code":{"coding":[{"system":"http://loinc.org","code":"75303-8","display":"Nutrition assessment narrative","userSelected":true}]},"subject":{"reference":"Patient/165d4163-b24b-416b-8b12-5a3dfca5cd4c"},"effectiveDateTime":"2026-08-25T10:00:00.000+00:00","valueCodeableConcept":{"coding":[{"system":"http://snomed.info/sct","code":"77675002","display":"Anorexia nervosa, restricting type (disorder)","userSelected":true}]}},"request":{"method":"PUT","url":"Observation/9e167c2b-db82-46d0-9aeb-41fd63aba585"}},{"resource":{"resourceType":"Organization","id":"a4020b4f-bf3b-4b9d-8408-fcbb7d1bf686","meta":{"profile":["http://hl7.org/fhir/us/qicore/StructureDefinition/qicore-organization"]},"identifier":[{"use":"temp","system":"urn:oid:2.16.840.1.113883.4.4","value":"21-3259825"}],"active":true,"type":[{"coding":[{"system":"http://terminology.hl7.org/CodeSystem/organization-type","code":"pay","display":"Payer"}]}],"name":"Blue Cross Blue Shield of Texas","telecom":[{"system":"phone","value":"(+1) 972-766-6900"}],"address":[{"use":"billing","type":"postal","line":["P.O. Box 660044"],"city":"Dallas","state":"TX","postalCode":"75266-0044","country":"USA"}]},"request":{"method":"PUT","url":"Organization/a4020b4f-bf3b-4b9d-8408-fcbb7d1bf686"}}]}