{"resourceType":"Bundle","id":"tests-5a9b6181-c8e1-466b-974c-9b0b9c0cc3ca-bundle","type":"transaction","entry":[{"fullUrl":"Bundle/NoscreNorefNoAsseDxCp","resource":{"resourceType":"Bundle","id":"NoscreNorefNoAsseDxCp","type":"transaction","entry":[{"fullUrl":"https://madie.cms.gov/Patient/5a9b6181-c8e1-466b-974c-9b0b9c0cc3ca","resource":{"resourceType":"Patient","id":"5a9b6181-c8e1-466b-974c-9b0b9c0cc3ca","meta":{"profile":["http://hl7.org/fhir/us/qicore/StructureDefinition/qicore-patient"]},"extension":[{"url":"http://hl7.org/fhir/us/core/StructureDefinition/us-core-race","extension":[{"url":"ombCategory","valueCoding":{"system":"urn:oid:2.16.840.1.113883.6.238","code":"2054-5","display":"Black or African American","userSelected":true}},{"url":"text","valueString":"Black"}]},{"url":"http://hl7.org/fhir/us/core/StructureDefinition/us-core-ethnicity","extension":[{"url":"ombCategory","valueCoding":{"system":"urn:oid:2.16.840.1.113883.6.238","code":"2135-2","display":"Hispanic or Latino","userSelected":true}},{"url":"text","valueString":"Hispanic or Latino"}]},{"url":"http://hl7.org/fhir/us/core/StructureDefinition/us-core-sex","valueCode":"248153007"}],"identifier":[{"type":{"coding":[{"system":"http://terminology.hl7.org/CodeSystem/v2-0203","code":"MR"}]},"system":"https://madie.cms.gov/","value":"NoscreNorefNoAsseDxCp"}],"active":true,"name":[{"use":"usual","text":"NoscreNorefNoAsseDxCp","family":"MSROBSPass1","given":["NoscreNorefNoAsseDxCp"]}],"gender":"male","birthDate":"1941-01-01","address":[{"text":"NoscreNorefNoAsseDxCp, Screened Not at risk Assessed Severely Malnourished Diagnosed Care Plan, ID=NoscreNorefNoAsseDxCp, DOB: 14 May 1950"}]},"request":{"method":"PUT","url":"Patient/5a9b6181-c8e1-466b-974c-9b0b9c0cc3ca"}},{"fullUrl":"https://madie.cms.gov/Encounter/058a0f28-0377-4772-8c2f-f8e804fb99d6","resource":{"resourceType":"Encounter","id":"058a0f28-0377-4772-8c2f-f8e804fb99d6","meta":{"profile":["http://hl7.org/fhir/us/qicore/StructureDefinition/qicore-encounter"]},"status":"finished","class":{"system":"http://terminology.hl7.org/CodeSystem/v3-ActCode","code":"IMP","display":"inpatient encounter"},"type":[{"coding":[{"system":"http://snomed.info/sct","code":"183452005"}]}],"subject":{"reference":"Patient/5a9b6181-c8e1-466b-974c-9b0b9c0cc3ca"},"period":{"start":"2026-02-01T08:00:00.000+00:00","end":"2026-02-07T08:15:00.000+00:00"}},"request":{"method":"PUT","url":"Encounter/058a0f28-0377-4772-8c2f-f8e804fb99d6"}},{"fullUrl":"https://madie.cms.gov/Procedure/5f25aba9-c92b-4a4a-bbc7-151c648e5aab","resource":{"resourceType":"Procedure","id":"5f25aba9-c92b-4a4a-bbc7-151c648e5aab","meta":{"profile":["http://hl7.org/fhir/us/qicore/StructureDefinition/qicore-procedure"]},"extension":[{"url":"http://hl7.org/fhir/us/qicore/StructureDefinition/qicore-recorded","valueDateTime":"2026-02-02T11:30:00.000+00:00"}],"status":"completed","code":{"coding":[{"system":"http://snomed.info/sct","code":"413315001","display":"Nutrition / feeding management (regime/therapy)"}],"text":"Nutrition/feeding management(regime/therapy)"},"subject":{"reference":"Patient/5a9b6181-c8e1-466b-974c-9b0b9c0cc3ca"},"encounter":{"reference":"Encounter/ScreAtriNorefAsseModDxCpDENOMPass4"},"performedPeriod":{"start":"2026-02-01T11:30:00.000+00:00","end":"2026-02-07T08:15:00.000+00:00"}},"request":{"method":"PUT","url":"Procedure/5f25aba9-c92b-4a4a-bbc7-151c648e5aab"}},{"fullUrl":"https://madie.cms.gov/Condition/2e534ca6-3525-42f5-93d0-30368358e838","resource":{"resourceType":"Condition","id":"2e534ca6-3525-42f5-93d0-30368358e838","meta":{"profile":["http://hl7.org/fhir/us/qicore/StructureDefinition/qicore-condition-encounter-diagnosis"]},"clinicalStatus":{"coding":[{"system":"http://terminology.hl7.org/CodeSystem/condition-clinical","code":"active","display":"Active","userSelected":true}]},"verificationStatus":{"coding":[{"system":"http://terminology.hl7.org/CodeSystem/condition-ver-status","code":"confirmed","display":"Confirmed","userSelected":true}]},"category":[{"coding":[{"system":"http://terminology.hl7.org/CodeSystem/condition-category","code":"encounter-diagnosis","display":"Encounter Diagnosis","userSelected":true}]}],"code":{"coding":[{"system":"http://snomed.info/sct","code":"238111008","display":"Deficiency of micronutrients (disorder)","userSelected":true}]},"subject":{"reference":"Patient/5a9b6181-c8e1-466b-974c-9b0b9c0cc3ca"},"onsetPeriod":{"start":"2026-02-02T08:00:00.000+00:00"},"recordedDate":"2026-02-02T11:00:00.000+00:00"},"request":{"method":"PUT","url":"Condition/2e534ca6-3525-42f5-93d0-30368358e838"}},{"fullUrl":"https://madie.cms.gov/Procedure/a7dac2e7-2570-412b-8425-1be78e50899d","resource":{"resourceType":"Procedure","id":"a7dac2e7-2570-412b-8425-1be78e50899d","meta":{"profile":["http://hl7.org/fhir/us/qicore/StructureDefinition/qicore-procedure"]},"extension":[{"url":"http://hl7.org/fhir/us/qicore/StructureDefinition/qicore-recorded","valueDateTime":"2026-02-02T11:30:00.000+00:00"}],"status":"completed","code":{"coding":[{"system":"http://snomed.info/sct","code":"445101000124100","display":"Collaborating in nutrition therapy (procedure)"}],"text":"Collaborating in nutrition therapy (procedure)"},"subject":{"reference":"Patient/5a9b6181-c8e1-466b-974c-9b0b9c0cc3ca"},"encounter":{"reference":"Encounter/NoscreNorefAsseNotmDxCpMSROBSPass1"},"performedPeriod":{"start":"2026-02-01T11:30:00.000+00:00","end":"2026-02-07T08:15:00.000+00:00"}},"request":{"method":"PUT","url":"Procedure/a7dac2e7-2570-412b-8425-1be78e50899d"}},{"fullUrl":"https://madie.cms.gov/Coverage/e60448ba-cf0d-4813-8525-1e35249e60fd","resource":{"resourceType":"Coverage","id":"e60448ba-cf0d-4813-8525-1e35249e60fd","meta":{"profile":["http://hl7.org/fhir/us/qicore/StructureDefinition/qicore-coverage"]},"status":"active","type":{"coding":[{"system":"https://nahdo.org/sopt","version":"9.2","code":"11","display":"Medicare Managed Care (Includes Medicare Advantage Plans)"}]},"subscriberId":"97531","beneficiary":{"reference":"Patient/5a9b6181-c8e1-466b-974c-9b0b9c0cc3ca"},"dependent":"0","relationship":{"coding":[{"system":"http://terminology.hl7.org/CodeSystem/subscriber-relationship","code":"self"}]},"period":{"start":"2025-10-01T00:00:00.000+00:00"},"payor":[{"reference":"Organization/2ec2c170-b66d-4f68-9378-03fff31e13a2"}]},"request":{"method":"PUT","url":"Coverage/e60448ba-cf0d-4813-8525-1e35249e60fd"}},{"fullUrl":"https://madie.cms.gov/Organization/2ec2c170-b66d-4f68-9378-03fff31e13a2","resource":{"resourceType":"Organization","id":"2ec2c170-b66d-4f68-9378-03fff31e13a2","meta":{"profile":["http://hl7.org/fhir/us/qicore/StructureDefinition/qicore-organization"]},"identifier":[{"use":"temp","system":"urn:oid:2.16.840.1.113883.4.4","value":"21-3259825"}],"active":true,"type":[{"coding":[{"system":"http://terminology.hl7.org/CodeSystem/organization-type","code":"pay","display":"Payer"}]}],"name":"Blue Cross Blue Shield of Texas","telecom":[{"system":"phone","value":"(+1) 972-766-6900"}],"address":[{"use":"billing","type":"postal","line":["P.O. Box 660044"],"city":"Dallas","state":"TX","postalCode":"75266-0044","country":"USA"}]},"request":{"method":"PUT","url":"Organization/2ec2c170-b66d-4f68-9378-03fff31e13a2"}},{"fullUrl":"https://madie.cms.gov/MeasureReport/4d68be22-34cc-4524-bbfe-256990357ea7","resource":{"resourceType":"MeasureReport","id":"4d68be22-34cc-4524-bbfe-256990357ea7","meta":{"profile":["http://hl7.org/fhir/us/cqfmeasures/StructureDefinition/test-case-cqfm"]},"contained":[{"resourceType":"Parameters","id":"988e107e-44ca-45e9-a17f-dba4eaef0b81-parameters","parameter":[{"name":"subject","valueString":"5a9b6181-c8e1-466b-974c-9b0b9c0cc3ca"}]}],"extension":[{"url":"http://hl7.org/fhir/StructureDefinition/cqf-inputParameters","valueReference":{"reference":"#988e107e-44ca-45e9-a17f-dba4eaef0b81-parameters"}},{"url":"http://hl7.org/fhir/us/cqfmeasures/StructureDefinition/cqfm-testCaseDescription","valueMarkdown":"No screened, no referral, no assessment, diagnosis, care plan"}],"modifierExtension":[{"url":"http://hl7.org/fhir/us/cqfmeasures/StructureDefinition/cqfm-isTestCase","valueBoolean":true}],"status":"complete","type":"individual","measure":"https://madie.cms.gov/Measure/CMS986FHIRMalnutritionScore","period":{"start":"2026-01-01","end":"2026-12-31"},"group":[{"id":"Group_1","population":[{"id":"InitialPopulation_1","code":{"coding":[{"system":"http://terminology.hl7.org/CodeSystem/measure-population","code":"initial-population","display":"Initial Population"}]},"count":1},{"id":"MeasurePopulation_1","code":{"coding":[{"system":"http://terminology.hl7.org/CodeSystem/measure-population","code":"measure-population","display":"Measure Population"}]},"count":1},{"id":"MeasurePopulationExclusion_1","code":{"coding":[{"system":"http://terminology.hl7.org/CodeSystem/measure-population","code":"measure-population-exclusion","display":"Measure Population Exclusion"}]},"count":0},{"id":"MeasureObservation_1_1","code":{"coding":[{"system":"http://terminology.hl7.org/CodeSystem/measure-population","code":"measure-population-observation","display":"Measure Population Observation"}]},"count":0}],"measureScore":{"value":0.0}},{"id":"Group_2","population":[{"id":"InitialPopulation_2","code":{"coding":[{"system":"http://terminology.hl7.org/CodeSystem/measure-population","code":"initial-population","display":"Initial Population"}]},"count":1},{"id":"MeasurePopulation_2","code":{"coding":[{"system":"http://terminology.hl7.org/CodeSystem/measure-population","code":"measure-population","display":"Measure Population"}]},"count":1},{"id":"MeasurePopulationExclusion_2","code":{"coding":[{"system":"http://terminology.hl7.org/CodeSystem/measure-population","code":"measure-population-exclusion","display":"Measure Population Exclusion"}]},"count":0},{"id":"MeasureObservation_2_1","code":{"coding":[{"system":"http://terminology.hl7.org/CodeSystem/measure-population","code":"measure-population-observation","display":"Measure Population Observation"}]},"count":0}],"measureScore":{"value":0.0}},{"id":"Group_3","population":[{"id":"InitialPopulation_3","code":{"coding":[{"system":"http://terminology.hl7.org/CodeSystem/measure-population","code":"initial-population","display":"Initial Population"}]},"count":1},{"id":"MeasurePopulation_3","code":{"coding":[{"system":"http://terminology.hl7.org/CodeSystem/measure-population","code":"measure-population","display":"Measure Population"}]},"count":1},{"id":"MeasurePopulationExclusion_3","code":{"coding":[{"system":"http://terminology.hl7.org/CodeSystem/measure-population","code":"measure-population-exclusion","display":"Measure Population Exclusion"}]},"count":0},{"id":"MeasureObservation_3_1","code":{"coding":[{"system":"http://terminology.hl7.org/CodeSystem/measure-population","code":"measure-population-observation","display":"Measure Population Observation"}]},"count":0}],"measureScore":{"value":0.0}},{"id":"Group_4","population":[{"id":"InitialPopulation_4","code":{"coding":[{"system":"http://terminology.hl7.org/CodeSystem/measure-population","code":"initial-population","display":"Initial Population"}]},"count":1},{"id":"MeasurePopulation_4","code":{"coding":[{"system":"http://terminology.hl7.org/CodeSystem/measure-population","code":"measure-population","display":"Measure Population"}]},"count":1},{"id":"MeasurePopulationExclusion_4","code":{"coding":[{"system":"http://terminology.hl7.org/CodeSystem/measure-population","code":"measure-population-exclusion","display":"Measure Population Exclusion"}]},"count":0},{"id":"MeasureObservation_4_1","code":{"coding":[{"system":"http://terminology.hl7.org/CodeSystem/measure-population","code":"measure-population-observation","display":"Measure Population Observation"}]},"count":0}],"measureScore":{"value":0.0}},{"id":"Group_5","population":[{"id":"InitialPopulation_5","code":{"coding":[{"system":"http://terminology.hl7.org/CodeSystem/measure-population","code":"initial-population","display":"Initial Population"}]},"count":1},{"id":"MeasurePopulation_5","code":{"coding":[{"system":"http://terminology.hl7.org/CodeSystem/measure-population","code":"measure-population","display":"Measure Population"}]},"count":1},{"id":"MeasurePopulationExclusion_5","code":{"coding":[{"system":"http://terminology.hl7.org/CodeSystem/measure-population","code":"measure-population-exclusion","display":"Measure Population Exclusion"}]},"count":0},{"id":"MeasureObservation_5_1","code":{"coding":[{"system":"http://terminology.hl7.org/CodeSystem/measure-population","code":"measure-population-observation","display":"Measure Population Observation"}]},"count":0}],"measureScore":{"value":0.0}},{"id":"Group_6","population":[{"id":"InitialPopulation_6","code":{"coding":[{"system":"http://terminology.hl7.org/CodeSystem/measure-population","code":"initial-population","display":"Initial Population"}]},"count":1},{"id":"MeasurePopulation_6","code":{"coding":[{"system":"http://terminology.hl7.org/CodeSystem/measure-population","code":"measure-population","display":"Measure Population"}]},"count":1},{"id":"MeasurePopulationExclusion_6","code":{"coding":[{"system":"http://terminology.hl7.org/CodeSystem/measure-population","code":"measure-population-exclusion","display":"Measure Population Exclusion"}]},"count":0},{"id":"MeasureObservation_6_1","code":{"coding":[{"system":"http://terminology.hl7.org/CodeSystem/measure-population","code":"measure-population-observation","display":"Measure Population Observation"}]},"count":0}],"measureScore":{"value":0.0}}],"evaluatedResource":[{"reference":"Patient/5a9b6181-c8e1-466b-974c-9b0b9c0cc3ca"},{"reference":"Encounter/058a0f28-0377-4772-8c2f-f8e804fb99d6"},{"reference":"Procedure/5f25aba9-c92b-4a4a-bbc7-151c648e5aab"},{"reference":"Condition/2e534ca6-3525-42f5-93d0-30368358e838"},{"reference":"Procedure/a7dac2e7-2570-412b-8425-1be78e50899d"},{"reference":"Coverage/e60448ba-cf0d-4813-8525-1e35249e60fd"},{"reference":"Organization/2ec2c170-b66d-4f68-9378-03fff31e13a2"}]},"request":{"method":"PUT","url":"MeasureReport/4d68be22-34cc-4524-bbfe-256990357ea7"}}]},"request":{"method":"PUT","url":"Bundle/NoscreNorefNoAsseDxCp"}},{"fullUrl":"Procedure/a7dac2e7-2570-412b-8425-1be78e50899d","resource":{"resourceType":"Procedure","id":"a7dac2e7-2570-412b-8425-1be78e50899d","meta":{"profile":["http://hl7.org/fhir/us/qicore/StructureDefinition/qicore-procedure"]},"extension":[{"url":"http://hl7.org/fhir/us/qicore/StructureDefinition/qicore-recorded","valueDateTime":"2026-02-02T11:30:00.000+00:00"}],"status":"completed","code":{"coding":[{"system":"http://snomed.info/sct","code":"445101000124100","display":"Collaborating in nutrition therapy (procedure)"}],"text":"Collaborating in nutrition therapy (procedure)"},"subject":{"reference":"Patient/5a9b6181-c8e1-466b-974c-9b0b9c0cc3ca"},"encounter":{"reference":"Encounter/NoscreNorefAsseNotmDxCpMSROBSPass1"},"performedPeriod":{"start":"2026-02-01T11:30:00.000+00:00","end":"2026-02-07T08:15:00.000+00:00"}},"request":{"method":"PUT","url":"Procedure/a7dac2e7-2570-412b-8425-1be78e50899d"}},{"fullUrl":"MeasureReport/4d68be22-34cc-4524-bbfe-256990357ea7","resource":{"resourceType":"MeasureReport","id":"4d68be22-34cc-4524-bbfe-256990357ea7","meta":{"profile":["http://hl7.org/fhir/us/cqfmeasures/StructureDefinition/test-case-cqfm"]},"contained":[{"resourceType":"Parameters","id":"988e107e-44ca-45e9-a17f-dba4eaef0b81-parameters","parameter":[{"name":"subject","valueString":"5a9b6181-c8e1-466b-974c-9b0b9c0cc3ca"}]}],"extension":[{"url":"http://hl7.org/fhir/StructureDefinition/cqf-inputParameters","valueReference":{"reference":"#988e107e-44ca-45e9-a17f-dba4eaef0b81-parameters"}},{"url":"http://hl7.org/fhir/us/cqfmeasures/StructureDefinition/cqfm-testCaseDescription","valueMarkdown":"No screened, no referral, no assessment, diagnosis, care plan"}],"modifierExtension":[{"url":"http://hl7.org/fhir/us/cqfmeasures/StructureDefinition/cqfm-isTestCase","valueBoolean":true}],"status":"complete","type":"individual","measure":"https://madie.cms.gov/Measure/CMS986FHIRMalnutritionScore","period":{"start":"2026-01-01","end":"2026-12-31"},"group":[{"id":"Group_1","population":[{"id":"InitialPopulation_1","code":{"coding":[{"system":"http://terminology.hl7.org/CodeSystem/measure-population","code":"initial-population","display":"Initial Population"}]},"count":1},{"id":"MeasurePopulation_1","code":{"coding":[{"system":"http://terminology.hl7.org/CodeSystem/measure-population","code":"measure-population","display":"Measure Population"}]},"count":1},{"id":"MeasurePopulationExclusion_1","code":{"coding":[{"system":"http://terminology.hl7.org/CodeSystem/measure-population","code":"measure-population-exclusion","display":"Measure Population Exclusion"}]},"count":0},{"id":"MeasureObservation_1_1","code":{"coding":[{"system":"http://terminology.hl7.org/CodeSystem/measure-population","code":"measure-population-observation","display":"Measure Population Observation"}]},"count":0}],"measureScore":{"value":0.0}},{"id":"Group_2","population":[{"id":"InitialPopulation_2","code":{"coding":[{"system":"http://terminology.hl7.org/CodeSystem/measure-population","code":"initial-population","display":"Initial Population"}]},"count":1},{"id":"MeasurePopulation_2","code":{"coding":[{"system":"http://terminology.hl7.org/CodeSystem/measure-population","code":"measure-population","display":"Measure Population"}]},"count":1},{"id":"MeasurePopulationExclusion_2","code":{"coding":[{"system":"http://terminology.hl7.org/CodeSystem/measure-population","code":"measure-population-exclusion","display":"Measure Population Exclusion"}]},"count":0},{"id":"MeasureObservation_2_1","code":{"coding":[{"system":"http://terminology.hl7.org/CodeSystem/measure-population","code":"measure-population-observation","display":"Measure Population Observation"}]},"count":0}],"measureScore":{"value":0.0}},{"id":"Group_3","population":[{"id":"InitialPopulation_3","code":{"coding":[{"system":"http://terminology.hl7.org/CodeSystem/measure-population","code":"initial-population","display":"Initial Population"}]},"count":1},{"id":"MeasurePopulation_3","code":{"coding":[{"system":"http://terminology.hl7.org/CodeSystem/measure-population","code":"measure-population","display":"Measure Population"}]},"count":1},{"id":"MeasurePopulationExclusion_3","code":{"coding":[{"system":"http://terminology.hl7.org/CodeSystem/measure-population","code":"measure-population-exclusion","display":"Measure Population Exclusion"}]},"count":0},{"id":"MeasureObservation_3_1","code":{"coding":[{"system":"http://terminology.hl7.org/CodeSystem/measure-population","code":"measure-population-observation","display":"Measure Population Observation"}]},"count":0}],"measureScore":{"value":0.0}},{"id":"Group_4","population":[{"id":"InitialPopulation_4","code":{"coding":[{"system":"http://terminology.hl7.org/CodeSystem/measure-population","code":"initial-population","display":"Initial Population"}]},"count":1},{"id":"MeasurePopulation_4","code":{"coding":[{"system":"http://terminology.hl7.org/CodeSystem/measure-population","code":"measure-population","display":"Measure Population"}]},"count":1},{"id":"MeasurePopulationExclusion_4","code":{"coding":[{"system":"http://terminology.hl7.org/CodeSystem/measure-population","code":"measure-population-exclusion","display":"Measure Population Exclusion"}]},"count":0},{"id":"MeasureObservation_4_1","code":{"coding":[{"system":"http://terminology.hl7.org/CodeSystem/measure-population","code":"measure-population-observation","display":"Measure Population Observation"}]},"count":0}],"measureScore":{"value":0.0}},{"id":"Group_5","population":[{"id":"InitialPopulation_5","code":{"coding":[{"system":"http://terminology.hl7.org/CodeSystem/measure-population","code":"initial-population","display":"Initial Population"}]},"count":1},{"id":"MeasurePopulation_5","code":{"coding":[{"system":"http://terminology.hl7.org/CodeSystem/measure-population","code":"measure-population","display":"Measure Population"}]},"count":1},{"id":"MeasurePopulationExclusion_5","code":{"coding":[{"system":"http://terminology.hl7.org/CodeSystem/measure-population","code":"measure-population-exclusion","display":"Measure Population Exclusion"}]},"count":0},{"id":"MeasureObservation_5_1","code":{"coding":[{"system":"http://terminology.hl7.org/CodeSystem/measure-population","code":"measure-population-observation","display":"Measure Population Observation"}]},"count":0}],"measureScore":{"value":0.0}},{"id":"Group_6","population":[{"id":"InitialPopulation_6","code":{"coding":[{"system":"http://terminology.hl7.org/CodeSystem/measure-population","code":"initial-population","display":"Initial Population"}]},"count":1},{"id":"MeasurePopulation_6","code":{"coding":[{"system":"http://terminology.hl7.org/CodeSystem/measure-population","code":"measure-population","display":"Measure Population"}]},"count":1},{"id":"MeasurePopulationExclusion_6","code":{"coding":[{"system":"http://terminology.hl7.org/CodeSystem/measure-population","code":"measure-population-exclusion","display":"Measure Population Exclusion"}]},"count":0},{"id":"MeasureObservation_6_1","code":{"coding":[{"system":"http://terminology.hl7.org/CodeSystem/measure-population","code":"measure-population-observation","display":"Measure Population Observation"}]},"count":0}],"measureScore":{"value":0.0}}],"evaluatedResource":[{"reference":"Patient/5a9b6181-c8e1-466b-974c-9b0b9c0cc3ca"},{"reference":"Encounter/058a0f28-0377-4772-8c2f-f8e804fb99d6"},{"reference":"Procedure/5f25aba9-c92b-4a4a-bbc7-151c648e5aab"},{"reference":"Condition/2e534ca6-3525-42f5-93d0-30368358e838"},{"reference":"Procedure/a7dac2e7-2570-412b-8425-1be78e50899d"},{"reference":"Coverage/e60448ba-cf0d-4813-8525-1e35249e60fd"},{"reference":"Organization/2ec2c170-b66d-4f68-9378-03fff31e13a2"}]},"request":{"method":"PUT","url":"MeasureReport/4d68be22-34cc-4524-bbfe-256990357ea7"}},{"fullUrl":"Coverage/e60448ba-cf0d-4813-8525-1e35249e60fd","resource":{"resourceType":"Coverage","id":"e60448ba-cf0d-4813-8525-1e35249e60fd","meta":{"profile":["http://hl7.org/fhir/us/qicore/StructureDefinition/qicore-coverage"]},"status":"active","type":{"coding":[{"system":"https://nahdo.org/sopt","version":"9.2","code":"11","display":"Medicare Managed Care (Includes Medicare Advantage Plans)"}]},"subscriberId":"97531","beneficiary":{"reference":"Patient/5a9b6181-c8e1-466b-974c-9b0b9c0cc3ca"},"dependent":"0","relationship":{"coding":[{"system":"http://terminology.hl7.org/CodeSystem/subscriber-relationship","code":"self"}]},"period":{"start":"2025-10-01T00:00:00.000+00:00"},"payor":[{"reference":"Organization/2ec2c170-b66d-4f68-9378-03fff31e13a2"}]},"request":{"method":"PUT","url":"Coverage/e60448ba-cf0d-4813-8525-1e35249e60fd"}},{"fullUrl":"Patient/5a9b6181-c8e1-466b-974c-9b0b9c0cc3ca","resource":{"resourceType":"Patient","id":"5a9b6181-c8e1-466b-974c-9b0b9c0cc3ca","meta":{"profile":["http://hl7.org/fhir/us/qicore/StructureDefinition/qicore-patient"]},"extension":[{"url":"http://hl7.org/fhir/us/core/StructureDefinition/us-core-race","extension":[{"url":"ombCategory","valueCoding":{"system":"urn:oid:2.16.840.1.113883.6.238","code":"2054-5","display":"Black or African American","userSelected":true}},{"url":"text","valueString":"Black"}]},{"url":"http://hl7.org/fhir/us/core/StructureDefinition/us-core-ethnicity","extension":[{"url":"ombCategory","valueCoding":{"system":"urn:oid:2.16.840.1.113883.6.238","code":"2135-2","display":"Hispanic or Latino","userSelected":true}},{"url":"text","valueString":"Hispanic or Latino"}]},{"url":"http://hl7.org/fhir/us/core/StructureDefinition/us-core-sex","valueCode":"248153007"}],"identifier":[{"type":{"coding":[{"system":"http://terminology.hl7.org/CodeSystem/v2-0203","code":"MR"}]},"system":"https://madie.cms.gov/","value":"NoscreNorefNoAsseDxCp"}],"active":true,"name":[{"use":"usual","text":"NoscreNorefNoAsseDxCp","family":"MSROBSPass1","given":["NoscreNorefNoAsseDxCp"]}],"gender":"male","birthDate":"1941-01-01","address":[{"text":"NoscreNorefNoAsseDxCp, Screened Not at risk Assessed Severely Malnourished Diagnosed Care Plan, ID=NoscreNorefNoAsseDxCp, DOB: 14 May 1950"}]},"request":{"method":"PUT","url":"Patient/5a9b6181-c8e1-466b-974c-9b0b9c0cc3ca"}},{"fullUrl":"Condition/2e534ca6-3525-42f5-93d0-30368358e838","resource":{"resourceType":"Condition","id":"2e534ca6-3525-42f5-93d0-30368358e838","meta":{"profile":["http://hl7.org/fhir/us/qicore/StructureDefinition/qicore-condition-encounter-diagnosis"]},"clinicalStatus":{"coding":[{"system":"http://terminology.hl7.org/CodeSystem/condition-clinical","code":"active","display":"Active","userSelected":true}]},"verificationStatus":{"coding":[{"system":"http://terminology.hl7.org/CodeSystem/condition-ver-status","code":"confirmed","display":"Confirmed","userSelected":true}]},"category":[{"coding":[{"system":"http://terminology.hl7.org/CodeSystem/condition-category","code":"encounter-diagnosis","display":"Encounter Diagnosis","userSelected":true}]}],"code":{"coding":[{"system":"http://snomed.info/sct","code":"238111008","display":"Deficiency of micronutrients (disorder)","userSelected":true}]},"subject":{"reference":"Patient/5a9b6181-c8e1-466b-974c-9b0b9c0cc3ca"},"onsetPeriod":{"start":"2026-02-02T08:00:00.000+00:00"},"recordedDate":"2026-02-02T11:00:00.000+00:00"},"request":{"method":"PUT","url":"Condition/2e534ca6-3525-42f5-93d0-30368358e838"}},{"fullUrl":"Organization/2ec2c170-b66d-4f68-9378-03fff31e13a2","resource":{"resourceType":"Organization","id":"2ec2c170-b66d-4f68-9378-03fff31e13a2","meta":{"profile":["http://hl7.org/fhir/us/qicore/StructureDefinition/qicore-organization"]},"identifier":[{"use":"temp","system":"urn:oid:2.16.840.1.113883.4.4","value":"21-3259825"}],"active":true,"type":[{"coding":[{"system":"http://terminology.hl7.org/CodeSystem/organization-type","code":"pay","display":"Payer"}]}],"name":"Blue Cross Blue Shield of Texas","telecom":[{"system":"phone","value":"(+1) 972-766-6900"}],"address":[{"use":"billing","type":"postal","line":["P.O. Box 660044"],"city":"Dallas","state":"TX","postalCode":"75266-0044","country":"USA"}]},"request":{"method":"PUT","url":"Organization/2ec2c170-b66d-4f68-9378-03fff31e13a2"}},{"fullUrl":"Procedure/5f25aba9-c92b-4a4a-bbc7-151c648e5aab","resource":{"resourceType":"Procedure","id":"5f25aba9-c92b-4a4a-bbc7-151c648e5aab","meta":{"profile":["http://hl7.org/fhir/us/qicore/StructureDefinition/qicore-procedure"]},"extension":[{"url":"http://hl7.org/fhir/us/qicore/StructureDefinition/qicore-recorded","valueDateTime":"2026-02-02T11:30:00.000+00:00"}],"status":"completed","code":{"coding":[{"system":"http://snomed.info/sct","code":"413315001","display":"Nutrition / feeding management (regime/therapy)"}],"text":"Nutrition/feeding management(regime/therapy)"},"subject":{"reference":"Patient/5a9b6181-c8e1-466b-974c-9b0b9c0cc3ca"},"encounter":{"reference":"Encounter/ScreAtriNorefAsseModDxCpDENOMPass4"},"performedPeriod":{"start":"2026-02-01T11:30:00.000+00:00","end":"2026-02-07T08:15:00.000+00:00"}},"request":{"method":"PUT","url":"Procedure/5f25aba9-c92b-4a4a-bbc7-151c648e5aab"}},{"fullUrl":"Encounter/058a0f28-0377-4772-8c2f-f8e804fb99d6","resource":{"resourceType":"Encounter","id":"058a0f28-0377-4772-8c2f-f8e804fb99d6","meta":{"profile":["http://hl7.org/fhir/us/qicore/StructureDefinition/qicore-encounter"]},"status":"finished","class":{"system":"http://terminology.hl7.org/CodeSystem/v3-ActCode","code":"IMP","display":"inpatient encounter"},"type":[{"coding":[{"system":"http://snomed.info/sct","code":"183452005"}]}],"subject":{"reference":"Patient/5a9b6181-c8e1-466b-974c-9b0b9c0cc3ca"},"period":{"start":"2026-02-01T08:00:00.000+00:00","end":"2026-02-07T08:15:00.000+00:00"}},"request":{"method":"PUT","url":"Encounter/058a0f28-0377-4772-8c2f-f8e804fb99d6"}}]}