{"resourceType":"Bundle","id":"tests-1f8f7d6b-3f4c-4479-b59a-84c89567be81-bundle","type":"transaction","entry":[{"fullUrl":"MeasureReport/44a75d5e-d16e-47cd-81a8-f9e9126a1ffd","resource":{"resourceType":"MeasureReport","id":"44a75d5e-d16e-47cd-81a8-f9e9126a1ffd","meta":{"profile":["http://hl7.org/fhir/us/cqfmeasures/StructureDefinition/test-case-cqfm"]},"contained":[{"resourceType":"Parameters","id":"f9cf9a3b-fb1c-4e08-a3fc-8e2f90890a12-parameters","parameter":[{"name":"subject","valueString":"1f8f7d6b-3f4c-4479-b59a-84c89567be81"}]}],"extension":[{"url":"http://hl7.org/fhir/StructureDefinition/cqf-inputParameters","valueReference":{"reference":"#f9cf9a3b-fb1c-4e08-a3fc-8e2f90890a12-parameters"}},{"url":"http://hl7.org/fhir/us/cqfmeasures/StructureDefinition/cqfm-testCaseDescription","valueMarkdown":"Not screened, Referral, Not Assessed, No Diagnosis, No Nutrition Care Plan"}],"modifierExtension":[{"url":"http://hl7.org/fhir/us/cqfmeasures/StructureDefinition/cqfm-isTestCase","valueBoolean":true}],"status":"complete","type":"individual","measure":"https://madie.cms.gov/Measure/CMS986FHIRMalnutritionScore","period":{"start":"2026-01-01","end":"2026-12-31"},"group":[{"id":"Group_1","population":[{"id":"InitialPopulation_1","code":{"coding":[{"system":"http://terminology.hl7.org/CodeSystem/measure-population","code":"initial-population","display":"Initial Population"}]},"count":1},{"id":"MeasurePopulation_1","code":{"coding":[{"system":"http://terminology.hl7.org/CodeSystem/measure-population","code":"measure-population","display":"Measure Population"}]},"count":1},{"id":"MeasurePopulationExclusion_1","code":{"coding":[{"system":"http://terminology.hl7.org/CodeSystem/measure-population","code":"measure-population-exclusion","display":"Measure Population Exclusion"}]},"count":0},{"id":"MeasureObservation_1_1","code":{"coding":[{"system":"http://terminology.hl7.org/CodeSystem/measure-population","code":"measure-population-observation","display":"Measure Population Observation"}]},"count":1}],"measureScore":{"value":0.0}},{"id":"Group_2","population":[{"id":"InitialPopulation_2","code":{"coding":[{"system":"http://terminology.hl7.org/CodeSystem/measure-population","code":"initial-population","display":"Initial Population"}]},"count":1},{"id":"MeasurePopulation_2","code":{"coding":[{"system":"http://terminology.hl7.org/CodeSystem/measure-population","code":"measure-population","display":"Measure Population"}]},"count":1},{"id":"MeasurePopulationExclusion_2","code":{"coding":[{"system":"http://terminology.hl7.org/CodeSystem/measure-population","code":"measure-population-exclusion","display":"Measure Population Exclusion"}]},"count":0},{"id":"MeasureObservation_2_1","code":{"coding":[{"system":"http://terminology.hl7.org/CodeSystem/measure-population","code":"measure-population-observation","display":"Measure Population Observation"}]},"count":0}],"measureScore":{"value":0.0}},{"id":"Group_3","population":[{"id":"InitialPopulation_3","code":{"coding":[{"system":"http://terminology.hl7.org/CodeSystem/measure-population","code":"initial-population","display":"Initial Population"}]},"count":1},{"id":"MeasurePopulation_3","code":{"coding":[{"system":"http://terminology.hl7.org/CodeSystem/measure-population","code":"measure-population","display":"Measure Population"}]},"count":1},{"id":"MeasurePopulationExclusion_3","code":{"coding":[{"system":"http://terminology.hl7.org/CodeSystem/measure-population","code":"measure-population-exclusion","display":"Measure Population Exclusion"}]},"count":0},{"id":"MeasureObservation_3_1","code":{"coding":[{"system":"http://terminology.hl7.org/CodeSystem/measure-population","code":"measure-population-observation","display":"Measure Population Observation"}]},"count":0}],"measureScore":{"value":0.0}},{"id":"Group_4","population":[{"id":"InitialPopulation_4","code":{"coding":[{"system":"http://terminology.hl7.org/CodeSystem/measure-population","code":"initial-population","display":"Initial Population"}]},"count":1},{"id":"MeasurePopulation_4","code":{"coding":[{"system":"http://terminology.hl7.org/CodeSystem/measure-population","code":"measure-population","display":"Measure Population"}]},"count":1},{"id":"MeasurePopulationExclusion_4","code":{"coding":[{"system":"http://terminology.hl7.org/CodeSystem/measure-population","code":"measure-population-exclusion","display":"Measure Population Exclusion"}]},"count":0},{"id":"MeasureObservation_4_1","code":{"coding":[{"system":"http://terminology.hl7.org/CodeSystem/measure-population","code":"measure-population-observation","display":"Measure Population Observation"}]},"count":0}],"measureScore":{"value":0.0}},{"id":"Group_5","population":[{"id":"InitialPopulation_5","code":{"coding":[{"system":"http://terminology.hl7.org/CodeSystem/measure-population","code":"initial-population","display":"Initial Population"}]},"count":1},{"id":"MeasurePopulation_5","code":{"coding":[{"system":"http://terminology.hl7.org/CodeSystem/measure-population","code":"measure-population","display":"Measure Population"}]},"count":1},{"id":"MeasurePopulationExclusion_5","code":{"coding":[{"system":"http://terminology.hl7.org/CodeSystem/measure-population","code":"measure-population-exclusion","display":"Measure Population Exclusion"}]},"count":0},{"id":"MeasureObservation_5_1","code":{"coding":[{"system":"http://terminology.hl7.org/CodeSystem/measure-population","code":"measure-population-observation","display":"Measure Population Observation"}]},"count":1}],"measureScore":{"value":0.0}},{"id":"Group_6","population":[{"id":"InitialPopulation_6","code":{"coding":[{"system":"http://terminology.hl7.org/CodeSystem/measure-population","code":"initial-population","display":"Initial Population"}]},"count":1},{"id":"MeasurePopulation_6","code":{"coding":[{"system":"http://terminology.hl7.org/CodeSystem/measure-population","code":"measure-population","display":"Measure Population"}]},"count":1},{"id":"MeasurePopulationExclusion_6","code":{"coding":[{"system":"http://terminology.hl7.org/CodeSystem/measure-population","code":"measure-population-exclusion","display":"Measure Population Exclusion"}]},"count":0},{"id":"MeasureObservation_6_1","code":{"coding":[{"system":"http://terminology.hl7.org/CodeSystem/measure-population","code":"measure-population-observation","display":"Measure Population Observation"}]},"count":50}],"measureScore":{"value":0.0}}],"evaluatedResource":[{"reference":"Patient/1f8f7d6b-3f4c-4479-b59a-84c89567be81"},{"reference":"Encounter/50fee49b-d2b3-4c5a-93ba-bb949b847642"},{"reference":"Procedure/f91b5f05-f864-4bc6-b003-5be5f36a845b"},{"reference":"Coverage/238844aa-5f63-44b3-9898-d731fc7ac496"},{"reference":"Organization/49a2bbbc-f09c-49df-8cab-d6b08f3a3549"}]},"request":{"method":"PUT","url":"MeasureReport/44a75d5e-d16e-47cd-81a8-f9e9126a1ffd"}},{"fullUrl":"Encounter/50fee49b-d2b3-4c5a-93ba-bb949b847642","resource":{"resourceType":"Encounter","id":"50fee49b-d2b3-4c5a-93ba-bb949b847642","meta":{"profile":["http://hl7.org/fhir/us/qicore/StructureDefinition/qicore-encounter"]},"status":"finished","class":{"system":"http://terminology.hl7.org/CodeSystem/v3-ActCode","code":"IMP","display":"inpatient encounter"},"type":[{"coding":[{"system":"http://snomed.info/sct","code":"183452005"}]}],"subject":{"reference":"Patient/1f8f7d6b-3f4c-4479-b59a-84c89567be81"},"period":{"start":"2026-11-22T08:00:00.000+00:00","end":"2026-11-24T08:15:00.000+00:00"}},"request":{"method":"PUT","url":"Encounter/50fee49b-d2b3-4c5a-93ba-bb949b847642"}},{"fullUrl":"Coverage/238844aa-5f63-44b3-9898-d731fc7ac496","resource":{"resourceType":"Coverage","id":"238844aa-5f63-44b3-9898-d731fc7ac496","meta":{"profile":["http://hl7.org/fhir/us/qicore/StructureDefinition/qicore-coverage"]},"status":"active","type":{"coding":[{"system":"https://nahdo.org/sopt","version":"9.2","code":"11","display":"Medicare Managed Care (Includes Medicare Advantage Plans)"}]},"subscriberId":"97531","beneficiary":{"reference":"Patient/1f8f7d6b-3f4c-4479-b59a-84c89567be81"},"dependent":"0","relationship":{"coding":[{"system":"http://terminology.hl7.org/CodeSystem/subscriber-relationship","code":"self"}]},"period":{"start":"2024-10-01T00:00:00.000+00:00"},"payor":[{"reference":"Organization/49a2bbbc-f09c-49df-8cab-d6b08f3a3549"}]},"request":{"method":"PUT","url":"Coverage/238844aa-5f63-44b3-9898-d731fc7ac496"}},{"fullUrl":"Procedure/f91b5f05-f864-4bc6-b003-5be5f36a845b","resource":{"resourceType":"Procedure","id":"f91b5f05-f864-4bc6-b003-5be5f36a845b","meta":{"profile":["http://hl7.org/fhir/us/qicore/StructureDefinition/qicore-procedure"]},"extension":[{"url":"http://hl7.org/fhir/us/qicore/StructureDefinition/qicore-recorded","valueDateTime":"2025-02-01T11:30:00.000+00:00"}],"status":"completed","code":{"coding":[{"system":"http://snomed.info/sct","code":"306165000","display":"Referral to hospital-based dietetics service (procedure)"}],"text":"Referral to hospital-based dietetics service (procedure)"},"subject":{"reference":"Patient/1f8f7d6b-3f4c-4479-b59a-84c89567be81"},"encounter":{"reference":"Encounter/NoscreRefNoasseNodxNocpMSROBSPass2"},"performedPeriod":{"start":"2026-11-22T11:30:00.000+00:00","end":"2026-11-24T08:15:00.000+00:00"}},"request":{"method":"PUT","url":"Procedure/f91b5f05-f864-4bc6-b003-5be5f36a845b"}},{"fullUrl":"Patient/1f8f7d6b-3f4c-4479-b59a-84c89567be81","resource":{"resourceType":"Patient","id":"1f8f7d6b-3f4c-4479-b59a-84c89567be81","meta":{"profile":["http://hl7.org/fhir/us/qicore/StructureDefinition/qicore-patient"]},"extension":[{"url":"http://hl7.org/fhir/us/core/StructureDefinition/us-core-race","extension":[{"url":"ombCategory","valueCoding":{"system":"urn:oid:2.16.840.1.113883.6.238","code":"2106-3","display":"White","userSelected":true}},{"url":"text","valueString":"White"}]},{"url":"http://hl7.org/fhir/us/core/StructureDefinition/us-core-ethnicity","extension":[{"url":"ombCategory","valueCoding":{"system":"urn:oid:2.16.840.1.113883.6.238","code":"2186-5","display":"Not Hispanic or Latino","userSelected":true}},{"url":"text","valueString":"Not Hispanic or Latino"}]},{"url":"http://hl7.org/fhir/us/core/StructureDefinition/us-core-sex","valueCode":"248153007"}],"identifier":[{"type":{"coding":[{"system":"http://terminology.hl7.org/CodeSystem/v2-0203","code":"MR"}]},"system":"https://madie.cms.gov/","value":"NoscreRefNoasseNodxNocp"}],"active":true,"name":[{"use":"usual","text":"NoscreRefNoasseNodxNocp","family":"MSROBSPass2","given":["NoscreRefNoasseNodxNocp"]}],"gender":"male","birthDate":"1959-11-21","address":[{"text":"NoscreRefNoasseNodxNocp, Not Screened, Referral, Not Assessed, No Diagnosis, Care Plan, ID=NoscreRefNoasseNodxNocp, DOB: 14 May 1950"}]},"request":{"method":"PUT","url":"Patient/1f8f7d6b-3f4c-4479-b59a-84c89567be81"}},{"fullUrl":"Bundle/NoscreRefNoasseNodxNocp","resource":{"resourceType":"Bundle","id":"NoscreRefNoasseNodxNocp","type":"transaction","entry":[{"fullUrl":"https://madie.cms.gov/Patient/1f8f7d6b-3f4c-4479-b59a-84c89567be81","resource":{"resourceType":"Patient","id":"1f8f7d6b-3f4c-4479-b59a-84c89567be81","meta":{"profile":["http://hl7.org/fhir/us/qicore/StructureDefinition/qicore-patient"]},"extension":[{"url":"http://hl7.org/fhir/us/core/StructureDefinition/us-core-race","extension":[{"url":"ombCategory","valueCoding":{"system":"urn:oid:2.16.840.1.113883.6.238","code":"2106-3","display":"White","userSelected":true}},{"url":"text","valueString":"White"}]},{"url":"http://hl7.org/fhir/us/core/StructureDefinition/us-core-ethnicity","extension":[{"url":"ombCategory","valueCoding":{"system":"urn:oid:2.16.840.1.113883.6.238","code":"2186-5","display":"Not Hispanic or Latino","userSelected":true}},{"url":"text","valueString":"Not Hispanic or Latino"}]},{"url":"http://hl7.org/fhir/us/core/StructureDefinition/us-core-sex","valueCode":"248153007"}],"identifier":[{"type":{"coding":[{"system":"http://terminology.hl7.org/CodeSystem/v2-0203","code":"MR"}]},"system":"https://madie.cms.gov/","value":"NoscreRefNoasseNodxNocp"}],"active":true,"name":[{"use":"usual","text":"NoscreRefNoasseNodxNocp","family":"MSROBSPass2","given":["NoscreRefNoasseNodxNocp"]}],"gender":"male","birthDate":"1959-11-21","address":[{"text":"NoscreRefNoasseNodxNocp, Not Screened, Referral, Not Assessed, No Diagnosis, Care Plan, ID=NoscreRefNoasseNodxNocp, DOB: 14 May 1950"}]},"request":{"method":"PUT","url":"Patient/1f8f7d6b-3f4c-4479-b59a-84c89567be81"}},{"fullUrl":"https://madie.cms.gov/Encounter/50fee49b-d2b3-4c5a-93ba-bb949b847642","resource":{"resourceType":"Encounter","id":"50fee49b-d2b3-4c5a-93ba-bb949b847642","meta":{"profile":["http://hl7.org/fhir/us/qicore/StructureDefinition/qicore-encounter"]},"status":"finished","class":{"system":"http://terminology.hl7.org/CodeSystem/v3-ActCode","code":"IMP","display":"inpatient encounter"},"type":[{"coding":[{"system":"http://snomed.info/sct","code":"183452005"}]}],"subject":{"reference":"Patient/1f8f7d6b-3f4c-4479-b59a-84c89567be81"},"period":{"start":"2026-11-22T08:00:00.000+00:00","end":"2026-11-24T08:15:00.000+00:00"}},"request":{"method":"PUT","url":"Encounter/50fee49b-d2b3-4c5a-93ba-bb949b847642"}},{"fullUrl":"https://madie.cms.gov/Procedure/f91b5f05-f864-4bc6-b003-5be5f36a845b","resource":{"resourceType":"Procedure","id":"f91b5f05-f864-4bc6-b003-5be5f36a845b","meta":{"profile":["http://hl7.org/fhir/us/qicore/StructureDefinition/qicore-procedure"]},"extension":[{"url":"http://hl7.org/fhir/us/qicore/StructureDefinition/qicore-recorded","valueDateTime":"2025-02-01T11:30:00.000+00:00"}],"status":"completed","code":{"coding":[{"system":"http://snomed.info/sct","code":"306165000","display":"Referral to hospital-based dietetics service (procedure)"}],"text":"Referral to hospital-based dietetics service (procedure)"},"subject":{"reference":"Patient/1f8f7d6b-3f4c-4479-b59a-84c89567be81"},"encounter":{"reference":"Encounter/NoscreRefNoasseNodxNocpMSROBSPass2"},"performedPeriod":{"start":"2026-11-22T11:30:00.000+00:00","end":"2026-11-24T08:15:00.000+00:00"}},"request":{"method":"PUT","url":"Procedure/f91b5f05-f864-4bc6-b003-5be5f36a845b"}},{"fullUrl":"https://madie.cms.gov/Coverage/238844aa-5f63-44b3-9898-d731fc7ac496","resource":{"resourceType":"Coverage","id":"238844aa-5f63-44b3-9898-d731fc7ac496","meta":{"profile":["http://hl7.org/fhir/us/qicore/StructureDefinition/qicore-coverage"]},"status":"active","type":{"coding":[{"system":"https://nahdo.org/sopt","version":"9.2","code":"11","display":"Medicare Managed Care (Includes Medicare Advantage Plans)"}]},"subscriberId":"97531","beneficiary":{"reference":"Patient/1f8f7d6b-3f4c-4479-b59a-84c89567be81"},"dependent":"0","relationship":{"coding":[{"system":"http://terminology.hl7.org/CodeSystem/subscriber-relationship","code":"self"}]},"period":{"start":"2024-10-01T00:00:00.000+00:00"},"payor":[{"reference":"Organization/49a2bbbc-f09c-49df-8cab-d6b08f3a3549"}]},"request":{"method":"PUT","url":"Coverage/238844aa-5f63-44b3-9898-d731fc7ac496"}},{"fullUrl":"https://madie.cms.gov/Organization/49a2bbbc-f09c-49df-8cab-d6b08f3a3549","resource":{"resourceType":"Organization","id":"49a2bbbc-f09c-49df-8cab-d6b08f3a3549","meta":{"profile":["http://hl7.org/fhir/us/qicore/StructureDefinition/qicore-organization"]},"identifier":[{"use":"temp","system":"urn:oid:2.16.840.1.113883.4.4","value":"21-3259825"}],"active":true,"type":[{"coding":[{"system":"http://terminology.hl7.org/CodeSystem/organization-type","code":"pay","display":"Payer"}]}],"name":"Blue Cross Blue Shield of Texas","telecom":[{"system":"phone","value":"(+1) 972-766-6900"}],"address":[{"use":"billing","type":"postal","line":["P.O. Box 660044"],"city":"Dallas","state":"TX","postalCode":"75266-0044","country":"USA"}]},"request":{"method":"PUT","url":"Organization/49a2bbbc-f09c-49df-8cab-d6b08f3a3549"}},{"fullUrl":"https://madie.cms.gov/MeasureReport/44a75d5e-d16e-47cd-81a8-f9e9126a1ffd","resource":{"resourceType":"MeasureReport","id":"44a75d5e-d16e-47cd-81a8-f9e9126a1ffd","meta":{"profile":["http://hl7.org/fhir/us/cqfmeasures/StructureDefinition/test-case-cqfm"]},"contained":[{"resourceType":"Parameters","id":"f9cf9a3b-fb1c-4e08-a3fc-8e2f90890a12-parameters","parameter":[{"name":"subject","valueString":"1f8f7d6b-3f4c-4479-b59a-84c89567be81"}]}],"extension":[{"url":"http://hl7.org/fhir/StructureDefinition/cqf-inputParameters","valueReference":{"reference":"#f9cf9a3b-fb1c-4e08-a3fc-8e2f90890a12-parameters"}},{"url":"http://hl7.org/fhir/us/cqfmeasures/StructureDefinition/cqfm-testCaseDescription","valueMarkdown":"Not screened, Referral, Not Assessed, No Diagnosis, No Nutrition Care Plan"}],"modifierExtension":[{"url":"http://hl7.org/fhir/us/cqfmeasures/StructureDefinition/cqfm-isTestCase","valueBoolean":true}],"status":"complete","type":"individual","measure":"https://madie.cms.gov/Measure/CMS986FHIRMalnutritionScore","period":{"start":"2026-01-01","end":"2026-12-31"},"group":[{"id":"Group_1","population":[{"id":"InitialPopulation_1","code":{"coding":[{"system":"http://terminology.hl7.org/CodeSystem/measure-population","code":"initial-population","display":"Initial Population"}]},"count":1},{"id":"MeasurePopulation_1","code":{"coding":[{"system":"http://terminology.hl7.org/CodeSystem/measure-population","code":"measure-population","display":"Measure Population"}]},"count":1},{"id":"MeasurePopulationExclusion_1","code":{"coding":[{"system":"http://terminology.hl7.org/CodeSystem/measure-population","code":"measure-population-exclusion","display":"Measure Population Exclusion"}]},"count":0},{"id":"MeasureObservation_1_1","code":{"coding":[{"system":"http://terminology.hl7.org/CodeSystem/measure-population","code":"measure-population-observation","display":"Measure Population Observation"}]},"count":1}],"measureScore":{"value":0.0}},{"id":"Group_2","population":[{"id":"InitialPopulation_2","code":{"coding":[{"system":"http://terminology.hl7.org/CodeSystem/measure-population","code":"initial-population","display":"Initial Population"}]},"count":1},{"id":"MeasurePopulation_2","code":{"coding":[{"system":"http://terminology.hl7.org/CodeSystem/measure-population","code":"measure-population","display":"Measure Population"}]},"count":1},{"id":"MeasurePopulationExclusion_2","code":{"coding":[{"system":"http://terminology.hl7.org/CodeSystem/measure-population","code":"measure-population-exclusion","display":"Measure Population Exclusion"}]},"count":0},{"id":"MeasureObservation_2_1","code":{"coding":[{"system":"http://terminology.hl7.org/CodeSystem/measure-population","code":"measure-population-observation","display":"Measure Population Observation"}]},"count":0}],"measureScore":{"value":0.0}},{"id":"Group_3","population":[{"id":"InitialPopulation_3","code":{"coding":[{"system":"http://terminology.hl7.org/CodeSystem/measure-population","code":"initial-population","display":"Initial Population"}]},"count":1},{"id":"MeasurePopulation_3","code":{"coding":[{"system":"http://terminology.hl7.org/CodeSystem/measure-population","code":"measure-population","display":"Measure Population"}]},"count":1},{"id":"MeasurePopulationExclusion_3","code":{"coding":[{"system":"http://terminology.hl7.org/CodeSystem/measure-population","code":"measure-population-exclusion","display":"Measure Population Exclusion"}]},"count":0},{"id":"MeasureObservation_3_1","code":{"coding":[{"system":"http://terminology.hl7.org/CodeSystem/measure-population","code":"measure-population-observation","display":"Measure Population Observation"}]},"count":0}],"measureScore":{"value":0.0}},{"id":"Group_4","population":[{"id":"InitialPopulation_4","code":{"coding":[{"system":"http://terminology.hl7.org/CodeSystem/measure-population","code":"initial-population","display":"Initial Population"}]},"count":1},{"id":"MeasurePopulation_4","code":{"coding":[{"system":"http://terminology.hl7.org/CodeSystem/measure-population","code":"measure-population","display":"Measure Population"}]},"count":1},{"id":"MeasurePopulationExclusion_4","code":{"coding":[{"system":"http://terminology.hl7.org/CodeSystem/measure-population","code":"measure-population-exclusion","display":"Measure Population Exclusion"}]},"count":0},{"id":"MeasureObservation_4_1","code":{"coding":[{"system":"http://terminology.hl7.org/CodeSystem/measure-population","code":"measure-population-observation","display":"Measure Population Observation"}]},"count":0}],"measureScore":{"value":0.0}},{"id":"Group_5","population":[{"id":"InitialPopulation_5","code":{"coding":[{"system":"http://terminology.hl7.org/CodeSystem/measure-population","code":"initial-population","display":"Initial Population"}]},"count":1},{"id":"MeasurePopulation_5","code":{"coding":[{"system":"http://terminology.hl7.org/CodeSystem/measure-population","code":"measure-population","display":"Measure Population"}]},"count":1},{"id":"MeasurePopulationExclusion_5","code":{"coding":[{"system":"http://terminology.hl7.org/CodeSystem/measure-population","code":"measure-population-exclusion","display":"Measure Population Exclusion"}]},"count":0},{"id":"MeasureObservation_5_1","code":{"coding":[{"system":"http://terminology.hl7.org/CodeSystem/measure-population","code":"measure-population-observation","display":"Measure Population Observation"}]},"count":1}],"measureScore":{"value":0.0}},{"id":"Group_6","population":[{"id":"InitialPopulation_6","code":{"coding":[{"system":"http://terminology.hl7.org/CodeSystem/measure-population","code":"initial-population","display":"Initial Population"}]},"count":1},{"id":"MeasurePopulation_6","code":{"coding":[{"system":"http://terminology.hl7.org/CodeSystem/measure-population","code":"measure-population","display":"Measure Population"}]},"count":1},{"id":"MeasurePopulationExclusion_6","code":{"coding":[{"system":"http://terminology.hl7.org/CodeSystem/measure-population","code":"measure-population-exclusion","display":"Measure Population Exclusion"}]},"count":0},{"id":"MeasureObservation_6_1","code":{"coding":[{"system":"http://terminology.hl7.org/CodeSystem/measure-population","code":"measure-population-observation","display":"Measure Population Observation"}]},"count":50}],"measureScore":{"value":0.0}}],"evaluatedResource":[{"reference":"Patient/1f8f7d6b-3f4c-4479-b59a-84c89567be81"},{"reference":"Encounter/50fee49b-d2b3-4c5a-93ba-bb949b847642"},{"reference":"Procedure/f91b5f05-f864-4bc6-b003-5be5f36a845b"},{"reference":"Coverage/238844aa-5f63-44b3-9898-d731fc7ac496"},{"reference":"Organization/49a2bbbc-f09c-49df-8cab-d6b08f3a3549"}]},"request":{"method":"PUT","url":"MeasureReport/44a75d5e-d16e-47cd-81a8-f9e9126a1ffd"}}]},"request":{"method":"PUT","url":"Bundle/NoscreRefNoasseNodxNocp"}},{"fullUrl":"Organization/49a2bbbc-f09c-49df-8cab-d6b08f3a3549","resource":{"resourceType":"Organization","id":"49a2bbbc-f09c-49df-8cab-d6b08f3a3549","meta":{"profile":["http://hl7.org/fhir/us/qicore/StructureDefinition/qicore-organization"]},"identifier":[{"use":"temp","system":"urn:oid:2.16.840.1.113883.4.4","value":"21-3259825"}],"active":true,"type":[{"coding":[{"system":"http://terminology.hl7.org/CodeSystem/organization-type","code":"pay","display":"Payer"}]}],"name":"Blue Cross Blue Shield of Texas","telecom":[{"system":"phone","value":"(+1) 972-766-6900"}],"address":[{"use":"billing","type":"postal","line":["P.O. Box 660044"],"city":"Dallas","state":"TX","postalCode":"75266-0044","country":"USA"}]},"request":{"method":"PUT","url":"Organization/49a2bbbc-f09c-49df-8cab-d6b08f3a3549"}}]}