{"resourceType":"Bundle","id":"tests-b438eddf-9781-4236-840f-25f45be7030d-bundle","type":"transaction","entry":[{"fullUrl":"Patient/b438eddf-9781-4236-840f-25f45be7030d","resource":{"resourceType":"Patient","id":"b438eddf-9781-4236-840f-25f45be7030d","meta":{"profile":["http://hl7.org/fhir/us/qicore/StructureDefinition/qicore-patient"]},"extension":[{"url":"http://hl7.org/fhir/us/core/StructureDefinition/us-core-race","extension":[{"url":"ombCategory","valueCoding":{"system":"urn:oid:2.16.840.1.113883.6.238","code":"2028-9","display":"Asian","userSelected":true}},{"url":"text","valueString":"Asian"}]},{"url":"http://hl7.org/fhir/us/core/StructureDefinition/us-core-ethnicity","extension":[{"url":"ombCategory","valueCoding":{"system":"urn:oid:2.16.840.1.113883.6.238","code":"2186-5","display":"Not Hispanic or Latino","userSelected":true}},{"url":"text","valueString":"Not Hispanic or Latino"}]},{"url":"http://hl7.org/fhir/us/core/StructureDefinition/us-core-sex","valueCode":"248152002"}],"identifier":[{"type":{"coding":[{"system":"http://terminology.hl7.org/CodeSystem/v2-0203","code":"MR"}]},"system":"https://madie.cms.gov/","value":"ScreAtriRefAsseModNodxNocp"}],"active":true,"name":[{"use":"usual","text":"ScreAtriRefAsseModNodxNocp","family":"MSROBSPass4","given":["ScreAtriRefAsseModNodxNocp"]}],"gender":"female","birthDate":"1953-01-01","address":[{"text":"ScreAtriRefAsseModNodxNocp, Screened Not at risk Assessed Severely Malnourished Diagnosed Care Plan, ID=ScreAtriRefAsseModNodxNocp, DOB: 01 Jan 1953"}]},"request":{"method":"PUT","url":"Patient/b438eddf-9781-4236-840f-25f45be7030d"}},{"fullUrl":"Bundle/ScreAtriRefAsseModNodxNocp","resource":{"resourceType":"Bundle","id":"ScreAtriRefAsseModNodxNocp","type":"transaction","entry":[{"fullUrl":"https://madie.cms.gov/Patient/b438eddf-9781-4236-840f-25f45be7030d","resource":{"resourceType":"Patient","id":"b438eddf-9781-4236-840f-25f45be7030d","meta":{"profile":["http://hl7.org/fhir/us/qicore/StructureDefinition/qicore-patient"]},"extension":[{"url":"http://hl7.org/fhir/us/core/StructureDefinition/us-core-race","extension":[{"url":"ombCategory","valueCoding":{"system":"urn:oid:2.16.840.1.113883.6.238","code":"2028-9","display":"Asian","userSelected":true}},{"url":"text","valueString":"Asian"}]},{"url":"http://hl7.org/fhir/us/core/StructureDefinition/us-core-ethnicity","extension":[{"url":"ombCategory","valueCoding":{"system":"urn:oid:2.16.840.1.113883.6.238","code":"2186-5","display":"Not Hispanic or Latino","userSelected":true}},{"url":"text","valueString":"Not Hispanic or Latino"}]},{"url":"http://hl7.org/fhir/us/core/StructureDefinition/us-core-sex","valueCode":"248152002"}],"identifier":[{"type":{"coding":[{"system":"http://terminology.hl7.org/CodeSystem/v2-0203","code":"MR"}]},"system":"https://madie.cms.gov/","value":"ScreAtriRefAsseModNodxNocp"}],"active":true,"name":[{"use":"usual","text":"ScreAtriRefAsseModNodxNocp","family":"MSROBSPass4","given":["ScreAtriRefAsseModNodxNocp"]}],"gender":"female","birthDate":"1953-01-01","address":[{"text":"ScreAtriRefAsseModNodxNocp, Screened Not at risk Assessed Severely Malnourished Diagnosed Care Plan, ID=ScreAtriRefAsseModNodxNocp, DOB: 01 Jan 1953"}]},"request":{"method":"PUT","url":"Patient/b438eddf-9781-4236-840f-25f45be7030d"}},{"fullUrl":"https://madie.cms.gov/Encounter/a79cbf17-4459-4a75-a736-13f1d81248b5","resource":{"resourceType":"Encounter","id":"a79cbf17-4459-4a75-a736-13f1d81248b5","meta":{"profile":["http://hl7.org/fhir/us/qicore/StructureDefinition/qicore-encounter"]},"status":"finished","class":{"system":"http://terminology.hl7.org/CodeSystem/v3-ActCode","code":"IMP","display":"inpatient encounter"},"type":[{"coding":[{"system":"http://snomed.info/sct","code":"8715000"}]}],"subject":{"reference":"Patient/b438eddf-9781-4236-840f-25f45be7030d"},"period":{"start":"2026-06-24T08:00:00.000+00:00","end":"2026-07-03T08:15:00.000+00:00"}},"request":{"method":"PUT","url":"Encounter/a79cbf17-4459-4a75-a736-13f1d81248b5"}},{"fullUrl":"https://madie.cms.gov/Observation/3ad3f86f-0167-4d87-8b89-fb794b7a5975","resource":{"resourceType":"Observation","id":"3ad3f86f-0167-4d87-8b89-fb794b7a5975","meta":{"profile":["http://hl7.org/fhir/us/qicore/StructureDefinition/qicore-observation-screening-assessment"]},"status":"final","category":[{"coding":[{"system":"http://terminology.hl7.org/CodeSystem/observation-category","code":"survey","display":"Survey"}]}],"code":{"coding":[{"system":"http://loinc.org","code":"98968-1","display":"Initial screening NRS_2002","userSelected":true}]},"subject":{"reference":"Patient/b438eddf-9781-4236-840f-25f45be7030d"},"effectiveDateTime":"2026-06-25T09:00:00.000+00:00","valueCodeableConcept":{"coding":[{"system":"http://snomed.info/sct","code":"129689002","display":"At increased risk for nutritional problem (finding)","userSelected":true}]}},"request":{"method":"PUT","url":"Observation/3ad3f86f-0167-4d87-8b89-fb794b7a5975"}},{"fullUrl":"https://madie.cms.gov/Observation/c6722dc3-b472-4d25-af66-a116514a6aca","resource":{"resourceType":"Observation","id":"c6722dc3-b472-4d25-af66-a116514a6aca","meta":{"profile":["http://hl7.org/fhir/us/qicore/StructureDefinition/qicore-observation-screening-assessment"]},"status":"final","category":[{"coding":[{"system":"http://terminology.hl7.org/CodeSystem/observation-category","code":"survey","display":"Survey"}]}],"code":{"coding":[{"system":"http://loinc.org","code":"75303-8","display":"Nutrition assessment narrative","userSelected":true}]},"subject":{"reference":"Patient/b438eddf-9781-4236-840f-25f45be7030d"},"effectiveDateTime":"2026-06-25T10:00:00.000+00:00","valueCodeableConcept":{"coding":[{"system":"http://snomed.info/sct","code":"102636009","display":"Chronic nutritional deficiency (finding)","userSelected":true}]}},"request":{"method":"PUT","url":"Observation/c6722dc3-b472-4d25-af66-a116514a6aca"}},{"fullUrl":"https://madie.cms.gov/Procedure/fe172ae2-da6a-42a6-b00f-825c35c6af29","resource":{"resourceType":"Procedure","id":"fe172ae2-da6a-42a6-b00f-825c35c6af29","meta":{"profile":["http://hl7.org/fhir/us/qicore/StructureDefinition/qicore-procedure"]},"extension":[{"url":"http://hl7.org/fhir/us/qicore/StructureDefinition/qicore-recorded","valueDateTime":"2026-06-25T11:30:00.000+00:00"}],"status":"completed","code":{"coding":[{"system":"http://snomed.info/sct","code":"306354000","display":"Referral to hospital-based dietitian (procedure)"}],"text":"Referral to hospital-based dietitian (procedure)"},"subject":{"reference":"Patient/b438eddf-9781-4236-840f-25f45be7030d"},"encounter":{"reference":"Encounter/ScreAtriRefAsseModNodxNocpMSROBSPass4"},"performedPeriod":{"start":"2026-06-25T11:30:00.000+00:00","end":"2026-06-30T08:15:00.000+00:00"}},"request":{"method":"PUT","url":"Procedure/fe172ae2-da6a-42a6-b00f-825c35c6af29"}},{"fullUrl":"https://madie.cms.gov/Coverage/3ff3e445-916d-4659-9d74-6e6ba27252b9","resource":{"resourceType":"Coverage","id":"3ff3e445-916d-4659-9d74-6e6ba27252b9","meta":{"profile":["http://hl7.org/fhir/us/qicore/StructureDefinition/qicore-coverage"]},"status":"active","type":{"coding":[{"system":"https://nahdo.org/sopt","version":"9.2","code":"11","display":"Medicare Managed Care (Includes Medicare Advantage Plans)"}]},"subscriberId":"97531","beneficiary":{"reference":"Patient/b438eddf-9781-4236-840f-25f45be7030d"},"dependent":"0","relationship":{"coding":[{"system":"http://terminology.hl7.org/CodeSystem/subscriber-relationship","code":"self"}]},"period":{"start":"2025-10-01T00:00:00.000+00:00"},"payor":[{"reference":"Organization/52207ca4-b8cd-4c2a-b50d-6903b4a0d5ab"}]},"request":{"method":"PUT","url":"Coverage/3ff3e445-916d-4659-9d74-6e6ba27252b9"}},{"fullUrl":"https://madie.cms.gov/Organization/52207ca4-b8cd-4c2a-b50d-6903b4a0d5ab","resource":{"resourceType":"Organization","id":"52207ca4-b8cd-4c2a-b50d-6903b4a0d5ab","meta":{"profile":["http://hl7.org/fhir/us/qicore/StructureDefinition/qicore-organization"]},"identifier":[{"use":"temp","system":"urn:oid:2.16.840.1.113883.4.4","value":"21-3259825"}],"active":true,"type":[{"coding":[{"system":"http://terminology.hl7.org/CodeSystem/organization-type","code":"pay","display":"Payer"}]}],"name":"Blue Cross Blue Shield of Texas","telecom":[{"system":"phone","value":"(+1) 972-766-6900"}],"address":[{"use":"billing","type":"postal","line":["P.O. Box 660044"],"city":"Dallas","state":"TX","postalCode":"75266-0044","country":"USA"}]},"request":{"method":"PUT","url":"Organization/52207ca4-b8cd-4c2a-b50d-6903b4a0d5ab"}},{"fullUrl":"https://madie.cms.gov/MeasureReport/1051aef8-74fc-46eb-ab5b-ed5091c396dd","resource":{"resourceType":"MeasureReport","id":"1051aef8-74fc-46eb-ab5b-ed5091c396dd","meta":{"profile":["http://hl7.org/fhir/us/cqfmeasures/StructureDefinition/test-case-cqfm"]},"contained":[{"resourceType":"Parameters","id":"c4517af5-0fc1-4adb-b2b4-91ef01bca73d-parameters","parameter":[{"name":"subject","valueString":"b438eddf-9781-4236-840f-25f45be7030d"}]}],"extension":[{"url":"http://hl7.org/fhir/StructureDefinition/cqf-inputParameters","valueReference":{"reference":"#c4517af5-0fc1-4adb-b2b4-91ef01bca73d-parameters"}},{"url":"http://hl7.org/fhir/us/cqfmeasures/StructureDefinition/cqfm-testCaseDescription","valueMarkdown":"Screened, At Risk, Referral, Assessed, Moderate Malnutrition, No Diagnosis, No Nutrition Care Plan"}],"modifierExtension":[{"url":"http://hl7.org/fhir/us/cqfmeasures/StructureDefinition/cqfm-isTestCase","valueBoolean":true}],"status":"complete","type":"individual","measure":"https://madie.cms.gov/Measure/CMS986FHIRMalnutritionScore","period":{"start":"2026-01-01","end":"2026-12-31"},"group":[{"id":"Group_1","population":[{"id":"InitialPopulation_1","code":{"coding":[{"system":"http://terminology.hl7.org/CodeSystem/measure-population","code":"initial-population","display":"Initial Population"}]},"count":1},{"id":"MeasurePopulation_1","code":{"coding":[{"system":"http://terminology.hl7.org/CodeSystem/measure-population","code":"measure-population","display":"Measure Population"}]},"count":1},{"id":"MeasurePopulationExclusion_1","code":{"coding":[{"system":"http://terminology.hl7.org/CodeSystem/measure-population","code":"measure-population-exclusion","display":"Measure Population Exclusion"}]},"count":0},{"id":"MeasureObservation_1_1","code":{"coding":[{"system":"http://terminology.hl7.org/CodeSystem/measure-population","code":"measure-population-observation","display":"Measure Population Observation"}]},"count":1}],"measureScore":{"value":0.0}},{"id":"Group_2","population":[{"id":"InitialPopulation_2","code":{"coding":[{"system":"http://terminology.hl7.org/CodeSystem/measure-population","code":"initial-population","display":"Initial Population"}]},"count":1},{"id":"MeasurePopulation_2","code":{"coding":[{"system":"http://terminology.hl7.org/CodeSystem/measure-population","code":"measure-population","display":"Measure Population"}]},"count":1},{"id":"MeasurePopulationExclusion_2","code":{"coding":[{"system":"http://terminology.hl7.org/CodeSystem/measure-population","code":"measure-population-exclusion","display":"Measure Population Exclusion"}]},"count":0},{"id":"MeasureObservation_2_1","code":{"coding":[{"system":"http://terminology.hl7.org/CodeSystem/measure-population","code":"measure-population-observation","display":"Measure Population Observation"}]},"count":1}],"measureScore":{"value":0.0}},{"id":"Group_3","population":[{"id":"InitialPopulation_3","code":{"coding":[{"system":"http://terminology.hl7.org/CodeSystem/measure-population","code":"initial-population","display":"Initial Population"}]},"count":1},{"id":"MeasurePopulation_3","code":{"coding":[{"system":"http://terminology.hl7.org/CodeSystem/measure-population","code":"measure-population","display":"Measure Population"}]},"count":1},{"id":"MeasurePopulationExclusion_3","code":{"coding":[{"system":"http://terminology.hl7.org/CodeSystem/measure-population","code":"measure-population-exclusion","display":"Measure Population Exclusion"}]},"count":0},{"id":"MeasureObservation_3_1","code":{"coding":[{"system":"http://terminology.hl7.org/CodeSystem/measure-population","code":"measure-population-observation","display":"Measure Population Observation"}]},"count":0}],"measureScore":{"value":0.0}},{"id":"Group_4","population":[{"id":"InitialPopulation_4","code":{"coding":[{"system":"http://terminology.hl7.org/CodeSystem/measure-population","code":"initial-population","display":"Initial Population"}]},"count":1},{"id":"MeasurePopulation_4","code":{"coding":[{"system":"http://terminology.hl7.org/CodeSystem/measure-population","code":"measure-population","display":"Measure Population"}]},"count":1},{"id":"MeasurePopulationExclusion_4","code":{"coding":[{"system":"http://terminology.hl7.org/CodeSystem/measure-population","code":"measure-population-exclusion","display":"Measure Population Exclusion"}]},"count":0},{"id":"MeasureObservation_4_1","code":{"coding":[{"system":"http://terminology.hl7.org/CodeSystem/measure-population","code":"measure-population-observation","display":"Measure Population Observation"}]},"count":0}],"measureScore":{"value":0.0}},{"id":"Group_5","population":[{"id":"InitialPopulation_5","code":{"coding":[{"system":"http://terminology.hl7.org/CodeSystem/measure-population","code":"initial-population","display":"Initial Population"}]},"count":1},{"id":"MeasurePopulation_5","code":{"coding":[{"system":"http://terminology.hl7.org/CodeSystem/measure-population","code":"measure-population","display":"Measure Population"}]},"count":1},{"id":"MeasurePopulationExclusion_5","code":{"coding":[{"system":"http://terminology.hl7.org/CodeSystem/measure-population","code":"measure-population-exclusion","display":"Measure Population Exclusion"}]},"count":0},{"id":"MeasureObservation_5_1","code":{"coding":[{"system":"http://terminology.hl7.org/CodeSystem/measure-population","code":"measure-population-observation","display":"Measure Population Observation"}]},"count":2}],"measureScore":{"value":0.0}},{"id":"Group_6","population":[{"id":"InitialPopulation_6","code":{"coding":[{"system":"http://terminology.hl7.org/CodeSystem/measure-population","code":"initial-population","display":"Initial Population"}]},"count":1},{"id":"MeasurePopulation_6","code":{"coding":[{"system":"http://terminology.hl7.org/CodeSystem/measure-population","code":"measure-population","display":"Measure Population"}]},"count":1},{"id":"MeasurePopulationExclusion_6","code":{"coding":[{"system":"http://terminology.hl7.org/CodeSystem/measure-population","code":"measure-population-exclusion","display":"Measure Population Exclusion"}]},"count":0},{"id":"MeasureObservation_6_1","code":{"coding":[{"system":"http://terminology.hl7.org/CodeSystem/measure-population","code":"measure-population-observation","display":"Measure Population Observation"}]},"count":50}],"measureScore":{"value":0.0}}],"evaluatedResource":[{"reference":"Patient/b438eddf-9781-4236-840f-25f45be7030d"},{"reference":"Encounter/a79cbf17-4459-4a75-a736-13f1d81248b5"},{"reference":"Observation/3ad3f86f-0167-4d87-8b89-fb794b7a5975"},{"reference":"Observation/c6722dc3-b472-4d25-af66-a116514a6aca"},{"reference":"Procedure/fe172ae2-da6a-42a6-b00f-825c35c6af29"},{"reference":"Coverage/3ff3e445-916d-4659-9d74-6e6ba27252b9"},{"reference":"Organization/52207ca4-b8cd-4c2a-b50d-6903b4a0d5ab"}]},"request":{"method":"PUT","url":"MeasureReport/1051aef8-74fc-46eb-ab5b-ed5091c396dd"}}]},"request":{"method":"PUT","url":"Bundle/ScreAtriRefAsseModNodxNocp"}},{"fullUrl":"Observation/c6722dc3-b472-4d25-af66-a116514a6aca","resource":{"resourceType":"Observation","id":"c6722dc3-b472-4d25-af66-a116514a6aca","meta":{"profile":["http://hl7.org/fhir/us/qicore/StructureDefinition/qicore-observation-screening-assessment"]},"status":"final","category":[{"coding":[{"system":"http://terminology.hl7.org/CodeSystem/observation-category","code":"survey","display":"Survey"}]}],"code":{"coding":[{"system":"http://loinc.org","code":"75303-8","display":"Nutrition assessment narrative","userSelected":true}]},"subject":{"reference":"Patient/b438eddf-9781-4236-840f-25f45be7030d"},"effectiveDateTime":"2026-06-25T10:00:00.000+00:00","valueCodeableConcept":{"coding":[{"system":"http://snomed.info/sct","code":"102636009","display":"Chronic nutritional deficiency (finding)","userSelected":true}]}},"request":{"method":"PUT","url":"Observation/c6722dc3-b472-4d25-af66-a116514a6aca"}},{"fullUrl":"Encounter/a79cbf17-4459-4a75-a736-13f1d81248b5","resource":{"resourceType":"Encounter","id":"a79cbf17-4459-4a75-a736-13f1d81248b5","meta":{"profile":["http://hl7.org/fhir/us/qicore/StructureDefinition/qicore-encounter"]},"status":"finished","class":{"system":"http://terminology.hl7.org/CodeSystem/v3-ActCode","code":"IMP","display":"inpatient encounter"},"type":[{"coding":[{"system":"http://snomed.info/sct","code":"8715000"}]}],"subject":{"reference":"Patient/b438eddf-9781-4236-840f-25f45be7030d"},"period":{"start":"2026-06-24T08:00:00.000+00:00","end":"2026-07-03T08:15:00.000+00:00"}},"request":{"method":"PUT","url":"Encounter/a79cbf17-4459-4a75-a736-13f1d81248b5"}},{"fullUrl":"Organization/52207ca4-b8cd-4c2a-b50d-6903b4a0d5ab","resource":{"resourceType":"Organization","id":"52207ca4-b8cd-4c2a-b50d-6903b4a0d5ab","meta":{"profile":["http://hl7.org/fhir/us/qicore/StructureDefinition/qicore-organization"]},"identifier":[{"use":"temp","system":"urn:oid:2.16.840.1.113883.4.4","value":"21-3259825"}],"active":true,"type":[{"coding":[{"system":"http://terminology.hl7.org/CodeSystem/organization-type","code":"pay","display":"Payer"}]}],"name":"Blue Cross Blue Shield of Texas","telecom":[{"system":"phone","value":"(+1) 972-766-6900"}],"address":[{"use":"billing","type":"postal","line":["P.O. Box 660044"],"city":"Dallas","state":"TX","postalCode":"75266-0044","country":"USA"}]},"request":{"method":"PUT","url":"Organization/52207ca4-b8cd-4c2a-b50d-6903b4a0d5ab"}},{"fullUrl":"MeasureReport/1051aef8-74fc-46eb-ab5b-ed5091c396dd","resource":{"resourceType":"MeasureReport","id":"1051aef8-74fc-46eb-ab5b-ed5091c396dd","meta":{"profile":["http://hl7.org/fhir/us/cqfmeasures/StructureDefinition/test-case-cqfm"]},"contained":[{"resourceType":"Parameters","id":"c4517af5-0fc1-4adb-b2b4-91ef01bca73d-parameters","parameter":[{"name":"subject","valueString":"b438eddf-9781-4236-840f-25f45be7030d"}]}],"extension":[{"url":"http://hl7.org/fhir/StructureDefinition/cqf-inputParameters","valueReference":{"reference":"#c4517af5-0fc1-4adb-b2b4-91ef01bca73d-parameters"}},{"url":"http://hl7.org/fhir/us/cqfmeasures/StructureDefinition/cqfm-testCaseDescription","valueMarkdown":"Screened, At Risk, Referral, Assessed, Moderate Malnutrition, No Diagnosis, No Nutrition Care Plan"}],"modifierExtension":[{"url":"http://hl7.org/fhir/us/cqfmeasures/StructureDefinition/cqfm-isTestCase","valueBoolean":true}],"status":"complete","type":"individual","measure":"https://madie.cms.gov/Measure/CMS986FHIRMalnutritionScore","period":{"start":"2026-01-01","end":"2026-12-31"},"group":[{"id":"Group_1","population":[{"id":"InitialPopulation_1","code":{"coding":[{"system":"http://terminology.hl7.org/CodeSystem/measure-population","code":"initial-population","display":"Initial Population"}]},"count":1},{"id":"MeasurePopulation_1","code":{"coding":[{"system":"http://terminology.hl7.org/CodeSystem/measure-population","code":"measure-population","display":"Measure Population"}]},"count":1},{"id":"MeasurePopulationExclusion_1","code":{"coding":[{"system":"http://terminology.hl7.org/CodeSystem/measure-population","code":"measure-population-exclusion","display":"Measure Population Exclusion"}]},"count":0},{"id":"MeasureObservation_1_1","code":{"coding":[{"system":"http://terminology.hl7.org/CodeSystem/measure-population","code":"measure-population-observation","display":"Measure Population Observation"}]},"count":1}],"measureScore":{"value":0.0}},{"id":"Group_2","population":[{"id":"InitialPopulation_2","code":{"coding":[{"system":"http://terminology.hl7.org/CodeSystem/measure-population","code":"initial-population","display":"Initial Population"}]},"count":1},{"id":"MeasurePopulation_2","code":{"coding":[{"system":"http://terminology.hl7.org/CodeSystem/measure-population","code":"measure-population","display":"Measure Population"}]},"count":1},{"id":"MeasurePopulationExclusion_2","code":{"coding":[{"system":"http://terminology.hl7.org/CodeSystem/measure-population","code":"measure-population-exclusion","display":"Measure Population Exclusion"}]},"count":0},{"id":"MeasureObservation_2_1","code":{"coding":[{"system":"http://terminology.hl7.org/CodeSystem/measure-population","code":"measure-population-observation","display":"Measure Population Observation"}]},"count":1}],"measureScore":{"value":0.0}},{"id":"Group_3","population":[{"id":"InitialPopulation_3","code":{"coding":[{"system":"http://terminology.hl7.org/CodeSystem/measure-population","code":"initial-population","display":"Initial Population"}]},"count":1},{"id":"MeasurePopulation_3","code":{"coding":[{"system":"http://terminology.hl7.org/CodeSystem/measure-population","code":"measure-population","display":"Measure Population"}]},"count":1},{"id":"MeasurePopulationExclusion_3","code":{"coding":[{"system":"http://terminology.hl7.org/CodeSystem/measure-population","code":"measure-population-exclusion","display":"Measure Population Exclusion"}]},"count":0},{"id":"MeasureObservation_3_1","code":{"coding":[{"system":"http://terminology.hl7.org/CodeSystem/measure-population","code":"measure-population-observation","display":"Measure Population Observation"}]},"count":0}],"measureScore":{"value":0.0}},{"id":"Group_4","population":[{"id":"InitialPopulation_4","code":{"coding":[{"system":"http://terminology.hl7.org/CodeSystem/measure-population","code":"initial-population","display":"Initial Population"}]},"count":1},{"id":"MeasurePopulation_4","code":{"coding":[{"system":"http://terminology.hl7.org/CodeSystem/measure-population","code":"measure-population","display":"Measure Population"}]},"count":1},{"id":"MeasurePopulationExclusion_4","code":{"coding":[{"system":"http://terminology.hl7.org/CodeSystem/measure-population","code":"measure-population-exclusion","display":"Measure Population Exclusion"}]},"count":0},{"id":"MeasureObservation_4_1","code":{"coding":[{"system":"http://terminology.hl7.org/CodeSystem/measure-population","code":"measure-population-observation","display":"Measure Population Observation"}]},"count":0}],"measureScore":{"value":0.0}},{"id":"Group_5","population":[{"id":"InitialPopulation_5","code":{"coding":[{"system":"http://terminology.hl7.org/CodeSystem/measure-population","code":"initial-population","display":"Initial Population"}]},"count":1},{"id":"MeasurePopulation_5","code":{"coding":[{"system":"http://terminology.hl7.org/CodeSystem/measure-population","code":"measure-population","display":"Measure Population"}]},"count":1},{"id":"MeasurePopulationExclusion_5","code":{"coding":[{"system":"http://terminology.hl7.org/CodeSystem/measure-population","code":"measure-population-exclusion","display":"Measure Population Exclusion"}]},"count":0},{"id":"MeasureObservation_5_1","code":{"coding":[{"system":"http://terminology.hl7.org/CodeSystem/measure-population","code":"measure-population-observation","display":"Measure Population Observation"}]},"count":2}],"measureScore":{"value":0.0}},{"id":"Group_6","population":[{"id":"InitialPopulation_6","code":{"coding":[{"system":"http://terminology.hl7.org/CodeSystem/measure-population","code":"initial-population","display":"Initial Population"}]},"count":1},{"id":"MeasurePopulation_6","code":{"coding":[{"system":"http://terminology.hl7.org/CodeSystem/measure-population","code":"measure-population","display":"Measure Population"}]},"count":1},{"id":"MeasurePopulationExclusion_6","code":{"coding":[{"system":"http://terminology.hl7.org/CodeSystem/measure-population","code":"measure-population-exclusion","display":"Measure Population Exclusion"}]},"count":0},{"id":"MeasureObservation_6_1","code":{"coding":[{"system":"http://terminology.hl7.org/CodeSystem/measure-population","code":"measure-population-observation","display":"Measure Population Observation"}]},"count":50}],"measureScore":{"value":0.0}}],"evaluatedResource":[{"reference":"Patient/b438eddf-9781-4236-840f-25f45be7030d"},{"reference":"Encounter/a79cbf17-4459-4a75-a736-13f1d81248b5"},{"reference":"Observation/3ad3f86f-0167-4d87-8b89-fb794b7a5975"},{"reference":"Observation/c6722dc3-b472-4d25-af66-a116514a6aca"},{"reference":"Procedure/fe172ae2-da6a-42a6-b00f-825c35c6af29"},{"reference":"Coverage/3ff3e445-916d-4659-9d74-6e6ba27252b9"},{"reference":"Organization/52207ca4-b8cd-4c2a-b50d-6903b4a0d5ab"}]},"request":{"method":"PUT","url":"MeasureReport/1051aef8-74fc-46eb-ab5b-ed5091c396dd"}},{"fullUrl":"Observation/3ad3f86f-0167-4d87-8b89-fb794b7a5975","resource":{"resourceType":"Observation","id":"3ad3f86f-0167-4d87-8b89-fb794b7a5975","meta":{"profile":["http://hl7.org/fhir/us/qicore/StructureDefinition/qicore-observation-screening-assessment"]},"status":"final","category":[{"coding":[{"system":"http://terminology.hl7.org/CodeSystem/observation-category","code":"survey","display":"Survey"}]}],"code":{"coding":[{"system":"http://loinc.org","code":"98968-1","display":"Initial screening NRS_2002","userSelected":true}]},"subject":{"reference":"Patient/b438eddf-9781-4236-840f-25f45be7030d"},"effectiveDateTime":"2026-06-25T09:00:00.000+00:00","valueCodeableConcept":{"coding":[{"system":"http://snomed.info/sct","code":"129689002","display":"At increased risk for nutritional problem (finding)","userSelected":true}]}},"request":{"method":"PUT","url":"Observation/3ad3f86f-0167-4d87-8b89-fb794b7a5975"}},{"fullUrl":"Coverage/3ff3e445-916d-4659-9d74-6e6ba27252b9","resource":{"resourceType":"Coverage","id":"3ff3e445-916d-4659-9d74-6e6ba27252b9","meta":{"profile":["http://hl7.org/fhir/us/qicore/StructureDefinition/qicore-coverage"]},"status":"active","type":{"coding":[{"system":"https://nahdo.org/sopt","version":"9.2","code":"11","display":"Medicare Managed Care (Includes Medicare Advantage Plans)"}]},"subscriberId":"97531","beneficiary":{"reference":"Patient/b438eddf-9781-4236-840f-25f45be7030d"},"dependent":"0","relationship":{"coding":[{"system":"http://terminology.hl7.org/CodeSystem/subscriber-relationship","code":"self"}]},"period":{"start":"2025-10-01T00:00:00.000+00:00"},"payor":[{"reference":"Organization/52207ca4-b8cd-4c2a-b50d-6903b4a0d5ab"}]},"request":{"method":"PUT","url":"Coverage/3ff3e445-916d-4659-9d74-6e6ba27252b9"}},{"fullUrl":"Procedure/fe172ae2-da6a-42a6-b00f-825c35c6af29","resource":{"resourceType":"Procedure","id":"fe172ae2-da6a-42a6-b00f-825c35c6af29","meta":{"profile":["http://hl7.org/fhir/us/qicore/StructureDefinition/qicore-procedure"]},"extension":[{"url":"http://hl7.org/fhir/us/qicore/StructureDefinition/qicore-recorded","valueDateTime":"2026-06-25T11:30:00.000+00:00"}],"status":"completed","code":{"coding":[{"system":"http://snomed.info/sct","code":"306354000","display":"Referral to hospital-based dietitian (procedure)"}],"text":"Referral to hospital-based dietitian (procedure)"},"subject":{"reference":"Patient/b438eddf-9781-4236-840f-25f45be7030d"},"encounter":{"reference":"Encounter/ScreAtriRefAsseModNodxNocpMSROBSPass4"},"performedPeriod":{"start":"2026-06-25T11:30:00.000+00:00","end":"2026-06-30T08:15:00.000+00:00"}},"request":{"method":"PUT","url":"Procedure/fe172ae2-da6a-42a6-b00f-825c35c6af29"}}]}