{"resourceType":"Bundle","id":"tests-81470689-a3f6-4580-88e0-5cddc5813c79-bundle","type":"transaction","entry":[{"resource":{"resourceType":"MeasureReport","id":"2166eddd-a60b-4cb2-ba70-6e824d3b4c5d","meta":{"profile":["http://hl7.org/fhir/us/cqfmeasures/StructureDefinition/test-case-cqfm"]},"contained":[{"resourceType":"Parameters","id":"e173a265-dddb-4242-8af6-8a7d2a8e0cd2-parameters","parameter":[{"name":"subject","valueString":"81470689-a3f6-4580-88e0-5cddc5813c79"}]}],"extension":[{"url":"http://hl7.org/fhir/StructureDefinition/cqf-inputParameters","valueReference":{"reference":"#e173a265-dddb-4242-8af6-8a7d2a8e0cd2-parameters"}},{"url":"http://hl7.org/fhir/us/cqfmeasures/StructureDefinition/cqfm-testCaseDescription","valueMarkdown":"Screened, At Risk, Referral, Assessed, Severe Malnutrition, Diagnosis, Nutrition Care Plan"}],"modifierExtension":[{"url":"http://hl7.org/fhir/us/cqfmeasures/StructureDefinition/cqfm-isTestCase","valueBoolean":true}],"status":"complete","type":"individual","measure":"https://madie.cms.gov/Measure/CMS986FHIRMalnutritionScore","period":{"start":"2026-01-01","end":"2026-12-31"},"group":[{"id":"Group_1","population":[{"id":"InitialPopulation_1","code":{"coding":[{"system":"http://terminology.hl7.org/CodeSystem/measure-population","code":"initial-population","display":"Initial Population"}]},"count":1},{"id":"MeasurePopulation_1","code":{"coding":[{"system":"http://terminology.hl7.org/CodeSystem/measure-population","code":"measure-population","display":"Measure Population"}]},"count":1},{"id":"MeasurePopulationExclusion_1","code":{"coding":[{"system":"http://terminology.hl7.org/CodeSystem/measure-population","code":"measure-population-exclusion","display":"Measure Population Exclusion"}]},"count":0},{"id":"MeasureObservation_1_1","code":{"coding":[{"system":"http://terminology.hl7.org/CodeSystem/measure-population","code":"measure-population-observation","display":"Measure Population Observation"}]},"count":1}],"measureScore":{"value":0.0}},{"id":"Group_2","population":[{"id":"InitialPopulation_2","code":{"coding":[{"system":"http://terminology.hl7.org/CodeSystem/measure-population","code":"initial-population","display":"Initial Population"}]},"count":1},{"id":"MeasurePopulation_2","code":{"coding":[{"system":"http://terminology.hl7.org/CodeSystem/measure-population","code":"measure-population","display":"Measure Population"}]},"count":1},{"id":"MeasurePopulationExclusion_2","code":{"coding":[{"system":"http://terminology.hl7.org/CodeSystem/measure-population","code":"measure-population-exclusion","display":"Measure Population Exclusion"}]},"count":0},{"id":"MeasureObservation_2_1","code":{"coding":[{"system":"http://terminology.hl7.org/CodeSystem/measure-population","code":"measure-population-observation","display":"Measure Population Observation"}]},"count":1}],"measureScore":{"value":0.0}},{"id":"Group_3","population":[{"id":"InitialPopulation_3","code":{"coding":[{"system":"http://terminology.hl7.org/CodeSystem/measure-population","code":"initial-population","display":"Initial Population"}]},"count":1},{"id":"MeasurePopulation_3","code":{"coding":[{"system":"http://terminology.hl7.org/CodeSystem/measure-population","code":"measure-population","display":"Measure Population"}]},"count":1},{"id":"MeasurePopulationExclusion_3","code":{"coding":[{"system":"http://terminology.hl7.org/CodeSystem/measure-population","code":"measure-population-exclusion","display":"Measure Population Exclusion"}]},"count":0},{"id":"MeasureObservation_3_1","code":{"coding":[{"system":"http://terminology.hl7.org/CodeSystem/measure-population","code":"measure-population-observation","display":"Measure Population Observation"}]},"count":1}],"measureScore":{"value":0.0}},{"id":"Group_4","population":[{"id":"InitialPopulation_4","code":{"coding":[{"system":"http://terminology.hl7.org/CodeSystem/measure-population","code":"initial-population","display":"Initial Population"}]},"count":1},{"id":"MeasurePopulation_4","code":{"coding":[{"system":"http://terminology.hl7.org/CodeSystem/measure-population","code":"measure-population","display":"Measure Population"}]},"count":1},{"id":"MeasurePopulationExclusion_4","code":{"coding":[{"system":"http://terminology.hl7.org/CodeSystem/measure-population","code":"measure-population-exclusion","display":"Measure Population Exclusion"}]},"count":0},{"id":"MeasureObservation_4_1","code":{"coding":[{"system":"http://terminology.hl7.org/CodeSystem/measure-population","code":"measure-population-observation","display":"Measure Population Observation"}]},"count":1}],"measureScore":{"value":0.0}},{"id":"Group_5","population":[{"id":"InitialPopulation_5","code":{"coding":[{"system":"http://terminology.hl7.org/CodeSystem/measure-population","code":"initial-population","display":"Initial Population"}]},"count":1},{"id":"MeasurePopulation_5","code":{"coding":[{"system":"http://terminology.hl7.org/CodeSystem/measure-population","code":"measure-population","display":"Measure Population"}]},"count":1},{"id":"MeasurePopulationExclusion_5","code":{"coding":[{"system":"http://terminology.hl7.org/CodeSystem/measure-population","code":"measure-population-exclusion","display":"Measure Population Exclusion"}]},"count":0},{"id":"MeasureObservation_5_1","code":{"coding":[{"system":"http://terminology.hl7.org/CodeSystem/measure-population","code":"measure-population-observation","display":"Measure Population Observation"}]},"count":4}],"measureScore":{"value":0.0}},{"id":"Group_6","population":[{"id":"InitialPopulation_6","code":{"coding":[{"system":"http://terminology.hl7.org/CodeSystem/measure-population","code":"initial-population","display":"Initial Population"}]},"count":1},{"id":"MeasurePopulation_6","code":{"coding":[{"system":"http://terminology.hl7.org/CodeSystem/measure-population","code":"measure-population","display":"Measure Population"}]},"count":1},{"id":"MeasurePopulationExclusion_6","code":{"coding":[{"system":"http://terminology.hl7.org/CodeSystem/measure-population","code":"measure-population-exclusion","display":"Measure Population Exclusion"}]},"count":0},{"id":"MeasureObservation_6_1","code":{"coding":[{"system":"http://terminology.hl7.org/CodeSystem/measure-population","code":"measure-population-observation","display":"Measure Population Observation"}]},"count":100}],"measureScore":{"value":0.0}}],"evaluatedResource":[{"reference":"Patient/81470689-a3f6-4580-88e0-5cddc5813c79"},{"reference":"Encounter/f744c3e3-90a9-4212-98fe-71f4476a922f"},{"reference":"Condition/2f7b6fd6-321a-4ca7-8fac-452b9dbedb55"},{"reference":"Observation/0c1f9051-fd56-4cb2-8949-e5eb88d4899b"},{"reference":"Observation/b3e92e44-e112-4ae2-ae31-0c020fb40d25"},{"reference":"Procedure/c8211ff2-0a66-4b9b-957d-df6dee60feef"},{"reference":"Procedure/ff3888b3-b033-4c43-b522-4637209af887"},{"reference":"Coverage/ff15697a-7b55-4e5a-b52d-d99cab9da890"},{"reference":"Organization/2787ea29-36e3-4d22-b419-0fde2b5041f5"}]},"request":{"method":"PUT","url":"MeasureReport/2166eddd-a60b-4cb2-ba70-6e824d3b4c5d"}},{"resource":{"resourceType":"Encounter","id":"f744c3e3-90a9-4212-98fe-71f4476a922f","meta":{"profile":["http://hl7.org/fhir/us/qicore/StructureDefinition/qicore-encounter"]},"status":"finished","class":{"system":"http://terminology.hl7.org/CodeSystem/v3-ActCode","code":"IMP","display":"Hospital admission (procedure)"},"type":[{"coding":[{"system":"http://snomed.info/sct","code":"183452005"}]}],"subject":{"reference":"Patient/81470689-a3f6-4580-88e0-5cddc5813c79"},"period":{"start":"2026-02-01T08:00:00.000+00:00","end":"2026-02-07T08:15:00.000+00:00"},"reasonReference":[{"reference":"Condition/2f7b6fd6-321a-4ca7-8fac-452b9dbedb55"}]},"request":{"method":"PUT","url":"Encounter/f744c3e3-90a9-4212-98fe-71f4476a922f"}},{"resource":{"resourceType":"Bundle","id":"ScreAtriRefAsseModDxCp","type":"transaction","entry":[{"fullUrl":"https://madie.cms.gov/Patient/81470689-a3f6-4580-88e0-5cddc5813c79","resource":{"resourceType":"Patient","id":"81470689-a3f6-4580-88e0-5cddc5813c79","meta":{"profile":["http://hl7.org/fhir/us/qicore/StructureDefinition/qicore-patient"]},"extension":[{"url":"http://hl7.org/fhir/us/core/StructureDefinition/us-core-race","extension":[{"url":"ombCategory","valueCoding":{"system":"urn:oid:2.16.840.1.113883.6.238","code":"2106-3","display":"White","userSelected":true}},{"url":"text","valueString":"White"}]},{"url":"http://hl7.org/fhir/us/core/StructureDefinition/us-core-ethnicity","extension":[{"url":"ombCategory","valueCoding":{"system":"urn:oid:2.16.840.1.113883.6.238","code":"2135-2","display":"Hispanic or Latino","userSelected":true}},{"url":"text","valueString":"Hispanic or Latino"}]},{"url":"http://hl7.org/fhir/us/core/StructureDefinition/us-core-sex","valueCode":"248153007"}],"identifier":[{"type":{"coding":[{"system":"http://terminology.hl7.org/CodeSystem/v2-0203","code":"MR"}]},"system":"https://madie.cms.gov/","value":"ScreAtriRefAsseModDxCp"}],"active":true,"name":[{"use":"usual","text":"ScreAtriRefAsseModDxCp","family":"MSROBSPass4","given":["ScreAtriRefAsseModDxCp"]}],"gender":"male","birthDate":"1956-03-02","address":[{"text":"ScreAtriRefAsseModDxCp, Screened Not at risk Assessed Severely Malnourished Diagnosed Care Plan, ID=ScreAtriRefAsseModDxCp, DOB: 03 Feb 1956"}]},"request":{"method":"PUT","url":"Patient/81470689-a3f6-4580-88e0-5cddc5813c79"}},{"fullUrl":"https://madie.cms.gov/Encounter/f744c3e3-90a9-4212-98fe-71f4476a922f","resource":{"resourceType":"Encounter","id":"f744c3e3-90a9-4212-98fe-71f4476a922f","meta":{"profile":["http://hl7.org/fhir/us/qicore/StructureDefinition/qicore-encounter"]},"status":"finished","class":{"system":"http://terminology.hl7.org/CodeSystem/v3-ActCode","code":"IMP","display":"Hospital admission (procedure)"},"type":[{"coding":[{"system":"http://snomed.info/sct","code":"183452005"}]}],"subject":{"reference":"Patient/81470689-a3f6-4580-88e0-5cddc5813c79"},"period":{"start":"2026-02-01T08:00:00.000+00:00","end":"2026-02-07T08:15:00.000+00:00"},"reasonReference":[{"reference":"Condition/2f7b6fd6-321a-4ca7-8fac-452b9dbedb55"}]},"request":{"method":"PUT","url":"Encounter/f744c3e3-90a9-4212-98fe-71f4476a922f"}},{"fullUrl":"https://madie.cms.gov/Condition/2f7b6fd6-321a-4ca7-8fac-452b9dbedb55","resource":{"resourceType":"Condition","id":"2f7b6fd6-321a-4ca7-8fac-452b9dbedb55","meta":{"profile":["http://hl7.org/fhir/us/qicore/StructureDefinition/qicore-condition-encounter-diagnosis"]},"clinicalStatus":{"coding":[{"system":"http://terminology.hl7.org/CodeSystem/condition-clinical","code":"active","display":"Active","userSelected":true}]},"verificationStatus":{"coding":[{"system":"http://terminology.hl7.org/CodeSystem/condition-ver-status","code":"confirmed","display":"Confirmed","userSelected":true}]},"category":[{"coding":[{"system":"http://terminology.hl7.org/CodeSystem/condition-category","code":"encounter-diagnosis","display":"Encounter Diagnosis","userSelected":true}]}],"code":{"coding":[{"system":"http://hl7.org/fhir/sid/icd-10-cm","code":"R62.7","display":"Adult failure to thrive","userSelected":true}]},"subject":{"reference":"Patient/81470689-a3f6-4580-88e0-5cddc5813c79"},"onsetPeriod":{"start":"2026-02-02T08:00:00.000+00:00"},"recordedDate":"2026-02-02T11:00:00.000+00:00"},"request":{"method":"PUT","url":"Condition/2f7b6fd6-321a-4ca7-8fac-452b9dbedb55"}},{"fullUrl":"https://madie.cms.gov/Observation/0c1f9051-fd56-4cb2-8949-e5eb88d4899b","resource":{"resourceType":"Observation","id":"0c1f9051-fd56-4cb2-8949-e5eb88d4899b","meta":{"profile":["http://hl7.org/fhir/us/qicore/StructureDefinition/qicore-observation-screening-assessment"]},"status":"final","category":[{"coding":[{"system":"http://terminology.hl7.org/CodeSystem/observation-category","code":"survey","display":"Survey"}]}],"code":{"coding":[{"system":"http://loinc.org","code":"98967-3","display":"Nutritional Risk Screening 2002 panel","userSelected":true}]},"subject":{"reference":"Patient/81470689-a3f6-4580-88e0-5cddc5813c79"},"effectiveDateTime":"2026-02-02T09:00:00.000+00:00","valueCodeableConcept":{"coding":[{"system":"http://snomed.info/sct","code":"129689002","display":"At increased risk for nutritional problem (finding)","userSelected":true}]}},"request":{"method":"PUT","url":"Observation/0c1f9051-fd56-4cb2-8949-e5eb88d4899b"}},{"fullUrl":"https://madie.cms.gov/Observation/b3e92e44-e112-4ae2-ae31-0c020fb40d25","resource":{"resourceType":"Observation","id":"b3e92e44-e112-4ae2-ae31-0c020fb40d25","meta":{"profile":["http://hl7.org/fhir/us/qicore/StructureDefinition/qicore-observation-screening-assessment"]},"status":"final","category":[{"coding":[{"system":"http://terminology.hl7.org/CodeSystem/observation-category","code":"survey","display":"Survey"}]}],"code":{"coding":[{"system":"http://loinc.org","code":"75285-7","display":"Comparative nutrition assessment standards panel","userSelected":true}]},"subject":{"reference":"Patient/81470689-a3f6-4580-88e0-5cddc5813c79"},"effectiveDateTime":"2026-02-01T10:00:00.000+00:00","valueCodeableConcept":{"coding":[{"system":"http://loinc.org","code":"LA33705-7","display":"Severely malnourished","userSelected":true}]}},"request":{"method":"PUT","url":"Observation/b3e92e44-e112-4ae2-ae31-0c020fb40d25"}},{"fullUrl":"https://madie.cms.gov/Procedure/c8211ff2-0a66-4b9b-957d-df6dee60feef","resource":{"resourceType":"Procedure","id":"c8211ff2-0a66-4b9b-957d-df6dee60feef","meta":{"profile":["http://hl7.org/fhir/us/qicore/StructureDefinition/qicore-procedure"]},"extension":[{"url":"http://hl7.org/fhir/us/qicore/StructureDefinition/qicore-recorded","valueDateTime":"2026-02-01T11:30:00.000+00:00"}],"status":"completed","code":{"coding":[{"system":"http://snomed.info/sct","code":"306165000","display":"Referral to hospital-based dietetics service (procedure)"}],"text":"Referral to hospital-based dietetics service (procedure)"},"subject":{"reference":"Patient/81470689-a3f6-4580-88e0-5cddc5813c79"},"encounter":{"reference":"Encounter/ScreAtriRefAsseModDxCpMSROBSPass4"},"performedPeriod":{"start":"2026-02-02T11:30:00.000+00:00","end":"2026-02-07T08:15:00.000+00:00"}},"request":{"method":"PUT","url":"Procedure/c8211ff2-0a66-4b9b-957d-df6dee60feef"}},{"fullUrl":"https://madie.cms.gov/Procedure/ff3888b3-b033-4c43-b522-4637209af887","resource":{"resourceType":"Procedure","id":"ff3888b3-b033-4c43-b522-4637209af887","meta":{"profile":["http://hl7.org/fhir/us/qicore/StructureDefinition/qicore-procedure"]},"extension":[{"url":"http://hl7.org/fhir/us/qicore/StructureDefinition/qicore-recorded","valueDateTime":"2026-02-02T11:30:00.000+00:00"}],"status":"completed","code":{"coding":[{"system":"http://snomed.info/sct","code":"410172000","display":"Nutrition care management (procedure)"}],"text":"Nutrition care management (procedure)"},"subject":{"reference":"Patient/81470689-a3f6-4580-88e0-5cddc5813c79"},"encounter":{"reference":"Encounter/ScreAtriRefAsseModDxCpMSROBSPass4"},"performedPeriod":{"start":"2026-02-01T11:30:00.000+00:00","end":"2026-02-07T08:15:00.000+00:00"}},"request":{"method":"PUT","url":"Procedure/ff3888b3-b033-4c43-b522-4637209af887"}},{"fullUrl":"https://madie.cms.gov/Coverage/ff15697a-7b55-4e5a-b52d-d99cab9da890","resource":{"resourceType":"Coverage","id":"ff15697a-7b55-4e5a-b52d-d99cab9da890","meta":{"profile":["http://hl7.org/fhir/us/qicore/StructureDefinition/qicore-coverage"]},"status":"active","type":{"coding":[{"system":"https://nahdo.org/sopt","version":"9.2","code":"11","display":"Medicare Managed Care (Includes Medicare Advantage Plans)"}]},"subscriberId":"97531","beneficiary":{"reference":"Patient/81470689-a3f6-4580-88e0-5cddc5813c79"},"dependent":"0","relationship":{"coding":[{"system":"http://terminology.hl7.org/CodeSystem/subscriber-relationship","code":"self"}]},"period":{"start":"2026-10-01T00:00:00.000+00:00"},"payor":[{"reference":"Organization/2787ea29-36e3-4d22-b419-0fde2b5041f5"}]},"request":{"method":"PUT","url":"Coverage/ff15697a-7b55-4e5a-b52d-d99cab9da890"}},{"fullUrl":"https://madie.cms.gov/Organization/2787ea29-36e3-4d22-b419-0fde2b5041f5","resource":{"resourceType":"Organization","id":"2787ea29-36e3-4d22-b419-0fde2b5041f5","meta":{"profile":["http://hl7.org/fhir/us/qicore/StructureDefinition/qicore-organization"]},"identifier":[{"use":"temp","system":"urn:oid:2.16.840.1.113883.4.4","value":"21-3259825"}],"active":true,"type":[{"coding":[{"system":"http://terminology.hl7.org/CodeSystem/organization-type","code":"pay","display":"Payer"}]}],"name":"Blue Cross Blue Shield of Texas","telecom":[{"system":"phone","value":"(+1) 972-766-6900"}],"address":[{"use":"billing","type":"postal","line":["P.O. Box 660044"],"city":"Dallas","state":"TX","postalCode":"75266-0044","country":"USA"}]},"request":{"method":"PUT","url":"Organization/2787ea29-36e3-4d22-b419-0fde2b5041f5"}},{"fullUrl":"https://madie.cms.gov/MeasureReport/2166eddd-a60b-4cb2-ba70-6e824d3b4c5d","resource":{"resourceType":"MeasureReport","id":"2166eddd-a60b-4cb2-ba70-6e824d3b4c5d","meta":{"profile":["http://hl7.org/fhir/us/cqfmeasures/StructureDefinition/test-case-cqfm"]},"contained":[{"resourceType":"Parameters","id":"e173a265-dddb-4242-8af6-8a7d2a8e0cd2-parameters","parameter":[{"name":"subject","valueString":"81470689-a3f6-4580-88e0-5cddc5813c79"}]}],"extension":[{"url":"http://hl7.org/fhir/StructureDefinition/cqf-inputParameters","valueReference":{"reference":"#e173a265-dddb-4242-8af6-8a7d2a8e0cd2-parameters"}},{"url":"http://hl7.org/fhir/us/cqfmeasures/StructureDefinition/cqfm-testCaseDescription","valueMarkdown":"Screened, At Risk, Referral, Assessed, Severe Malnutrition, Diagnosis, Nutrition Care Plan"}],"modifierExtension":[{"url":"http://hl7.org/fhir/us/cqfmeasures/StructureDefinition/cqfm-isTestCase","valueBoolean":true}],"status":"complete","type":"individual","measure":"https://madie.cms.gov/Measure/CMS986FHIRMalnutritionScore","period":{"start":"2026-01-01","end":"2026-12-31"},"group":[{"id":"Group_1","population":[{"id":"InitialPopulation_1","code":{"coding":[{"system":"http://terminology.hl7.org/CodeSystem/measure-population","code":"initial-population","display":"Initial Population"}]},"count":1},{"id":"MeasurePopulation_1","code":{"coding":[{"system":"http://terminology.hl7.org/CodeSystem/measure-population","code":"measure-population","display":"Measure Population"}]},"count":1},{"id":"MeasurePopulationExclusion_1","code":{"coding":[{"system":"http://terminology.hl7.org/CodeSystem/measure-population","code":"measure-population-exclusion","display":"Measure Population Exclusion"}]},"count":0},{"id":"MeasureObservation_1_1","code":{"coding":[{"system":"http://terminology.hl7.org/CodeSystem/measure-population","code":"measure-population-observation","display":"Measure Population Observation"}]},"count":1}],"measureScore":{"value":0.0}},{"id":"Group_2","population":[{"id":"InitialPopulation_2","code":{"coding":[{"system":"http://terminology.hl7.org/CodeSystem/measure-population","code":"initial-population","display":"Initial Population"}]},"count":1},{"id":"MeasurePopulation_2","code":{"coding":[{"system":"http://terminology.hl7.org/CodeSystem/measure-population","code":"measure-population","display":"Measure Population"}]},"count":1},{"id":"MeasurePopulationExclusion_2","code":{"coding":[{"system":"http://terminology.hl7.org/CodeSystem/measure-population","code":"measure-population-exclusion","display":"Measure Population Exclusion"}]},"count":0},{"id":"MeasureObservation_2_1","code":{"coding":[{"system":"http://terminology.hl7.org/CodeSystem/measure-population","code":"measure-population-observation","display":"Measure Population Observation"}]},"count":1}],"measureScore":{"value":0.0}},{"id":"Group_3","population":[{"id":"InitialPopulation_3","code":{"coding":[{"system":"http://terminology.hl7.org/CodeSystem/measure-population","code":"initial-population","display":"Initial Population"}]},"count":1},{"id":"MeasurePopulation_3","code":{"coding":[{"system":"http://terminology.hl7.org/CodeSystem/measure-population","code":"measure-population","display":"Measure Population"}]},"count":1},{"id":"MeasurePopulationExclusion_3","code":{"coding":[{"system":"http://terminology.hl7.org/CodeSystem/measure-population","code":"measure-population-exclusion","display":"Measure Population Exclusion"}]},"count":0},{"id":"MeasureObservation_3_1","code":{"coding":[{"system":"http://terminology.hl7.org/CodeSystem/measure-population","code":"measure-population-observation","display":"Measure Population Observation"}]},"count":1}],"measureScore":{"value":0.0}},{"id":"Group_4","population":[{"id":"InitialPopulation_4","code":{"coding":[{"system":"http://terminology.hl7.org/CodeSystem/measure-population","code":"initial-population","display":"Initial Population"}]},"count":1},{"id":"MeasurePopulation_4","code":{"coding":[{"system":"http://terminology.hl7.org/CodeSystem/measure-population","code":"measure-population","display":"Measure Population"}]},"count":1},{"id":"MeasurePopulationExclusion_4","code":{"coding":[{"system":"http://terminology.hl7.org/CodeSystem/measure-population","code":"measure-population-exclusion","display":"Measure Population Exclusion"}]},"count":0},{"id":"MeasureObservation_4_1","code":{"coding":[{"system":"http://terminology.hl7.org/CodeSystem/measure-population","code":"measure-population-observation","display":"Measure Population Observation"}]},"count":1}],"measureScore":{"value":0.0}},{"id":"Group_5","population":[{"id":"InitialPopulation_5","code":{"coding":[{"system":"http://terminology.hl7.org/CodeSystem/measure-population","code":"initial-population","display":"Initial Population"}]},"count":1},{"id":"MeasurePopulation_5","code":{"coding":[{"system":"http://terminology.hl7.org/CodeSystem/measure-population","code":"measure-population","display":"Measure Population"}]},"count":1},{"id":"MeasurePopulationExclusion_5","code":{"coding":[{"system":"http://terminology.hl7.org/CodeSystem/measure-population","code":"measure-population-exclusion","display":"Measure Population Exclusion"}]},"count":0},{"id":"MeasureObservation_5_1","code":{"coding":[{"system":"http://terminology.hl7.org/CodeSystem/measure-population","code":"measure-population-observation","display":"Measure Population Observation"}]},"count":4}],"measureScore":{"value":0.0}},{"id":"Group_6","population":[{"id":"InitialPopulation_6","code":{"coding":[{"system":"http://terminology.hl7.org/CodeSystem/measure-population","code":"initial-population","display":"Initial Population"}]},"count":1},{"id":"MeasurePopulation_6","code":{"coding":[{"system":"http://terminology.hl7.org/CodeSystem/measure-population","code":"measure-population","display":"Measure Population"}]},"count":1},{"id":"MeasurePopulationExclusion_6","code":{"coding":[{"system":"http://terminology.hl7.org/CodeSystem/measure-population","code":"measure-population-exclusion","display":"Measure Population Exclusion"}]},"count":0},{"id":"MeasureObservation_6_1","code":{"coding":[{"system":"http://terminology.hl7.org/CodeSystem/measure-population","code":"measure-population-observation","display":"Measure Population Observation"}]},"count":100}],"measureScore":{"value":0.0}}],"evaluatedResource":[{"reference":"Patient/81470689-a3f6-4580-88e0-5cddc5813c79"},{"reference":"Encounter/f744c3e3-90a9-4212-98fe-71f4476a922f"},{"reference":"Condition/2f7b6fd6-321a-4ca7-8fac-452b9dbedb55"},{"reference":"Observation/0c1f9051-fd56-4cb2-8949-e5eb88d4899b"},{"reference":"Observation/b3e92e44-e112-4ae2-ae31-0c020fb40d25"},{"reference":"Procedure/c8211ff2-0a66-4b9b-957d-df6dee60feef"},{"reference":"Procedure/ff3888b3-b033-4c43-b522-4637209af887"},{"reference":"Coverage/ff15697a-7b55-4e5a-b52d-d99cab9da890"},{"reference":"Organization/2787ea29-36e3-4d22-b419-0fde2b5041f5"}]},"request":{"method":"PUT","url":"MeasureReport/2166eddd-a60b-4cb2-ba70-6e824d3b4c5d"}}]},"request":{"method":"PUT","url":"Bundle/ScreAtriRefAsseModDxCp"}},{"resource":{"resourceType":"Procedure","id":"ff3888b3-b033-4c43-b522-4637209af887","meta":{"profile":["http://hl7.org/fhir/us/qicore/StructureDefinition/qicore-procedure"]},"extension":[{"url":"http://hl7.org/fhir/us/qicore/StructureDefinition/qicore-recorded","valueDateTime":"2026-02-02T11:30:00.000+00:00"}],"status":"completed","code":{"coding":[{"system":"http://snomed.info/sct","code":"410172000","display":"Nutrition care management (procedure)"}],"text":"Nutrition care management (procedure)"},"subject":{"reference":"Patient/81470689-a3f6-4580-88e0-5cddc5813c79"},"encounter":{"reference":"Encounter/ScreAtriRefAsseModDxCpMSROBSPass4"},"performedPeriod":{"start":"2026-02-01T11:30:00.000+00:00","end":"2026-02-07T08:15:00.000+00:00"}},"request":{"method":"PUT","url":"Procedure/ff3888b3-b033-4c43-b522-4637209af887"}},{"resource":{"resourceType":"Condition","id":"2f7b6fd6-321a-4ca7-8fac-452b9dbedb55","meta":{"profile":["http://hl7.org/fhir/us/qicore/StructureDefinition/qicore-condition-encounter-diagnosis"]},"clinicalStatus":{"coding":[{"system":"http://terminology.hl7.org/CodeSystem/condition-clinical","code":"active","display":"Active","userSelected":true}]},"verificationStatus":{"coding":[{"system":"http://terminology.hl7.org/CodeSystem/condition-ver-status","code":"confirmed","display":"Confirmed","userSelected":true}]},"category":[{"coding":[{"system":"http://terminology.hl7.org/CodeSystem/condition-category","code":"encounter-diagnosis","display":"Encounter Diagnosis","userSelected":true}]}],"code":{"coding":[{"system":"http://hl7.org/fhir/sid/icd-10-cm","code":"R62.7","display":"Adult failure to thrive","userSelected":true}]},"subject":{"reference":"Patient/81470689-a3f6-4580-88e0-5cddc5813c79"},"onsetPeriod":{"start":"2026-02-02T08:00:00.000+00:00"},"recordedDate":"2026-02-02T11:00:00.000+00:00"},"request":{"method":"PUT","url":"Condition/2f7b6fd6-321a-4ca7-8fac-452b9dbedb55"}},{"resource":{"resourceType":"Procedure","id":"c8211ff2-0a66-4b9b-957d-df6dee60feef","meta":{"profile":["http://hl7.org/fhir/us/qicore/StructureDefinition/qicore-procedure"]},"extension":[{"url":"http://hl7.org/fhir/us/qicore/StructureDefinition/qicore-recorded","valueDateTime":"2026-02-01T11:30:00.000+00:00"}],"status":"completed","code":{"coding":[{"system":"http://snomed.info/sct","code":"306165000","display":"Referral to hospital-based dietetics service (procedure)"}],"text":"Referral to hospital-based dietetics service (procedure)"},"subject":{"reference":"Patient/81470689-a3f6-4580-88e0-5cddc5813c79"},"encounter":{"reference":"Encounter/ScreAtriRefAsseModDxCpMSROBSPass4"},"performedPeriod":{"start":"2026-02-02T11:30:00.000+00:00","end":"2026-02-07T08:15:00.000+00:00"}},"request":{"method":"PUT","url":"Procedure/c8211ff2-0a66-4b9b-957d-df6dee60feef"}},{"resource":{"resourceType":"Observation","id":"0c1f9051-fd56-4cb2-8949-e5eb88d4899b","meta":{"profile":["http://hl7.org/fhir/us/qicore/StructureDefinition/qicore-observation-screening-assessment"]},"status":"final","category":[{"coding":[{"system":"http://terminology.hl7.org/CodeSystem/observation-category","code":"survey","display":"Survey"}]}],"code":{"coding":[{"system":"http://loinc.org","code":"98967-3","display":"Nutritional Risk Screening 2002 panel","userSelected":true}]},"subject":{"reference":"Patient/81470689-a3f6-4580-88e0-5cddc5813c79"},"effectiveDateTime":"2026-02-02T09:00:00.000+00:00","valueCodeableConcept":{"coding":[{"system":"http://snomed.info/sct","code":"129689002","display":"At increased risk for nutritional problem (finding)","userSelected":true}]}},"request":{"method":"PUT","url":"Observation/0c1f9051-fd56-4cb2-8949-e5eb88d4899b"}},{"resource":{"resourceType":"Observation","id":"b3e92e44-e112-4ae2-ae31-0c020fb40d25","meta":{"profile":["http://hl7.org/fhir/us/qicore/StructureDefinition/qicore-observation-screening-assessment"]},"status":"final","category":[{"coding":[{"system":"http://terminology.hl7.org/CodeSystem/observation-category","code":"survey","display":"Survey"}]}],"code":{"coding":[{"system":"http://loinc.org","code":"75285-7","display":"Comparative nutrition assessment standards panel","userSelected":true}]},"subject":{"reference":"Patient/81470689-a3f6-4580-88e0-5cddc5813c79"},"effectiveDateTime":"2026-02-01T10:00:00.000+00:00","valueCodeableConcept":{"coding":[{"system":"http://loinc.org","code":"LA33705-7","display":"Severely malnourished","userSelected":true}]}},"request":{"method":"PUT","url":"Observation/b3e92e44-e112-4ae2-ae31-0c020fb40d25"}},{"resource":{"resourceType":"Patient","id":"81470689-a3f6-4580-88e0-5cddc5813c79","meta":{"profile":["http://hl7.org/fhir/us/qicore/StructureDefinition/qicore-patient"]},"extension":[{"url":"http://hl7.org/fhir/us/core/StructureDefinition/us-core-race","extension":[{"url":"ombCategory","valueCoding":{"system":"urn:oid:2.16.840.1.113883.6.238","code":"2106-3","display":"White","userSelected":true}},{"url":"text","valueString":"White"}]},{"url":"http://hl7.org/fhir/us/core/StructureDefinition/us-core-ethnicity","extension":[{"url":"ombCategory","valueCoding":{"system":"urn:oid:2.16.840.1.113883.6.238","code":"2135-2","display":"Hispanic or Latino","userSelected":true}},{"url":"text","valueString":"Hispanic or Latino"}]},{"url":"http://hl7.org/fhir/us/core/StructureDefinition/us-core-sex","valueCode":"248153007"}],"identifier":[{"type":{"coding":[{"system":"http://terminology.hl7.org/CodeSystem/v2-0203","code":"MR"}]},"system":"https://madie.cms.gov/","value":"ScreAtriRefAsseModDxCp"}],"active":true,"name":[{"use":"usual","text":"ScreAtriRefAsseModDxCp","family":"MSROBSPass4","given":["ScreAtriRefAsseModDxCp"]}],"gender":"male","birthDate":"1956-03-02","address":[{"text":"ScreAtriRefAsseModDxCp, Screened Not at risk Assessed Severely Malnourished Diagnosed Care Plan, ID=ScreAtriRefAsseModDxCp, DOB: 03 Feb 1956"}]},"request":{"method":"PUT","url":"Patient/81470689-a3f6-4580-88e0-5cddc5813c79"}},{"resource":{"resourceType":"Organization","id":"2787ea29-36e3-4d22-b419-0fde2b5041f5","meta":{"profile":["http://hl7.org/fhir/us/qicore/StructureDefinition/qicore-organization"]},"identifier":[{"use":"temp","system":"urn:oid:2.16.840.1.113883.4.4","value":"21-3259825"}],"active":true,"type":[{"coding":[{"system":"http://terminology.hl7.org/CodeSystem/organization-type","code":"pay","display":"Payer"}]}],"name":"Blue Cross Blue Shield of Texas","telecom":[{"system":"phone","value":"(+1) 972-766-6900"}],"address":[{"use":"billing","type":"postal","line":["P.O. Box 660044"],"city":"Dallas","state":"TX","postalCode":"75266-0044","country":"USA"}]},"request":{"method":"PUT","url":"Organization/2787ea29-36e3-4d22-b419-0fde2b5041f5"}},{"resource":{"resourceType":"Coverage","id":"ff15697a-7b55-4e5a-b52d-d99cab9da890","meta":{"profile":["http://hl7.org/fhir/us/qicore/StructureDefinition/qicore-coverage"]},"status":"active","type":{"coding":[{"system":"https://nahdo.org/sopt","version":"9.2","code":"11","display":"Medicare Managed Care (Includes Medicare Advantage Plans)"}]},"subscriberId":"97531","beneficiary":{"reference":"Patient/81470689-a3f6-4580-88e0-5cddc5813c79"},"dependent":"0","relationship":{"coding":[{"system":"http://terminology.hl7.org/CodeSystem/subscriber-relationship","code":"self"}]},"period":{"start":"2026-10-01T00:00:00.000+00:00"},"payor":[{"reference":"Organization/2787ea29-36e3-4d22-b419-0fde2b5041f5"}]},"request":{"method":"PUT","url":"Coverage/ff15697a-7b55-4e5a-b52d-d99cab9da890"}}]}