{"resourceType":"Bundle","id":"tests-3c815aab-4636-4cde-9677-7067261287b5-bundle","type":"transaction","entry":[{"fullUrl":"Encounter/f10efb36-795c-4724-aea3-f69aa80e85be","resource":{"resourceType":"Encounter","id":"f10efb36-795c-4724-aea3-f69aa80e85be","meta":{"profile":["http://hl7.org/fhir/us/qicore/StructureDefinition/qicore-encounter"]},"status":"finished","class":{"system":"http://terminology.hl7.org/CodeSystem/v3-ActCode","code":"IMP","display":"inpatient encounter"},"type":[{"coding":[{"system":"http://snomed.info/sct","code":"8715000"}]}],"subject":{"reference":"Patient/3c815aab-4636-4cde-9677-7067261287b5"},"period":{"start":"2026-02-01T08:00:00.000+00:00","end":"2026-02-10T08:15:00.000+00:00"}},"request":{"method":"PUT","url":"Encounter/f10efb36-795c-4724-aea3-f69aa80e85be"}},{"fullUrl":"Observation/7009fe0b-5f9b-46cc-8709-893bab786104","resource":{"resourceType":"Observation","id":"7009fe0b-5f9b-46cc-8709-893bab786104","meta":{"profile":["http://hl7.org/fhir/us/qicore/StructureDefinition/qicore-observation-screening-assessment"]},"status":"final","category":[{"coding":[{"system":"http://terminology.hl7.org/CodeSystem/observation-category","code":"survey","display":"Survey"}]}],"code":{"coding":[{"system":"http://loinc.org","code":"98972-3","display":"Final Screening NRS_2002","userSelected":true}]},"subject":{"reference":"Patient/3c815aab-4636-4cde-9677-7067261287b5"},"effectiveDateTime":"2026-01-02T09:00:00.000+00:00","valueCodeableConcept":{"coding":[{"system":"http://loinc.org","code":"LA27538-0","display":"at risk for malnutrition","userSelected":true}]}},"request":{"method":"PUT","url":"Observation/7009fe0b-5f9b-46cc-8709-893bab786104"}},{"fullUrl":"Patient/3c815aab-4636-4cde-9677-7067261287b5","resource":{"resourceType":"Patient","id":"3c815aab-4636-4cde-9677-7067261287b5","meta":{"profile":["http://hl7.org/fhir/us/qicore/StructureDefinition/qicore-patient"]},"extension":[{"url":"http://hl7.org/fhir/us/core/StructureDefinition/us-core-race","extension":[{"url":"ombCategory","valueCoding":{"system":"urn:oid:2.16.840.1.113883.6.238","code":"2106-3","display":"White","userSelected":true}},{"url":"text","valueString":"White"}]},{"url":"http://hl7.org/fhir/us/core/StructureDefinition/us-core-ethnicity","extension":[{"url":"ombCategory","valueCoding":{"system":"urn:oid:2.16.840.1.113883.6.238","code":"2186-5","display":"Not Hispanic or Latino","userSelected":true}},{"url":"text","valueString":"Not Hispanic or Latino"}]},{"url":"http://hl7.org/fhir/us/core/StructureDefinition/us-core-sex","valueCode":"248153007"}],"identifier":[{"type":{"coding":[{"system":"http://terminology.hl7.org/CodeSystem/v2-0203","code":"MR"}]},"system":"https://madie.cms.gov/","value":"2Encountersat10075"}],"active":true,"name":[{"use":"usual","text":"2Encountersat10075","family":"MSROBSPass4","given":["2Encountersat10075"]}],"gender":"male","birthDate":"1951-01-01","address":[{"text":"2Encountersat10075, Screened Not at risk Assessed Severely Malnourished Diagnosed Care Plan, ID=2Encountersat10075, DOB: 01 Jan 1951"}]},"request":{"method":"PUT","url":"Patient/3c815aab-4636-4cde-9677-7067261287b5"}},{"fullUrl":"Observation/0e01f449-8894-4c91-b55d-7983b52bd86d","resource":{"resourceType":"Observation","id":"0e01f449-8894-4c91-b55d-7983b52bd86d","meta":{"profile":["http://hl7.org/fhir/us/qicore/StructureDefinition/qicore-observation-screening-assessment"]},"status":"final","category":[{"coding":[{"system":"http://terminology.hl7.org/CodeSystem/observation-category","code":"survey","display":"Survey"}]}],"code":{"coding":[{"system":"http://loinc.org","code":"98972-3","display":"Final screening NRS_2002","userSelected":true}]},"subject":{"reference":"Patient/3c815aab-4636-4cde-9677-7067261287b5"},"effectiveDateTime":"2026-02-01T10:00:00.000+00:00","valueCodeableConcept":{"coding":[{"system":"http://loinc.org","code":"LA27538-0","display":"At risk for malnutrition","userSelected":true}]}},"request":{"method":"PUT","url":"Observation/0e01f449-8894-4c91-b55d-7983b52bd86d"}},{"fullUrl":"MeasureReport/3aa74c0c-cca0-4777-afb4-965c695af563","resource":{"resourceType":"MeasureReport","id":"3aa74c0c-cca0-4777-afb4-965c695af563","meta":{"profile":["http://hl7.org/fhir/us/cqfmeasures/StructureDefinition/test-case-cqfm"]},"contained":[{"resourceType":"Parameters","id":"e0ce2977-99c3-48c3-a8a9-efb39811d182-parameters","parameter":[{"name":"subject","valueString":"3c815aab-4636-4cde-9677-7067261287b5"}]}],"extension":[{"url":"http://hl7.org/fhir/StructureDefinition/cqf-inputParameters","valueReference":{"reference":"#e0ce2977-99c3-48c3-a8a9-efb39811d182-parameters"}},{"url":"http://hl7.org/fhir/us/cqfmeasures/StructureDefinition/cqfm-testCaseDescription","valueMarkdown":"1111 4 100 1100 4 75"}],"modifierExtension":[{"url":"http://hl7.org/fhir/us/cqfmeasures/StructureDefinition/cqfm-isTestCase","valueBoolean":true}],"status":"complete","type":"individual","measure":"https://madie.cms.gov/Measure/CMS986FHIRMalnutritionScore","period":{"start":"2026-01-01","end":"2026-12-31"},"group":[{"id":"Group_1","population":[{"id":"InitialPopulation_1","code":{"coding":[{"system":"http://terminology.hl7.org/CodeSystem/measure-population","code":"initial-population","display":"Initial Population"}]},"count":2},{"id":"MeasurePopulation_1","code":{"coding":[{"system":"http://terminology.hl7.org/CodeSystem/measure-population","code":"measure-population","display":"Measure Population"}]},"count":2},{"id":"MeasurePopulationExclusion_1","code":{"coding":[{"system":"http://terminology.hl7.org/CodeSystem/measure-population","code":"measure-population-exclusion","display":"Measure Population Exclusion"}]},"count":0},{"id":"MeasureObservation_1_1","code":{"coding":[{"system":"http://terminology.hl7.org/CodeSystem/measure-population","code":"measure-population-observation","display":"Measure Population Observation"}]},"count":1},{"id":"MeasureObservation_1_2","code":{"coding":[{"system":"http://terminology.hl7.org/CodeSystem/measure-population","code":"measure-population-observation","display":"Measure Population Observation"}]},"count":1}],"measureScore":{"value":0.0}},{"id":"Group_2","population":[{"id":"InitialPopulation_2","code":{"coding":[{"system":"http://terminology.hl7.org/CodeSystem/measure-population","code":"initial-population","display":"Initial Population"}]},"count":2},{"id":"MeasurePopulation_2","code":{"coding":[{"system":"http://terminology.hl7.org/CodeSystem/measure-population","code":"measure-population","display":"Measure Population"}]},"count":2},{"id":"MeasurePopulationExclusion_2","code":{"coding":[{"system":"http://terminology.hl7.org/CodeSystem/measure-population","code":"measure-population-exclusion","display":"Measure Population Exclusion"}]},"count":0},{"id":"MeasureObservation_2_1","code":{"coding":[{"system":"http://terminology.hl7.org/CodeSystem/measure-population","code":"measure-population-observation","display":"Measure Population Observation"}]},"count":1},{"id":"MeasureObservation_2_2","code":{"coding":[{"system":"http://terminology.hl7.org/CodeSystem/measure-population","code":"measure-population-observation","display":"Measure Population Observation"}]},"count":1}],"measureScore":{"value":0.0}},{"id":"Group_3","population":[{"id":"InitialPopulation_3","code":{"coding":[{"system":"http://terminology.hl7.org/CodeSystem/measure-population","code":"initial-population","display":"Initial Population"}]},"count":2},{"id":"MeasurePopulation_3","code":{"coding":[{"system":"http://terminology.hl7.org/CodeSystem/measure-population","code":"measure-population","display":"Measure Population"}]},"count":2},{"id":"MeasurePopulationExclusion_3","code":{"coding":[{"system":"http://terminology.hl7.org/CodeSystem/measure-population","code":"measure-population-exclusion","display":"Measure Population Exclusion"}]},"count":0},{"id":"MeasureObservation_3_1","code":{"coding":[{"system":"http://terminology.hl7.org/CodeSystem/measure-population","code":"measure-population-observation","display":"Measure Population Observation"}]},"count":1},{"id":"MeasureObservation_3_2","code":{"coding":[{"system":"http://terminology.hl7.org/CodeSystem/measure-population","code":"measure-population-observation","display":"Measure Population Observation"}]},"count":1}],"measureScore":{"value":0.0}},{"id":"Group_4","population":[{"id":"InitialPopulation_4","code":{"coding":[{"system":"http://terminology.hl7.org/CodeSystem/measure-population","code":"initial-population","display":"Initial Population"}]},"count":2},{"id":"MeasurePopulation_4","code":{"coding":[{"system":"http://terminology.hl7.org/CodeSystem/measure-population","code":"measure-population","display":"Measure Population"}]},"count":2},{"id":"MeasurePopulationExclusion_4","code":{"coding":[{"system":"http://terminology.hl7.org/CodeSystem/measure-population","code":"measure-population-exclusion","display":"Measure Population Exclusion"}]},"count":0},{"id":"MeasureObservation_4_1","code":{"coding":[{"system":"http://terminology.hl7.org/CodeSystem/measure-population","code":"measure-population-observation","display":"Measure Population Observation"}]},"count":1},{"id":"MeasureObservation_4_2","code":{"coding":[{"system":"http://terminology.hl7.org/CodeSystem/measure-population","code":"measure-population-observation","display":"Measure Population Observation"}]},"count":0}],"measureScore":{"value":0.0}},{"id":"Group_5","population":[{"id":"InitialPopulation_5","code":{"coding":[{"system":"http://terminology.hl7.org/CodeSystem/measure-population","code":"initial-population","display":"Initial Population"}]},"count":2},{"id":"MeasurePopulation_5","code":{"coding":[{"system":"http://terminology.hl7.org/CodeSystem/measure-population","code":"measure-population","display":"Measure Population"}]},"count":2},{"id":"MeasurePopulationExclusion_5","code":{"coding":[{"system":"http://terminology.hl7.org/CodeSystem/measure-population","code":"measure-population-exclusion","display":"Measure Population Exclusion"}]},"count":0},{"id":"MeasureObservation_5_1","code":{"coding":[{"system":"http://terminology.hl7.org/CodeSystem/measure-population","code":"measure-population-observation","display":"Measure Population Observation"}]},"count":4},{"id":"MeasureObservation_5_2","code":{"coding":[{"system":"http://terminology.hl7.org/CodeSystem/measure-population","code":"measure-population-observation","display":"Measure Population Observation"}]},"count":3}],"measureScore":{"value":0.0}},{"id":"Group_6","population":[{"id":"InitialPopulation_6","code":{"coding":[{"system":"http://terminology.hl7.org/CodeSystem/measure-population","code":"initial-population","display":"Initial Population"}]},"count":2},{"id":"MeasurePopulation_6","code":{"coding":[{"system":"http://terminology.hl7.org/CodeSystem/measure-population","code":"measure-population","display":"Measure Population"}]},"count":2},{"id":"MeasurePopulationExclusion_6","code":{"coding":[{"system":"http://terminology.hl7.org/CodeSystem/measure-population","code":"measure-population-exclusion","display":"Measure Population Exclusion"}]},"count":0},{"id":"MeasureObservation_6_1","code":{"coding":[{"system":"http://terminology.hl7.org/CodeSystem/measure-population","code":"measure-population-observation","display":"Measure Population Observation"}]},"count":100},{"id":"MeasureObservation_6_2","code":{"coding":[{"system":"http://terminology.hl7.org/CodeSystem/measure-population","code":"measure-population-observation","display":"Measure Population Observation"}]},"count":75}],"measureScore":{"value":0.0}}],"evaluatedResource":[{"reference":"Patient/3c815aab-4636-4cde-9677-7067261287b5"},{"reference":"Encounter/d6d7e9ec-facc-43bf-9531-5d9702281da5"},{"reference":"Condition/9e10a952-2df7-4502-b627-deae80c5d417"},{"reference":"Observation/7009fe0b-5f9b-46cc-8709-893bab786104"},{"reference":"Observation/a7c0d797-546a-49b3-924a-e311327bddf1"},{"reference":"Procedure/415422f4-a51e-44ab-b72a-61aa7235ce3c"},{"reference":"Coverage/95090347-85fc-4396-9f5d-dcc5b3d44233"},{"reference":"Encounter/f10efb36-795c-4724-aea3-f69aa80e85be"},{"reference":"Observation/0e01f449-8894-4c91-b55d-7983b52bd86d"},{"reference":"Observation/bc1bde9c-6b66-4eff-a393-7f9f4bba2ff9"},{"reference":"Coverage/f8bdbe5d-2ff8-45e5-9598-f53efaf94d6e"},{"reference":"Organization/4891bdac-e29c-4277-8a88-0d40fbb64d9b"}]},"request":{"method":"PUT","url":"MeasureReport/3aa74c0c-cca0-4777-afb4-965c695af563"}},{"fullUrl":"Bundle/2Encountersat10075","resource":{"resourceType":"Bundle","id":"2Encountersat10075","type":"transaction","entry":[{"fullUrl":"https://madie.cms.gov/Patient/3c815aab-4636-4cde-9677-7067261287b5","resource":{"resourceType":"Patient","id":"3c815aab-4636-4cde-9677-7067261287b5","meta":{"profile":["http://hl7.org/fhir/us/qicore/StructureDefinition/qicore-patient"]},"extension":[{"url":"http://hl7.org/fhir/us/core/StructureDefinition/us-core-race","extension":[{"url":"ombCategory","valueCoding":{"system":"urn:oid:2.16.840.1.113883.6.238","code":"2106-3","display":"White","userSelected":true}},{"url":"text","valueString":"White"}]},{"url":"http://hl7.org/fhir/us/core/StructureDefinition/us-core-ethnicity","extension":[{"url":"ombCategory","valueCoding":{"system":"urn:oid:2.16.840.1.113883.6.238","code":"2186-5","display":"Not Hispanic or Latino","userSelected":true}},{"url":"text","valueString":"Not Hispanic or Latino"}]},{"url":"http://hl7.org/fhir/us/core/StructureDefinition/us-core-sex","valueCode":"248153007"}],"identifier":[{"type":{"coding":[{"system":"http://terminology.hl7.org/CodeSystem/v2-0203","code":"MR"}]},"system":"https://madie.cms.gov/","value":"2Encountersat10075"}],"active":true,"name":[{"use":"usual","text":"2Encountersat10075","family":"MSROBSPass4","given":["2Encountersat10075"]}],"gender":"male","birthDate":"1951-01-01","address":[{"text":"2Encountersat10075, Screened Not at risk Assessed Severely Malnourished Diagnosed Care Plan, ID=2Encountersat10075, DOB: 01 Jan 1951"}]},"request":{"method":"PUT","url":"Patient/3c815aab-4636-4cde-9677-7067261287b5"}},{"fullUrl":"https://madie.cms.gov/Encounter/d6d7e9ec-facc-43bf-9531-5d9702281da5","resource":{"resourceType":"Encounter","id":"d6d7e9ec-facc-43bf-9531-5d9702281da5","meta":{"profile":["http://hl7.org/fhir/us/qicore/StructureDefinition/qicore-encounter"]},"status":"finished","class":{"system":"http://terminology.hl7.org/CodeSystem/v3-ActCode","code":"IMP","display":"inpatient encounter"},"type":[{"coding":[{"system":"http://snomed.info/sct","code":"8715000"}]}],"subject":{"reference":"Patient/3c815aab-4636-4cde-9677-7067261287b5"},"period":{"start":"2026-01-02T08:00:00.000+00:00","end":"2026-01-12T08:15:00.000+00:00"},"reasonReference":[{"reference":"Condition/9e10a952-2df7-4502-b627-deae80c5d417"}]},"request":{"method":"PUT","url":"Encounter/d6d7e9ec-facc-43bf-9531-5d9702281da5"}},{"fullUrl":"https://madie.cms.gov/Condition/9e10a952-2df7-4502-b627-deae80c5d417","resource":{"resourceType":"Condition","id":"9e10a952-2df7-4502-b627-deae80c5d417","meta":{"profile":["http://hl7.org/fhir/us/qicore/StructureDefinition/qicore-condition-encounter-diagnosis"]},"clinicalStatus":{"coding":[{"system":"http://terminology.hl7.org/CodeSystem/condition-clinical","code":"active","display":"Active","userSelected":true}]},"verificationStatus":{"coding":[{"system":"http://terminology.hl7.org/CodeSystem/condition-ver-status","code":"confirmed","display":"Confirmed","userSelected":true}]},"category":[{"coding":[{"system":"http://terminology.hl7.org/CodeSystem/condition-category","code":"encounter-diagnosis","display":"Encounter Diagnosis","userSelected":true}]}],"code":{"coding":[{"system":"http://hl7.org/fhir/sid/icd-10-cm","code":"E41","display":"Nutritional marasmus","userSelected":true}]},"subject":{"reference":"Patient/3c815aab-4636-4cde-9677-7067261287b5"},"onsetPeriod":{"start":"2026-01-02T08:00:00.000+00:00"},"recordedDate":"2026-01-02T11:00:00.000+00:00"},"request":{"method":"PUT","url":"Condition/9e10a952-2df7-4502-b627-deae80c5d417"}},{"fullUrl":"https://madie.cms.gov/Observation/7009fe0b-5f9b-46cc-8709-893bab786104","resource":{"resourceType":"Observation","id":"7009fe0b-5f9b-46cc-8709-893bab786104","meta":{"profile":["http://hl7.org/fhir/us/qicore/StructureDefinition/qicore-observation-screening-assessment"]},"status":"final","category":[{"coding":[{"system":"http://terminology.hl7.org/CodeSystem/observation-category","code":"survey","display":"Survey"}]}],"code":{"coding":[{"system":"http://loinc.org","code":"98972-3","display":"Final Screening NRS_2002","userSelected":true}]},"subject":{"reference":"Patient/3c815aab-4636-4cde-9677-7067261287b5"},"effectiveDateTime":"2026-01-02T09:00:00.000+00:00","valueCodeableConcept":{"coding":[{"system":"http://loinc.org","code":"LA27538-0","display":"at risk for malnutrition","userSelected":true}]}},"request":{"method":"PUT","url":"Observation/7009fe0b-5f9b-46cc-8709-893bab786104"}},{"fullUrl":"https://madie.cms.gov/Observation/a7c0d797-546a-49b3-924a-e311327bddf1","resource":{"resourceType":"Observation","id":"a7c0d797-546a-49b3-924a-e311327bddf1","meta":{"profile":["http://hl7.org/fhir/us/qicore/StructureDefinition/qicore-observation-screening-assessment"]},"status":"final","category":[{"coding":[{"system":"http://terminology.hl7.org/CodeSystem/observation-category","code":"survey","display":"Survey"}]}],"code":{"coding":[{"system":"http://loinc.org","code":"75303-8","display":"Nutrition assessment narrative","userSelected":true}]},"subject":{"reference":"Patient/3c815aab-4636-4cde-9677-7067261287b5"},"effectiveDateTime":"2026-01-02T10:00:00.000+00:00","valueCodeableConcept":{"coding":[{"system":"http://snomed.info/sct","code":"2492009","display":"Nutritional disorder (disorder)","userSelected":true}]}},"request":{"method":"PUT","url":"Observation/a7c0d797-546a-49b3-924a-e311327bddf1"}},{"fullUrl":"https://madie.cms.gov/Procedure/415422f4-a51e-44ab-b72a-61aa7235ce3c","resource":{"resourceType":"Procedure","id":"415422f4-a51e-44ab-b72a-61aa7235ce3c","meta":{"profile":["http://hl7.org/fhir/us/qicore/StructureDefinition/qicore-procedure"]},"extension":[{"url":"http://hl7.org/fhir/us/qicore/StructureDefinition/qicore-recorded","valueDateTime":"2026-01-02T11:30:00.000+00:00"}],"status":"completed","code":{"coding":[{"system":"http://snomed.info/sct","code":"386373004","display":"Nutrition therapy (regime/therapy)"}],"text":"Nutrition therapy (regime/therapy)"},"subject":{"reference":"Patient/3c815aab-4636-4cde-9677-7067261287b5"},"encounter":{"reference":"Encounter/2Encountersat10075MSROBSPass4"},"performedPeriod":{"start":"2026-01-02T11:30:00.000+00:00","end":"2026-01-07T08:15:00.000+00:00"}},"request":{"method":"PUT","url":"Procedure/415422f4-a51e-44ab-b72a-61aa7235ce3c"}},{"fullUrl":"https://madie.cms.gov/Coverage/95090347-85fc-4396-9f5d-dcc5b3d44233","resource":{"resourceType":"Coverage","id":"95090347-85fc-4396-9f5d-dcc5b3d44233","meta":{"profile":["http://hl7.org/fhir/us/qicore/StructureDefinition/qicore-coverage"]},"status":"active","type":{"coding":[{"system":"https://nahdo.org/sopt","version":"9.2","code":"11","display":"Medicare Managed Care (Includes Medicare Advantage Plans)"}]},"subscriberId":"97531","beneficiary":{"reference":"Patient/3c815aab-4636-4cde-9677-7067261287b5"},"dependent":"0","relationship":{"coding":[{"system":"http://terminology.hl7.org/CodeSystem/subscriber-relationship","code":"self"}]},"period":{"start":"2026-10-01T00:00:00.000+00:00"},"payor":[{"reference":"Organization/4891bdac-e29c-4277-8a88-0d40fbb64d9b"}]},"request":{"method":"PUT","url":"Coverage/95090347-85fc-4396-9f5d-dcc5b3d44233"}},{"fullUrl":"https://madie.cms.gov/Encounter/f10efb36-795c-4724-aea3-f69aa80e85be","resource":{"resourceType":"Encounter","id":"f10efb36-795c-4724-aea3-f69aa80e85be","meta":{"profile":["http://hl7.org/fhir/us/qicore/StructureDefinition/qicore-encounter"]},"status":"finished","class":{"system":"http://terminology.hl7.org/CodeSystem/v3-ActCode","code":"IMP","display":"inpatient encounter"},"type":[{"coding":[{"system":"http://snomed.info/sct","code":"8715000"}]}],"subject":{"reference":"Patient/3c815aab-4636-4cde-9677-7067261287b5"},"period":{"start":"2026-02-01T08:00:00.000+00:00","end":"2026-02-10T08:15:00.000+00:00"}},"request":{"method":"PUT","url":"Encounter/f10efb36-795c-4724-aea3-f69aa80e85be"}},{"fullUrl":"https://madie.cms.gov/Observation/0e01f449-8894-4c91-b55d-7983b52bd86d","resource":{"resourceType":"Observation","id":"0e01f449-8894-4c91-b55d-7983b52bd86d","meta":{"profile":["http://hl7.org/fhir/us/qicore/StructureDefinition/qicore-observation-screening-assessment"]},"status":"final","category":[{"coding":[{"system":"http://terminology.hl7.org/CodeSystem/observation-category","code":"survey","display":"Survey"}]}],"code":{"coding":[{"system":"http://loinc.org","code":"98972-3","display":"Final screening NRS_2002","userSelected":true}]},"subject":{"reference":"Patient/3c815aab-4636-4cde-9677-7067261287b5"},"effectiveDateTime":"2026-02-01T10:00:00.000+00:00","valueCodeableConcept":{"coding":[{"system":"http://loinc.org","code":"LA27538-0","display":"At risk for malnutrition","userSelected":true}]}},"request":{"method":"PUT","url":"Observation/0e01f449-8894-4c91-b55d-7983b52bd86d"}},{"fullUrl":"https://madie.cms.gov/Observation/bc1bde9c-6b66-4eff-a393-7f9f4bba2ff9","resource":{"resourceType":"Observation","id":"bc1bde9c-6b66-4eff-a393-7f9f4bba2ff9","meta":{"profile":["http://hl7.org/fhir/us/qicore/StructureDefinition/qicore-observation-screening-assessment"]},"status":"final","category":[{"coding":[{"system":"http://terminology.hl7.org/CodeSystem/observation-category","code":"survey","display":"Survey"}]}],"code":{"coding":[{"system":"http://loinc.org","code":"75303-8","display":"Nutrition assessment narrative","userSelected":true}]},"subject":{"reference":"Patient/3c815aab-4636-4cde-9677-7067261287b5"},"effectiveDateTime":"2026-02-01T10:00:00.000+00:00","valueCodeableConcept":{"coding":[{"system":"http://snomed.info/sct","code":"2492009","display":"Nutritional disorder (disorder)","userSelected":true}]}},"request":{"method":"PUT","url":"Observation/bc1bde9c-6b66-4eff-a393-7f9f4bba2ff9"}},{"fullUrl":"https://madie.cms.gov/Coverage/f8bdbe5d-2ff8-45e5-9598-f53efaf94d6e","resource":{"resourceType":"Coverage","id":"f8bdbe5d-2ff8-45e5-9598-f53efaf94d6e","meta":{"profile":["http://hl7.org/fhir/us/qicore/StructureDefinition/qicore-coverage"]},"status":"active","type":{"coding":[{"system":"https://nahdo.org/sopt","version":"9.2","code":"11","display":"Medicare Managed Care (Includes Medicare Advantage Plans)"}]},"subscriberId":"97531","beneficiary":{"reference":"Patient/3c815aab-4636-4cde-9677-7067261287b5"},"dependent":"0","relationship":{"coding":[{"system":"http://terminology.hl7.org/CodeSystem/subscriber-relationship","code":"self"}]},"period":{"start":"2026-10-01T00:00:00.000+00:00"},"payor":[{"reference":"Organization/4891bdac-e29c-4277-8a88-0d40fbb64d9b"}]},"request":{"method":"PUT","url":"Coverage/f8bdbe5d-2ff8-45e5-9598-f53efaf94d6e"}},{"fullUrl":"https://madie.cms.gov/Organization/4891bdac-e29c-4277-8a88-0d40fbb64d9b","resource":{"resourceType":"Organization","id":"4891bdac-e29c-4277-8a88-0d40fbb64d9b","meta":{"profile":["http://hl7.org/fhir/us/qicore/StructureDefinition/qicore-organization"]},"identifier":[{"use":"temp","system":"urn:oid:2.16.840.1.113883.4.4","value":"21-3259825"}],"active":true,"type":[{"coding":[{"system":"http://terminology.hl7.org/CodeSystem/organization-type","code":"pay","display":"Payer"}]}],"name":"Blue Cross Blue Shield of Texas","telecom":[{"system":"phone","value":"(+1) 972-766-6900"}],"address":[{"use":"billing","type":"postal","line":["P.O. Box 660044"],"city":"Dallas","state":"TX","postalCode":"75266-0044","country":"USA"}]},"request":{"method":"PUT","url":"Organization/4891bdac-e29c-4277-8a88-0d40fbb64d9b"}},{"fullUrl":"https://madie.cms.gov/MeasureReport/3aa74c0c-cca0-4777-afb4-965c695af563","resource":{"resourceType":"MeasureReport","id":"3aa74c0c-cca0-4777-afb4-965c695af563","meta":{"profile":["http://hl7.org/fhir/us/cqfmeasures/StructureDefinition/test-case-cqfm"]},"contained":[{"resourceType":"Parameters","id":"e0ce2977-99c3-48c3-a8a9-efb39811d182-parameters","parameter":[{"name":"subject","valueString":"3c815aab-4636-4cde-9677-7067261287b5"}]}],"extension":[{"url":"http://hl7.org/fhir/StructureDefinition/cqf-inputParameters","valueReference":{"reference":"#e0ce2977-99c3-48c3-a8a9-efb39811d182-parameters"}},{"url":"http://hl7.org/fhir/us/cqfmeasures/StructureDefinition/cqfm-testCaseDescription","valueMarkdown":"1111 4 100 1100 4 75"}],"modifierExtension":[{"url":"http://hl7.org/fhir/us/cqfmeasures/StructureDefinition/cqfm-isTestCase","valueBoolean":true}],"status":"complete","type":"individual","measure":"https://madie.cms.gov/Measure/CMS986FHIRMalnutritionScore","period":{"start":"2026-01-01","end":"2026-12-31"},"group":[{"id":"Group_1","population":[{"id":"InitialPopulation_1","code":{"coding":[{"system":"http://terminology.hl7.org/CodeSystem/measure-population","code":"initial-population","display":"Initial Population"}]},"count":2},{"id":"MeasurePopulation_1","code":{"coding":[{"system":"http://terminology.hl7.org/CodeSystem/measure-population","code":"measure-population","display":"Measure Population"}]},"count":2},{"id":"MeasurePopulationExclusion_1","code":{"coding":[{"system":"http://terminology.hl7.org/CodeSystem/measure-population","code":"measure-population-exclusion","display":"Measure Population Exclusion"}]},"count":0},{"id":"MeasureObservation_1_1","code":{"coding":[{"system":"http://terminology.hl7.org/CodeSystem/measure-population","code":"measure-population-observation","display":"Measure Population Observation"}]},"count":1},{"id":"MeasureObservation_1_2","code":{"coding":[{"system":"http://terminology.hl7.org/CodeSystem/measure-population","code":"measure-population-observation","display":"Measure Population Observation"}]},"count":1}],"measureScore":{"value":0.0}},{"id":"Group_2","population":[{"id":"InitialPopulation_2","code":{"coding":[{"system":"http://terminology.hl7.org/CodeSystem/measure-population","code":"initial-population","display":"Initial Population"}]},"count":2},{"id":"MeasurePopulation_2","code":{"coding":[{"system":"http://terminology.hl7.org/CodeSystem/measure-population","code":"measure-population","display":"Measure Population"}]},"count":2},{"id":"MeasurePopulationExclusion_2","code":{"coding":[{"system":"http://terminology.hl7.org/CodeSystem/measure-population","code":"measure-population-exclusion","display":"Measure Population Exclusion"}]},"count":0},{"id":"MeasureObservation_2_1","code":{"coding":[{"system":"http://terminology.hl7.org/CodeSystem/measure-population","code":"measure-population-observation","display":"Measure Population Observation"}]},"count":1},{"id":"MeasureObservation_2_2","code":{"coding":[{"system":"http://terminology.hl7.org/CodeSystem/measure-population","code":"measure-population-observation","display":"Measure Population Observation"}]},"count":1}],"measureScore":{"value":0.0}},{"id":"Group_3","population":[{"id":"InitialPopulation_3","code":{"coding":[{"system":"http://terminology.hl7.org/CodeSystem/measure-population","code":"initial-population","display":"Initial Population"}]},"count":2},{"id":"MeasurePopulation_3","code":{"coding":[{"system":"http://terminology.hl7.org/CodeSystem/measure-population","code":"measure-population","display":"Measure Population"}]},"count":2},{"id":"MeasurePopulationExclusion_3","code":{"coding":[{"system":"http://terminology.hl7.org/CodeSystem/measure-population","code":"measure-population-exclusion","display":"Measure Population Exclusion"}]},"count":0},{"id":"MeasureObservation_3_1","code":{"coding":[{"system":"http://terminology.hl7.org/CodeSystem/measure-population","code":"measure-population-observation","display":"Measure Population Observation"}]},"count":1},{"id":"MeasureObservation_3_2","code":{"coding":[{"system":"http://terminology.hl7.org/CodeSystem/measure-population","code":"measure-population-observation","display":"Measure Population Observation"}]},"count":1}],"measureScore":{"value":0.0}},{"id":"Group_4","population":[{"id":"InitialPopulation_4","code":{"coding":[{"system":"http://terminology.hl7.org/CodeSystem/measure-population","code":"initial-population","display":"Initial Population"}]},"count":2},{"id":"MeasurePopulation_4","code":{"coding":[{"system":"http://terminology.hl7.org/CodeSystem/measure-population","code":"measure-population","display":"Measure Population"}]},"count":2},{"id":"MeasurePopulationExclusion_4","code":{"coding":[{"system":"http://terminology.hl7.org/CodeSystem/measure-population","code":"measure-population-exclusion","display":"Measure Population Exclusion"}]},"count":0},{"id":"MeasureObservation_4_1","code":{"coding":[{"system":"http://terminology.hl7.org/CodeSystem/measure-population","code":"measure-population-observation","display":"Measure Population Observation"}]},"count":1},{"id":"MeasureObservation_4_2","code":{"coding":[{"system":"http://terminology.hl7.org/CodeSystem/measure-population","code":"measure-population-observation","display":"Measure Population Observation"}]},"count":0}],"measureScore":{"value":0.0}},{"id":"Group_5","population":[{"id":"InitialPopulation_5","code":{"coding":[{"system":"http://terminology.hl7.org/CodeSystem/measure-population","code":"initial-population","display":"Initial Population"}]},"count":2},{"id":"MeasurePopulation_5","code":{"coding":[{"system":"http://terminology.hl7.org/CodeSystem/measure-population","code":"measure-population","display":"Measure Population"}]},"count":2},{"id":"MeasurePopulationExclusion_5","code":{"coding":[{"system":"http://terminology.hl7.org/CodeSystem/measure-population","code":"measure-population-exclusion","display":"Measure Population Exclusion"}]},"count":0},{"id":"MeasureObservation_5_1","code":{"coding":[{"system":"http://terminology.hl7.org/CodeSystem/measure-population","code":"measure-population-observation","display":"Measure Population Observation"}]},"count":4},{"id":"MeasureObservation_5_2","code":{"coding":[{"system":"http://terminology.hl7.org/CodeSystem/measure-population","code":"measure-population-observation","display":"Measure Population Observation"}]},"count":3}],"measureScore":{"value":0.0}},{"id":"Group_6","population":[{"id":"InitialPopulation_6","code":{"coding":[{"system":"http://terminology.hl7.org/CodeSystem/measure-population","code":"initial-population","display":"Initial Population"}]},"count":2},{"id":"MeasurePopulation_6","code":{"coding":[{"system":"http://terminology.hl7.org/CodeSystem/measure-population","code":"measure-population","display":"Measure Population"}]},"count":2},{"id":"MeasurePopulationExclusion_6","code":{"coding":[{"system":"http://terminology.hl7.org/CodeSystem/measure-population","code":"measure-population-exclusion","display":"Measure Population Exclusion"}]},"count":0},{"id":"MeasureObservation_6_1","code":{"coding":[{"system":"http://terminology.hl7.org/CodeSystem/measure-population","code":"measure-population-observation","display":"Measure Population Observation"}]},"count":100},{"id":"MeasureObservation_6_2","code":{"coding":[{"system":"http://terminology.hl7.org/CodeSystem/measure-population","code":"measure-population-observation","display":"Measure Population Observation"}]},"count":75}],"measureScore":{"value":0.0}}],"evaluatedResource":[{"reference":"Patient/3c815aab-4636-4cde-9677-7067261287b5"},{"reference":"Encounter/d6d7e9ec-facc-43bf-9531-5d9702281da5"},{"reference":"Condition/9e10a952-2df7-4502-b627-deae80c5d417"},{"reference":"Observation/7009fe0b-5f9b-46cc-8709-893bab786104"},{"reference":"Observation/a7c0d797-546a-49b3-924a-e311327bddf1"},{"reference":"Procedure/415422f4-a51e-44ab-b72a-61aa7235ce3c"},{"reference":"Coverage/95090347-85fc-4396-9f5d-dcc5b3d44233"},{"reference":"Encounter/f10efb36-795c-4724-aea3-f69aa80e85be"},{"reference":"Observation/0e01f449-8894-4c91-b55d-7983b52bd86d"},{"reference":"Observation/bc1bde9c-6b66-4eff-a393-7f9f4bba2ff9"},{"reference":"Coverage/f8bdbe5d-2ff8-45e5-9598-f53efaf94d6e"},{"reference":"Organization/4891bdac-e29c-4277-8a88-0d40fbb64d9b"}]},"request":{"method":"PUT","url":"MeasureReport/3aa74c0c-cca0-4777-afb4-965c695af563"}}]},"request":{"method":"PUT","url":"Bundle/2Encountersat10075"}},{"fullUrl":"Procedure/415422f4-a51e-44ab-b72a-61aa7235ce3c","resource":{"resourceType":"Procedure","id":"415422f4-a51e-44ab-b72a-61aa7235ce3c","meta":{"profile":["http://hl7.org/fhir/us/qicore/StructureDefinition/qicore-procedure"]},"extension":[{"url":"http://hl7.org/fhir/us/qicore/StructureDefinition/qicore-recorded","valueDateTime":"2026-01-02T11:30:00.000+00:00"}],"status":"completed","code":{"coding":[{"system":"http://snomed.info/sct","code":"386373004","display":"Nutrition therapy (regime/therapy)"}],"text":"Nutrition therapy (regime/therapy)"},"subject":{"reference":"Patient/3c815aab-4636-4cde-9677-7067261287b5"},"encounter":{"reference":"Encounter/2Encountersat10075MSROBSPass4"},"performedPeriod":{"start":"2026-01-02T11:30:00.000+00:00","end":"2026-01-07T08:15:00.000+00:00"}},"request":{"method":"PUT","url":"Procedure/415422f4-a51e-44ab-b72a-61aa7235ce3c"}},{"fullUrl":"Observation/bc1bde9c-6b66-4eff-a393-7f9f4bba2ff9","resource":{"resourceType":"Observation","id":"bc1bde9c-6b66-4eff-a393-7f9f4bba2ff9","meta":{"profile":["http://hl7.org/fhir/us/qicore/StructureDefinition/qicore-observation-screening-assessment"]},"status":"final","category":[{"coding":[{"system":"http://terminology.hl7.org/CodeSystem/observation-category","code":"survey","display":"Survey"}]}],"code":{"coding":[{"system":"http://loinc.org","code":"75303-8","display":"Nutrition assessment narrative","userSelected":true}]},"subject":{"reference":"Patient/3c815aab-4636-4cde-9677-7067261287b5"},"effectiveDateTime":"2026-02-01T10:00:00.000+00:00","valueCodeableConcept":{"coding":[{"system":"http://snomed.info/sct","code":"2492009","display":"Nutritional disorder (disorder)","userSelected":true}]}},"request":{"method":"PUT","url":"Observation/bc1bde9c-6b66-4eff-a393-7f9f4bba2ff9"}},{"fullUrl":"Coverage/95090347-85fc-4396-9f5d-dcc5b3d44233","resource":{"resourceType":"Coverage","id":"95090347-85fc-4396-9f5d-dcc5b3d44233","meta":{"profile":["http://hl7.org/fhir/us/qicore/StructureDefinition/qicore-coverage"]},"status":"active","type":{"coding":[{"system":"https://nahdo.org/sopt","version":"9.2","code":"11","display":"Medicare Managed Care (Includes Medicare Advantage Plans)"}]},"subscriberId":"97531","beneficiary":{"reference":"Patient/3c815aab-4636-4cde-9677-7067261287b5"},"dependent":"0","relationship":{"coding":[{"system":"http://terminology.hl7.org/CodeSystem/subscriber-relationship","code":"self"}]},"period":{"start":"2026-10-01T00:00:00.000+00:00"},"payor":[{"reference":"Organization/4891bdac-e29c-4277-8a88-0d40fbb64d9b"}]},"request":{"method":"PUT","url":"Coverage/95090347-85fc-4396-9f5d-dcc5b3d44233"}},{"fullUrl":"Organization/4891bdac-e29c-4277-8a88-0d40fbb64d9b","resource":{"resourceType":"Organization","id":"4891bdac-e29c-4277-8a88-0d40fbb64d9b","meta":{"profile":["http://hl7.org/fhir/us/qicore/StructureDefinition/qicore-organization"]},"identifier":[{"use":"temp","system":"urn:oid:2.16.840.1.113883.4.4","value":"21-3259825"}],"active":true,"type":[{"coding":[{"system":"http://terminology.hl7.org/CodeSystem/organization-type","code":"pay","display":"Payer"}]}],"name":"Blue Cross Blue Shield of Texas","telecom":[{"system":"phone","value":"(+1) 972-766-6900"}],"address":[{"use":"billing","type":"postal","line":["P.O. Box 660044"],"city":"Dallas","state":"TX","postalCode":"75266-0044","country":"USA"}]},"request":{"method":"PUT","url":"Organization/4891bdac-e29c-4277-8a88-0d40fbb64d9b"}},{"fullUrl":"Observation/a7c0d797-546a-49b3-924a-e311327bddf1","resource":{"resourceType":"Observation","id":"a7c0d797-546a-49b3-924a-e311327bddf1","meta":{"profile":["http://hl7.org/fhir/us/qicore/StructureDefinition/qicore-observation-screening-assessment"]},"status":"final","category":[{"coding":[{"system":"http://terminology.hl7.org/CodeSystem/observation-category","code":"survey","display":"Survey"}]}],"code":{"coding":[{"system":"http://loinc.org","code":"75303-8","display":"Nutrition assessment narrative","userSelected":true}]},"subject":{"reference":"Patient/3c815aab-4636-4cde-9677-7067261287b5"},"effectiveDateTime":"2026-01-02T10:00:00.000+00:00","valueCodeableConcept":{"coding":[{"system":"http://snomed.info/sct","code":"2492009","display":"Nutritional disorder (disorder)","userSelected":true}]}},"request":{"method":"PUT","url":"Observation/a7c0d797-546a-49b3-924a-e311327bddf1"}},{"fullUrl":"Encounter/d6d7e9ec-facc-43bf-9531-5d9702281da5","resource":{"resourceType":"Encounter","id":"d6d7e9ec-facc-43bf-9531-5d9702281da5","meta":{"profile":["http://hl7.org/fhir/us/qicore/StructureDefinition/qicore-encounter"]},"status":"finished","class":{"system":"http://terminology.hl7.org/CodeSystem/v3-ActCode","code":"IMP","display":"inpatient encounter"},"type":[{"coding":[{"system":"http://snomed.info/sct","code":"8715000"}]}],"subject":{"reference":"Patient/3c815aab-4636-4cde-9677-7067261287b5"},"period":{"start":"2026-01-02T08:00:00.000+00:00","end":"2026-01-12T08:15:00.000+00:00"},"reasonReference":[{"reference":"Condition/9e10a952-2df7-4502-b627-deae80c5d417"}]},"request":{"method":"PUT","url":"Encounter/d6d7e9ec-facc-43bf-9531-5d9702281da5"}},{"fullUrl":"Condition/9e10a952-2df7-4502-b627-deae80c5d417","resource":{"resourceType":"Condition","id":"9e10a952-2df7-4502-b627-deae80c5d417","meta":{"profile":["http://hl7.org/fhir/us/qicore/StructureDefinition/qicore-condition-encounter-diagnosis"]},"clinicalStatus":{"coding":[{"system":"http://terminology.hl7.org/CodeSystem/condition-clinical","code":"active","display":"Active","userSelected":true}]},"verificationStatus":{"coding":[{"system":"http://terminology.hl7.org/CodeSystem/condition-ver-status","code":"confirmed","display":"Confirmed","userSelected":true}]},"category":[{"coding":[{"system":"http://terminology.hl7.org/CodeSystem/condition-category","code":"encounter-diagnosis","display":"Encounter Diagnosis","userSelected":true}]}],"code":{"coding":[{"system":"http://hl7.org/fhir/sid/icd-10-cm","code":"E41","display":"Nutritional marasmus","userSelected":true}]},"subject":{"reference":"Patient/3c815aab-4636-4cde-9677-7067261287b5"},"onsetPeriod":{"start":"2026-01-02T08:00:00.000+00:00"},"recordedDate":"2026-01-02T11:00:00.000+00:00"},"request":{"method":"PUT","url":"Condition/9e10a952-2df7-4502-b627-deae80c5d417"}},{"fullUrl":"Coverage/f8bdbe5d-2ff8-45e5-9598-f53efaf94d6e","resource":{"resourceType":"Coverage","id":"f8bdbe5d-2ff8-45e5-9598-f53efaf94d6e","meta":{"profile":["http://hl7.org/fhir/us/qicore/StructureDefinition/qicore-coverage"]},"status":"active","type":{"coding":[{"system":"https://nahdo.org/sopt","version":"9.2","code":"11","display":"Medicare Managed Care (Includes Medicare Advantage Plans)"}]},"subscriberId":"97531","beneficiary":{"reference":"Patient/3c815aab-4636-4cde-9677-7067261287b5"},"dependent":"0","relationship":{"coding":[{"system":"http://terminology.hl7.org/CodeSystem/subscriber-relationship","code":"self"}]},"period":{"start":"2026-10-01T00:00:00.000+00:00"},"payor":[{"reference":"Organization/4891bdac-e29c-4277-8a88-0d40fbb64d9b"}]},"request":{"method":"PUT","url":"Coverage/f8bdbe5d-2ff8-45e5-9598-f53efaf94d6e"}}]}