{"resourceType":"Bundle","id":"tests-2571a635-c375-4aa6-9eef-653062467e10-bundle","type":"transaction","entry":[{"fullUrl":"Observation/d27173ea-f4ef-4b5b-b0b3-cb68fd38c02e","resource":{"resourceType":"Observation","id":"d27173ea-f4ef-4b5b-b0b3-cb68fd38c02e","meta":{"profile":["http://hl7.org/fhir/us/qicore/StructureDefinition/qicore-observation-screening-assessment"]},"status":"final","category":[{"coding":[{"system":"http://terminology.hl7.org/CodeSystem/observation-category","code":"survey","display":"Survey"}]}],"code":{"coding":[{"system":"http://loinc.org","code":"75303-8","display":"Nutrition assessment narrative","userSelected":true}]},"subject":{"reference":"Patient/2571a635-c375-4aa6-9eef-653062467e10"},"effectiveDateTime":"2026-01-18T10:00:00.000+00:00","dataAbsentReason":{"coding":[{"code":"unknown"}]}},"request":{"method":"PUT","url":"Observation/d27173ea-f4ef-4b5b-b0b3-cb68fd38c02e"}},{"fullUrl":"Encounter/10f8790c-6a29-4955-94e0-60eb7ec04ef9","resource":{"resourceType":"Encounter","id":"10f8790c-6a29-4955-94e0-60eb7ec04ef9","meta":{"profile":["http://hl7.org/fhir/us/qicore/StructureDefinition/qicore-encounter"]},"status":"finished","class":{"system":"http://terminology.hl7.org/CodeSystem/v3-ActCode","code":"IMP","display":"inpatient encounter"},"type":[{"coding":[{"system":"http://snomed.info/sct","code":"183452005"}]}],"subject":{"reference":"Patient/2571a635-c375-4aa6-9eef-653062467e10"},"period":{"start":"2026-01-16T08:00:00.000+00:00","end":"2026-01-19T08:15:00.000+00:00"}},"request":{"method":"PUT","url":"Encounter/10f8790c-6a29-4955-94e0-60eb7ec04ef9"}},{"fullUrl":"Bundle/MissingAssessmentResult","resource":{"resourceType":"Bundle","id":"MissingAssessmentResult","type":"transaction","entry":[{"fullUrl":"https://madie.cms.gov/Patient/2571a635-c375-4aa6-9eef-653062467e10","resource":{"resourceType":"Patient","id":"2571a635-c375-4aa6-9eef-653062467e10","meta":{"profile":["http://hl7.org/fhir/us/qicore/StructureDefinition/qicore-patient"]},"extension":[{"url":"http://hl7.org/fhir/us/core/StructureDefinition/us-core-race","extension":[{"url":"ombCategory","valueCoding":{"system":"urn:oid:2.16.840.1.113883.6.238","code":"2054-5","display":"Black or African American","userSelected":true}},{"url":"text","valueString":"Black or African American"}]},{"url":"http://hl7.org/fhir/us/core/StructureDefinition/us-core-ethnicity","extension":[{"url":"ombCategory","valueCoding":{"system":"urn:oid:2.16.840.1.113883.6.238","code":"2186-5","display":"Not Hispanic or Latino","userSelected":true}},{"url":"text","valueString":"Not Hispanic or Latino"}]},{"url":"http://hl7.org/fhir/us/core/StructureDefinition/us-core-sex","valueCode":"248153007"}],"identifier":[{"type":{"coding":[{"system":"http://terminology.hl7.org/CodeSystem/v2-0203","code":"MR"}]},"system":"https://madie.cms.gov/","value":"MissingAssessmentResult"}],"active":true,"name":[{"use":"usual","text":"MissingAssessmentResult","family":"MSROBSPASS4","given":["MissingAssessmentResult"]}],"gender":"male","birthDate":"1957-03-24","address":[{"text":"MissingAssessmentResult, Screened Not at risk Assessed Severely Malnourished Diagnosed Care Plan, ID=MissingAssessmentResult, DOB: 24 Mar 1957"}]},"request":{"method":"PUT","url":"Patient/2571a635-c375-4aa6-9eef-653062467e10"}},{"fullUrl":"https://madie.cms.gov/Encounter/10f8790c-6a29-4955-94e0-60eb7ec04ef9","resource":{"resourceType":"Encounter","id":"10f8790c-6a29-4955-94e0-60eb7ec04ef9","meta":{"profile":["http://hl7.org/fhir/us/qicore/StructureDefinition/qicore-encounter"]},"status":"finished","class":{"system":"http://terminology.hl7.org/CodeSystem/v3-ActCode","code":"IMP","display":"inpatient encounter"},"type":[{"coding":[{"system":"http://snomed.info/sct","code":"183452005"}]}],"subject":{"reference":"Patient/2571a635-c375-4aa6-9eef-653062467e10"},"period":{"start":"2026-01-16T08:00:00.000+00:00","end":"2026-01-19T08:15:00.000+00:00"}},"request":{"method":"PUT","url":"Encounter/10f8790c-6a29-4955-94e0-60eb7ec04ef9"}},{"fullUrl":"https://madie.cms.gov/Observation/8480febf-10a4-4740-94e4-e28b362ea775","resource":{"resourceType":"Observation","id":"8480febf-10a4-4740-94e4-e28b362ea775","meta":{"profile":["http://hl7.org/fhir/us/qicore/StructureDefinition/qicore-observation-screening-assessment"]},"status":"final","category":[{"coding":[{"system":"http://terminology.hl7.org/CodeSystem/observation-category","code":"survey","display":"Survey"}]}],"code":{"coding":[{"system":"http://loinc.org","code":"98968-1","display":"Initial screening NRS_2002","userSelected":true}]},"subject":{"reference":"Patient/2571a635-c375-4aa6-9eef-653062467e10"},"effectiveDateTime":"2026-01-18T09:00:00.000+00:00","valueCodeableConcept":{"coding":[{"system":"http://loinc.org","code":"LA27538-0","display":"At risk for malnutrition","userSelected":true}]}},"request":{"method":"PUT","url":"Observation/8480febf-10a4-4740-94e4-e28b362ea775"}},{"fullUrl":"https://madie.cms.gov/Observation/d27173ea-f4ef-4b5b-b0b3-cb68fd38c02e","resource":{"resourceType":"Observation","id":"d27173ea-f4ef-4b5b-b0b3-cb68fd38c02e","meta":{"profile":["http://hl7.org/fhir/us/qicore/StructureDefinition/qicore-observation-screening-assessment"]},"status":"final","category":[{"coding":[{"system":"http://terminology.hl7.org/CodeSystem/observation-category","code":"survey","display":"Survey"}]}],"code":{"coding":[{"system":"http://loinc.org","code":"75303-8","display":"Nutrition assessment narrative","userSelected":true}]},"subject":{"reference":"Patient/2571a635-c375-4aa6-9eef-653062467e10"},"effectiveDateTime":"2026-01-18T10:00:00.000+00:00","dataAbsentReason":{"coding":[{"code":"unknown"}]}},"request":{"method":"PUT","url":"Observation/d27173ea-f4ef-4b5b-b0b3-cb68fd38c02e"}},{"fullUrl":"https://madie.cms.gov/Coverage/f77f7218-20b1-4ec5-92dc-84880c72537d","resource":{"resourceType":"Coverage","id":"f77f7218-20b1-4ec5-92dc-84880c72537d","meta":{"profile":["http://hl7.org/fhir/us/qicore/StructureDefinition/qicore-coverage"]},"status":"active","type":{"coding":[{"system":"https://nahdo.org/sopt","version":"9.2","code":"11","display":"Medicare Managed Care (Includes Medicare Advantage Plans)"}]},"subscriberId":"97531","beneficiary":{"reference":"Patient/2571a635-c375-4aa6-9eef-653062467e10"},"dependent":"0","relationship":{"coding":[{"system":"http://terminology.hl7.org/CodeSystem/subscriber-relationship","code":"self"}]},"period":{"start":"2024-10-01T00:00:00.000+00:00"},"payor":[{"reference":"Organization/ff4bf876-a417-4ae5-85be-7f7f99624064"}]},"request":{"method":"PUT","url":"Coverage/f77f7218-20b1-4ec5-92dc-84880c72537d"}},{"fullUrl":"https://madie.cms.gov/Organization/ff4bf876-a417-4ae5-85be-7f7f99624064","resource":{"resourceType":"Organization","id":"ff4bf876-a417-4ae5-85be-7f7f99624064","meta":{"profile":["http://hl7.org/fhir/us/qicore/StructureDefinition/qicore-organization"]},"identifier":[{"use":"temp","system":"urn:oid:2.16.840.1.113883.4.4","value":"21-3259825"}],"active":true,"type":[{"coding":[{"system":"http://terminology.hl7.org/CodeSystem/organization-type","code":"pay","display":"Payer"}]}],"name":"Blue Cross Blue Shield of Texas","telecom":[{"system":"phone","value":"(+1) 972-766-6900"}],"address":[{"use":"billing","type":"postal","line":["P.O. Box 660044"],"city":"Dallas","state":"TX","postalCode":"75266-0044","country":"USA"}]},"request":{"method":"PUT","url":"Organization/ff4bf876-a417-4ae5-85be-7f7f99624064"}},{"fullUrl":"https://madie.cms.gov/MeasureReport/0fed46b7-9604-44e7-b12e-bc5585f49e6f","resource":{"resourceType":"MeasureReport","id":"0fed46b7-9604-44e7-b12e-bc5585f49e6f","meta":{"profile":["http://hl7.org/fhir/us/cqfmeasures/StructureDefinition/test-case-cqfm"]},"contained":[{"resourceType":"Parameters","id":"6891cd9b-2fb0-4045-a68f-e60f744bcd7a-parameters","parameter":[{"name":"subject","valueString":"2571a635-c375-4aa6-9eef-653062467e10"}]}],"extension":[{"url":"http://hl7.org/fhir/StructureDefinition/cqf-inputParameters","valueReference":{"reference":"#6891cd9b-2fb0-4045-a68f-e60f744bcd7a-parameters"}},{"url":"http://hl7.org/fhir/us/cqfmeasures/StructureDefinition/cqfm-testCaseDescription","valueMarkdown":"Screened, At Risk, Assessed, Missing Assessment Result"}],"modifierExtension":[{"url":"http://hl7.org/fhir/us/cqfmeasures/StructureDefinition/cqfm-isTestCase","valueBoolean":true}],"status":"complete","type":"individual","measure":"https://madie.cms.gov/Measure/CMS986FHIRMalnutritionScore","period":{"start":"2026-01-01","end":"2026-12-31"},"group":[{"id":"Group_1","population":[{"id":"InitialPopulation_1","code":{"coding":[{"system":"http://terminology.hl7.org/CodeSystem/measure-population","code":"initial-population","display":"Initial Population"}]},"count":1},{"id":"MeasurePopulation_1","code":{"coding":[{"system":"http://terminology.hl7.org/CodeSystem/measure-population","code":"measure-population","display":"Measure Population"}]},"count":1},{"id":"MeasurePopulationExclusion_1","code":{"coding":[{"system":"http://terminology.hl7.org/CodeSystem/measure-population","code":"measure-population-exclusion","display":"Measure Population Exclusion"}]},"count":0},{"id":"MeasureObservation_1_1","code":{"coding":[{"system":"http://terminology.hl7.org/CodeSystem/measure-population","code":"measure-population-observation","display":"Measure Population Observation"}]},"count":1}],"measureScore":{"value":0.0}},{"id":"Group_2","population":[{"id":"InitialPopulation_2","code":{"coding":[{"system":"http://terminology.hl7.org/CodeSystem/measure-population","code":"initial-population","display":"Initial Population"}]},"count":1},{"id":"MeasurePopulation_2","code":{"coding":[{"system":"http://terminology.hl7.org/CodeSystem/measure-population","code":"measure-population","display":"Measure Population"}]},"count":1},{"id":"MeasurePopulationExclusion_2","code":{"coding":[{"system":"http://terminology.hl7.org/CodeSystem/measure-population","code":"measure-population-exclusion","display":"Measure Population Exclusion"}]},"count":0},{"id":"MeasureObservation_2_1","code":{"coding":[{"system":"http://terminology.hl7.org/CodeSystem/measure-population","code":"measure-population-observation","display":"Measure Population Observation"}]},"count":0}],"measureScore":{"value":0.0}},{"id":"Group_3","population":[{"id":"InitialPopulation_3","code":{"coding":[{"system":"http://terminology.hl7.org/CodeSystem/measure-population","code":"initial-population","display":"Initial Population"}]},"count":1},{"id":"MeasurePopulation_3","code":{"coding":[{"system":"http://terminology.hl7.org/CodeSystem/measure-population","code":"measure-population","display":"Measure Population"}]},"count":1},{"id":"MeasurePopulationExclusion_3","code":{"coding":[{"system":"http://terminology.hl7.org/CodeSystem/measure-population","code":"measure-population-exclusion","display":"Measure Population Exclusion"}]},"count":0},{"id":"MeasureObservation_3_1","code":{"coding":[{"system":"http://terminology.hl7.org/CodeSystem/measure-population","code":"measure-population-observation","display":"Measure Population Observation"}]},"count":0}],"measureScore":{"value":0.0}},{"id":"Group_4","population":[{"id":"InitialPopulation_4","code":{"coding":[{"system":"http://terminology.hl7.org/CodeSystem/measure-population","code":"initial-population","display":"Initial Population"}]},"count":1},{"id":"MeasurePopulation_4","code":{"coding":[{"system":"http://terminology.hl7.org/CodeSystem/measure-population","code":"measure-population","display":"Measure Population"}]},"count":1},{"id":"MeasurePopulationExclusion_4","code":{"coding":[{"system":"http://terminology.hl7.org/CodeSystem/measure-population","code":"measure-population-exclusion","display":"Measure Population Exclusion"}]},"count":0},{"id":"MeasureObservation_4_1","code":{"coding":[{"system":"http://terminology.hl7.org/CodeSystem/measure-population","code":"measure-population-observation","display":"Measure Population Observation"}]},"count":0}],"measureScore":{"value":0.0}},{"id":"Group_5","population":[{"id":"InitialPopulation_5","code":{"coding":[{"system":"http://terminology.hl7.org/CodeSystem/measure-population","code":"initial-population","display":"Initial Population"}]},"count":1},{"id":"MeasurePopulation_5","code":{"coding":[{"system":"http://terminology.hl7.org/CodeSystem/measure-population","code":"measure-population","display":"Measure Population"}]},"count":1},{"id":"MeasurePopulationExclusion_5","code":{"coding":[{"system":"http://terminology.hl7.org/CodeSystem/measure-population","code":"measure-population-exclusion","display":"Measure Population Exclusion"}]},"count":0},{"id":"MeasureObservation_5_1","code":{"coding":[{"system":"http://terminology.hl7.org/CodeSystem/measure-population","code":"measure-population-observation","display":"Measure Population Observation"}]},"count":1}],"measureScore":{"value":0.0}},{"id":"Group_6","population":[{"id":"InitialPopulation_6","code":{"coding":[{"system":"http://terminology.hl7.org/CodeSystem/measure-population","code":"initial-population","display":"Initial Population"}]},"count":1},{"id":"MeasurePopulation_6","code":{"coding":[{"system":"http://terminology.hl7.org/CodeSystem/measure-population","code":"measure-population","display":"Measure Population"}]},"count":1},{"id":"MeasurePopulationExclusion_6","code":{"coding":[{"system":"http://terminology.hl7.org/CodeSystem/measure-population","code":"measure-population-exclusion","display":"Measure Population Exclusion"}]},"count":0},{"id":"MeasureObservation_6_1","code":{"coding":[{"system":"http://terminology.hl7.org/CodeSystem/measure-population","code":"measure-population-observation","display":"Measure Population Observation"}]},"count":50}],"measureScore":{"value":0.0}}],"evaluatedResource":[{"reference":"Patient/2571a635-c375-4aa6-9eef-653062467e10"},{"reference":"Encounter/10f8790c-6a29-4955-94e0-60eb7ec04ef9"},{"reference":"Observation/8480febf-10a4-4740-94e4-e28b362ea775"},{"reference":"Observation/d27173ea-f4ef-4b5b-b0b3-cb68fd38c02e"},{"reference":"Coverage/f77f7218-20b1-4ec5-92dc-84880c72537d"},{"reference":"Organization/ff4bf876-a417-4ae5-85be-7f7f99624064"}]},"request":{"method":"PUT","url":"MeasureReport/0fed46b7-9604-44e7-b12e-bc5585f49e6f"}}]},"request":{"method":"PUT","url":"Bundle/MissingAssessmentResult"}},{"fullUrl":"Patient/2571a635-c375-4aa6-9eef-653062467e10","resource":{"resourceType":"Patient","id":"2571a635-c375-4aa6-9eef-653062467e10","meta":{"profile":["http://hl7.org/fhir/us/qicore/StructureDefinition/qicore-patient"]},"extension":[{"url":"http://hl7.org/fhir/us/core/StructureDefinition/us-core-race","extension":[{"url":"ombCategory","valueCoding":{"system":"urn:oid:2.16.840.1.113883.6.238","code":"2054-5","display":"Black or African American","userSelected":true}},{"url":"text","valueString":"Black or African American"}]},{"url":"http://hl7.org/fhir/us/core/StructureDefinition/us-core-ethnicity","extension":[{"url":"ombCategory","valueCoding":{"system":"urn:oid:2.16.840.1.113883.6.238","code":"2186-5","display":"Not Hispanic or Latino","userSelected":true}},{"url":"text","valueString":"Not Hispanic or Latino"}]},{"url":"http://hl7.org/fhir/us/core/StructureDefinition/us-core-sex","valueCode":"248153007"}],"identifier":[{"type":{"coding":[{"system":"http://terminology.hl7.org/CodeSystem/v2-0203","code":"MR"}]},"system":"https://madie.cms.gov/","value":"MissingAssessmentResult"}],"active":true,"name":[{"use":"usual","text":"MissingAssessmentResult","family":"MSROBSPASS4","given":["MissingAssessmentResult"]}],"gender":"male","birthDate":"1957-03-24","address":[{"text":"MissingAssessmentResult, Screened Not at risk Assessed Severely Malnourished Diagnosed Care Plan, ID=MissingAssessmentResult, DOB: 24 Mar 1957"}]},"request":{"method":"PUT","url":"Patient/2571a635-c375-4aa6-9eef-653062467e10"}},{"fullUrl":"Observation/8480febf-10a4-4740-94e4-e28b362ea775","resource":{"resourceType":"Observation","id":"8480febf-10a4-4740-94e4-e28b362ea775","meta":{"profile":["http://hl7.org/fhir/us/qicore/StructureDefinition/qicore-observation-screening-assessment"]},"status":"final","category":[{"coding":[{"system":"http://terminology.hl7.org/CodeSystem/observation-category","code":"survey","display":"Survey"}]}],"code":{"coding":[{"system":"http://loinc.org","code":"98968-1","display":"Initial screening NRS_2002","userSelected":true}]},"subject":{"reference":"Patient/2571a635-c375-4aa6-9eef-653062467e10"},"effectiveDateTime":"2026-01-18T09:00:00.000+00:00","valueCodeableConcept":{"coding":[{"system":"http://loinc.org","code":"LA27538-0","display":"At risk for malnutrition","userSelected":true}]}},"request":{"method":"PUT","url":"Observation/8480febf-10a4-4740-94e4-e28b362ea775"}},{"fullUrl":"MeasureReport/0fed46b7-9604-44e7-b12e-bc5585f49e6f","resource":{"resourceType":"MeasureReport","id":"0fed46b7-9604-44e7-b12e-bc5585f49e6f","meta":{"profile":["http://hl7.org/fhir/us/cqfmeasures/StructureDefinition/test-case-cqfm"]},"contained":[{"resourceType":"Parameters","id":"6891cd9b-2fb0-4045-a68f-e60f744bcd7a-parameters","parameter":[{"name":"subject","valueString":"2571a635-c375-4aa6-9eef-653062467e10"}]}],"extension":[{"url":"http://hl7.org/fhir/StructureDefinition/cqf-inputParameters","valueReference":{"reference":"#6891cd9b-2fb0-4045-a68f-e60f744bcd7a-parameters"}},{"url":"http://hl7.org/fhir/us/cqfmeasures/StructureDefinition/cqfm-testCaseDescription","valueMarkdown":"Screened, At Risk, Assessed, Missing Assessment Result"}],"modifierExtension":[{"url":"http://hl7.org/fhir/us/cqfmeasures/StructureDefinition/cqfm-isTestCase","valueBoolean":true}],"status":"complete","type":"individual","measure":"https://madie.cms.gov/Measure/CMS986FHIRMalnutritionScore","period":{"start":"2026-01-01","end":"2026-12-31"},"group":[{"id":"Group_1","population":[{"id":"InitialPopulation_1","code":{"coding":[{"system":"http://terminology.hl7.org/CodeSystem/measure-population","code":"initial-population","display":"Initial Population"}]},"count":1},{"id":"MeasurePopulation_1","code":{"coding":[{"system":"http://terminology.hl7.org/CodeSystem/measure-population","code":"measure-population","display":"Measure Population"}]},"count":1},{"id":"MeasurePopulationExclusion_1","code":{"coding":[{"system":"http://terminology.hl7.org/CodeSystem/measure-population","code":"measure-population-exclusion","display":"Measure Population Exclusion"}]},"count":0},{"id":"MeasureObservation_1_1","code":{"coding":[{"system":"http://terminology.hl7.org/CodeSystem/measure-population","code":"measure-population-observation","display":"Measure Population Observation"}]},"count":1}],"measureScore":{"value":0.0}},{"id":"Group_2","population":[{"id":"InitialPopulation_2","code":{"coding":[{"system":"http://terminology.hl7.org/CodeSystem/measure-population","code":"initial-population","display":"Initial Population"}]},"count":1},{"id":"MeasurePopulation_2","code":{"coding":[{"system":"http://terminology.hl7.org/CodeSystem/measure-population","code":"measure-population","display":"Measure Population"}]},"count":1},{"id":"MeasurePopulationExclusion_2","code":{"coding":[{"system":"http://terminology.hl7.org/CodeSystem/measure-population","code":"measure-population-exclusion","display":"Measure Population Exclusion"}]},"count":0},{"id":"MeasureObservation_2_1","code":{"coding":[{"system":"http://terminology.hl7.org/CodeSystem/measure-population","code":"measure-population-observation","display":"Measure Population Observation"}]},"count":0}],"measureScore":{"value":0.0}},{"id":"Group_3","population":[{"id":"InitialPopulation_3","code":{"coding":[{"system":"http://terminology.hl7.org/CodeSystem/measure-population","code":"initial-population","display":"Initial Population"}]},"count":1},{"id":"MeasurePopulation_3","code":{"coding":[{"system":"http://terminology.hl7.org/CodeSystem/measure-population","code":"measure-population","display":"Measure Population"}]},"count":1},{"id":"MeasurePopulationExclusion_3","code":{"coding":[{"system":"http://terminology.hl7.org/CodeSystem/measure-population","code":"measure-population-exclusion","display":"Measure Population Exclusion"}]},"count":0},{"id":"MeasureObservation_3_1","code":{"coding":[{"system":"http://terminology.hl7.org/CodeSystem/measure-population","code":"measure-population-observation","display":"Measure Population Observation"}]},"count":0}],"measureScore":{"value":0.0}},{"id":"Group_4","population":[{"id":"InitialPopulation_4","code":{"coding":[{"system":"http://terminology.hl7.org/CodeSystem/measure-population","code":"initial-population","display":"Initial Population"}]},"count":1},{"id":"MeasurePopulation_4","code":{"coding":[{"system":"http://terminology.hl7.org/CodeSystem/measure-population","code":"measure-population","display":"Measure Population"}]},"count":1},{"id":"MeasurePopulationExclusion_4","code":{"coding":[{"system":"http://terminology.hl7.org/CodeSystem/measure-population","code":"measure-population-exclusion","display":"Measure Population Exclusion"}]},"count":0},{"id":"MeasureObservation_4_1","code":{"coding":[{"system":"http://terminology.hl7.org/CodeSystem/measure-population","code":"measure-population-observation","display":"Measure Population Observation"}]},"count":0}],"measureScore":{"value":0.0}},{"id":"Group_5","population":[{"id":"InitialPopulation_5","code":{"coding":[{"system":"http://terminology.hl7.org/CodeSystem/measure-population","code":"initial-population","display":"Initial Population"}]},"count":1},{"id":"MeasurePopulation_5","code":{"coding":[{"system":"http://terminology.hl7.org/CodeSystem/measure-population","code":"measure-population","display":"Measure Population"}]},"count":1},{"id":"MeasurePopulationExclusion_5","code":{"coding":[{"system":"http://terminology.hl7.org/CodeSystem/measure-population","code":"measure-population-exclusion","display":"Measure Population Exclusion"}]},"count":0},{"id":"MeasureObservation_5_1","code":{"coding":[{"system":"http://terminology.hl7.org/CodeSystem/measure-population","code":"measure-population-observation","display":"Measure Population Observation"}]},"count":1}],"measureScore":{"value":0.0}},{"id":"Group_6","population":[{"id":"InitialPopulation_6","code":{"coding":[{"system":"http://terminology.hl7.org/CodeSystem/measure-population","code":"initial-population","display":"Initial Population"}]},"count":1},{"id":"MeasurePopulation_6","code":{"coding":[{"system":"http://terminology.hl7.org/CodeSystem/measure-population","code":"measure-population","display":"Measure Population"}]},"count":1},{"id":"MeasurePopulationExclusion_6","code":{"coding":[{"system":"http://terminology.hl7.org/CodeSystem/measure-population","code":"measure-population-exclusion","display":"Measure Population Exclusion"}]},"count":0},{"id":"MeasureObservation_6_1","code":{"coding":[{"system":"http://terminology.hl7.org/CodeSystem/measure-population","code":"measure-population-observation","display":"Measure Population Observation"}]},"count":50}],"measureScore":{"value":0.0}}],"evaluatedResource":[{"reference":"Patient/2571a635-c375-4aa6-9eef-653062467e10"},{"reference":"Encounter/10f8790c-6a29-4955-94e0-60eb7ec04ef9"},{"reference":"Observation/8480febf-10a4-4740-94e4-e28b362ea775"},{"reference":"Observation/d27173ea-f4ef-4b5b-b0b3-cb68fd38c02e"},{"reference":"Coverage/f77f7218-20b1-4ec5-92dc-84880c72537d"},{"reference":"Organization/ff4bf876-a417-4ae5-85be-7f7f99624064"}]},"request":{"method":"PUT","url":"MeasureReport/0fed46b7-9604-44e7-b12e-bc5585f49e6f"}},{"fullUrl":"Organization/ff4bf876-a417-4ae5-85be-7f7f99624064","resource":{"resourceType":"Organization","id":"ff4bf876-a417-4ae5-85be-7f7f99624064","meta":{"profile":["http://hl7.org/fhir/us/qicore/StructureDefinition/qicore-organization"]},"identifier":[{"use":"temp","system":"urn:oid:2.16.840.1.113883.4.4","value":"21-3259825"}],"active":true,"type":[{"coding":[{"system":"http://terminology.hl7.org/CodeSystem/organization-type","code":"pay","display":"Payer"}]}],"name":"Blue Cross Blue Shield of Texas","telecom":[{"system":"phone","value":"(+1) 972-766-6900"}],"address":[{"use":"billing","type":"postal","line":["P.O. Box 660044"],"city":"Dallas","state":"TX","postalCode":"75266-0044","country":"USA"}]},"request":{"method":"PUT","url":"Organization/ff4bf876-a417-4ae5-85be-7f7f99624064"}},{"fullUrl":"Coverage/f77f7218-20b1-4ec5-92dc-84880c72537d","resource":{"resourceType":"Coverage","id":"f77f7218-20b1-4ec5-92dc-84880c72537d","meta":{"profile":["http://hl7.org/fhir/us/qicore/StructureDefinition/qicore-coverage"]},"status":"active","type":{"coding":[{"system":"https://nahdo.org/sopt","version":"9.2","code":"11","display":"Medicare Managed Care (Includes Medicare Advantage Plans)"}]},"subscriberId":"97531","beneficiary":{"reference":"Patient/2571a635-c375-4aa6-9eef-653062467e10"},"dependent":"0","relationship":{"coding":[{"system":"http://terminology.hl7.org/CodeSystem/subscriber-relationship","code":"self"}]},"period":{"start":"2024-10-01T00:00:00.000+00:00"},"payor":[{"reference":"Organization/ff4bf876-a417-4ae5-85be-7f7f99624064"}]},"request":{"method":"PUT","url":"Coverage/f77f7218-20b1-4ec5-92dc-84880c72537d"}}]}