{"resourceType":"Bundle","id":"tests-d638571a-bc86-48a8-9792-0885a26e68fc-bundle","type":"transaction","entry":[{"fullUrl":"Encounter/347890bc-d52d-4fa7-b76a-764d0d544f0a","resource":{"resourceType":"Encounter","id":"347890bc-d52d-4fa7-b76a-764d0d544f0a","meta":{"profile":["http://hl7.org/fhir/us/qicore/StructureDefinition/qicore-encounter"]},"status":"finished","class":{"system":"http://terminology.hl7.org/CodeSystem/v3-ActCode","code":"IMP","display":"inpatient encounter"},"type":[{"coding":[{"system":"http://snomed.info/sct","code":"183452005"}]}],"subject":{"reference":"Patient/d638571a-bc86-48a8-9792-0885a26e68fc"},"period":{"start":"2026-08-24T08:00:00.000+00:00","end":"2026-08-29T08:15:00.000+00:00"}},"request":{"method":"PUT","url":"Encounter/347890bc-d52d-4fa7-b76a-764d0d544f0a"}},{"fullUrl":"Procedure/f2b4cb20-b7de-42df-8156-f0a2da24cd84","resource":{"resourceType":"Procedure","id":"f2b4cb20-b7de-42df-8156-f0a2da24cd84","meta":{"profile":["http://hl7.org/fhir/us/qicore/StructureDefinition/qicore-procedure"]},"extension":[{"url":"http://hl7.org/fhir/us/qicore/StructureDefinition/qicore-recorded","valueDateTime":"2026-08-24T11:30:00.000+00:00"}],"status":"completed","code":{"coding":[{"system":"http://snomed.info/sct","code":"410172000","display":"Nutrition care management (procedure)"}],"text":"Nutrition care management (procedure)"},"subject":{"reference":"Patient/d638571a-bc86-48a8-9792-0885a26e68fc"},"encounter":{"reference":"Encounter/ScreNotatriRefAsseNotmDxCpMSROBSPass2"},"performedPeriod":{"start":"2026-08-24T11:30:00.000+00:00","end":"2026-08-27T08:15:00.000+00:00"}},"request":{"method":"PUT","url":"Procedure/f2b4cb20-b7de-42df-8156-f0a2da24cd84"}},{"fullUrl":"Coverage/6f552506-3e9f-4a51-87fb-3e411cd62849","resource":{"resourceType":"Coverage","id":"6f552506-3e9f-4a51-87fb-3e411cd62849","meta":{"profile":["http://hl7.org/fhir/us/qicore/StructureDefinition/qicore-coverage"]},"status":"active","type":{"coding":[{"system":"https://nahdo.org/sopt","version":"9.2","code":"11","display":"Medicare Managed Care (Includes Medicare Advantage Plans)"}]},"subscriberId":"97531","beneficiary":{"reference":"Patient/d638571a-bc86-48a8-9792-0885a26e68fc"},"dependent":"0","relationship":{"coding":[{"system":"http://terminology.hl7.org/CodeSystem/subscriber-relationship","code":"self"}]},"period":{"start":"2024-10-01T00:00:00.000+00:00"},"payor":[{"reference":"Organization/305f5839-136a-44bf-84e1-cb4ec57e6908"}]},"request":{"method":"PUT","url":"Coverage/6f552506-3e9f-4a51-87fb-3e411cd62849"}},{"fullUrl":"MeasureReport/56541b8b-3825-471e-b0b2-571448ca1fa6","resource":{"resourceType":"MeasureReport","id":"56541b8b-3825-471e-b0b2-571448ca1fa6","meta":{"profile":["http://hl7.org/fhir/us/cqfmeasures/StructureDefinition/test-case-cqfm"]},"contained":[{"resourceType":"Parameters","id":"7ab8c1cf-d1dd-4e24-9dfa-26556acbadbf-parameters","parameter":[{"name":"subject","valueString":"d638571a-bc86-48a8-9792-0885a26e68fc"}]}],"extension":[{"url":"http://hl7.org/fhir/StructureDefinition/cqf-inputParameters","valueReference":{"reference":"#7ab8c1cf-d1dd-4e24-9dfa-26556acbadbf-parameters"}},{"url":"http://hl7.org/fhir/us/cqfmeasures/StructureDefinition/cqfm-testCaseDescription","valueMarkdown":"Screened, Not at Risk, Referral, Assessed, Not/Mild Malnutrition, Diagnosis, Nutrition Care Plan"}],"modifierExtension":[{"url":"http://hl7.org/fhir/us/cqfmeasures/StructureDefinition/cqfm-isTestCase","valueBoolean":true}],"status":"complete","type":"individual","measure":"https://madie.cms.gov/Measure/CMS986FHIRMalnutritionScore","period":{"start":"2026-01-01","end":"2026-12-31"},"group":[{"id":"Group_1","population":[{"id":"InitialPopulation_1","code":{"coding":[{"system":"http://terminology.hl7.org/CodeSystem/measure-population","code":"initial-population","display":"Initial Population"}]},"count":1},{"id":"MeasurePopulation_1","code":{"coding":[{"system":"http://terminology.hl7.org/CodeSystem/measure-population","code":"measure-population","display":"Measure Population"}]},"count":1},{"id":"MeasurePopulationExclusion_1","code":{"coding":[{"system":"http://terminology.hl7.org/CodeSystem/measure-population","code":"measure-population-exclusion","display":"Measure Population Exclusion"}]},"count":0},{"id":"MeasureObservation_1_1","code":{"coding":[{"system":"http://terminology.hl7.org/CodeSystem/measure-population","code":"measure-population-observation","display":"Measure Population Observation"}]},"count":1}],"measureScore":{"value":0.0}},{"id":"Group_2","population":[{"id":"InitialPopulation_2","code":{"coding":[{"system":"http://terminology.hl7.org/CodeSystem/measure-population","code":"initial-population","display":"Initial Population"}]},"count":1},{"id":"MeasurePopulation_2","code":{"coding":[{"system":"http://terminology.hl7.org/CodeSystem/measure-population","code":"measure-population","display":"Measure Population"}]},"count":1},{"id":"MeasurePopulationExclusion_2","code":{"coding":[{"system":"http://terminology.hl7.org/CodeSystem/measure-population","code":"measure-population-exclusion","display":"Measure Population Exclusion"}]},"count":0},{"id":"MeasureObservation_2_1","code":{"coding":[{"system":"http://terminology.hl7.org/CodeSystem/measure-population","code":"measure-population-observation","display":"Measure Population Observation"}]},"count":1}],"measureScore":{"value":0.0}},{"id":"Group_3","population":[{"id":"InitialPopulation_3","code":{"coding":[{"system":"http://terminology.hl7.org/CodeSystem/measure-population","code":"initial-population","display":"Initial Population"}]},"count":1},{"id":"MeasurePopulation_3","code":{"coding":[{"system":"http://terminology.hl7.org/CodeSystem/measure-population","code":"measure-population","display":"Measure Population"}]},"count":1},{"id":"MeasurePopulationExclusion_3","code":{"coding":[{"system":"http://terminology.hl7.org/CodeSystem/measure-population","code":"measure-population-exclusion","display":"Measure Population Exclusion"}]},"count":0},{"id":"MeasureObservation_3_1","code":{"coding":[{"system":"http://terminology.hl7.org/CodeSystem/measure-population","code":"measure-population-observation","display":"Measure Population Observation"}]},"count":0}],"measureScore":{"value":0.0}},{"id":"Group_4","population":[{"id":"InitialPopulation_4","code":{"coding":[{"system":"http://terminology.hl7.org/CodeSystem/measure-population","code":"initial-population","display":"Initial Population"}]},"count":1},{"id":"MeasurePopulation_4","code":{"coding":[{"system":"http://terminology.hl7.org/CodeSystem/measure-population","code":"measure-population","display":"Measure Population"}]},"count":1},{"id":"MeasurePopulationExclusion_4","code":{"coding":[{"system":"http://terminology.hl7.org/CodeSystem/measure-population","code":"measure-population-exclusion","display":"Measure Population Exclusion"}]},"count":0},{"id":"MeasureObservation_4_1","code":{"coding":[{"system":"http://terminology.hl7.org/CodeSystem/measure-population","code":"measure-population-observation","display":"Measure Population Observation"}]},"count":0}],"measureScore":{"value":0.0}},{"id":"Group_5","population":[{"id":"InitialPopulation_5","code":{"coding":[{"system":"http://terminology.hl7.org/CodeSystem/measure-population","code":"initial-population","display":"Initial Population"}]},"count":1},{"id":"MeasurePopulation_5","code":{"coding":[{"system":"http://terminology.hl7.org/CodeSystem/measure-population","code":"measure-population","display":"Measure Population"}]},"count":1},{"id":"MeasurePopulationExclusion_5","code":{"coding":[{"system":"http://terminology.hl7.org/CodeSystem/measure-population","code":"measure-population-exclusion","display":"Measure Population Exclusion"}]},"count":0},{"id":"MeasureObservation_5_1","code":{"coding":[{"system":"http://terminology.hl7.org/CodeSystem/measure-population","code":"measure-population-observation","display":"Measure Population Observation"}]},"count":2}],"measureScore":{"value":0.0}},{"id":"Group_6","population":[{"id":"InitialPopulation_6","code":{"coding":[{"system":"http://terminology.hl7.org/CodeSystem/measure-population","code":"initial-population","display":"Initial Population"}]},"count":1},{"id":"MeasurePopulation_6","code":{"coding":[{"system":"http://terminology.hl7.org/CodeSystem/measure-population","code":"measure-population","display":"Measure Population"}]},"count":1},{"id":"MeasurePopulationExclusion_6","code":{"coding":[{"system":"http://terminology.hl7.org/CodeSystem/measure-population","code":"measure-population-exclusion","display":"Measure Population Exclusion"}]},"count":0},{"id":"MeasureObservation_6_1","code":{"coding":[{"system":"http://terminology.hl7.org/CodeSystem/measure-population","code":"measure-population-observation","display":"Measure Population Observation"}]},"count":100}],"measureScore":{"value":0.0}}],"evaluatedResource":[{"reference":"Patient/d638571a-bc86-48a8-9792-0885a26e68fc"},{"reference":"Encounter/347890bc-d52d-4fa7-b76a-764d0d544f0a"},{"reference":"Condition/f3b89320-0904-44ed-807e-79fa4491e0d8"},{"reference":"Observation/1c1ab340-b1db-4eb4-b16f-b29ed9d4cbc9"},{"reference":"Observation/d6cee434-ce1d-4d90-8abe-6e6a371c601e"},{"reference":"Procedure/8da220be-081d-4f8b-bc04-a118b15a55ad"},{"reference":"Procedure/f2b4cb20-b7de-42df-8156-f0a2da24cd84"},{"reference":"Coverage/6f552506-3e9f-4a51-87fb-3e411cd62849"},{"reference":"Organization/305f5839-136a-44bf-84e1-cb4ec57e6908"}]},"request":{"method":"PUT","url":"MeasureReport/56541b8b-3825-471e-b0b2-571448ca1fa6"}},{"fullUrl":"Observation/d6cee434-ce1d-4d90-8abe-6e6a371c601e","resource":{"resourceType":"Observation","id":"d6cee434-ce1d-4d90-8abe-6e6a371c601e","meta":{"profile":["http://hl7.org/fhir/us/qicore/StructureDefinition/qicore-observation-screening-assessment"]},"status":"final","category":[{"coding":[{"system":"http://terminology.hl7.org/CodeSystem/observation-category","code":"survey","display":"Survey"}]}],"code":{"coding":[{"system":"http://loinc.org","code":"75282-4","display":"Nutrition assessment panel","userSelected":true}]},"subject":{"reference":"Patient/d638571a-bc86-48a8-9792-0885a26e68fc"},"effectiveDateTime":"2026-08-24T10:00:00.000+00:00","valueCodeableConcept":{"coding":[{"system":"http://loinc.org","code":"LA33701-6","display":"Well nourished","userSelected":true}]}},"request":{"method":"PUT","url":"Observation/d6cee434-ce1d-4d90-8abe-6e6a371c601e"}},{"fullUrl":"Organization/305f5839-136a-44bf-84e1-cb4ec57e6908","resource":{"resourceType":"Organization","id":"305f5839-136a-44bf-84e1-cb4ec57e6908","meta":{"profile":["http://hl7.org/fhir/us/qicore/StructureDefinition/qicore-organization"]},"identifier":[{"use":"temp","system":"urn:oid:2.16.840.1.113883.4.4","value":"21-3259825"}],"active":true,"type":[{"coding":[{"system":"http://terminology.hl7.org/CodeSystem/organization-type","code":"pay","display":"Payer"}]}],"name":"Blue Cross Blue Shield of Texas","telecom":[{"system":"phone","value":"(+1) 972-766-6900"}],"address":[{"use":"billing","type":"postal","line":["P.O. Box 660044"],"city":"Dallas","state":"TX","postalCode":"75266-0044","country":"USA"}]},"request":{"method":"PUT","url":"Organization/305f5839-136a-44bf-84e1-cb4ec57e6908"}},{"fullUrl":"Observation/1c1ab340-b1db-4eb4-b16f-b29ed9d4cbc9","resource":{"resourceType":"Observation","id":"1c1ab340-b1db-4eb4-b16f-b29ed9d4cbc9","meta":{"profile":["http://hl7.org/fhir/us/qicore/StructureDefinition/qicore-observation-screening-assessment"]},"status":"final","category":[{"coding":[{"system":"http://terminology.hl7.org/CodeSystem/observation-category","code":"survey","display":"Survey"}]}],"code":{"coding":[{"system":"http://loinc.org","code":"98968-1","display":"Initial screening NRS_2002","userSelected":true}]},"subject":{"reference":"Patient/d638571a-bc86-48a8-9792-0885a26e68fc"},"effectiveDateTime":"2026-08-24T09:00:00.000+00:00","valueCodeableConcept":{"coding":[{"system":"http://loinc.org","code":"LA33699-2","display":"Not at risk for malnutrition","userSelected":true}]}},"request":{"method":"PUT","url":"Observation/1c1ab340-b1db-4eb4-b16f-b29ed9d4cbc9"}},{"fullUrl":"Patient/d638571a-bc86-48a8-9792-0885a26e68fc","resource":{"resourceType":"Patient","id":"d638571a-bc86-48a8-9792-0885a26e68fc","meta":{"profile":["http://hl7.org/fhir/us/qicore/StructureDefinition/qicore-patient"]},"extension":[{"url":"http://hl7.org/fhir/us/core/StructureDefinition/us-core-race","extension":[{"url":"ombCategory","valueCoding":{"system":"urn:oid:2.16.840.1.113883.6.238","code":"2106-3","display":"White","userSelected":true}},{"url":"text","valueString":"White"}]},{"url":"http://hl7.org/fhir/us/core/StructureDefinition/us-core-ethnicity","extension":[{"url":"ombCategory","valueCoding":{"system":"urn:oid:2.16.840.1.113883.6.238","code":"2135-2","display":"Hispanic or Latino","userSelected":true}},{"url":"text","valueString":"Hispanic or Latino"}]},{"url":"http://hl7.org/fhir/us/core/StructureDefinition/us-core-sex","valueCode":"248152002"}],"identifier":[{"type":{"coding":[{"system":"http://terminology.hl7.org/CodeSystem/v2-0203","code":"MR"}]},"system":"https://madie.cms.gov/","value":"ScreNotatriRefAsseNotmDxCp"}],"active":true,"name":[{"use":"usual","text":"ScreNotatriRefAsseNotmDxCp","family":"MSROBSPass2","given":["ScreNotatriRefAsseNotmDxCp"]}],"gender":"male","birthDate":"1954-12-02","address":[{"text":"ScreNotatriRefAsseNotmDxCp, Screened Not at risk Assessed Severely Malnourished Diagnosed Care Plan, ID=ScreNotatriRefAsseNotmDxCp, DOB: 02 Dec 1954"}]},"request":{"method":"PUT","url":"Patient/d638571a-bc86-48a8-9792-0885a26e68fc"}},{"fullUrl":"Procedure/8da220be-081d-4f8b-bc04-a118b15a55ad","resource":{"resourceType":"Procedure","id":"8da220be-081d-4f8b-bc04-a118b15a55ad","meta":{"profile":["http://hl7.org/fhir/us/qicore/StructureDefinition/qicore-procedure"]},"extension":[{"url":"http://hl7.org/fhir/us/qicore/StructureDefinition/qicore-recorded","valueDateTime":"2026-08-24T11:30:00.000+00:00"}],"status":"completed","code":{"coding":[{"system":"http://snomed.info/sct","code":"306354000","display":"Referral to hospital-based dietitian (procedure)"}],"text":"Referral to hospital-based dietitian (procedure)"},"subject":{"reference":"Patient/d638571a-bc86-48a8-9792-0885a26e68fc"},"encounter":{"reference":"Encounter/ScreNotatriRefAsseNotmDxCpMSROBSPass2"},"performedPeriod":{"start":"2026-08-24T11:30:00.000+00:00","end":"2026-08-27T08:15:00.000+00:00"}},"request":{"method":"PUT","url":"Procedure/8da220be-081d-4f8b-bc04-a118b15a55ad"}},{"fullUrl":"Bundle/ScreNotatriRefAsseNotmDxCp","resource":{"resourceType":"Bundle","id":"ScreNotatriRefAsseNotmDxCp","type":"transaction","entry":[{"fullUrl":"https://madie.cms.gov/Patient/d638571a-bc86-48a8-9792-0885a26e68fc","resource":{"resourceType":"Patient","id":"d638571a-bc86-48a8-9792-0885a26e68fc","meta":{"profile":["http://hl7.org/fhir/us/qicore/StructureDefinition/qicore-patient"]},"extension":[{"url":"http://hl7.org/fhir/us/core/StructureDefinition/us-core-race","extension":[{"url":"ombCategory","valueCoding":{"system":"urn:oid:2.16.840.1.113883.6.238","code":"2106-3","display":"White","userSelected":true}},{"url":"text","valueString":"White"}]},{"url":"http://hl7.org/fhir/us/core/StructureDefinition/us-core-ethnicity","extension":[{"url":"ombCategory","valueCoding":{"system":"urn:oid:2.16.840.1.113883.6.238","code":"2135-2","display":"Hispanic or Latino","userSelected":true}},{"url":"text","valueString":"Hispanic or Latino"}]},{"url":"http://hl7.org/fhir/us/core/StructureDefinition/us-core-sex","valueCode":"248152002"}],"identifier":[{"type":{"coding":[{"system":"http://terminology.hl7.org/CodeSystem/v2-0203","code":"MR"}]},"system":"https://madie.cms.gov/","value":"ScreNotatriRefAsseNotmDxCp"}],"active":true,"name":[{"use":"usual","text":"ScreNotatriRefAsseNotmDxCp","family":"MSROBSPass2","given":["ScreNotatriRefAsseNotmDxCp"]}],"gender":"male","birthDate":"1954-12-02","address":[{"text":"ScreNotatriRefAsseNotmDxCp, Screened Not at risk Assessed Severely Malnourished Diagnosed Care Plan, ID=ScreNotatriRefAsseNotmDxCp, DOB: 02 Dec 1954"}]},"request":{"method":"PUT","url":"Patient/d638571a-bc86-48a8-9792-0885a26e68fc"}},{"fullUrl":"https://madie.cms.gov/Encounter/347890bc-d52d-4fa7-b76a-764d0d544f0a","resource":{"resourceType":"Encounter","id":"347890bc-d52d-4fa7-b76a-764d0d544f0a","meta":{"profile":["http://hl7.org/fhir/us/qicore/StructureDefinition/qicore-encounter"]},"status":"finished","class":{"system":"http://terminology.hl7.org/CodeSystem/v3-ActCode","code":"IMP","display":"inpatient encounter"},"type":[{"coding":[{"system":"http://snomed.info/sct","code":"183452005"}]}],"subject":{"reference":"Patient/d638571a-bc86-48a8-9792-0885a26e68fc"},"period":{"start":"2026-08-24T08:00:00.000+00:00","end":"2026-08-29T08:15:00.000+00:00"}},"request":{"method":"PUT","url":"Encounter/347890bc-d52d-4fa7-b76a-764d0d544f0a"}},{"fullUrl":"https://madie.cms.gov/Condition/f3b89320-0904-44ed-807e-79fa4491e0d8","resource":{"resourceType":"Condition","id":"f3b89320-0904-44ed-807e-79fa4491e0d8","meta":{"profile":["http://hl7.org/fhir/us/qicore/StructureDefinition/qicore-condition-encounter-diagnosis"]},"clinicalStatus":{"coding":[{"system":"http://terminology.hl7.org/CodeSystem/condition-clinical","code":"active","display":"Active","userSelected":true}]},"verificationStatus":{"coding":[{"system":"http://terminology.hl7.org/CodeSystem/condition-ver-status","code":"confirmed","display":"Confirmed","userSelected":true}]},"category":[{"coding":[{"system":"http://terminology.hl7.org/CodeSystem/condition-category","code":"encounter-diagnosis","display":"Encounter Diagnosis","userSelected":true}]}],"code":{"coding":[{"system":"http://snomed.info/sct","code":"70241007","display":"Nutritional deficiency disorder (disorder)","userSelected":true}]},"subject":{"reference":"Patient/d638571a-bc86-48a8-9792-0885a26e68fc"},"onsetPeriod":{"start":"2026-08-01T08:00:00.000+00:00"},"recordedDate":"2026-08-01T11:00:00.000+00:00"},"request":{"method":"PUT","url":"Condition/f3b89320-0904-44ed-807e-79fa4491e0d8"}},{"fullUrl":"https://madie.cms.gov/Observation/1c1ab340-b1db-4eb4-b16f-b29ed9d4cbc9","resource":{"resourceType":"Observation","id":"1c1ab340-b1db-4eb4-b16f-b29ed9d4cbc9","meta":{"profile":["http://hl7.org/fhir/us/qicore/StructureDefinition/qicore-observation-screening-assessment"]},"status":"final","category":[{"coding":[{"system":"http://terminology.hl7.org/CodeSystem/observation-category","code":"survey","display":"Survey"}]}],"code":{"coding":[{"system":"http://loinc.org","code":"98968-1","display":"Initial screening NRS_2002","userSelected":true}]},"subject":{"reference":"Patient/d638571a-bc86-48a8-9792-0885a26e68fc"},"effectiveDateTime":"2026-08-24T09:00:00.000+00:00","valueCodeableConcept":{"coding":[{"system":"http://loinc.org","code":"LA33699-2","display":"Not at risk for malnutrition","userSelected":true}]}},"request":{"method":"PUT","url":"Observation/1c1ab340-b1db-4eb4-b16f-b29ed9d4cbc9"}},{"fullUrl":"https://madie.cms.gov/Observation/d6cee434-ce1d-4d90-8abe-6e6a371c601e","resource":{"resourceType":"Observation","id":"d6cee434-ce1d-4d90-8abe-6e6a371c601e","meta":{"profile":["http://hl7.org/fhir/us/qicore/StructureDefinition/qicore-observation-screening-assessment"]},"status":"final","category":[{"coding":[{"system":"http://terminology.hl7.org/CodeSystem/observation-category","code":"survey","display":"Survey"}]}],"code":{"coding":[{"system":"http://loinc.org","code":"75282-4","display":"Nutrition assessment panel","userSelected":true}]},"subject":{"reference":"Patient/d638571a-bc86-48a8-9792-0885a26e68fc"},"effectiveDateTime":"2026-08-24T10:00:00.000+00:00","valueCodeableConcept":{"coding":[{"system":"http://loinc.org","code":"LA33701-6","display":"Well nourished","userSelected":true}]}},"request":{"method":"PUT","url":"Observation/d6cee434-ce1d-4d90-8abe-6e6a371c601e"}},{"fullUrl":"https://madie.cms.gov/Procedure/8da220be-081d-4f8b-bc04-a118b15a55ad","resource":{"resourceType":"Procedure","id":"8da220be-081d-4f8b-bc04-a118b15a55ad","meta":{"profile":["http://hl7.org/fhir/us/qicore/StructureDefinition/qicore-procedure"]},"extension":[{"url":"http://hl7.org/fhir/us/qicore/StructureDefinition/qicore-recorded","valueDateTime":"2026-08-24T11:30:00.000+00:00"}],"status":"completed","code":{"coding":[{"system":"http://snomed.info/sct","code":"306354000","display":"Referral to hospital-based dietitian (procedure)"}],"text":"Referral to hospital-based dietitian (procedure)"},"subject":{"reference":"Patient/d638571a-bc86-48a8-9792-0885a26e68fc"},"encounter":{"reference":"Encounter/ScreNotatriRefAsseNotmDxCpMSROBSPass2"},"performedPeriod":{"start":"2026-08-24T11:30:00.000+00:00","end":"2026-08-27T08:15:00.000+00:00"}},"request":{"method":"PUT","url":"Procedure/8da220be-081d-4f8b-bc04-a118b15a55ad"}},{"fullUrl":"https://madie.cms.gov/Procedure/f2b4cb20-b7de-42df-8156-f0a2da24cd84","resource":{"resourceType":"Procedure","id":"f2b4cb20-b7de-42df-8156-f0a2da24cd84","meta":{"profile":["http://hl7.org/fhir/us/qicore/StructureDefinition/qicore-procedure"]},"extension":[{"url":"http://hl7.org/fhir/us/qicore/StructureDefinition/qicore-recorded","valueDateTime":"2026-08-24T11:30:00.000+00:00"}],"status":"completed","code":{"coding":[{"system":"http://snomed.info/sct","code":"410172000","display":"Nutrition care management (procedure)"}],"text":"Nutrition care management (procedure)"},"subject":{"reference":"Patient/d638571a-bc86-48a8-9792-0885a26e68fc"},"encounter":{"reference":"Encounter/ScreNotatriRefAsseNotmDxCpMSROBSPass2"},"performedPeriod":{"start":"2026-08-24T11:30:00.000+00:00","end":"2026-08-27T08:15:00.000+00:00"}},"request":{"method":"PUT","url":"Procedure/f2b4cb20-b7de-42df-8156-f0a2da24cd84"}},{"fullUrl":"https://madie.cms.gov/Coverage/6f552506-3e9f-4a51-87fb-3e411cd62849","resource":{"resourceType":"Coverage","id":"6f552506-3e9f-4a51-87fb-3e411cd62849","meta":{"profile":["http://hl7.org/fhir/us/qicore/StructureDefinition/qicore-coverage"]},"status":"active","type":{"coding":[{"system":"https://nahdo.org/sopt","version":"9.2","code":"11","display":"Medicare Managed Care (Includes Medicare Advantage Plans)"}]},"subscriberId":"97531","beneficiary":{"reference":"Patient/d638571a-bc86-48a8-9792-0885a26e68fc"},"dependent":"0","relationship":{"coding":[{"system":"http://terminology.hl7.org/CodeSystem/subscriber-relationship","code":"self"}]},"period":{"start":"2024-10-01T00:00:00.000+00:00"},"payor":[{"reference":"Organization/305f5839-136a-44bf-84e1-cb4ec57e6908"}]},"request":{"method":"PUT","url":"Coverage/6f552506-3e9f-4a51-87fb-3e411cd62849"}},{"fullUrl":"https://madie.cms.gov/Organization/305f5839-136a-44bf-84e1-cb4ec57e6908","resource":{"resourceType":"Organization","id":"305f5839-136a-44bf-84e1-cb4ec57e6908","meta":{"profile":["http://hl7.org/fhir/us/qicore/StructureDefinition/qicore-organization"]},"identifier":[{"use":"temp","system":"urn:oid:2.16.840.1.113883.4.4","value":"21-3259825"}],"active":true,"type":[{"coding":[{"system":"http://terminology.hl7.org/CodeSystem/organization-type","code":"pay","display":"Payer"}]}],"name":"Blue Cross Blue Shield of Texas","telecom":[{"system":"phone","value":"(+1) 972-766-6900"}],"address":[{"use":"billing","type":"postal","line":["P.O. Box 660044"],"city":"Dallas","state":"TX","postalCode":"75266-0044","country":"USA"}]},"request":{"method":"PUT","url":"Organization/305f5839-136a-44bf-84e1-cb4ec57e6908"}},{"fullUrl":"https://madie.cms.gov/MeasureReport/56541b8b-3825-471e-b0b2-571448ca1fa6","resource":{"resourceType":"MeasureReport","id":"56541b8b-3825-471e-b0b2-571448ca1fa6","meta":{"profile":["http://hl7.org/fhir/us/cqfmeasures/StructureDefinition/test-case-cqfm"]},"contained":[{"resourceType":"Parameters","id":"7ab8c1cf-d1dd-4e24-9dfa-26556acbadbf-parameters","parameter":[{"name":"subject","valueString":"d638571a-bc86-48a8-9792-0885a26e68fc"}]}],"extension":[{"url":"http://hl7.org/fhir/StructureDefinition/cqf-inputParameters","valueReference":{"reference":"#7ab8c1cf-d1dd-4e24-9dfa-26556acbadbf-parameters"}},{"url":"http://hl7.org/fhir/us/cqfmeasures/StructureDefinition/cqfm-testCaseDescription","valueMarkdown":"Screened, Not at Risk, Referral, Assessed, Not/Mild Malnutrition, Diagnosis, Nutrition Care Plan"}],"modifierExtension":[{"url":"http://hl7.org/fhir/us/cqfmeasures/StructureDefinition/cqfm-isTestCase","valueBoolean":true}],"status":"complete","type":"individual","measure":"https://madie.cms.gov/Measure/CMS986FHIRMalnutritionScore","period":{"start":"2026-01-01","end":"2026-12-31"},"group":[{"id":"Group_1","population":[{"id":"InitialPopulation_1","code":{"coding":[{"system":"http://terminology.hl7.org/CodeSystem/measure-population","code":"initial-population","display":"Initial Population"}]},"count":1},{"id":"MeasurePopulation_1","code":{"coding":[{"system":"http://terminology.hl7.org/CodeSystem/measure-population","code":"measure-population","display":"Measure Population"}]},"count":1},{"id":"MeasurePopulationExclusion_1","code":{"coding":[{"system":"http://terminology.hl7.org/CodeSystem/measure-population","code":"measure-population-exclusion","display":"Measure Population Exclusion"}]},"count":0},{"id":"MeasureObservation_1_1","code":{"coding":[{"system":"http://terminology.hl7.org/CodeSystem/measure-population","code":"measure-population-observation","display":"Measure Population Observation"}]},"count":1}],"measureScore":{"value":0.0}},{"id":"Group_2","population":[{"id":"InitialPopulation_2","code":{"coding":[{"system":"http://terminology.hl7.org/CodeSystem/measure-population","code":"initial-population","display":"Initial Population"}]},"count":1},{"id":"MeasurePopulation_2","code":{"coding":[{"system":"http://terminology.hl7.org/CodeSystem/measure-population","code":"measure-population","display":"Measure Population"}]},"count":1},{"id":"MeasurePopulationExclusion_2","code":{"coding":[{"system":"http://terminology.hl7.org/CodeSystem/measure-population","code":"measure-population-exclusion","display":"Measure Population Exclusion"}]},"count":0},{"id":"MeasureObservation_2_1","code":{"coding":[{"system":"http://terminology.hl7.org/CodeSystem/measure-population","code":"measure-population-observation","display":"Measure Population Observation"}]},"count":1}],"measureScore":{"value":0.0}},{"id":"Group_3","population":[{"id":"InitialPopulation_3","code":{"coding":[{"system":"http://terminology.hl7.org/CodeSystem/measure-population","code":"initial-population","display":"Initial Population"}]},"count":1},{"id":"MeasurePopulation_3","code":{"coding":[{"system":"http://terminology.hl7.org/CodeSystem/measure-population","code":"measure-population","display":"Measure Population"}]},"count":1},{"id":"MeasurePopulationExclusion_3","code":{"coding":[{"system":"http://terminology.hl7.org/CodeSystem/measure-population","code":"measure-population-exclusion","display":"Measure Population Exclusion"}]},"count":0},{"id":"MeasureObservation_3_1","code":{"coding":[{"system":"http://terminology.hl7.org/CodeSystem/measure-population","code":"measure-population-observation","display":"Measure Population Observation"}]},"count":0}],"measureScore":{"value":0.0}},{"id":"Group_4","population":[{"id":"InitialPopulation_4","code":{"coding":[{"system":"http://terminology.hl7.org/CodeSystem/measure-population","code":"initial-population","display":"Initial Population"}]},"count":1},{"id":"MeasurePopulation_4","code":{"coding":[{"system":"http://terminology.hl7.org/CodeSystem/measure-population","code":"measure-population","display":"Measure Population"}]},"count":1},{"id":"MeasurePopulationExclusion_4","code":{"coding":[{"system":"http://terminology.hl7.org/CodeSystem/measure-population","code":"measure-population-exclusion","display":"Measure Population Exclusion"}]},"count":0},{"id":"MeasureObservation_4_1","code":{"coding":[{"system":"http://terminology.hl7.org/CodeSystem/measure-population","code":"measure-population-observation","display":"Measure Population Observation"}]},"count":0}],"measureScore":{"value":0.0}},{"id":"Group_5","population":[{"id":"InitialPopulation_5","code":{"coding":[{"system":"http://terminology.hl7.org/CodeSystem/measure-population","code":"initial-population","display":"Initial Population"}]},"count":1},{"id":"MeasurePopulation_5","code":{"coding":[{"system":"http://terminology.hl7.org/CodeSystem/measure-population","code":"measure-population","display":"Measure Population"}]},"count":1},{"id":"MeasurePopulationExclusion_5","code":{"coding":[{"system":"http://terminology.hl7.org/CodeSystem/measure-population","code":"measure-population-exclusion","display":"Measure Population Exclusion"}]},"count":0},{"id":"MeasureObservation_5_1","code":{"coding":[{"system":"http://terminology.hl7.org/CodeSystem/measure-population","code":"measure-population-observation","display":"Measure Population Observation"}]},"count":2}],"measureScore":{"value":0.0}},{"id":"Group_6","population":[{"id":"InitialPopulation_6","code":{"coding":[{"system":"http://terminology.hl7.org/CodeSystem/measure-population","code":"initial-population","display":"Initial Population"}]},"count":1},{"id":"MeasurePopulation_6","code":{"coding":[{"system":"http://terminology.hl7.org/CodeSystem/measure-population","code":"measure-population","display":"Measure Population"}]},"count":1},{"id":"MeasurePopulationExclusion_6","code":{"coding":[{"system":"http://terminology.hl7.org/CodeSystem/measure-population","code":"measure-population-exclusion","display":"Measure Population Exclusion"}]},"count":0},{"id":"MeasureObservation_6_1","code":{"coding":[{"system":"http://terminology.hl7.org/CodeSystem/measure-population","code":"measure-population-observation","display":"Measure Population Observation"}]},"count":100}],"measureScore":{"value":0.0}}],"evaluatedResource":[{"reference":"Patient/d638571a-bc86-48a8-9792-0885a26e68fc"},{"reference":"Encounter/347890bc-d52d-4fa7-b76a-764d0d544f0a"},{"reference":"Condition/f3b89320-0904-44ed-807e-79fa4491e0d8"},{"reference":"Observation/1c1ab340-b1db-4eb4-b16f-b29ed9d4cbc9"},{"reference":"Observation/d6cee434-ce1d-4d90-8abe-6e6a371c601e"},{"reference":"Procedure/8da220be-081d-4f8b-bc04-a118b15a55ad"},{"reference":"Procedure/f2b4cb20-b7de-42df-8156-f0a2da24cd84"},{"reference":"Coverage/6f552506-3e9f-4a51-87fb-3e411cd62849"},{"reference":"Organization/305f5839-136a-44bf-84e1-cb4ec57e6908"}]},"request":{"method":"PUT","url":"MeasureReport/56541b8b-3825-471e-b0b2-571448ca1fa6"}}]},"request":{"method":"PUT","url":"Bundle/ScreNotatriRefAsseNotmDxCp"}},{"fullUrl":"Condition/f3b89320-0904-44ed-807e-79fa4491e0d8","resource":{"resourceType":"Condition","id":"f3b89320-0904-44ed-807e-79fa4491e0d8","meta":{"profile":["http://hl7.org/fhir/us/qicore/StructureDefinition/qicore-condition-encounter-diagnosis"]},"clinicalStatus":{"coding":[{"system":"http://terminology.hl7.org/CodeSystem/condition-clinical","code":"active","display":"Active","userSelected":true}]},"verificationStatus":{"coding":[{"system":"http://terminology.hl7.org/CodeSystem/condition-ver-status","code":"confirmed","display":"Confirmed","userSelected":true}]},"category":[{"coding":[{"system":"http://terminology.hl7.org/CodeSystem/condition-category","code":"encounter-diagnosis","display":"Encounter Diagnosis","userSelected":true}]}],"code":{"coding":[{"system":"http://snomed.info/sct","code":"70241007","display":"Nutritional deficiency disorder (disorder)","userSelected":true}]},"subject":{"reference":"Patient/d638571a-bc86-48a8-9792-0885a26e68fc"},"onsetPeriod":{"start":"2026-08-01T08:00:00.000+00:00"},"recordedDate":"2026-08-01T11:00:00.000+00:00"},"request":{"method":"PUT","url":"Condition/f3b89320-0904-44ed-807e-79fa4491e0d8"}}]}