{"resourceType":"Bundle","id":"tests-0ae60eb8-3b74-46bb-9cde-1b4684891bf9-bundle","type":"transaction","entry":[{"fullUrl":"Patient/0ae60eb8-3b74-46bb-9cde-1b4684891bf9","resource":{"resourceType":"Patient","id":"0ae60eb8-3b74-46bb-9cde-1b4684891bf9","meta":{"profile":["http://hl7.org/fhir/us/qicore/StructureDefinition/qicore-patient"]},"extension":[{"url":"http://hl7.org/fhir/us/core/StructureDefinition/us-core-race","extension":[{"url":"ombCategory","valueCoding":{"system":"urn:oid:2.16.840.1.113883.6.238","code":"2054-5","display":"Black or African American","userSelected":true}},{"url":"text","valueString":"Black"}]},{"url":"http://hl7.org/fhir/us/core/StructureDefinition/us-core-ethnicity","extension":[{"url":"ombCategory","valueCoding":{"system":"urn:oid:2.16.840.1.113883.6.238","code":"2135-2","display":"Hispanic or Latino","userSelected":true}},{"url":"text","valueString":"Hispanic or Latino"}]},{"url":"http://hl7.org/fhir/us/core/StructureDefinition/us-core-sex","valueCode":"248152002"}],"identifier":[{"type":{"coding":[{"system":"http://terminology.hl7.org/CodeSystem/v2-0203","code":"MR"}]},"system":"https://madie.cms.gov/","value":"ScreAtriNorefNoasseDxCp"}],"active":true,"name":[{"use":"usual","text":"ScreAtriNorefNoasseDxCp","family":"IPPFAIL","given":["ScreAtriNorefNoasseDxCp"]}],"gender":"female","birthDate":"1987-01-01","address":[{"text":"ScreAtriNorefNoasseDxCp, Screened Not at risk No referral No Assessment Diagnosed Care Plan, ID=ScreAtriNorefNoasseDxCp, DOB: 01 Jan 1987"}]},"request":{"method":"PUT","url":"Patient/0ae60eb8-3b74-46bb-9cde-1b4684891bf9"}},{"fullUrl":"Coverage/c7762a7d-4ebb-4e2d-bd47-ac93d13a8151","resource":{"resourceType":"Coverage","id":"c7762a7d-4ebb-4e2d-bd47-ac93d13a8151","meta":{"profile":["http://hl7.org/fhir/us/qicore/StructureDefinition/qicore-coverage"]},"status":"active","type":{"coding":[{"system":"https://nahdo.org/sopt","version":"9.2","code":"11","display":"Medicare Managed Care (Includes Medicare Advantage Plans)"}]},"beneficiary":{"reference":"Patient/0ae60eb8-3b74-46bb-9cde-1b4684891bf9"},"period":{"start":"2025-10-01T00:00:00.000+00:00"},"payor":[{"reference":"Organization/189720dd-b3ca-48f5-802b-785229ebdb63"}]},"request":{"method":"PUT","url":"Coverage/c7762a7d-4ebb-4e2d-bd47-ac93d13a8151"}},{"fullUrl":"Organization/189720dd-b3ca-48f5-802b-785229ebdb63","resource":{"resourceType":"Organization","id":"189720dd-b3ca-48f5-802b-785229ebdb63","meta":{"profile":["http://hl7.org/fhir/us/qicore/StructureDefinition/qicore-organization"]},"identifier":[{"use":"temp","system":"urn:oid:2.16.840.1.113883.4.4","value":"21-3259825"}],"active":true,"type":[{"coding":[{"system":"http://terminology.hl7.org/CodeSystem/organization-type","code":"pay","display":"Payer"}]}],"name":"Blue Cross Blue Shield of Texas","telecom":[{"system":"phone","value":"(+1) 972-766-6900"}],"address":[{"use":"billing","type":"postal","line":["P.O. Box 660044"],"city":"Dallas","state":"TX","postalCode":"75266-0044","country":"USA"}]},"request":{"method":"PUT","url":"Organization/189720dd-b3ca-48f5-802b-785229ebdb63"}},{"fullUrl":"Bundle/ScreAtriNorefNoasseDxCp","resource":{"resourceType":"Bundle","id":"ScreAtriNorefNoasseDxCp","type":"transaction","entry":[{"fullUrl":"https://madie.cms.gov/Patient/0ae60eb8-3b74-46bb-9cde-1b4684891bf9","resource":{"resourceType":"Patient","id":"0ae60eb8-3b74-46bb-9cde-1b4684891bf9","meta":{"profile":["http://hl7.org/fhir/us/qicore/StructureDefinition/qicore-patient"]},"extension":[{"url":"http://hl7.org/fhir/us/core/StructureDefinition/us-core-race","extension":[{"url":"ombCategory","valueCoding":{"system":"urn:oid:2.16.840.1.113883.6.238","code":"2054-5","display":"Black or African American","userSelected":true}},{"url":"text","valueString":"Black"}]},{"url":"http://hl7.org/fhir/us/core/StructureDefinition/us-core-ethnicity","extension":[{"url":"ombCategory","valueCoding":{"system":"urn:oid:2.16.840.1.113883.6.238","code":"2135-2","display":"Hispanic or Latino","userSelected":true}},{"url":"text","valueString":"Hispanic or Latino"}]},{"url":"http://hl7.org/fhir/us/core/StructureDefinition/us-core-sex","valueCode":"248152002"}],"identifier":[{"type":{"coding":[{"system":"http://terminology.hl7.org/CodeSystem/v2-0203","code":"MR"}]},"system":"https://madie.cms.gov/","value":"ScreAtriNorefNoasseDxCp"}],"active":true,"name":[{"use":"usual","text":"ScreAtriNorefNoasseDxCp","family":"IPPFAIL","given":["ScreAtriNorefNoasseDxCp"]}],"gender":"female","birthDate":"1987-01-01","address":[{"text":"ScreAtriNorefNoasseDxCp, Screened Not at risk No referral No Assessment Diagnosed Care Plan, ID=ScreAtriNorefNoasseDxCp, DOB: 01 Jan 1987"}]},"request":{"method":"PUT","url":"Patient/0ae60eb8-3b74-46bb-9cde-1b4684891bf9"}},{"fullUrl":"https://madie.cms.gov/Encounter/f788f818-41fe-4915-ad8c-e89b3b9d169d","resource":{"resourceType":"Encounter","id":"f788f818-41fe-4915-ad8c-e89b3b9d169d","meta":{"profile":["http://hl7.org/fhir/us/qicore/StructureDefinition/qicore-encounter"]},"status":"finished","class":{"system":"http://terminology.hl7.org/CodeSystem/v3-ActCode","code":"IMP","display":"inpatient encounter"},"type":[{"coding":[{"system":"http://snomed.info/sct","code":"183452005"}]}],"subject":{"reference":"Patient/0ae60eb8-3b74-46bb-9cde-1b4684891bf9"},"period":{"start":"2026-02-02T08:00:00.000+00:00","end":"2026-02-22T08:15:00.000+00:00"},"hospitalization":{"dischargeDisposition":{"coding":[{"system":"http://snomed.info/sct","code":"428371000124100","display":"Discharged to Health Care Facility for Hospice Care"}]}}},"request":{"method":"PUT","url":"Encounter/f788f818-41fe-4915-ad8c-e89b3b9d169d"}},{"fullUrl":"https://madie.cms.gov/Coverage/c7762a7d-4ebb-4e2d-bd47-ac93d13a8151","resource":{"resourceType":"Coverage","id":"c7762a7d-4ebb-4e2d-bd47-ac93d13a8151","meta":{"profile":["http://hl7.org/fhir/us/qicore/StructureDefinition/qicore-coverage"]},"status":"active","type":{"coding":[{"system":"https://nahdo.org/sopt","version":"9.2","code":"11","display":"Medicare Managed Care (Includes Medicare Advantage Plans)"}]},"beneficiary":{"reference":"Patient/0ae60eb8-3b74-46bb-9cde-1b4684891bf9"},"period":{"start":"2025-10-01T00:00:00.000+00:00"},"payor":[{"reference":"Organization/189720dd-b3ca-48f5-802b-785229ebdb63"}]},"request":{"method":"PUT","url":"Coverage/c7762a7d-4ebb-4e2d-bd47-ac93d13a8151"}},{"fullUrl":"https://madie.cms.gov/Organization/189720dd-b3ca-48f5-802b-785229ebdb63","resource":{"resourceType":"Organization","id":"189720dd-b3ca-48f5-802b-785229ebdb63","meta":{"profile":["http://hl7.org/fhir/us/qicore/StructureDefinition/qicore-organization"]},"identifier":[{"use":"temp","system":"urn:oid:2.16.840.1.113883.4.4","value":"21-3259825"}],"active":true,"type":[{"coding":[{"system":"http://terminology.hl7.org/CodeSystem/organization-type","code":"pay","display":"Payer"}]}],"name":"Blue Cross Blue Shield of Texas","telecom":[{"system":"phone","value":"(+1) 972-766-6900"}],"address":[{"use":"billing","type":"postal","line":["P.O. Box 660044"],"city":"Dallas","state":"TX","postalCode":"75266-0044","country":"USA"}]},"request":{"method":"PUT","url":"Organization/189720dd-b3ca-48f5-802b-785229ebdb63"}},{"fullUrl":"https://madie.cms.gov/MeasureReport/f69e0002-957b-4e89-8997-a90e61faec57","resource":{"resourceType":"MeasureReport","id":"f69e0002-957b-4e89-8997-a90e61faec57","meta":{"profile":["http://hl7.org/fhir/us/cqfmeasures/StructureDefinition/test-case-cqfm"]},"contained":[{"resourceType":"Parameters","id":"bca11a6c-43e0-46e9-a484-709b054ade6a-parameters","parameter":[{"name":"subject","valueString":"0ae60eb8-3b74-46bb-9cde-1b4684891bf9"}]}],"extension":[{"url":"http://hl7.org/fhir/StructureDefinition/cqf-inputParameters","valueReference":{"reference":"#bca11a6c-43e0-46e9-a484-709b054ade6a-parameters"}},{"url":"http://hl7.org/fhir/us/cqfmeasures/StructureDefinition/cqfm-testCaseDescription","valueMarkdown":"Hospice discharge disposition"}],"modifierExtension":[{"url":"http://hl7.org/fhir/us/cqfmeasures/StructureDefinition/cqfm-isTestCase","valueBoolean":true}],"status":"complete","type":"individual","measure":"https://madie.cms.gov/Measure/CMS986FHIRMalnutritionScore","period":{"start":"2026-01-01","end":"2026-12-31"},"group":[{"id":"Group_1","population":[{"id":"InitialPopulation_1","code":{"coding":[{"system":"http://terminology.hl7.org/CodeSystem/measure-population","code":"initial-population","display":"Initial Population"}]},"count":1},{"id":"MeasurePopulation_1","code":{"coding":[{"system":"http://terminology.hl7.org/CodeSystem/measure-population","code":"measure-population","display":"Measure Population"}]},"count":1},{"id":"MeasurePopulationExclusion_1","code":{"coding":[{"system":"http://terminology.hl7.org/CodeSystem/measure-population","code":"measure-population-exclusion","display":"Measure Population Exclusion"}]},"count":1}],"measureScore":{"value":0.0}},{"id":"Group_2","population":[{"id":"InitialPopulation_2","code":{"coding":[{"system":"http://terminology.hl7.org/CodeSystem/measure-population","code":"initial-population","display":"Initial Population"}]},"count":1},{"id":"MeasurePopulation_2","code":{"coding":[{"system":"http://terminology.hl7.org/CodeSystem/measure-population","code":"measure-population","display":"Measure Population"}]},"count":1},{"id":"MeasurePopulationExclusion_2","code":{"coding":[{"system":"http://terminology.hl7.org/CodeSystem/measure-population","code":"measure-population-exclusion","display":"Measure Population Exclusion"}]},"count":1}],"measureScore":{"value":0.0}},{"id":"Group_3","population":[{"id":"InitialPopulation_3","code":{"coding":[{"system":"http://terminology.hl7.org/CodeSystem/measure-population","code":"initial-population","display":"Initial Population"}]},"count":1},{"id":"MeasurePopulation_3","code":{"coding":[{"system":"http://terminology.hl7.org/CodeSystem/measure-population","code":"measure-population","display":"Measure Population"}]},"count":1},{"id":"MeasurePopulationExclusion_3","code":{"coding":[{"system":"http://terminology.hl7.org/CodeSystem/measure-population","code":"measure-population-exclusion","display":"Measure Population Exclusion"}]},"count":1}],"measureScore":{"value":0.0}},{"id":"Group_4","population":[{"id":"InitialPopulation_4","code":{"coding":[{"system":"http://terminology.hl7.org/CodeSystem/measure-population","code":"initial-population","display":"Initial Population"}]},"count":1},{"id":"MeasurePopulation_4","code":{"coding":[{"system":"http://terminology.hl7.org/CodeSystem/measure-population","code":"measure-population","display":"Measure Population"}]},"count":1},{"id":"MeasurePopulationExclusion_4","code":{"coding":[{"system":"http://terminology.hl7.org/CodeSystem/measure-population","code":"measure-population-exclusion","display":"Measure Population Exclusion"}]},"count":1}],"measureScore":{"value":0.0}},{"id":"Group_5","population":[{"id":"InitialPopulation_5","code":{"coding":[{"system":"http://terminology.hl7.org/CodeSystem/measure-population","code":"initial-population","display":"Initial Population"}]},"count":1},{"id":"MeasurePopulation_5","code":{"coding":[{"system":"http://terminology.hl7.org/CodeSystem/measure-population","code":"measure-population","display":"Measure Population"}]},"count":1},{"id":"MeasurePopulationExclusion_5","code":{"coding":[{"system":"http://terminology.hl7.org/CodeSystem/measure-population","code":"measure-population-exclusion","display":"Measure Population Exclusion"}]},"count":1}],"measureScore":{"value":0.0}},{"id":"Group_6","population":[{"id":"InitialPopulation_6","code":{"coding":[{"system":"http://terminology.hl7.org/CodeSystem/measure-population","code":"initial-population","display":"Initial Population"}]},"count":1},{"id":"MeasurePopulation_6","code":{"coding":[{"system":"http://terminology.hl7.org/CodeSystem/measure-population","code":"measure-population","display":"Measure Population"}]},"count":1},{"id":"MeasurePopulationExclusion_6","code":{"coding":[{"system":"http://terminology.hl7.org/CodeSystem/measure-population","code":"measure-population-exclusion","display":"Measure Population Exclusion"}]},"count":1}],"measureScore":{"value":0.0}}],"evaluatedResource":[{"reference":"Patient/0ae60eb8-3b74-46bb-9cde-1b4684891bf9"},{"reference":"Encounter/f788f818-41fe-4915-ad8c-e89b3b9d169d"},{"reference":"Coverage/c7762a7d-4ebb-4e2d-bd47-ac93d13a8151"},{"reference":"Organization/189720dd-b3ca-48f5-802b-785229ebdb63"}]},"request":{"method":"PUT","url":"MeasureReport/f69e0002-957b-4e89-8997-a90e61faec57"}}]},"request":{"method":"PUT","url":"Bundle/ScreAtriNorefNoasseDxCp"}},{"fullUrl":"MeasureReport/f69e0002-957b-4e89-8997-a90e61faec57","resource":{"resourceType":"MeasureReport","id":"f69e0002-957b-4e89-8997-a90e61faec57","meta":{"profile":["http://hl7.org/fhir/us/cqfmeasures/StructureDefinition/test-case-cqfm"]},"contained":[{"resourceType":"Parameters","id":"bca11a6c-43e0-46e9-a484-709b054ade6a-parameters","parameter":[{"name":"subject","valueString":"0ae60eb8-3b74-46bb-9cde-1b4684891bf9"}]}],"extension":[{"url":"http://hl7.org/fhir/StructureDefinition/cqf-inputParameters","valueReference":{"reference":"#bca11a6c-43e0-46e9-a484-709b054ade6a-parameters"}},{"url":"http://hl7.org/fhir/us/cqfmeasures/StructureDefinition/cqfm-testCaseDescription","valueMarkdown":"Hospice discharge disposition"}],"modifierExtension":[{"url":"http://hl7.org/fhir/us/cqfmeasures/StructureDefinition/cqfm-isTestCase","valueBoolean":true}],"status":"complete","type":"individual","measure":"https://madie.cms.gov/Measure/CMS986FHIRMalnutritionScore","period":{"start":"2026-01-01","end":"2026-12-31"},"group":[{"id":"Group_1","population":[{"id":"InitialPopulation_1","code":{"coding":[{"system":"http://terminology.hl7.org/CodeSystem/measure-population","code":"initial-population","display":"Initial Population"}]},"count":1},{"id":"MeasurePopulation_1","code":{"coding":[{"system":"http://terminology.hl7.org/CodeSystem/measure-population","code":"measure-population","display":"Measure Population"}]},"count":1},{"id":"MeasurePopulationExclusion_1","code":{"coding":[{"system":"http://terminology.hl7.org/CodeSystem/measure-population","code":"measure-population-exclusion","display":"Measure Population Exclusion"}]},"count":1}],"measureScore":{"value":0.0}},{"id":"Group_2","population":[{"id":"InitialPopulation_2","code":{"coding":[{"system":"http://terminology.hl7.org/CodeSystem/measure-population","code":"initial-population","display":"Initial Population"}]},"count":1},{"id":"MeasurePopulation_2","code":{"coding":[{"system":"http://terminology.hl7.org/CodeSystem/measure-population","code":"measure-population","display":"Measure Population"}]},"count":1},{"id":"MeasurePopulationExclusion_2","code":{"coding":[{"system":"http://terminology.hl7.org/CodeSystem/measure-population","code":"measure-population-exclusion","display":"Measure Population Exclusion"}]},"count":1}],"measureScore":{"value":0.0}},{"id":"Group_3","population":[{"id":"InitialPopulation_3","code":{"coding":[{"system":"http://terminology.hl7.org/CodeSystem/measure-population","code":"initial-population","display":"Initial Population"}]},"count":1},{"id":"MeasurePopulation_3","code":{"coding":[{"system":"http://terminology.hl7.org/CodeSystem/measure-population","code":"measure-population","display":"Measure Population"}]},"count":1},{"id":"MeasurePopulationExclusion_3","code":{"coding":[{"system":"http://terminology.hl7.org/CodeSystem/measure-population","code":"measure-population-exclusion","display":"Measure Population Exclusion"}]},"count":1}],"measureScore":{"value":0.0}},{"id":"Group_4","population":[{"id":"InitialPopulation_4","code":{"coding":[{"system":"http://terminology.hl7.org/CodeSystem/measure-population","code":"initial-population","display":"Initial Population"}]},"count":1},{"id":"MeasurePopulation_4","code":{"coding":[{"system":"http://terminology.hl7.org/CodeSystem/measure-population","code":"measure-population","display":"Measure Population"}]},"count":1},{"id":"MeasurePopulationExclusion_4","code":{"coding":[{"system":"http://terminology.hl7.org/CodeSystem/measure-population","code":"measure-population-exclusion","display":"Measure Population Exclusion"}]},"count":1}],"measureScore":{"value":0.0}},{"id":"Group_5","population":[{"id":"InitialPopulation_5","code":{"coding":[{"system":"http://terminology.hl7.org/CodeSystem/measure-population","code":"initial-population","display":"Initial Population"}]},"count":1},{"id":"MeasurePopulation_5","code":{"coding":[{"system":"http://terminology.hl7.org/CodeSystem/measure-population","code":"measure-population","display":"Measure Population"}]},"count":1},{"id":"MeasurePopulationExclusion_5","code":{"coding":[{"system":"http://terminology.hl7.org/CodeSystem/measure-population","code":"measure-population-exclusion","display":"Measure Population Exclusion"}]},"count":1}],"measureScore":{"value":0.0}},{"id":"Group_6","population":[{"id":"InitialPopulation_6","code":{"coding":[{"system":"http://terminology.hl7.org/CodeSystem/measure-population","code":"initial-population","display":"Initial Population"}]},"count":1},{"id":"MeasurePopulation_6","code":{"coding":[{"system":"http://terminology.hl7.org/CodeSystem/measure-population","code":"measure-population","display":"Measure Population"}]},"count":1},{"id":"MeasurePopulationExclusion_6","code":{"coding":[{"system":"http://terminology.hl7.org/CodeSystem/measure-population","code":"measure-population-exclusion","display":"Measure Population Exclusion"}]},"count":1}],"measureScore":{"value":0.0}}],"evaluatedResource":[{"reference":"Patient/0ae60eb8-3b74-46bb-9cde-1b4684891bf9"},{"reference":"Encounter/f788f818-41fe-4915-ad8c-e89b3b9d169d"},{"reference":"Coverage/c7762a7d-4ebb-4e2d-bd47-ac93d13a8151"},{"reference":"Organization/189720dd-b3ca-48f5-802b-785229ebdb63"}]},"request":{"method":"PUT","url":"MeasureReport/f69e0002-957b-4e89-8997-a90e61faec57"}},{"fullUrl":"Encounter/f788f818-41fe-4915-ad8c-e89b3b9d169d","resource":{"resourceType":"Encounter","id":"f788f818-41fe-4915-ad8c-e89b3b9d169d","meta":{"profile":["http://hl7.org/fhir/us/qicore/StructureDefinition/qicore-encounter"]},"status":"finished","class":{"system":"http://terminology.hl7.org/CodeSystem/v3-ActCode","code":"IMP","display":"inpatient encounter"},"type":[{"coding":[{"system":"http://snomed.info/sct","code":"183452005"}]}],"subject":{"reference":"Patient/0ae60eb8-3b74-46bb-9cde-1b4684891bf9"},"period":{"start":"2026-02-02T08:00:00.000+00:00","end":"2026-02-22T08:15:00.000+00:00"},"hospitalization":{"dischargeDisposition":{"coding":[{"system":"http://snomed.info/sct","code":"428371000124100","display":"Discharged to Health Care Facility for Hospice Care"}]}}},"request":{"method":"PUT","url":"Encounter/f788f818-41fe-4915-ad8c-e89b3b9d169d"}}]}