{"resourceType":"Bundle","id":"tests-1d160b56-edd7-482f-a2e3-8acc26727f91-bundle","type":"transaction","entry":[{"resource":{"resourceType":"Observation","id":"1ee16bc0-db43-4ec2-aaed-2e6b06a8ac7a","meta":{"profile":["http://hl7.org/fhir/us/qicore/StructureDefinition/qicore-observation-screening-assessment"]},"status":"final","category":[{"coding":[{"system":"http://terminology.hl7.org/CodeSystem/observation-category","code":"survey","display":"Survey"}]}],"code":{"coding":[{"system":"http://loinc.org","code":"75285-7","display":"Comparative nutrition assessment standards panel","userSelected":true}]},"subject":{"reference":"Patient/1d160b56-edd7-482f-a2e3-8acc26727f91"},"effectiveDateTime":"2026-02-01T10:00:00.000+00:00","valueCodeableConcept":{"coding":[{"system":"http://loinc.org","code":"LA33705-7","display":"Severely malnourished","userSelected":true}]}},"request":{"method":"PUT","url":"Observation/1ee16bc0-db43-4ec2-aaed-2e6b06a8ac7a"}},{"resource":{"resourceType":"Procedure","id":"aded9089-fae5-4406-944d-22ec54e85cd3","meta":{"profile":["http://hl7.org/fhir/us/qicore/StructureDefinition/qicore-procedure"]},"extension":[{"url":"http://hl7.org/fhir/us/qicore/StructureDefinition/qicore-recorded","valueDateTime":"2026-02-02T11:30:00.000+00:00"}],"status":"completed","code":{"coding":[{"system":"http://snomed.info/sct","code":"1279742004","display":"Development of nutrition care plan (procedure)"}],"text":"Development of nutrition care plan (procedure)"},"subject":{"reference":"Patient/1d160b56-edd7-482f-a2e3-8acc26727f91"},"encounter":{"reference":"Encounter/18onEncounterMSROBSPass4"},"performedPeriod":{"start":"2026-02-01T10:00:00.000+00:00","end":"2026-02-01T10:00:00.000+00:00"}},"request":{"method":"PUT","url":"Procedure/aded9089-fae5-4406-944d-22ec54e85cd3"}},{"resource":{"resourceType":"Procedure","id":"b250676a-03cc-4abe-a2c5-fe5c4c34f9e0","meta":{"profile":["http://hl7.org/fhir/us/qicore/StructureDefinition/qicore-procedure"]},"extension":[{"url":"http://hl7.org/fhir/us/qicore/StructureDefinition/qicore-recorded","valueDateTime":"2026-02-01T11:30:00.000+00:00"}],"status":"completed","code":{"coding":[{"system":"http://snomed.info/sct","code":"306165000","display":"Referral to hospital-based dietetics service (procedure)"}],"text":"Referral to hospital-based dietetics service (procedure)"},"subject":{"reference":"Patient/1d160b56-edd7-482f-a2e3-8acc26727f91"},"encounter":{"reference":"Encounter/18onEncounterMSROBSPass4"},"performedPeriod":{"start":"2026-02-02T08:00:00.000+00:00","end":"2026-02-07T08:00:00.000+00:00"}},"request":{"method":"PUT","url":"Procedure/b250676a-03cc-4abe-a2c5-fe5c4c34f9e0"}},{"resource":{"resourceType":"Encounter","id":"a76c7a7f-4503-41ca-9456-2cdf540f95fc","meta":{"profile":["http://hl7.org/fhir/us/qicore/StructureDefinition/qicore-encounter"]},"status":"finished","class":{"system":"http://terminology.hl7.org/CodeSystem/v3-ActCode","code":"IMP","display":"Hospital admission (procedure)"},"type":[{"coding":[{"system":"http://snomed.info/sct","code":"183452005"}]}],"subject":{"reference":"Patient/1d160b56-edd7-482f-a2e3-8acc26727f91"},"period":{"start":"2026-02-01T08:00:00.000+00:00","end":"2026-02-07T08:15:00.000+00:00"},"reasonReference":[{"reference":"Condition/7144f79c-120a-4b4b-92c5-e6cc6042a976"}]},"request":{"method":"PUT","url":"Encounter/a76c7a7f-4503-41ca-9456-2cdf540f95fc"}},{"resource":{"resourceType":"Patient","id":"1d160b56-edd7-482f-a2e3-8acc26727f91","meta":{"profile":["http://hl7.org/fhir/us/qicore/StructureDefinition/qicore-patient"]},"extension":[{"url":"http://hl7.org/fhir/us/core/StructureDefinition/us-core-race","extension":[{"url":"ombCategory","valueCoding":{"system":"urn:oid:2.16.840.1.113883.6.238","code":"2106-3","display":"White","userSelected":true}},{"url":"text","valueString":"White"}]},{"url":"http://hl7.org/fhir/us/core/StructureDefinition/us-core-ethnicity","extension":[{"url":"ombCategory","valueCoding":{"system":"urn:oid:2.16.840.1.113883.6.238","code":"2135-2","display":"Hispanic or Latino","userSelected":true}},{"url":"text","valueString":"Hispanic or Latino"}]},{"url":"http://hl7.org/fhir/us/core/StructureDefinition/us-core-sex","valueCode":"248153007"}],"identifier":[{"type":{"coding":[{"system":"http://terminology.hl7.org/CodeSystem/v2-0203","code":"MR"}]},"system":"https://madie.cms.gov/","value":"18onEncounter"}],"active":true,"name":[{"use":"usual","text":"18onEncounter","family":"MSROBSPass4","given":["18onEncounter"]}],"gender":"male","birthDate":"2008-02-01","address":[{"text":"18onEncounter, Screened Not at risk Assessed Severely Malnourished Diagnosed Care Plan, ID=18onEncounter, DOB: 01 Feb 2008"}]},"request":{"method":"PUT","url":"Patient/1d160b56-edd7-482f-a2e3-8acc26727f91"}},{"resource":{"resourceType":"Coverage","id":"43e585c0-7972-4903-a59f-f0b331ceec08","meta":{"profile":["http://hl7.org/fhir/us/qicore/StructureDefinition/qicore-coverage"]},"status":"active","type":{"coding":[{"system":"https://nahdo.org/sopt","version":"9.2","code":"11","display":"Medicare Managed Care (Includes Medicare Advantage Plans)"}]},"subscriberId":"97531","beneficiary":{"reference":"Patient/1d160b56-edd7-482f-a2e3-8acc26727f91"},"dependent":"0","relationship":{"coding":[{"system":"http://terminology.hl7.org/CodeSystem/subscriber-relationship","code":"self"}]},"period":{"start":"2026-10-01T00:00:00.000+00:00"},"payor":[{"reference":"Organization/293d475d-5085-4799-b605-a08d6c72949d"}]},"request":{"method":"PUT","url":"Coverage/43e585c0-7972-4903-a59f-f0b331ceec08"}},{"resource":{"resourceType":"Organization","id":"293d475d-5085-4799-b605-a08d6c72949d","meta":{"profile":["http://hl7.org/fhir/us/qicore/StructureDefinition/qicore-organization"]},"identifier":[{"use":"temp","system":"urn:oid:2.16.840.1.113883.4.4","value":"21-3259825"}],"active":true,"type":[{"coding":[{"system":"http://terminology.hl7.org/CodeSystem/organization-type","code":"pay","display":"Payer"}]}],"name":"Blue Cross Blue Shield of Texas","telecom":[{"system":"phone","value":"(+1) 972-766-6900"}],"address":[{"use":"billing","type":"postal","line":["P.O. Box 660044"],"city":"Dallas","state":"TX","postalCode":"75266-0044","country":"USA"}]},"request":{"method":"PUT","url":"Organization/293d475d-5085-4799-b605-a08d6c72949d"}},{"resource":{"resourceType":"Condition","id":"7144f79c-120a-4b4b-92c5-e6cc6042a976","meta":{"profile":["http://hl7.org/fhir/us/qicore/StructureDefinition/qicore-condition-encounter-diagnosis"]},"clinicalStatus":{"coding":[{"system":"http://terminology.hl7.org/CodeSystem/condition-clinical","code":"active","display":"Active","userSelected":true}]},"verificationStatus":{"coding":[{"system":"http://terminology.hl7.org/CodeSystem/condition-ver-status","code":"confirmed","display":"Confirmed","userSelected":true}]},"category":[{"coding":[{"system":"http://terminology.hl7.org/CodeSystem/condition-category","code":"encounter-diagnosis","display":"Encounter Diagnosis","userSelected":true}]}],"code":{"coding":[{"system":"http://hl7.org/fhir/sid/icd-10-cm","code":"R62.7","display":"Adult failure to thrive","userSelected":true}]},"subject":{"reference":"Patient/1d160b56-edd7-482f-a2e3-8acc26727f91"},"onsetPeriod":{"start":"2026-02-01T08:00:00.000+00:00"},"recordedDate":"2026-02-07T08:15:00.000+00:00"},"request":{"method":"PUT","url":"Condition/7144f79c-120a-4b4b-92c5-e6cc6042a976"}},{"resource":{"resourceType":"Bundle","id":"18onEncounter","type":"transaction","entry":[{"fullUrl":"https://madie.cms.gov/Patient/1d160b56-edd7-482f-a2e3-8acc26727f91","resource":{"resourceType":"Patient","id":"1d160b56-edd7-482f-a2e3-8acc26727f91","meta":{"profile":["http://hl7.org/fhir/us/qicore/StructureDefinition/qicore-patient"]},"extension":[{"url":"http://hl7.org/fhir/us/core/StructureDefinition/us-core-race","extension":[{"url":"ombCategory","valueCoding":{"system":"urn:oid:2.16.840.1.113883.6.238","code":"2106-3","display":"White","userSelected":true}},{"url":"text","valueString":"White"}]},{"url":"http://hl7.org/fhir/us/core/StructureDefinition/us-core-ethnicity","extension":[{"url":"ombCategory","valueCoding":{"system":"urn:oid:2.16.840.1.113883.6.238","code":"2135-2","display":"Hispanic or Latino","userSelected":true}},{"url":"text","valueString":"Hispanic or Latino"}]},{"url":"http://hl7.org/fhir/us/core/StructureDefinition/us-core-sex","valueCode":"248153007"}],"identifier":[{"type":{"coding":[{"system":"http://terminology.hl7.org/CodeSystem/v2-0203","code":"MR"}]},"system":"https://madie.cms.gov/","value":"18onEncounter"}],"active":true,"name":[{"use":"usual","text":"18onEncounter","family":"MSROBSPass4","given":["18onEncounter"]}],"gender":"male","birthDate":"2008-02-01","address":[{"text":"18onEncounter, Screened Not at risk Assessed Severely Malnourished Diagnosed Care Plan, ID=18onEncounter, DOB: 01 Feb 2008"}]},"request":{"method":"PUT","url":"Patient/1d160b56-edd7-482f-a2e3-8acc26727f91"}},{"fullUrl":"https://madie.cms.gov/Encounter/a76c7a7f-4503-41ca-9456-2cdf540f95fc","resource":{"resourceType":"Encounter","id":"a76c7a7f-4503-41ca-9456-2cdf540f95fc","meta":{"profile":["http://hl7.org/fhir/us/qicore/StructureDefinition/qicore-encounter"]},"status":"finished","class":{"system":"http://terminology.hl7.org/CodeSystem/v3-ActCode","code":"IMP","display":"Hospital admission (procedure)"},"type":[{"coding":[{"system":"http://snomed.info/sct","code":"183452005"}]}],"subject":{"reference":"Patient/1d160b56-edd7-482f-a2e3-8acc26727f91"},"period":{"start":"2026-02-01T08:00:00.000+00:00","end":"2026-02-07T08:15:00.000+00:00"},"reasonReference":[{"reference":"Condition/7144f79c-120a-4b4b-92c5-e6cc6042a976"}]},"request":{"method":"PUT","url":"Encounter/a76c7a7f-4503-41ca-9456-2cdf540f95fc"}},{"fullUrl":"https://madie.cms.gov/Condition/7144f79c-120a-4b4b-92c5-e6cc6042a976","resource":{"resourceType":"Condition","id":"7144f79c-120a-4b4b-92c5-e6cc6042a976","meta":{"profile":["http://hl7.org/fhir/us/qicore/StructureDefinition/qicore-condition-encounter-diagnosis"]},"clinicalStatus":{"coding":[{"system":"http://terminology.hl7.org/CodeSystem/condition-clinical","code":"active","display":"Active","userSelected":true}]},"verificationStatus":{"coding":[{"system":"http://terminology.hl7.org/CodeSystem/condition-ver-status","code":"confirmed","display":"Confirmed","userSelected":true}]},"category":[{"coding":[{"system":"http://terminology.hl7.org/CodeSystem/condition-category","code":"encounter-diagnosis","display":"Encounter Diagnosis","userSelected":true}]}],"code":{"coding":[{"system":"http://hl7.org/fhir/sid/icd-10-cm","code":"R62.7","display":"Adult failure to thrive","userSelected":true}]},"subject":{"reference":"Patient/1d160b56-edd7-482f-a2e3-8acc26727f91"},"onsetPeriod":{"start":"2026-02-01T08:00:00.000+00:00"},"recordedDate":"2026-02-07T08:15:00.000+00:00"},"request":{"method":"PUT","url":"Condition/7144f79c-120a-4b4b-92c5-e6cc6042a976"}},{"fullUrl":"https://madie.cms.gov/Observation/d79c77ef-fa7f-43e1-b147-3da7ca9edff7","resource":{"resourceType":"Observation","id":"d79c77ef-fa7f-43e1-b147-3da7ca9edff7","meta":{"profile":["http://hl7.org/fhir/us/qicore/StructureDefinition/qicore-observation-screening-assessment"]},"status":"final","category":[{"coding":[{"system":"http://terminology.hl7.org/CodeSystem/observation-category","code":"survey","display":"Survey"}]}],"code":{"coding":[{"system":"http://loinc.org","code":"98967-3","display":"Nutritional Risk Screening 2002 panel","userSelected":true}]},"subject":{"reference":"Patient/1d160b56-edd7-482f-a2e3-8acc26727f91"},"effectiveDateTime":"2026-02-07T08:15:00.000+00:00","valueCodeableConcept":{"coding":[{"system":"http://snomed.info/sct","code":"129689002","display":"At increased risk for nutritional problem (finding)","userSelected":true}]}},"request":{"method":"PUT","url":"Observation/d79c77ef-fa7f-43e1-b147-3da7ca9edff7"}},{"fullUrl":"https://madie.cms.gov/Observation/1ee16bc0-db43-4ec2-aaed-2e6b06a8ac7a","resource":{"resourceType":"Observation","id":"1ee16bc0-db43-4ec2-aaed-2e6b06a8ac7a","meta":{"profile":["http://hl7.org/fhir/us/qicore/StructureDefinition/qicore-observation-screening-assessment"]},"status":"final","category":[{"coding":[{"system":"http://terminology.hl7.org/CodeSystem/observation-category","code":"survey","display":"Survey"}]}],"code":{"coding":[{"system":"http://loinc.org","code":"75285-7","display":"Comparative nutrition assessment standards panel","userSelected":true}]},"subject":{"reference":"Patient/1d160b56-edd7-482f-a2e3-8acc26727f91"},"effectiveDateTime":"2026-02-01T10:00:00.000+00:00","valueCodeableConcept":{"coding":[{"system":"http://loinc.org","code":"LA33705-7","display":"Severely malnourished","userSelected":true}]}},"request":{"method":"PUT","url":"Observation/1ee16bc0-db43-4ec2-aaed-2e6b06a8ac7a"}},{"fullUrl":"https://madie.cms.gov/Procedure/b250676a-03cc-4abe-a2c5-fe5c4c34f9e0","resource":{"resourceType":"Procedure","id":"b250676a-03cc-4abe-a2c5-fe5c4c34f9e0","meta":{"profile":["http://hl7.org/fhir/us/qicore/StructureDefinition/qicore-procedure"]},"extension":[{"url":"http://hl7.org/fhir/us/qicore/StructureDefinition/qicore-recorded","valueDateTime":"2026-02-01T11:30:00.000+00:00"}],"status":"completed","code":{"coding":[{"system":"http://snomed.info/sct","code":"306165000","display":"Referral to hospital-based dietetics service (procedure)"}],"text":"Referral to hospital-based dietetics service (procedure)"},"subject":{"reference":"Patient/1d160b56-edd7-482f-a2e3-8acc26727f91"},"encounter":{"reference":"Encounter/18onEncounterMSROBSPass4"},"performedPeriod":{"start":"2026-02-02T08:00:00.000+00:00","end":"2026-02-07T08:00:00.000+00:00"}},"request":{"method":"PUT","url":"Procedure/b250676a-03cc-4abe-a2c5-fe5c4c34f9e0"}},{"fullUrl":"https://madie.cms.gov/Procedure/aded9089-fae5-4406-944d-22ec54e85cd3","resource":{"resourceType":"Procedure","id":"aded9089-fae5-4406-944d-22ec54e85cd3","meta":{"profile":["http://hl7.org/fhir/us/qicore/StructureDefinition/qicore-procedure"]},"extension":[{"url":"http://hl7.org/fhir/us/qicore/StructureDefinition/qicore-recorded","valueDateTime":"2026-02-02T11:30:00.000+00:00"}],"status":"completed","code":{"coding":[{"system":"http://snomed.info/sct","code":"1279742004","display":"Development of nutrition care plan (procedure)"}],"text":"Development of nutrition care plan (procedure)"},"subject":{"reference":"Patient/1d160b56-edd7-482f-a2e3-8acc26727f91"},"encounter":{"reference":"Encounter/18onEncounterMSROBSPass4"},"performedPeriod":{"start":"2026-02-01T10:00:00.000+00:00","end":"2026-02-01T10:00:00.000+00:00"}},"request":{"method":"PUT","url":"Procedure/aded9089-fae5-4406-944d-22ec54e85cd3"}},{"fullUrl":"https://madie.cms.gov/Coverage/43e585c0-7972-4903-a59f-f0b331ceec08","resource":{"resourceType":"Coverage","id":"43e585c0-7972-4903-a59f-f0b331ceec08","meta":{"profile":["http://hl7.org/fhir/us/qicore/StructureDefinition/qicore-coverage"]},"status":"active","type":{"coding":[{"system":"https://nahdo.org/sopt","version":"9.2","code":"11","display":"Medicare Managed Care (Includes Medicare Advantage Plans)"}]},"subscriberId":"97531","beneficiary":{"reference":"Patient/1d160b56-edd7-482f-a2e3-8acc26727f91"},"dependent":"0","relationship":{"coding":[{"system":"http://terminology.hl7.org/CodeSystem/subscriber-relationship","code":"self"}]},"period":{"start":"2026-10-01T00:00:00.000+00:00"},"payor":[{"reference":"Organization/293d475d-5085-4799-b605-a08d6c72949d"}]},"request":{"method":"PUT","url":"Coverage/43e585c0-7972-4903-a59f-f0b331ceec08"}},{"fullUrl":"https://madie.cms.gov/Organization/293d475d-5085-4799-b605-a08d6c72949d","resource":{"resourceType":"Organization","id":"293d475d-5085-4799-b605-a08d6c72949d","meta":{"profile":["http://hl7.org/fhir/us/qicore/StructureDefinition/qicore-organization"]},"identifier":[{"use":"temp","system":"urn:oid:2.16.840.1.113883.4.4","value":"21-3259825"}],"active":true,"type":[{"coding":[{"system":"http://terminology.hl7.org/CodeSystem/organization-type","code":"pay","display":"Payer"}]}],"name":"Blue Cross Blue Shield of Texas","telecom":[{"system":"phone","value":"(+1) 972-766-6900"}],"address":[{"use":"billing","type":"postal","line":["P.O. Box 660044"],"city":"Dallas","state":"TX","postalCode":"75266-0044","country":"USA"}]},"request":{"method":"PUT","url":"Organization/293d475d-5085-4799-b605-a08d6c72949d"}},{"fullUrl":"https://madie.cms.gov/MeasureReport/2e9b40f8-008b-4cc0-8c34-488891b27979","resource":{"resourceType":"MeasureReport","id":"2e9b40f8-008b-4cc0-8c34-488891b27979","meta":{"profile":["http://hl7.org/fhir/us/cqfmeasures/StructureDefinition/test-case-cqfm"]},"contained":[{"resourceType":"Parameters","id":"1a7070b6-950a-4a0b-9875-7827e39a2ebf-parameters","parameter":[{"name":"subject","valueString":"1d160b56-edd7-482f-a2e3-8acc26727f91"}]}],"extension":[{"url":"http://hl7.org/fhir/StructureDefinition/cqf-inputParameters","valueReference":{"reference":"#1a7070b6-950a-4a0b-9875-7827e39a2ebf-parameters"}},{"url":"http://hl7.org/fhir/us/cqfmeasures/StructureDefinition/cqfm-testCaseDescription","valueMarkdown":"turns 18 on encounter"}],"modifierExtension":[{"url":"http://hl7.org/fhir/us/cqfmeasures/StructureDefinition/cqfm-isTestCase","valueBoolean":true}],"status":"complete","type":"individual","measure":"https://madie.cms.gov/Measure/CMS986FHIRMalnutritionScore","period":{"start":"2026-01-01","end":"2026-12-31"},"group":[{"id":"Group_1","population":[{"id":"InitialPopulation_1","code":{"coding":[{"system":"http://terminology.hl7.org/CodeSystem/measure-population","code":"initial-population","display":"Initial Population"}]},"count":1},{"id":"MeasurePopulation_1","code":{"coding":[{"system":"http://terminology.hl7.org/CodeSystem/measure-population","code":"measure-population","display":"Measure Population"}]},"count":1},{"id":"MeasurePopulationExclusion_1","code":{"coding":[{"system":"http://terminology.hl7.org/CodeSystem/measure-population","code":"measure-population-exclusion","display":"Measure Population Exclusion"}]},"count":0},{"id":"MeasureObservation_1_1","code":{"coding":[{"system":"http://terminology.hl7.org/CodeSystem/measure-population","code":"measure-population-observation","display":"Measure Population Observation"}]},"count":1}],"measureScore":{"value":0.0}},{"id":"Group_2","population":[{"id":"InitialPopulation_2","code":{"coding":[{"system":"http://terminology.hl7.org/CodeSystem/measure-population","code":"initial-population","display":"Initial Population"}]},"count":1},{"id":"MeasurePopulation_2","code":{"coding":[{"system":"http://terminology.hl7.org/CodeSystem/measure-population","code":"measure-population","display":"Measure Population"}]},"count":1},{"id":"MeasurePopulationExclusion_2","code":{"coding":[{"system":"http://terminology.hl7.org/CodeSystem/measure-population","code":"measure-population-exclusion","display":"Measure Population Exclusion"}]},"count":0},{"id":"MeasureObservation_2_1","code":{"coding":[{"system":"http://terminology.hl7.org/CodeSystem/measure-population","code":"measure-population-observation","display":"Measure Population Observation"}]},"count":1}],"measureScore":{"value":0.0}},{"id":"Group_3","population":[{"id":"InitialPopulation_3","code":{"coding":[{"system":"http://terminology.hl7.org/CodeSystem/measure-population","code":"initial-population","display":"Initial Population"}]},"count":1},{"id":"MeasurePopulation_3","code":{"coding":[{"system":"http://terminology.hl7.org/CodeSystem/measure-population","code":"measure-population","display":"Measure Population"}]},"count":1},{"id":"MeasurePopulationExclusion_3","code":{"coding":[{"system":"http://terminology.hl7.org/CodeSystem/measure-population","code":"measure-population-exclusion","display":"Measure Population Exclusion"}]},"count":0},{"id":"MeasureObservation_3_1","code":{"coding":[{"system":"http://terminology.hl7.org/CodeSystem/measure-population","code":"measure-population-observation","display":"Measure Population Observation"}]},"count":1}],"measureScore":{"value":0.0}},{"id":"Group_4","population":[{"id":"InitialPopulation_4","code":{"coding":[{"system":"http://terminology.hl7.org/CodeSystem/measure-population","code":"initial-population","display":"Initial Population"}]},"count":1},{"id":"MeasurePopulation_4","code":{"coding":[{"system":"http://terminology.hl7.org/CodeSystem/measure-population","code":"measure-population","display":"Measure Population"}]},"count":1},{"id":"MeasurePopulationExclusion_4","code":{"coding":[{"system":"http://terminology.hl7.org/CodeSystem/measure-population","code":"measure-population-exclusion","display":"Measure Population Exclusion"}]},"count":0},{"id":"MeasureObservation_4_1","code":{"coding":[{"system":"http://terminology.hl7.org/CodeSystem/measure-population","code":"measure-population-observation","display":"Measure Population Observation"}]},"count":1}],"measureScore":{"value":0.0}},{"id":"Group_5","population":[{"id":"InitialPopulation_5","code":{"coding":[{"system":"http://terminology.hl7.org/CodeSystem/measure-population","code":"initial-population","display":"Initial Population"}]},"count":1},{"id":"MeasurePopulation_5","code":{"coding":[{"system":"http://terminology.hl7.org/CodeSystem/measure-population","code":"measure-population","display":"Measure Population"}]},"count":1},{"id":"MeasurePopulationExclusion_5","code":{"coding":[{"system":"http://terminology.hl7.org/CodeSystem/measure-population","code":"measure-population-exclusion","display":"Measure Population Exclusion"}]},"count":0},{"id":"MeasureObservation_5_1","code":{"coding":[{"system":"http://terminology.hl7.org/CodeSystem/measure-population","code":"measure-population-observation","display":"Measure Population Observation"}]},"count":4}],"measureScore":{"value":0.0}},{"id":"Group_6","population":[{"id":"InitialPopulation_6","code":{"coding":[{"system":"http://terminology.hl7.org/CodeSystem/measure-population","code":"initial-population","display":"Initial Population"}]},"count":1},{"id":"MeasurePopulation_6","code":{"coding":[{"system":"http://terminology.hl7.org/CodeSystem/measure-population","code":"measure-population","display":"Measure Population"}]},"count":1},{"id":"MeasurePopulationExclusion_6","code":{"coding":[{"system":"http://terminology.hl7.org/CodeSystem/measure-population","code":"measure-population-exclusion","display":"Measure Population Exclusion"}]},"count":0},{"id":"MeasureObservation_6_1","code":{"coding":[{"system":"http://terminology.hl7.org/CodeSystem/measure-population","code":"measure-population-observation","display":"Measure Population Observation"}]},"count":100}],"measureScore":{"value":0.0}}],"evaluatedResource":[{"reference":"Patient/1d160b56-edd7-482f-a2e3-8acc26727f91"},{"reference":"Encounter/a76c7a7f-4503-41ca-9456-2cdf540f95fc"},{"reference":"Condition/7144f79c-120a-4b4b-92c5-e6cc6042a976"},{"reference":"Observation/d79c77ef-fa7f-43e1-b147-3da7ca9edff7"},{"reference":"Observation/1ee16bc0-db43-4ec2-aaed-2e6b06a8ac7a"},{"reference":"Procedure/b250676a-03cc-4abe-a2c5-fe5c4c34f9e0"},{"reference":"Procedure/aded9089-fae5-4406-944d-22ec54e85cd3"},{"reference":"Coverage/43e585c0-7972-4903-a59f-f0b331ceec08"},{"reference":"Organization/293d475d-5085-4799-b605-a08d6c72949d"}]},"request":{"method":"PUT","url":"MeasureReport/2e9b40f8-008b-4cc0-8c34-488891b27979"}}]},"request":{"method":"PUT","url":"Bundle/18onEncounter"}},{"resource":{"resourceType":"Observation","id":"d79c77ef-fa7f-43e1-b147-3da7ca9edff7","meta":{"profile":["http://hl7.org/fhir/us/qicore/StructureDefinition/qicore-observation-screening-assessment"]},"status":"final","category":[{"coding":[{"system":"http://terminology.hl7.org/CodeSystem/observation-category","code":"survey","display":"Survey"}]}],"code":{"coding":[{"system":"http://loinc.org","code":"98967-3","display":"Nutritional Risk Screening 2002 panel","userSelected":true}]},"subject":{"reference":"Patient/1d160b56-edd7-482f-a2e3-8acc26727f91"},"effectiveDateTime":"2026-02-07T08:15:00.000+00:00","valueCodeableConcept":{"coding":[{"system":"http://snomed.info/sct","code":"129689002","display":"At increased risk for nutritional problem (finding)","userSelected":true}]}},"request":{"method":"PUT","url":"Observation/d79c77ef-fa7f-43e1-b147-3da7ca9edff7"}},{"resource":{"resourceType":"MeasureReport","id":"2e9b40f8-008b-4cc0-8c34-488891b27979","meta":{"profile":["http://hl7.org/fhir/us/cqfmeasures/StructureDefinition/test-case-cqfm"]},"contained":[{"resourceType":"Parameters","id":"1a7070b6-950a-4a0b-9875-7827e39a2ebf-parameters","parameter":[{"name":"subject","valueString":"1d160b56-edd7-482f-a2e3-8acc26727f91"}]}],"extension":[{"url":"http://hl7.org/fhir/StructureDefinition/cqf-inputParameters","valueReference":{"reference":"#1a7070b6-950a-4a0b-9875-7827e39a2ebf-parameters"}},{"url":"http://hl7.org/fhir/us/cqfmeasures/StructureDefinition/cqfm-testCaseDescription","valueMarkdown":"turns 18 on encounter"}],"modifierExtension":[{"url":"http://hl7.org/fhir/us/cqfmeasures/StructureDefinition/cqfm-isTestCase","valueBoolean":true}],"status":"complete","type":"individual","measure":"https://madie.cms.gov/Measure/CMS986FHIRMalnutritionScore","period":{"start":"2026-01-01","end":"2026-12-31"},"group":[{"id":"Group_1","population":[{"id":"InitialPopulation_1","code":{"coding":[{"system":"http://terminology.hl7.org/CodeSystem/measure-population","code":"initial-population","display":"Initial Population"}]},"count":1},{"id":"MeasurePopulation_1","code":{"coding":[{"system":"http://terminology.hl7.org/CodeSystem/measure-population","code":"measure-population","display":"Measure Population"}]},"count":1},{"id":"MeasurePopulationExclusion_1","code":{"coding":[{"system":"http://terminology.hl7.org/CodeSystem/measure-population","code":"measure-population-exclusion","display":"Measure Population Exclusion"}]},"count":0},{"id":"MeasureObservation_1_1","code":{"coding":[{"system":"http://terminology.hl7.org/CodeSystem/measure-population","code":"measure-population-observation","display":"Measure Population Observation"}]},"count":1}],"measureScore":{"value":0.0}},{"id":"Group_2","population":[{"id":"InitialPopulation_2","code":{"coding":[{"system":"http://terminology.hl7.org/CodeSystem/measure-population","code":"initial-population","display":"Initial Population"}]},"count":1},{"id":"MeasurePopulation_2","code":{"coding":[{"system":"http://terminology.hl7.org/CodeSystem/measure-population","code":"measure-population","display":"Measure Population"}]},"count":1},{"id":"MeasurePopulationExclusion_2","code":{"coding":[{"system":"http://terminology.hl7.org/CodeSystem/measure-population","code":"measure-population-exclusion","display":"Measure Population Exclusion"}]},"count":0},{"id":"MeasureObservation_2_1","code":{"coding":[{"system":"http://terminology.hl7.org/CodeSystem/measure-population","code":"measure-population-observation","display":"Measure Population Observation"}]},"count":1}],"measureScore":{"value":0.0}},{"id":"Group_3","population":[{"id":"InitialPopulation_3","code":{"coding":[{"system":"http://terminology.hl7.org/CodeSystem/measure-population","code":"initial-population","display":"Initial Population"}]},"count":1},{"id":"MeasurePopulation_3","code":{"coding":[{"system":"http://terminology.hl7.org/CodeSystem/measure-population","code":"measure-population","display":"Measure Population"}]},"count":1},{"id":"MeasurePopulationExclusion_3","code":{"coding":[{"system":"http://terminology.hl7.org/CodeSystem/measure-population","code":"measure-population-exclusion","display":"Measure Population Exclusion"}]},"count":0},{"id":"MeasureObservation_3_1","code":{"coding":[{"system":"http://terminology.hl7.org/CodeSystem/measure-population","code":"measure-population-observation","display":"Measure Population Observation"}]},"count":1}],"measureScore":{"value":0.0}},{"id":"Group_4","population":[{"id":"InitialPopulation_4","code":{"coding":[{"system":"http://terminology.hl7.org/CodeSystem/measure-population","code":"initial-population","display":"Initial Population"}]},"count":1},{"id":"MeasurePopulation_4","code":{"coding":[{"system":"http://terminology.hl7.org/CodeSystem/measure-population","code":"measure-population","display":"Measure Population"}]},"count":1},{"id":"MeasurePopulationExclusion_4","code":{"coding":[{"system":"http://terminology.hl7.org/CodeSystem/measure-population","code":"measure-population-exclusion","display":"Measure Population Exclusion"}]},"count":0},{"id":"MeasureObservation_4_1","code":{"coding":[{"system":"http://terminology.hl7.org/CodeSystem/measure-population","code":"measure-population-observation","display":"Measure Population Observation"}]},"count":1}],"measureScore":{"value":0.0}},{"id":"Group_5","population":[{"id":"InitialPopulation_5","code":{"coding":[{"system":"http://terminology.hl7.org/CodeSystem/measure-population","code":"initial-population","display":"Initial Population"}]},"count":1},{"id":"MeasurePopulation_5","code":{"coding":[{"system":"http://terminology.hl7.org/CodeSystem/measure-population","code":"measure-population","display":"Measure Population"}]},"count":1},{"id":"MeasurePopulationExclusion_5","code":{"coding":[{"system":"http://terminology.hl7.org/CodeSystem/measure-population","code":"measure-population-exclusion","display":"Measure Population Exclusion"}]},"count":0},{"id":"MeasureObservation_5_1","code":{"coding":[{"system":"http://terminology.hl7.org/CodeSystem/measure-population","code":"measure-population-observation","display":"Measure Population Observation"}]},"count":4}],"measureScore":{"value":0.0}},{"id":"Group_6","population":[{"id":"InitialPopulation_6","code":{"coding":[{"system":"http://terminology.hl7.org/CodeSystem/measure-population","code":"initial-population","display":"Initial Population"}]},"count":1},{"id":"MeasurePopulation_6","code":{"coding":[{"system":"http://terminology.hl7.org/CodeSystem/measure-population","code":"measure-population","display":"Measure Population"}]},"count":1},{"id":"MeasurePopulationExclusion_6","code":{"coding":[{"system":"http://terminology.hl7.org/CodeSystem/measure-population","code":"measure-population-exclusion","display":"Measure Population Exclusion"}]},"count":0},{"id":"MeasureObservation_6_1","code":{"coding":[{"system":"http://terminology.hl7.org/CodeSystem/measure-population","code":"measure-population-observation","display":"Measure Population Observation"}]},"count":100}],"measureScore":{"value":0.0}}],"evaluatedResource":[{"reference":"Patient/1d160b56-edd7-482f-a2e3-8acc26727f91"},{"reference":"Encounter/a76c7a7f-4503-41ca-9456-2cdf540f95fc"},{"reference":"Condition/7144f79c-120a-4b4b-92c5-e6cc6042a976"},{"reference":"Observation/d79c77ef-fa7f-43e1-b147-3da7ca9edff7"},{"reference":"Observation/1ee16bc0-db43-4ec2-aaed-2e6b06a8ac7a"},{"reference":"Procedure/b250676a-03cc-4abe-a2c5-fe5c4c34f9e0"},{"reference":"Procedure/aded9089-fae5-4406-944d-22ec54e85cd3"},{"reference":"Coverage/43e585c0-7972-4903-a59f-f0b331ceec08"},{"reference":"Organization/293d475d-5085-4799-b605-a08d6c72949d"}]},"request":{"method":"PUT","url":"MeasureReport/2e9b40f8-008b-4cc0-8c34-488891b27979"}}]}