{"resourceType":"Bundle","id":"tests-a4d4b3e9-171d-456f-9282-3db4bb9852f6-bundle","type":"transaction","entry":[{"resource":{"resourceType":"Encounter","id":"633c0de5-1c62-4fa1-9bea-e7ee93ebc1e7","meta":{"profile":["http://hl7.org/fhir/us/qicore/StructureDefinition/qicore-encounter"]},"status":"finished","class":{"system":"http://terminology.hl7.org/CodeSystem/v3-ActCode","code":"IMP","display":"inpatient encounter"},"type":[{"coding":[{"system":"http://snomed.info/sct","code":"183452005"}]}],"subject":{"reference":"Patient/a4d4b3e9-171d-456f-9282-3db4bb9852f6"},"period":{"start":"2026-02-23T08:00:00.000+00:00","end":"2026-02-28T08:15:00.000+00:00"}},"request":{"method":"PUT","url":"Encounter/633c0de5-1c62-4fa1-9bea-e7ee93ebc1e7"}},{"resource":{"resourceType":"Patient","id":"a4d4b3e9-171d-456f-9282-3db4bb9852f6","meta":{"profile":["http://hl7.org/fhir/us/qicore/StructureDefinition/qicore-patient"]},"extension":[{"url":"http://hl7.org/fhir/us/core/StructureDefinition/us-core-race","extension":[{"url":"ombCategory","valueCoding":{"system":"urn:oid:2.16.840.1.113883.6.238","code":"1002-5","display":"American Indian or Alaska Native","userSelected":true}},{"url":"text","valueString":"American Indian or Alaska Native"}]},{"url":"http://hl7.org/fhir/us/core/StructureDefinition/us-core-ethnicity","extension":[{"url":"ombCategory","valueCoding":{"system":"urn:oid:2.16.840.1.113883.6.238","code":"2135-2","display":"Hispanic or Latino","userSelected":true}},{"url":"text","valueString":"Hispanic or Latino"}]},{"url":"http://hl7.org/fhir/us/core/StructureDefinition/us-core-sex","valueCode":"248153007"}],"identifier":[{"type":{"coding":[{"system":"http://terminology.hl7.org/CodeSystem/v2-0203","code":"MR"}]},"system":"https://madie.cms.gov/","value":"NoscreRefNoasseDxCp"}],"active":true,"name":[{"use":"usual","text":"NoscreRefNoasseDxCp","family":"MSROBSPass2","given":["NoscreRefNoasseDxCp"]}],"gender":"male","birthDate":"1952-11-23","address":[{"text":"NoscreRefNoasseDxCp, Not Screened, Referral, Not Assessed, Diagnosis, Care Plan, ID=Andrew, DOB: 23 Nov 1952"}]},"request":{"method":"PUT","url":"Patient/a4d4b3e9-171d-456f-9282-3db4bb9852f6"}},{"resource":{"resourceType":"MeasureReport","id":"67577d4b-9d17-4713-a109-12b06714c4c1","meta":{"profile":["http://hl7.org/fhir/us/cqfmeasures/StructureDefinition/test-case-cqfm"]},"contained":[{"resourceType":"Parameters","id":"b5d01a7f-26bc-4829-8af7-957516619b96-parameters","parameter":[{"name":"subject","valueString":"a4d4b3e9-171d-456f-9282-3db4bb9852f6"}]}],"extension":[{"url":"http://hl7.org/fhir/StructureDefinition/cqf-inputParameters","valueReference":{"reference":"#b5d01a7f-26bc-4829-8af7-957516619b96-parameters"}},{"url":"http://hl7.org/fhir/us/cqfmeasures/StructureDefinition/cqfm-testCaseDescription","valueMarkdown":"Not screened, Referral, Not Assessed, Diagnosis, Nutrition Care Plan"}],"modifierExtension":[{"url":"http://hl7.org/fhir/us/cqfmeasures/StructureDefinition/cqfm-isTestCase","valueBoolean":true}],"status":"complete","type":"individual","measure":"https://madie.cms.gov/Measure/CMS986FHIRMalnutritionScore","period":{"start":"2026-01-01","end":"2026-12-31"},"group":[{"id":"Group_1","population":[{"id":"InitialPopulation_1","code":{"coding":[{"system":"http://terminology.hl7.org/CodeSystem/measure-population","code":"initial-population","display":"Initial Population"}]},"count":1},{"id":"MeasurePopulation_1","code":{"coding":[{"system":"http://terminology.hl7.org/CodeSystem/measure-population","code":"measure-population","display":"Measure Population"}]},"count":1},{"id":"MeasurePopulationExclusion_1","code":{"coding":[{"system":"http://terminology.hl7.org/CodeSystem/measure-population","code":"measure-population-exclusion","display":"Measure Population Exclusion"}]},"count":0},{"id":"MeasureObservation_1_1","code":{"coding":[{"system":"http://terminology.hl7.org/CodeSystem/measure-population","code":"measure-population-observation","display":"Measure Population Observation"}]},"count":1}],"measureScore":{"value":0.0}},{"id":"Group_2","population":[{"id":"InitialPopulation_2","code":{"coding":[{"system":"http://terminology.hl7.org/CodeSystem/measure-population","code":"initial-population","display":"Initial Population"}]},"count":1},{"id":"MeasurePopulation_2","code":{"coding":[{"system":"http://terminology.hl7.org/CodeSystem/measure-population","code":"measure-population","display":"Measure Population"}]},"count":1},{"id":"MeasurePopulationExclusion_2","code":{"coding":[{"system":"http://terminology.hl7.org/CodeSystem/measure-population","code":"measure-population-exclusion","display":"Measure Population Exclusion"}]},"count":0},{"id":"MeasureObservation_2_1","code":{"coding":[{"system":"http://terminology.hl7.org/CodeSystem/measure-population","code":"measure-population-observation","display":"Measure Population Observation"}]},"count":0}],"measureScore":{"value":0.0}},{"id":"Group_3","population":[{"id":"InitialPopulation_3","code":{"coding":[{"system":"http://terminology.hl7.org/CodeSystem/measure-population","code":"initial-population","display":"Initial Population"}]},"count":1},{"id":"MeasurePopulation_3","code":{"coding":[{"system":"http://terminology.hl7.org/CodeSystem/measure-population","code":"measure-population","display":"Measure Population"}]},"count":1},{"id":"MeasurePopulationExclusion_3","code":{"coding":[{"system":"http://terminology.hl7.org/CodeSystem/measure-population","code":"measure-population-exclusion","display":"Measure Population Exclusion"}]},"count":0},{"id":"MeasureObservation_3_1","code":{"coding":[{"system":"http://terminology.hl7.org/CodeSystem/measure-population","code":"measure-population-observation","display":"Measure Population Observation"}]},"count":0}],"measureScore":{"value":0.0}},{"id":"Group_4","population":[{"id":"InitialPopulation_4","code":{"coding":[{"system":"http://terminology.hl7.org/CodeSystem/measure-population","code":"initial-population","display":"Initial Population"}]},"count":1},{"id":"MeasurePopulation_4","code":{"coding":[{"system":"http://terminology.hl7.org/CodeSystem/measure-population","code":"measure-population","display":"Measure Population"}]},"count":1},{"id":"MeasurePopulationExclusion_4","code":{"coding":[{"system":"http://terminology.hl7.org/CodeSystem/measure-population","code":"measure-population-exclusion","display":"Measure Population Exclusion"}]},"count":0},{"id":"MeasureObservation_4_1","code":{"coding":[{"system":"http://terminology.hl7.org/CodeSystem/measure-population","code":"measure-population-observation","display":"Measure Population Observation"}]},"count":0}],"measureScore":{"value":0.0}},{"id":"Group_5","population":[{"id":"InitialPopulation_5","code":{"coding":[{"system":"http://terminology.hl7.org/CodeSystem/measure-population","code":"initial-population","display":"Initial Population"}]},"count":1},{"id":"MeasurePopulation_5","code":{"coding":[{"system":"http://terminology.hl7.org/CodeSystem/measure-population","code":"measure-population","display":"Measure Population"}]},"count":1},{"id":"MeasurePopulationExclusion_5","code":{"coding":[{"system":"http://terminology.hl7.org/CodeSystem/measure-population","code":"measure-population-exclusion","display":"Measure Population Exclusion"}]},"count":0},{"id":"MeasureObservation_5_1","code":{"coding":[{"system":"http://terminology.hl7.org/CodeSystem/measure-population","code":"measure-population-observation","display":"Measure Population Observation"}]},"count":1}],"measureScore":{"value":0.0}},{"id":"Group_6","population":[{"id":"InitialPopulation_6","code":{"coding":[{"system":"http://terminology.hl7.org/CodeSystem/measure-population","code":"initial-population","display":"Initial Population"}]},"count":1},{"id":"MeasurePopulation_6","code":{"coding":[{"system":"http://terminology.hl7.org/CodeSystem/measure-population","code":"measure-population","display":"Measure Population"}]},"count":1},{"id":"MeasurePopulationExclusion_6","code":{"coding":[{"system":"http://terminology.hl7.org/CodeSystem/measure-population","code":"measure-population-exclusion","display":"Measure Population Exclusion"}]},"count":0},{"id":"MeasureObservation_6_1","code":{"coding":[{"system":"http://terminology.hl7.org/CodeSystem/measure-population","code":"measure-population-observation","display":"Measure Population Observation"}]},"count":50}],"measureScore":{"value":0.0}}],"evaluatedResource":[{"reference":"Patient/a4d4b3e9-171d-456f-9282-3db4bb9852f6"},{"reference":"Encounter/633c0de5-1c62-4fa1-9bea-e7ee93ebc1e7"},{"reference":"Condition/da3d0df9-3a19-48b0-b5b4-dcb5ac9ff35d"},{"reference":"Procedure/d10ea5f8-63b0-4925-8294-feb056f78e7b"},{"reference":"Procedure/3436ad59-0ec5-4806-addd-92d32230482e"},{"reference":"Coverage/7f63fd70-849a-43cc-904f-80fad142e28a"},{"reference":"Organization/ea791b1b-e51f-4c90-8e1c-cb5907bf65d2"}]},"request":{"method":"PUT","url":"MeasureReport/67577d4b-9d17-4713-a109-12b06714c4c1"}},{"resource":{"resourceType":"Bundle","id":"NoscreRefNoasseDxCp","type":"transaction","entry":[{"fullUrl":"https://madie.cms.gov/Patient/a4d4b3e9-171d-456f-9282-3db4bb9852f6","resource":{"resourceType":"Patient","id":"a4d4b3e9-171d-456f-9282-3db4bb9852f6","meta":{"profile":["http://hl7.org/fhir/us/qicore/StructureDefinition/qicore-patient"]},"extension":[{"url":"http://hl7.org/fhir/us/core/StructureDefinition/us-core-race","extension":[{"url":"ombCategory","valueCoding":{"system":"urn:oid:2.16.840.1.113883.6.238","code":"1002-5","display":"American Indian or Alaska Native","userSelected":true}},{"url":"text","valueString":"American Indian or Alaska Native"}]},{"url":"http://hl7.org/fhir/us/core/StructureDefinition/us-core-ethnicity","extension":[{"url":"ombCategory","valueCoding":{"system":"urn:oid:2.16.840.1.113883.6.238","code":"2135-2","display":"Hispanic or Latino","userSelected":true}},{"url":"text","valueString":"Hispanic or Latino"}]},{"url":"http://hl7.org/fhir/us/core/StructureDefinition/us-core-sex","valueCode":"248153007"}],"identifier":[{"type":{"coding":[{"system":"http://terminology.hl7.org/CodeSystem/v2-0203","code":"MR"}]},"system":"https://madie.cms.gov/","value":"NoscreRefNoasseDxCp"}],"active":true,"name":[{"use":"usual","text":"NoscreRefNoasseDxCp","family":"MSROBSPass2","given":["NoscreRefNoasseDxCp"]}],"gender":"male","birthDate":"1952-11-23","address":[{"text":"NoscreRefNoasseDxCp, Not Screened, Referral, Not Assessed, Diagnosis, Care Plan, ID=Andrew, DOB: 23 Nov 1952"}]},"request":{"method":"PUT","url":"Patient/a4d4b3e9-171d-456f-9282-3db4bb9852f6"}},{"fullUrl":"https://madie.cms.gov/Encounter/633c0de5-1c62-4fa1-9bea-e7ee93ebc1e7","resource":{"resourceType":"Encounter","id":"633c0de5-1c62-4fa1-9bea-e7ee93ebc1e7","meta":{"profile":["http://hl7.org/fhir/us/qicore/StructureDefinition/qicore-encounter"]},"status":"finished","class":{"system":"http://terminology.hl7.org/CodeSystem/v3-ActCode","code":"IMP","display":"inpatient encounter"},"type":[{"coding":[{"system":"http://snomed.info/sct","code":"183452005"}]}],"subject":{"reference":"Patient/a4d4b3e9-171d-456f-9282-3db4bb9852f6"},"period":{"start":"2026-02-23T08:00:00.000+00:00","end":"2026-02-28T08:15:00.000+00:00"}},"request":{"method":"PUT","url":"Encounter/633c0de5-1c62-4fa1-9bea-e7ee93ebc1e7"}},{"fullUrl":"https://madie.cms.gov/Condition/da3d0df9-3a19-48b0-b5b4-dcb5ac9ff35d","resource":{"resourceType":"Condition","id":"da3d0df9-3a19-48b0-b5b4-dcb5ac9ff35d","meta":{"profile":["http://hl7.org/fhir/us/qicore/StructureDefinition/qicore-condition-encounter-diagnosis"]},"clinicalStatus":{"coding":[{"system":"http://terminology.hl7.org/CodeSystem/condition-clinical","code":"active","display":"Active","userSelected":true}]},"verificationStatus":{"coding":[{"system":"http://terminology.hl7.org/CodeSystem/condition-ver-status","code":"confirmed","display":"Confirmed","userSelected":true}]},"category":[{"coding":[{"system":"http://terminology.hl7.org/CodeSystem/condition-category","code":"encounter-diagnosis","display":"Encounter Diagnosis","userSelected":true}]}],"code":{"coding":[{"system":"http://snomed.info/sct","code":"788876001","display":"Cachexia due to malignant neoplastic disease (finding)","userSelected":true}]},"subject":{"reference":"Patient/a4d4b3e9-171d-456f-9282-3db4bb9852f6"},"onsetPeriod":{"start":"2026-02-23T08:00:00.000+00:00"},"recordedDate":"2026-02-23T11:00:00.000+00:00"},"request":{"method":"PUT","url":"Condition/da3d0df9-3a19-48b0-b5b4-dcb5ac9ff35d"}},{"fullUrl":"https://madie.cms.gov/Procedure/d10ea5f8-63b0-4925-8294-feb056f78e7b","resource":{"resourceType":"Procedure","id":"d10ea5f8-63b0-4925-8294-feb056f78e7b","meta":{"profile":["http://hl7.org/fhir/us/qicore/StructureDefinition/qicore-procedure"]},"extension":[{"url":"http://hl7.org/fhir/us/qicore/StructureDefinition/qicore-recorded","valueDateTime":"2026-02-23T11:30:00.000+00:00"}],"status":"completed","code":{"coding":[{"system":"http://snomed.info/sct","code":"306354000","display":"Referral to hospital-based dietitian (procedure)"}],"text":"Referral to hospital-based dietitian (procedure)"},"subject":{"reference":"Patient/a4d4b3e9-171d-456f-9282-3db4bb9852f6"},"encounter":{"reference":"Encounter/NoscreRefNoasseDxCpMSROBSPass2"},"performedPeriod":{"start":"2026-02-23T11:30:00.000+00:00","end":"2026-02-28T08:15:00.000+00:00"}},"request":{"method":"PUT","url":"Procedure/d10ea5f8-63b0-4925-8294-feb056f78e7b"}},{"fullUrl":"https://madie.cms.gov/Procedure/3436ad59-0ec5-4806-addd-92d32230482e","resource":{"resourceType":"Procedure","id":"3436ad59-0ec5-4806-addd-92d32230482e","meta":{"profile":["http://hl7.org/fhir/us/qicore/StructureDefinition/qicore-procedure"]},"extension":[{"url":"http://hl7.org/fhir/us/qicore/StructureDefinition/qicore-recorded","valueDateTime":"2026-02-02T11:30:00.000+00:00"}],"status":"completed","code":{"coding":[{"system":"http://snomed.info/sct","code":"386373004","display":"Nutrition therapy (regime/therapy)"}],"text":"Nutrition therapy (regime/therapy)"},"subject":{"reference":"Patient/a4d4b3e9-171d-456f-9282-3db4bb9852f6"},"encounter":{"reference":"Encounter/NoscreRefNoasseDxCpMSROBSPass2"},"performedPeriod":{"start":"2026-02-23T11:30:00.000+00:00","end":"2026-02-28T08:15:00.000+00:00"}},"request":{"method":"PUT","url":"Procedure/3436ad59-0ec5-4806-addd-92d32230482e"}},{"fullUrl":"https://madie.cms.gov/Coverage/7f63fd70-849a-43cc-904f-80fad142e28a","resource":{"resourceType":"Coverage","id":"7f63fd70-849a-43cc-904f-80fad142e28a","meta":{"profile":["http://hl7.org/fhir/us/qicore/StructureDefinition/qicore-coverage"]},"status":"active","type":{"coding":[{"system":"https://nahdo.org/sopt","version":"9.2","code":"11","display":"Medicare Managed Care (Includes Medicare Advantage Plans)"}]},"subscriberId":"97531","beneficiary":{"reference":"Patient/a4d4b3e9-171d-456f-9282-3db4bb9852f6"},"dependent":"0","relationship":{"coding":[{"system":"http://terminology.hl7.org/CodeSystem/subscriber-relationship","code":"self"}]},"period":{"start":"2024-10-01T00:00:00.000+00:00"},"payor":[{"reference":"Organization/NoscreRefNoasseDxCp-98"}]},"request":{"method":"PUT","url":"Coverage/7f63fd70-849a-43cc-904f-80fad142e28a"}},{"fullUrl":"https://madie.cms.gov/Organization/ea791b1b-e51f-4c90-8e1c-cb5907bf65d2","resource":{"resourceType":"Organization","id":"ea791b1b-e51f-4c90-8e1c-cb5907bf65d2","meta":{"profile":["http://hl7.org/fhir/us/qicore/StructureDefinition/qicore-organization"]},"identifier":[{"use":"temp","system":"urn:oid:2.16.840.1.113883.4.4","value":"21-3259825"}],"active":true,"type":[{"coding":[{"system":"http://terminology.hl7.org/CodeSystem/organization-type","code":"pay","display":"Payer"}]}],"name":"Blue Cross Blue Shield of Texas","telecom":[{"system":"phone","value":"(+1) 972-766-6900"}],"address":[{"use":"billing","type":"postal","line":["P.O. Box 660044"],"city":"Dallas","state":"TX","postalCode":"75266-0044","country":"USA"}]},"request":{"method":"PUT","url":"Organization/ea791b1b-e51f-4c90-8e1c-cb5907bf65d2"}},{"fullUrl":"https://madie.cms.gov/MeasureReport/67577d4b-9d17-4713-a109-12b06714c4c1","resource":{"resourceType":"MeasureReport","id":"67577d4b-9d17-4713-a109-12b06714c4c1","meta":{"profile":["http://hl7.org/fhir/us/cqfmeasures/StructureDefinition/test-case-cqfm"]},"contained":[{"resourceType":"Parameters","id":"b5d01a7f-26bc-4829-8af7-957516619b96-parameters","parameter":[{"name":"subject","valueString":"a4d4b3e9-171d-456f-9282-3db4bb9852f6"}]}],"extension":[{"url":"http://hl7.org/fhir/StructureDefinition/cqf-inputParameters","valueReference":{"reference":"#b5d01a7f-26bc-4829-8af7-957516619b96-parameters"}},{"url":"http://hl7.org/fhir/us/cqfmeasures/StructureDefinition/cqfm-testCaseDescription","valueMarkdown":"Not screened, Referral, Not Assessed, Diagnosis, Nutrition Care Plan"}],"modifierExtension":[{"url":"http://hl7.org/fhir/us/cqfmeasures/StructureDefinition/cqfm-isTestCase","valueBoolean":true}],"status":"complete","type":"individual","measure":"https://madie.cms.gov/Measure/CMS986FHIRMalnutritionScore","period":{"start":"2026-01-01","end":"2026-12-31"},"group":[{"id":"Group_1","population":[{"id":"InitialPopulation_1","code":{"coding":[{"system":"http://terminology.hl7.org/CodeSystem/measure-population","code":"initial-population","display":"Initial Population"}]},"count":1},{"id":"MeasurePopulation_1","code":{"coding":[{"system":"http://terminology.hl7.org/CodeSystem/measure-population","code":"measure-population","display":"Measure Population"}]},"count":1},{"id":"MeasurePopulationExclusion_1","code":{"coding":[{"system":"http://terminology.hl7.org/CodeSystem/measure-population","code":"measure-population-exclusion","display":"Measure Population Exclusion"}]},"count":0},{"id":"MeasureObservation_1_1","code":{"coding":[{"system":"http://terminology.hl7.org/CodeSystem/measure-population","code":"measure-population-observation","display":"Measure Population Observation"}]},"count":1}],"measureScore":{"value":0.0}},{"id":"Group_2","population":[{"id":"InitialPopulation_2","code":{"coding":[{"system":"http://terminology.hl7.org/CodeSystem/measure-population","code":"initial-population","display":"Initial Population"}]},"count":1},{"id":"MeasurePopulation_2","code":{"coding":[{"system":"http://terminology.hl7.org/CodeSystem/measure-population","code":"measure-population","display":"Measure Population"}]},"count":1},{"id":"MeasurePopulationExclusion_2","code":{"coding":[{"system":"http://terminology.hl7.org/CodeSystem/measure-population","code":"measure-population-exclusion","display":"Measure Population Exclusion"}]},"count":0},{"id":"MeasureObservation_2_1","code":{"coding":[{"system":"http://terminology.hl7.org/CodeSystem/measure-population","code":"measure-population-observation","display":"Measure Population Observation"}]},"count":0}],"measureScore":{"value":0.0}},{"id":"Group_3","population":[{"id":"InitialPopulation_3","code":{"coding":[{"system":"http://terminology.hl7.org/CodeSystem/measure-population","code":"initial-population","display":"Initial Population"}]},"count":1},{"id":"MeasurePopulation_3","code":{"coding":[{"system":"http://terminology.hl7.org/CodeSystem/measure-population","code":"measure-population","display":"Measure Population"}]},"count":1},{"id":"MeasurePopulationExclusion_3","code":{"coding":[{"system":"http://terminology.hl7.org/CodeSystem/measure-population","code":"measure-population-exclusion","display":"Measure Population Exclusion"}]},"count":0},{"id":"MeasureObservation_3_1","code":{"coding":[{"system":"http://terminology.hl7.org/CodeSystem/measure-population","code":"measure-population-observation","display":"Measure Population Observation"}]},"count":0}],"measureScore":{"value":0.0}},{"id":"Group_4","population":[{"id":"InitialPopulation_4","code":{"coding":[{"system":"http://terminology.hl7.org/CodeSystem/measure-population","code":"initial-population","display":"Initial Population"}]},"count":1},{"id":"MeasurePopulation_4","code":{"coding":[{"system":"http://terminology.hl7.org/CodeSystem/measure-population","code":"measure-population","display":"Measure Population"}]},"count":1},{"id":"MeasurePopulationExclusion_4","code":{"coding":[{"system":"http://terminology.hl7.org/CodeSystem/measure-population","code":"measure-population-exclusion","display":"Measure Population Exclusion"}]},"count":0},{"id":"MeasureObservation_4_1","code":{"coding":[{"system":"http://terminology.hl7.org/CodeSystem/measure-population","code":"measure-population-observation","display":"Measure Population Observation"}]},"count":0}],"measureScore":{"value":0.0}},{"id":"Group_5","population":[{"id":"InitialPopulation_5","code":{"coding":[{"system":"http://terminology.hl7.org/CodeSystem/measure-population","code":"initial-population","display":"Initial Population"}]},"count":1},{"id":"MeasurePopulation_5","code":{"coding":[{"system":"http://terminology.hl7.org/CodeSystem/measure-population","code":"measure-population","display":"Measure Population"}]},"count":1},{"id":"MeasurePopulationExclusion_5","code":{"coding":[{"system":"http://terminology.hl7.org/CodeSystem/measure-population","code":"measure-population-exclusion","display":"Measure Population Exclusion"}]},"count":0},{"id":"MeasureObservation_5_1","code":{"coding":[{"system":"http://terminology.hl7.org/CodeSystem/measure-population","code":"measure-population-observation","display":"Measure Population Observation"}]},"count":1}],"measureScore":{"value":0.0}},{"id":"Group_6","population":[{"id":"InitialPopulation_6","code":{"coding":[{"system":"http://terminology.hl7.org/CodeSystem/measure-population","code":"initial-population","display":"Initial Population"}]},"count":1},{"id":"MeasurePopulation_6","code":{"coding":[{"system":"http://terminology.hl7.org/CodeSystem/measure-population","code":"measure-population","display":"Measure Population"}]},"count":1},{"id":"MeasurePopulationExclusion_6","code":{"coding":[{"system":"http://terminology.hl7.org/CodeSystem/measure-population","code":"measure-population-exclusion","display":"Measure Population Exclusion"}]},"count":0},{"id":"MeasureObservation_6_1","code":{"coding":[{"system":"http://terminology.hl7.org/CodeSystem/measure-population","code":"measure-population-observation","display":"Measure Population Observation"}]},"count":50}],"measureScore":{"value":0.0}}],"evaluatedResource":[{"reference":"Patient/a4d4b3e9-171d-456f-9282-3db4bb9852f6"},{"reference":"Encounter/633c0de5-1c62-4fa1-9bea-e7ee93ebc1e7"},{"reference":"Condition/da3d0df9-3a19-48b0-b5b4-dcb5ac9ff35d"},{"reference":"Procedure/d10ea5f8-63b0-4925-8294-feb056f78e7b"},{"reference":"Procedure/3436ad59-0ec5-4806-addd-92d32230482e"},{"reference":"Coverage/7f63fd70-849a-43cc-904f-80fad142e28a"},{"reference":"Organization/ea791b1b-e51f-4c90-8e1c-cb5907bf65d2"}]},"request":{"method":"PUT","url":"MeasureReport/67577d4b-9d17-4713-a109-12b06714c4c1"}}]},"request":{"method":"PUT","url":"Bundle/NoscreRefNoasseDxCp"}},{"resource":{"resourceType":"Procedure","id":"3436ad59-0ec5-4806-addd-92d32230482e","meta":{"profile":["http://hl7.org/fhir/us/qicore/StructureDefinition/qicore-procedure"]},"extension":[{"url":"http://hl7.org/fhir/us/qicore/StructureDefinition/qicore-recorded","valueDateTime":"2026-02-02T11:30:00.000+00:00"}],"status":"completed","code":{"coding":[{"system":"http://snomed.info/sct","code":"386373004","display":"Nutrition therapy (regime/therapy)"}],"text":"Nutrition therapy (regime/therapy)"},"subject":{"reference":"Patient/a4d4b3e9-171d-456f-9282-3db4bb9852f6"},"encounter":{"reference":"Encounter/NoscreRefNoasseDxCpMSROBSPass2"},"performedPeriod":{"start":"2026-02-23T11:30:00.000+00:00","end":"2026-02-28T08:15:00.000+00:00"}},"request":{"method":"PUT","url":"Procedure/3436ad59-0ec5-4806-addd-92d32230482e"}},{"resource":{"resourceType":"Condition","id":"da3d0df9-3a19-48b0-b5b4-dcb5ac9ff35d","meta":{"profile":["http://hl7.org/fhir/us/qicore/StructureDefinition/qicore-condition-encounter-diagnosis"]},"clinicalStatus":{"coding":[{"system":"http://terminology.hl7.org/CodeSystem/condition-clinical","code":"active","display":"Active","userSelected":true}]},"verificationStatus":{"coding":[{"system":"http://terminology.hl7.org/CodeSystem/condition-ver-status","code":"confirmed","display":"Confirmed","userSelected":true}]},"category":[{"coding":[{"system":"http://terminology.hl7.org/CodeSystem/condition-category","code":"encounter-diagnosis","display":"Encounter Diagnosis","userSelected":true}]}],"code":{"coding":[{"system":"http://snomed.info/sct","code":"788876001","display":"Cachexia due to malignant neoplastic disease (finding)","userSelected":true}]},"subject":{"reference":"Patient/a4d4b3e9-171d-456f-9282-3db4bb9852f6"},"onsetPeriod":{"start":"2026-02-23T08:00:00.000+00:00"},"recordedDate":"2026-02-23T11:00:00.000+00:00"},"request":{"method":"PUT","url":"Condition/da3d0df9-3a19-48b0-b5b4-dcb5ac9ff35d"}},{"resource":{"resourceType":"Procedure","id":"d10ea5f8-63b0-4925-8294-feb056f78e7b","meta":{"profile":["http://hl7.org/fhir/us/qicore/StructureDefinition/qicore-procedure"]},"extension":[{"url":"http://hl7.org/fhir/us/qicore/StructureDefinition/qicore-recorded","valueDateTime":"2026-02-23T11:30:00.000+00:00"}],"status":"completed","code":{"coding":[{"system":"http://snomed.info/sct","code":"306354000","display":"Referral to hospital-based dietitian (procedure)"}],"text":"Referral to hospital-based dietitian (procedure)"},"subject":{"reference":"Patient/a4d4b3e9-171d-456f-9282-3db4bb9852f6"},"encounter":{"reference":"Encounter/NoscreRefNoasseDxCpMSROBSPass2"},"performedPeriod":{"start":"2026-02-23T11:30:00.000+00:00","end":"2026-02-28T08:15:00.000+00:00"}},"request":{"method":"PUT","url":"Procedure/d10ea5f8-63b0-4925-8294-feb056f78e7b"}},{"resource":{"resourceType":"Organization","id":"ea791b1b-e51f-4c90-8e1c-cb5907bf65d2","meta":{"profile":["http://hl7.org/fhir/us/qicore/StructureDefinition/qicore-organization"]},"identifier":[{"use":"temp","system":"urn:oid:2.16.840.1.113883.4.4","value":"21-3259825"}],"active":true,"type":[{"coding":[{"system":"http://terminology.hl7.org/CodeSystem/organization-type","code":"pay","display":"Payer"}]}],"name":"Blue Cross Blue Shield of Texas","telecom":[{"system":"phone","value":"(+1) 972-766-6900"}],"address":[{"use":"billing","type":"postal","line":["P.O. Box 660044"],"city":"Dallas","state":"TX","postalCode":"75266-0044","country":"USA"}]},"request":{"method":"PUT","url":"Organization/ea791b1b-e51f-4c90-8e1c-cb5907bf65d2"}},{"resource":{"resourceType":"Coverage","id":"7f63fd70-849a-43cc-904f-80fad142e28a","meta":{"profile":["http://hl7.org/fhir/us/qicore/StructureDefinition/qicore-coverage"]},"status":"active","type":{"coding":[{"system":"https://nahdo.org/sopt","version":"9.2","code":"11","display":"Medicare Managed Care (Includes Medicare Advantage Plans)"}]},"subscriberId":"97531","beneficiary":{"reference":"Patient/a4d4b3e9-171d-456f-9282-3db4bb9852f6"},"dependent":"0","relationship":{"coding":[{"system":"http://terminology.hl7.org/CodeSystem/subscriber-relationship","code":"self"}]},"period":{"start":"2024-10-01T00:00:00.000+00:00"},"payor":[{"reference":"Organization/NoscreRefNoasseDxCp-98"}]},"request":{"method":"PUT","url":"Coverage/7f63fd70-849a-43cc-904f-80fad142e28a"}}]}