{"resourceType":"Bundle","id":"tests-a646d170-0582-4930-bb7b-2b6d942ead1e-bundle","type":"transaction","entry":[{"fullUrl":"Observation/ca7f0af4-48c3-4996-96e6-489193aa37f7","resource":{"resourceType":"Observation","id":"ca7f0af4-48c3-4996-96e6-489193aa37f7","meta":{"profile":["http://hl7.org/fhir/us/qicore/StructureDefinition/qicore-observation-screening-assessment"]},"status":"final","category":[{"coding":[{"system":"http://terminology.hl7.org/CodeSystem/observation-category","code":"survey","display":"Survey"}]}],"code":{"coding":[{"system":"http://loinc.org","code":"101807-6","display":"Malnutrition risk screen results indicator","userSelected":true}]},"subject":{"reference":"Patient/a646d170-0582-4930-bb7b-2b6d942ead1e"},"effectiveDateTime":"2026-01-02T09:00:00.000+00:00","valueCodeableConcept":{"coding":[{"system":"http://loinc.org","code":"LA27538-0","display":"At risk for malnutrition","userSelected":true}]}},"request":{"method":"PUT","url":"Observation/ca7f0af4-48c3-4996-96e6-489193aa37f7"}},{"fullUrl":"Condition/b0a2b997-0bc2-4704-812a-84697242809a","resource":{"resourceType":"Condition","id":"b0a2b997-0bc2-4704-812a-84697242809a","meta":{"profile":["http://hl7.org/fhir/us/qicore/StructureDefinition/qicore-condition-problems-health-concerns"]},"clinicalStatus":{"coding":[{"system":"http://terminology.hl7.org/CodeSystem/condition-clinical","code":"active","display":"Active","userSelected":true}]},"verificationStatus":{"coding":[{"system":"http://terminology.hl7.org/CodeSystem/condition-ver-status","code":"confirmed","display":"Confirmed","userSelected":true}]},"category":[{"coding":[{"system":"http://terminology.hl7.org/CodeSystem/condition-category","code":"health-concern","display":"Health Concern","userSelected":true}]}],"code":{"coding":[{"system":"http://snomed.info/sct","code":"722959000","display":"Anorexia nervosa co-occurrent with dangerously low body weight (disorder)","userSelected":true}]},"subject":{"reference":"Patient/a646d170-0582-4930-bb7b-2b6d942ead1e"},"onsetPeriod":{"start":"2026-02-02T08:00:00.000+00:00"},"recordedDate":"2026-02-02T11:00:00.000+00:00"},"request":{"method":"PUT","url":"Condition/b0a2b997-0bc2-4704-812a-84697242809a"}},{"fullUrl":"Encounter/a5c72956-901e-4aee-9ff6-5090c8d6d087","resource":{"resourceType":"Encounter","id":"a5c72956-901e-4aee-9ff6-5090c8d6d087","meta":{"profile":["http://hl7.org/fhir/us/qicore/StructureDefinition/qicore-encounter"]},"status":"finished","class":{"system":"http://terminology.hl7.org/CodeSystem/v3-ActCode","code":"IMP","display":"inpatient encounter"},"type":[{"coding":[{"system":"http://snomed.info/sct","code":"183452005"}]}],"subject":{"reference":"Patient/a646d170-0582-4930-bb7b-2b6d942ead1e"},"period":{"start":"2026-01-01T08:00:00.000+00:00","end":"2026-01-07T08:15:00.000+00:00"}},"request":{"method":"PUT","url":"Encounter/a5c72956-901e-4aee-9ff6-5090c8d6d087"}},{"fullUrl":"Procedure/bc1c0279-b5e5-41a8-b7d8-58526d263255","resource":{"resourceType":"Procedure","id":"bc1c0279-b5e5-41a8-b7d8-58526d263255","meta":{"profile":["http://hl7.org/fhir/us/qicore/StructureDefinition/qicore-procedure"]},"extension":[{"url":"http://hl7.org/fhir/us/qicore/StructureDefinition/qicore-recorded","valueDateTime":"2026-02-02T11:30:00.000+00:00"}],"status":"completed","code":{"coding":[{"system":"http://snomed.info/sct","code":"386373004","display":"Nutrition therapy (regime/therapy)"}],"text":"Nutrition therapy (regime/therapy)"},"subject":{"reference":"Patient/a646d170-0582-4930-bb7b-2b6d942ead1e"},"encounter":{"reference":"Encounter/DxBetwEncountersMSROBSPass4"},"performedPeriod":{"start":"2026-02-01T11:30:00.000+00:00","end":"2026-02-07T08:15:00.000+00:00"}},"request":{"method":"PUT","url":"Procedure/bc1c0279-b5e5-41a8-b7d8-58526d263255"}},{"fullUrl":"MeasureReport/e6e50aaf-72b7-4a89-b7b4-9febd642d2f3","resource":{"resourceType":"MeasureReport","id":"e6e50aaf-72b7-4a89-b7b4-9febd642d2f3","meta":{"profile":["http://hl7.org/fhir/us/cqfmeasures/StructureDefinition/test-case-cqfm"]},"contained":[{"resourceType":"Parameters","id":"2f7e7122-8e25-4137-a2e4-5c93c0cafb7f-parameters","parameter":[{"name":"subject","valueString":"a646d170-0582-4930-bb7b-2b6d942ead1e"}]}],"extension":[{"url":"http://hl7.org/fhir/StructureDefinition/cqf-inputParameters","valueReference":{"reference":"#2f7e7122-8e25-4137-a2e4-5c93c0cafb7f-parameters"}},{"url":"http://hl7.org/fhir/us/cqfmeasures/StructureDefinition/cqfm-testCaseDescription","valueMarkdown":"problhealthconcerns Multiple Encounters 1111 (100%), 1100 (50%) Diagnosis between visits"}],"modifierExtension":[{"url":"http://hl7.org/fhir/us/cqfmeasures/StructureDefinition/cqfm-isTestCase","valueBoolean":true}],"status":"complete","type":"individual","measure":"https://madie.cms.gov/Measure/CMS986FHIRMalnutritionScore","period":{"start":"2026-01-01","end":"2026-12-31"},"group":[{"id":"Group_1","population":[{"id":"InitialPopulation_1","code":{"coding":[{"system":"http://terminology.hl7.org/CodeSystem/measure-population","code":"initial-population","display":"Initial Population"}]},"count":2},{"id":"MeasurePopulation_1","code":{"coding":[{"system":"http://terminology.hl7.org/CodeSystem/measure-population","code":"measure-population","display":"Measure Population"}]},"count":2},{"id":"MeasurePopulationExclusion_1","code":{"coding":[{"system":"http://terminology.hl7.org/CodeSystem/measure-population","code":"measure-population-exclusion","display":"Measure Population Exclusion"}]},"count":0},{"id":"MeasureObservation_1_1","code":{"coding":[{"system":"http://terminology.hl7.org/CodeSystem/measure-population","code":"measure-population-observation","display":"Measure Population Observation"}]},"count":1},{"id":"MeasureObservation_1_2","code":{"coding":[{"system":"http://terminology.hl7.org/CodeSystem/measure-population","code":"measure-population-observation","display":"Measure Population Observation"}]},"count":1}],"measureScore":{"value":0.0}},{"id":"Group_2","population":[{"id":"InitialPopulation_2","code":{"coding":[{"system":"http://terminology.hl7.org/CodeSystem/measure-population","code":"initial-population","display":"Initial Population"}]},"count":2},{"id":"MeasurePopulation_2","code":{"coding":[{"system":"http://terminology.hl7.org/CodeSystem/measure-population","code":"measure-population","display":"Measure Population"}]},"count":2},{"id":"MeasurePopulationExclusion_2","code":{"coding":[{"system":"http://terminology.hl7.org/CodeSystem/measure-population","code":"measure-population-exclusion","display":"Measure Population Exclusion"}]},"count":0},{"id":"MeasureObservation_2_1","code":{"coding":[{"system":"http://terminology.hl7.org/CodeSystem/measure-population","code":"measure-population-observation","display":"Measure Population Observation"}]},"count":1},{"id":"MeasureObservation_2_2","code":{"coding":[{"system":"http://terminology.hl7.org/CodeSystem/measure-population","code":"measure-population-observation","display":"Measure Population Observation"}]},"count":1}],"measureScore":{"value":0.0}},{"id":"Group_3","population":[{"id":"InitialPopulation_3","code":{"coding":[{"system":"http://terminology.hl7.org/CodeSystem/measure-population","code":"initial-population","display":"Initial Population"}]},"count":2},{"id":"MeasurePopulation_3","code":{"coding":[{"system":"http://terminology.hl7.org/CodeSystem/measure-population","code":"measure-population","display":"Measure Population"}]},"count":2},{"id":"MeasurePopulationExclusion_3","code":{"coding":[{"system":"http://terminology.hl7.org/CodeSystem/measure-population","code":"measure-population-exclusion","display":"Measure Population Exclusion"}]},"count":0},{"id":"MeasureObservation_3_1","code":{"coding":[{"system":"http://terminology.hl7.org/CodeSystem/measure-population","code":"measure-population-observation","display":"Measure Population Observation"}]},"count":1},{"id":"MeasureObservation_3_2","code":{"coding":[{"system":"http://terminology.hl7.org/CodeSystem/measure-population","code":"measure-population-observation","display":"Measure Population Observation"}]},"count":0}],"measureScore":{"value":0.0}},{"id":"Group_4","population":[{"id":"InitialPopulation_4","code":{"coding":[{"system":"http://terminology.hl7.org/CodeSystem/measure-population","code":"initial-population","display":"Initial Population"}]},"count":2},{"id":"MeasurePopulation_4","code":{"coding":[{"system":"http://terminology.hl7.org/CodeSystem/measure-population","code":"measure-population","display":"Measure Population"}]},"count":2},{"id":"MeasurePopulationExclusion_4","code":{"coding":[{"system":"http://terminology.hl7.org/CodeSystem/measure-population","code":"measure-population-exclusion","display":"Measure Population Exclusion"}]},"count":0},{"id":"MeasureObservation_4_1","code":{"coding":[{"system":"http://terminology.hl7.org/CodeSystem/measure-population","code":"measure-population-observation","display":"Measure Population Observation"}]},"count":1},{"id":"MeasureObservation_4_2","code":{"coding":[{"system":"http://terminology.hl7.org/CodeSystem/measure-population","code":"measure-population-observation","display":"Measure Population Observation"}]},"count":0}],"measureScore":{"value":0.0}},{"id":"Group_5","population":[{"id":"InitialPopulation_5","code":{"coding":[{"system":"http://terminology.hl7.org/CodeSystem/measure-population","code":"initial-population","display":"Initial Population"}]},"count":2},{"id":"MeasurePopulation_5","code":{"coding":[{"system":"http://terminology.hl7.org/CodeSystem/measure-population","code":"measure-population","display":"Measure Population"}]},"count":2},{"id":"MeasurePopulationExclusion_5","code":{"coding":[{"system":"http://terminology.hl7.org/CodeSystem/measure-population","code":"measure-population-exclusion","display":"Measure Population Exclusion"}]},"count":0},{"id":"MeasureObservation_5_1","code":{"coding":[{"system":"http://terminology.hl7.org/CodeSystem/measure-population","code":"measure-population-observation","display":"Measure Population Observation"}]},"count":4},{"id":"MeasureObservation_5_2","code":{"coding":[{"system":"http://terminology.hl7.org/CodeSystem/measure-population","code":"measure-population-observation","display":"Measure Population Observation"}]},"count":2}],"measureScore":{"value":0.0}},{"id":"Group_6","population":[{"id":"InitialPopulation_6","code":{"coding":[{"system":"http://terminology.hl7.org/CodeSystem/measure-population","code":"initial-population","display":"Initial Population"}]},"count":2},{"id":"MeasurePopulation_6","code":{"coding":[{"system":"http://terminology.hl7.org/CodeSystem/measure-population","code":"measure-population","display":"Measure Population"}]},"count":2},{"id":"MeasurePopulationExclusion_6","code":{"coding":[{"system":"http://terminology.hl7.org/CodeSystem/measure-population","code":"measure-population-exclusion","display":"Measure Population Exclusion"}]},"count":0},{"id":"MeasureObservation_6_1","code":{"coding":[{"system":"http://terminology.hl7.org/CodeSystem/measure-population","code":"measure-population-observation","display":"Measure Population Observation"}]},"count":100},{"id":"MeasureObservation_6_2","code":{"coding":[{"system":"http://terminology.hl7.org/CodeSystem/measure-population","code":"measure-population-observation","display":"Measure Population Observation"}]},"count":50}],"measureScore":{"value":0.0}}],"evaluatedResource":[{"reference":"Patient/a646d170-0582-4930-bb7b-2b6d942ead1e"},{"reference":"Encounter/86e615c3-d0f9-42c4-86b0-a1e1563c8e99"},{"reference":"Condition/b0a2b997-0bc2-4704-812a-84697242809a"},{"reference":"Observation/53fa32e2-d9bb-4e3b-b918-6c061a98a198"},{"reference":"Observation/2cf4f252-9e53-4feb-98b1-c05ff422bf56"},{"reference":"Procedure/bc1c0279-b5e5-41a8-b7d8-58526d263255"},{"reference":"Encounter/a5c72956-901e-4aee-9ff6-5090c8d6d087"},{"reference":"Observation/ca7f0af4-48c3-4996-96e6-489193aa37f7"},{"reference":"Observation/b2a8e90b-459d-407a-8c1f-e231c4e1f2f0"},{"reference":"Coverage/90a0ccce-85c3-42b9-be71-63338f8e6b60"},{"reference":"Organization/094dae00-3470-45e8-858c-8ff08c8b9136"}]},"request":{"method":"PUT","url":"MeasureReport/e6e50aaf-72b7-4a89-b7b4-9febd642d2f3"}},{"fullUrl":"Observation/b2a8e90b-459d-407a-8c1f-e231c4e1f2f0","resource":{"resourceType":"Observation","id":"b2a8e90b-459d-407a-8c1f-e231c4e1f2f0","meta":{"profile":["http://hl7.org/fhir/us/qicore/StructureDefinition/qicore-observation-screening-assessment"]},"status":"final","category":[{"coding":[{"system":"http://terminology.hl7.org/CodeSystem/observation-category","code":"survey","display":"Survey"}]}],"code":{"coding":[{"system":"http://loinc.org","code":"101819-1","display":"Nutritional assessment for malnutrition status","userSelected":true}]},"subject":{"reference":"Patient/a646d170-0582-4930-bb7b-2b6d942ead1e"},"effectiveDateTime":"2026-01-02T10:00:00.000+00:00","valueCodeableConcept":{"coding":[{"system":"http://snomed.info/sct","code":"788876001","display":"Cachexia due to malignant neoplastic disease (finding)","userSelected":true}]}},"request":{"method":"PUT","url":"Observation/b2a8e90b-459d-407a-8c1f-e231c4e1f2f0"}},{"fullUrl":"Observation/2cf4f252-9e53-4feb-98b1-c05ff422bf56","resource":{"resourceType":"Observation","id":"2cf4f252-9e53-4feb-98b1-c05ff422bf56","meta":{"profile":["http://hl7.org/fhir/us/qicore/StructureDefinition/qicore-observation-screening-assessment"]},"status":"final","category":[{"coding":[{"system":"http://terminology.hl7.org/CodeSystem/observation-category","code":"survey","display":"Survey"}]}],"code":{"coding":[{"system":"http://loinc.org","code":"101819-1","display":"Nutritional assessment for malnutrition status","userSelected":true}]},"subject":{"reference":"Patient/a646d170-0582-4930-bb7b-2b6d942ead1e"},"effectiveDateTime":"2026-02-02T10:00:00.000+00:00","valueCodeableConcept":{"coding":[{"system":"http://snomed.info/sct","code":"788876001","display":"Cachexia due to malignant neoplastic disease (finding)","userSelected":true}]}},"request":{"method":"PUT","url":"Observation/2cf4f252-9e53-4feb-98b1-c05ff422bf56"}},{"fullUrl":"Patient/a646d170-0582-4930-bb7b-2b6d942ead1e","resource":{"resourceType":"Patient","id":"a646d170-0582-4930-bb7b-2b6d942ead1e","meta":{"profile":["http://hl7.org/fhir/us/qicore/StructureDefinition/qicore-patient"]},"extension":[{"url":"http://hl7.org/fhir/us/core/StructureDefinition/us-core-race","extension":[{"url":"ombCategory","valueCoding":{"system":"urn:oid:2.16.840.1.113883.6.238","code":"2106-3","display":"White","userSelected":true}},{"url":"text","valueString":"White"}]},{"url":"http://hl7.org/fhir/us/core/StructureDefinition/us-core-ethnicity","extension":[{"url":"ombCategory","valueCoding":{"system":"urn:oid:2.16.840.1.113883.6.238","code":"2186-5","display":"Not Hispanic or Latino","userSelected":true}},{"url":"text","valueString":"Not Hispanic or Latino"}]},{"url":"http://hl7.org/fhir/us/core/StructureDefinition/us-core-sex","valueCode":"248153007"}],"identifier":[{"type":{"coding":[{"system":"http://terminology.hl7.org/CodeSystem/v2-0203","code":"MR"}]},"system":"https://madie.cms.gov/","value":"DxBetwEncounters"}],"active":true,"name":[{"use":"usual","text":"DxBetwEncounters","family":"MSROBSPass4","given":["DxBetwEncounters"]}],"gender":"male","birthDate":"1939-01-01","address":[{"text":"DxBetwEncounters, Screened at risk Assessed Severely Malnourished Diagnosed Care Plan, ID=DxBetwEncounters, DOB: 01 Jan 1939"}]},"request":{"method":"PUT","url":"Patient/a646d170-0582-4930-bb7b-2b6d942ead1e"}},{"fullUrl":"Coverage/90a0ccce-85c3-42b9-be71-63338f8e6b60","resource":{"resourceType":"Coverage","id":"90a0ccce-85c3-42b9-be71-63338f8e6b60","meta":{"profile":["http://hl7.org/fhir/us/qicore/StructureDefinition/qicore-coverage"]},"status":"active","type":{"coding":[{"system":"https://nahdo.org/sopt","version":"9.2","code":"11","display":"Medicare Managed Care (Includes Medicare Advantage Plans)"}]},"subscriberId":"97531","beneficiary":{"reference":"Patient/a646d170-0582-4930-bb7b-2b6d942ead1e"},"dependent":"0","relationship":{"coding":[{"system":"http://terminology.hl7.org/CodeSystem/subscriber-relationship","code":"self"}]},"period":{"start":"2024-10-01T00:00:00.000+00:00"},"payor":[{"reference":"Organization/094dae00-3470-45e8-858c-8ff08c8b9136"}]},"request":{"method":"PUT","url":"Coverage/90a0ccce-85c3-42b9-be71-63338f8e6b60"}},{"fullUrl":"Organization/094dae00-3470-45e8-858c-8ff08c8b9136","resource":{"resourceType":"Organization","id":"094dae00-3470-45e8-858c-8ff08c8b9136","meta":{"profile":["http://hl7.org/fhir/us/qicore/StructureDefinition/qicore-organization"]},"identifier":[{"use":"temp","system":"urn:oid:2.16.840.1.113883.4.4","value":"21-3259825"}],"active":true,"type":[{"coding":[{"system":"http://terminology.hl7.org/CodeSystem/organization-type","code":"pay","display":"Payer"}]}],"name":"Blue Cross Blue Shield of Texas","telecom":[{"system":"phone","value":"(+1) 972-766-6900"}],"address":[{"use":"billing","type":"postal","line":["P.O. Box 660044"],"city":"Dallas","state":"TX","postalCode":"75266-0044","country":"USA"}]},"request":{"method":"PUT","url":"Organization/094dae00-3470-45e8-858c-8ff08c8b9136"}},{"fullUrl":"Bundle/DxBetwEncounters","resource":{"resourceType":"Bundle","id":"DxBetwEncounters","type":"transaction","entry":[{"fullUrl":"https://madie.cms.gov/Patient/a646d170-0582-4930-bb7b-2b6d942ead1e","resource":{"resourceType":"Patient","id":"a646d170-0582-4930-bb7b-2b6d942ead1e","meta":{"profile":["http://hl7.org/fhir/us/qicore/StructureDefinition/qicore-patient"]},"extension":[{"url":"http://hl7.org/fhir/us/core/StructureDefinition/us-core-race","extension":[{"url":"ombCategory","valueCoding":{"system":"urn:oid:2.16.840.1.113883.6.238","code":"2106-3","display":"White","userSelected":true}},{"url":"text","valueString":"White"}]},{"url":"http://hl7.org/fhir/us/core/StructureDefinition/us-core-ethnicity","extension":[{"url":"ombCategory","valueCoding":{"system":"urn:oid:2.16.840.1.113883.6.238","code":"2186-5","display":"Not Hispanic or Latino","userSelected":true}},{"url":"text","valueString":"Not Hispanic or Latino"}]},{"url":"http://hl7.org/fhir/us/core/StructureDefinition/us-core-sex","valueCode":"248153007"}],"identifier":[{"type":{"coding":[{"system":"http://terminology.hl7.org/CodeSystem/v2-0203","code":"MR"}]},"system":"https://madie.cms.gov/","value":"DxBetwEncounters"}],"active":true,"name":[{"use":"usual","text":"DxBetwEncounters","family":"MSROBSPass4","given":["DxBetwEncounters"]}],"gender":"male","birthDate":"1939-01-01","address":[{"text":"DxBetwEncounters, Screened at risk Assessed Severely Malnourished Diagnosed Care Plan, ID=DxBetwEncounters, DOB: 01 Jan 1939"}]},"request":{"method":"PUT","url":"Patient/a646d170-0582-4930-bb7b-2b6d942ead1e"}},{"fullUrl":"https://madie.cms.gov/Encounter/86e615c3-d0f9-42c4-86b0-a1e1563c8e99","resource":{"resourceType":"Encounter","id":"86e615c3-d0f9-42c4-86b0-a1e1563c8e99","meta":{"profile":["http://hl7.org/fhir/us/qicore/StructureDefinition/qicore-encounter"]},"status":"finished","class":{"system":"http://terminology.hl7.org/CodeSystem/v3-ActCode","code":"IMP","display":"inpatient encounter"},"type":[{"coding":[{"system":"http://snomed.info/sct","code":"183452005"}]}],"subject":{"reference":"Patient/a646d170-0582-4930-bb7b-2b6d942ead1e"},"period":{"start":"2026-02-01T08:00:00.000+00:00","end":"2026-02-07T08:15:00.000+00:00"}},"request":{"method":"PUT","url":"Encounter/86e615c3-d0f9-42c4-86b0-a1e1563c8e99"}},{"fullUrl":"https://madie.cms.gov/Condition/b0a2b997-0bc2-4704-812a-84697242809a","resource":{"resourceType":"Condition","id":"b0a2b997-0bc2-4704-812a-84697242809a","meta":{"profile":["http://hl7.org/fhir/us/qicore/StructureDefinition/qicore-condition-problems-health-concerns"]},"clinicalStatus":{"coding":[{"system":"http://terminology.hl7.org/CodeSystem/condition-clinical","code":"active","display":"Active","userSelected":true}]},"verificationStatus":{"coding":[{"system":"http://terminology.hl7.org/CodeSystem/condition-ver-status","code":"confirmed","display":"Confirmed","userSelected":true}]},"category":[{"coding":[{"system":"http://terminology.hl7.org/CodeSystem/condition-category","code":"health-concern","display":"Health Concern","userSelected":true}]}],"code":{"coding":[{"system":"http://snomed.info/sct","code":"722959000","display":"Anorexia nervosa co-occurrent with dangerously low body weight (disorder)","userSelected":true}]},"subject":{"reference":"Patient/a646d170-0582-4930-bb7b-2b6d942ead1e"},"onsetPeriod":{"start":"2026-02-02T08:00:00.000+00:00"},"recordedDate":"2026-02-02T11:00:00.000+00:00"},"request":{"method":"PUT","url":"Condition/b0a2b997-0bc2-4704-812a-84697242809a"}},{"fullUrl":"https://madie.cms.gov/Observation/53fa32e2-d9bb-4e3b-b918-6c061a98a198","resource":{"resourceType":"Observation","id":"53fa32e2-d9bb-4e3b-b918-6c061a98a198","meta":{"profile":["http://hl7.org/fhir/us/qicore/StructureDefinition/qicore-observation-screening-assessment"]},"status":"final","category":[{"coding":[{"system":"http://terminology.hl7.org/CodeSystem/observation-category","code":"survey","display":"Survey"}]}],"code":{"coding":[{"system":"http://loinc.org","code":"101807-6","display":"Malnutrition risk screen results indicator","userSelected":true}]},"subject":{"reference":"Patient/a646d170-0582-4930-bb7b-2b6d942ead1e"},"effectiveDateTime":"2026-02-02T09:00:00.000+00:00","valueCodeableConcept":{"coding":[{"system":"http://loinc.org","code":"LA27538-0","display":"At risk for malnutrition","userSelected":true}]}},"request":{"method":"PUT","url":"Observation/53fa32e2-d9bb-4e3b-b918-6c061a98a198"}},{"fullUrl":"https://madie.cms.gov/Observation/2cf4f252-9e53-4feb-98b1-c05ff422bf56","resource":{"resourceType":"Observation","id":"2cf4f252-9e53-4feb-98b1-c05ff422bf56","meta":{"profile":["http://hl7.org/fhir/us/qicore/StructureDefinition/qicore-observation-screening-assessment"]},"status":"final","category":[{"coding":[{"system":"http://terminology.hl7.org/CodeSystem/observation-category","code":"survey","display":"Survey"}]}],"code":{"coding":[{"system":"http://loinc.org","code":"101819-1","display":"Nutritional assessment for malnutrition status","userSelected":true}]},"subject":{"reference":"Patient/a646d170-0582-4930-bb7b-2b6d942ead1e"},"effectiveDateTime":"2026-02-02T10:00:00.000+00:00","valueCodeableConcept":{"coding":[{"system":"http://snomed.info/sct","code":"788876001","display":"Cachexia due to malignant neoplastic disease (finding)","userSelected":true}]}},"request":{"method":"PUT","url":"Observation/2cf4f252-9e53-4feb-98b1-c05ff422bf56"}},{"fullUrl":"https://madie.cms.gov/Procedure/bc1c0279-b5e5-41a8-b7d8-58526d263255","resource":{"resourceType":"Procedure","id":"bc1c0279-b5e5-41a8-b7d8-58526d263255","meta":{"profile":["http://hl7.org/fhir/us/qicore/StructureDefinition/qicore-procedure"]},"extension":[{"url":"http://hl7.org/fhir/us/qicore/StructureDefinition/qicore-recorded","valueDateTime":"2026-02-02T11:30:00.000+00:00"}],"status":"completed","code":{"coding":[{"system":"http://snomed.info/sct","code":"386373004","display":"Nutrition therapy (regime/therapy)"}],"text":"Nutrition therapy (regime/therapy)"},"subject":{"reference":"Patient/a646d170-0582-4930-bb7b-2b6d942ead1e"},"encounter":{"reference":"Encounter/DxBetwEncountersMSROBSPass4"},"performedPeriod":{"start":"2026-02-01T11:30:00.000+00:00","end":"2026-02-07T08:15:00.000+00:00"}},"request":{"method":"PUT","url":"Procedure/bc1c0279-b5e5-41a8-b7d8-58526d263255"}},{"fullUrl":"https://madie.cms.gov/Encounter/a5c72956-901e-4aee-9ff6-5090c8d6d087","resource":{"resourceType":"Encounter","id":"a5c72956-901e-4aee-9ff6-5090c8d6d087","meta":{"profile":["http://hl7.org/fhir/us/qicore/StructureDefinition/qicore-encounter"]},"status":"finished","class":{"system":"http://terminology.hl7.org/CodeSystem/v3-ActCode","code":"IMP","display":"inpatient encounter"},"type":[{"coding":[{"system":"http://snomed.info/sct","code":"183452005"}]}],"subject":{"reference":"Patient/a646d170-0582-4930-bb7b-2b6d942ead1e"},"period":{"start":"2026-01-01T08:00:00.000+00:00","end":"2026-01-07T08:15:00.000+00:00"}},"request":{"method":"PUT","url":"Encounter/a5c72956-901e-4aee-9ff6-5090c8d6d087"}},{"fullUrl":"https://madie.cms.gov/Observation/ca7f0af4-48c3-4996-96e6-489193aa37f7","resource":{"resourceType":"Observation","id":"ca7f0af4-48c3-4996-96e6-489193aa37f7","meta":{"profile":["http://hl7.org/fhir/us/qicore/StructureDefinition/qicore-observation-screening-assessment"]},"status":"final","category":[{"coding":[{"system":"http://terminology.hl7.org/CodeSystem/observation-category","code":"survey","display":"Survey"}]}],"code":{"coding":[{"system":"http://loinc.org","code":"101807-6","display":"Malnutrition risk screen results indicator","userSelected":true}]},"subject":{"reference":"Patient/a646d170-0582-4930-bb7b-2b6d942ead1e"},"effectiveDateTime":"2026-01-02T09:00:00.000+00:00","valueCodeableConcept":{"coding":[{"system":"http://loinc.org","code":"LA27538-0","display":"At risk for malnutrition","userSelected":true}]}},"request":{"method":"PUT","url":"Observation/ca7f0af4-48c3-4996-96e6-489193aa37f7"}},{"fullUrl":"https://madie.cms.gov/Observation/b2a8e90b-459d-407a-8c1f-e231c4e1f2f0","resource":{"resourceType":"Observation","id":"b2a8e90b-459d-407a-8c1f-e231c4e1f2f0","meta":{"profile":["http://hl7.org/fhir/us/qicore/StructureDefinition/qicore-observation-screening-assessment"]},"status":"final","category":[{"coding":[{"system":"http://terminology.hl7.org/CodeSystem/observation-category","code":"survey","display":"Survey"}]}],"code":{"coding":[{"system":"http://loinc.org","code":"101819-1","display":"Nutritional assessment for malnutrition status","userSelected":true}]},"subject":{"reference":"Patient/a646d170-0582-4930-bb7b-2b6d942ead1e"},"effectiveDateTime":"2026-01-02T10:00:00.000+00:00","valueCodeableConcept":{"coding":[{"system":"http://snomed.info/sct","code":"788876001","display":"Cachexia due to malignant neoplastic disease (finding)","userSelected":true}]}},"request":{"method":"PUT","url":"Observation/b2a8e90b-459d-407a-8c1f-e231c4e1f2f0"}},{"fullUrl":"https://madie.cms.gov/Coverage/90a0ccce-85c3-42b9-be71-63338f8e6b60","resource":{"resourceType":"Coverage","id":"90a0ccce-85c3-42b9-be71-63338f8e6b60","meta":{"profile":["http://hl7.org/fhir/us/qicore/StructureDefinition/qicore-coverage"]},"status":"active","type":{"coding":[{"system":"https://nahdo.org/sopt","version":"9.2","code":"11","display":"Medicare Managed Care (Includes Medicare Advantage Plans)"}]},"subscriberId":"97531","beneficiary":{"reference":"Patient/a646d170-0582-4930-bb7b-2b6d942ead1e"},"dependent":"0","relationship":{"coding":[{"system":"http://terminology.hl7.org/CodeSystem/subscriber-relationship","code":"self"}]},"period":{"start":"2024-10-01T00:00:00.000+00:00"},"payor":[{"reference":"Organization/094dae00-3470-45e8-858c-8ff08c8b9136"}]},"request":{"method":"PUT","url":"Coverage/90a0ccce-85c3-42b9-be71-63338f8e6b60"}},{"fullUrl":"https://madie.cms.gov/Organization/094dae00-3470-45e8-858c-8ff08c8b9136","resource":{"resourceType":"Organization","id":"094dae00-3470-45e8-858c-8ff08c8b9136","meta":{"profile":["http://hl7.org/fhir/us/qicore/StructureDefinition/qicore-organization"]},"identifier":[{"use":"temp","system":"urn:oid:2.16.840.1.113883.4.4","value":"21-3259825"}],"active":true,"type":[{"coding":[{"system":"http://terminology.hl7.org/CodeSystem/organization-type","code":"pay","display":"Payer"}]}],"name":"Blue Cross Blue Shield of Texas","telecom":[{"system":"phone","value":"(+1) 972-766-6900"}],"address":[{"use":"billing","type":"postal","line":["P.O. Box 660044"],"city":"Dallas","state":"TX","postalCode":"75266-0044","country":"USA"}]},"request":{"method":"PUT","url":"Organization/094dae00-3470-45e8-858c-8ff08c8b9136"}},{"fullUrl":"https://madie.cms.gov/MeasureReport/e6e50aaf-72b7-4a89-b7b4-9febd642d2f3","resource":{"resourceType":"MeasureReport","id":"e6e50aaf-72b7-4a89-b7b4-9febd642d2f3","meta":{"profile":["http://hl7.org/fhir/us/cqfmeasures/StructureDefinition/test-case-cqfm"]},"contained":[{"resourceType":"Parameters","id":"2f7e7122-8e25-4137-a2e4-5c93c0cafb7f-parameters","parameter":[{"name":"subject","valueString":"a646d170-0582-4930-bb7b-2b6d942ead1e"}]}],"extension":[{"url":"http://hl7.org/fhir/StructureDefinition/cqf-inputParameters","valueReference":{"reference":"#2f7e7122-8e25-4137-a2e4-5c93c0cafb7f-parameters"}},{"url":"http://hl7.org/fhir/us/cqfmeasures/StructureDefinition/cqfm-testCaseDescription","valueMarkdown":"problhealthconcerns Multiple Encounters 1111 (100%), 1100 (50%) Diagnosis between visits"}],"modifierExtension":[{"url":"http://hl7.org/fhir/us/cqfmeasures/StructureDefinition/cqfm-isTestCase","valueBoolean":true}],"status":"complete","type":"individual","measure":"https://madie.cms.gov/Measure/CMS986FHIRMalnutritionScore","period":{"start":"2026-01-01","end":"2026-12-31"},"group":[{"id":"Group_1","population":[{"id":"InitialPopulation_1","code":{"coding":[{"system":"http://terminology.hl7.org/CodeSystem/measure-population","code":"initial-population","display":"Initial Population"}]},"count":2},{"id":"MeasurePopulation_1","code":{"coding":[{"system":"http://terminology.hl7.org/CodeSystem/measure-population","code":"measure-population","display":"Measure Population"}]},"count":2},{"id":"MeasurePopulationExclusion_1","code":{"coding":[{"system":"http://terminology.hl7.org/CodeSystem/measure-population","code":"measure-population-exclusion","display":"Measure Population Exclusion"}]},"count":0},{"id":"MeasureObservation_1_1","code":{"coding":[{"system":"http://terminology.hl7.org/CodeSystem/measure-population","code":"measure-population-observation","display":"Measure Population Observation"}]},"count":1},{"id":"MeasureObservation_1_2","code":{"coding":[{"system":"http://terminology.hl7.org/CodeSystem/measure-population","code":"measure-population-observation","display":"Measure Population Observation"}]},"count":1}],"measureScore":{"value":0.0}},{"id":"Group_2","population":[{"id":"InitialPopulation_2","code":{"coding":[{"system":"http://terminology.hl7.org/CodeSystem/measure-population","code":"initial-population","display":"Initial Population"}]},"count":2},{"id":"MeasurePopulation_2","code":{"coding":[{"system":"http://terminology.hl7.org/CodeSystem/measure-population","code":"measure-population","display":"Measure Population"}]},"count":2},{"id":"MeasurePopulationExclusion_2","code":{"coding":[{"system":"http://terminology.hl7.org/CodeSystem/measure-population","code":"measure-population-exclusion","display":"Measure Population Exclusion"}]},"count":0},{"id":"MeasureObservation_2_1","code":{"coding":[{"system":"http://terminology.hl7.org/CodeSystem/measure-population","code":"measure-population-observation","display":"Measure Population Observation"}]},"count":1},{"id":"MeasureObservation_2_2","code":{"coding":[{"system":"http://terminology.hl7.org/CodeSystem/measure-population","code":"measure-population-observation","display":"Measure Population Observation"}]},"count":1}],"measureScore":{"value":0.0}},{"id":"Group_3","population":[{"id":"InitialPopulation_3","code":{"coding":[{"system":"http://terminology.hl7.org/CodeSystem/measure-population","code":"initial-population","display":"Initial Population"}]},"count":2},{"id":"MeasurePopulation_3","code":{"coding":[{"system":"http://terminology.hl7.org/CodeSystem/measure-population","code":"measure-population","display":"Measure Population"}]},"count":2},{"id":"MeasurePopulationExclusion_3","code":{"coding":[{"system":"http://terminology.hl7.org/CodeSystem/measure-population","code":"measure-population-exclusion","display":"Measure Population Exclusion"}]},"count":0},{"id":"MeasureObservation_3_1","code":{"coding":[{"system":"http://terminology.hl7.org/CodeSystem/measure-population","code":"measure-population-observation","display":"Measure Population Observation"}]},"count":1},{"id":"MeasureObservation_3_2","code":{"coding":[{"system":"http://terminology.hl7.org/CodeSystem/measure-population","code":"measure-population-observation","display":"Measure Population Observation"}]},"count":0}],"measureScore":{"value":0.0}},{"id":"Group_4","population":[{"id":"InitialPopulation_4","code":{"coding":[{"system":"http://terminology.hl7.org/CodeSystem/measure-population","code":"initial-population","display":"Initial Population"}]},"count":2},{"id":"MeasurePopulation_4","code":{"coding":[{"system":"http://terminology.hl7.org/CodeSystem/measure-population","code":"measure-population","display":"Measure Population"}]},"count":2},{"id":"MeasurePopulationExclusion_4","code":{"coding":[{"system":"http://terminology.hl7.org/CodeSystem/measure-population","code":"measure-population-exclusion","display":"Measure Population Exclusion"}]},"count":0},{"id":"MeasureObservation_4_1","code":{"coding":[{"system":"http://terminology.hl7.org/CodeSystem/measure-population","code":"measure-population-observation","display":"Measure Population Observation"}]},"count":1},{"id":"MeasureObservation_4_2","code":{"coding":[{"system":"http://terminology.hl7.org/CodeSystem/measure-population","code":"measure-population-observation","display":"Measure Population Observation"}]},"count":0}],"measureScore":{"value":0.0}},{"id":"Group_5","population":[{"id":"InitialPopulation_5","code":{"coding":[{"system":"http://terminology.hl7.org/CodeSystem/measure-population","code":"initial-population","display":"Initial Population"}]},"count":2},{"id":"MeasurePopulation_5","code":{"coding":[{"system":"http://terminology.hl7.org/CodeSystem/measure-population","code":"measure-population","display":"Measure Population"}]},"count":2},{"id":"MeasurePopulationExclusion_5","code":{"coding":[{"system":"http://terminology.hl7.org/CodeSystem/measure-population","code":"measure-population-exclusion","display":"Measure Population Exclusion"}]},"count":0},{"id":"MeasureObservation_5_1","code":{"coding":[{"system":"http://terminology.hl7.org/CodeSystem/measure-population","code":"measure-population-observation","display":"Measure Population Observation"}]},"count":4},{"id":"MeasureObservation_5_2","code":{"coding":[{"system":"http://terminology.hl7.org/CodeSystem/measure-population","code":"measure-population-observation","display":"Measure Population Observation"}]},"count":2}],"measureScore":{"value":0.0}},{"id":"Group_6","population":[{"id":"InitialPopulation_6","code":{"coding":[{"system":"http://terminology.hl7.org/CodeSystem/measure-population","code":"initial-population","display":"Initial Population"}]},"count":2},{"id":"MeasurePopulation_6","code":{"coding":[{"system":"http://terminology.hl7.org/CodeSystem/measure-population","code":"measure-population","display":"Measure Population"}]},"count":2},{"id":"MeasurePopulationExclusion_6","code":{"coding":[{"system":"http://terminology.hl7.org/CodeSystem/measure-population","code":"measure-population-exclusion","display":"Measure Population Exclusion"}]},"count":0},{"id":"MeasureObservation_6_1","code":{"coding":[{"system":"http://terminology.hl7.org/CodeSystem/measure-population","code":"measure-population-observation","display":"Measure Population Observation"}]},"count":100},{"id":"MeasureObservation_6_2","code":{"coding":[{"system":"http://terminology.hl7.org/CodeSystem/measure-population","code":"measure-population-observation","display":"Measure Population Observation"}]},"count":50}],"measureScore":{"value":0.0}}],"evaluatedResource":[{"reference":"Patient/a646d170-0582-4930-bb7b-2b6d942ead1e"},{"reference":"Encounter/86e615c3-d0f9-42c4-86b0-a1e1563c8e99"},{"reference":"Condition/b0a2b997-0bc2-4704-812a-84697242809a"},{"reference":"Observation/53fa32e2-d9bb-4e3b-b918-6c061a98a198"},{"reference":"Observation/2cf4f252-9e53-4feb-98b1-c05ff422bf56"},{"reference":"Procedure/bc1c0279-b5e5-41a8-b7d8-58526d263255"},{"reference":"Encounter/a5c72956-901e-4aee-9ff6-5090c8d6d087"},{"reference":"Observation/ca7f0af4-48c3-4996-96e6-489193aa37f7"},{"reference":"Observation/b2a8e90b-459d-407a-8c1f-e231c4e1f2f0"},{"reference":"Coverage/90a0ccce-85c3-42b9-be71-63338f8e6b60"},{"reference":"Organization/094dae00-3470-45e8-858c-8ff08c8b9136"}]},"request":{"method":"PUT","url":"MeasureReport/e6e50aaf-72b7-4a89-b7b4-9febd642d2f3"}}]},"request":{"method":"PUT","url":"Bundle/DxBetwEncounters"}},{"fullUrl":"Encounter/86e615c3-d0f9-42c4-86b0-a1e1563c8e99","resource":{"resourceType":"Encounter","id":"86e615c3-d0f9-42c4-86b0-a1e1563c8e99","meta":{"profile":["http://hl7.org/fhir/us/qicore/StructureDefinition/qicore-encounter"]},"status":"finished","class":{"system":"http://terminology.hl7.org/CodeSystem/v3-ActCode","code":"IMP","display":"inpatient encounter"},"type":[{"coding":[{"system":"http://snomed.info/sct","code":"183452005"}]}],"subject":{"reference":"Patient/a646d170-0582-4930-bb7b-2b6d942ead1e"},"period":{"start":"2026-02-01T08:00:00.000+00:00","end":"2026-02-07T08:15:00.000+00:00"}},"request":{"method":"PUT","url":"Encounter/86e615c3-d0f9-42c4-86b0-a1e1563c8e99"}},{"fullUrl":"Observation/53fa32e2-d9bb-4e3b-b918-6c061a98a198","resource":{"resourceType":"Observation","id":"53fa32e2-d9bb-4e3b-b918-6c061a98a198","meta":{"profile":["http://hl7.org/fhir/us/qicore/StructureDefinition/qicore-observation-screening-assessment"]},"status":"final","category":[{"coding":[{"system":"http://terminology.hl7.org/CodeSystem/observation-category","code":"survey","display":"Survey"}]}],"code":{"coding":[{"system":"http://loinc.org","code":"101807-6","display":"Malnutrition risk screen results indicator","userSelected":true}]},"subject":{"reference":"Patient/a646d170-0582-4930-bb7b-2b6d942ead1e"},"effectiveDateTime":"2026-02-02T09:00:00.000+00:00","valueCodeableConcept":{"coding":[{"system":"http://loinc.org","code":"LA27538-0","display":"At risk for malnutrition","userSelected":true}]}},"request":{"method":"PUT","url":"Observation/53fa32e2-d9bb-4e3b-b918-6c061a98a198"}}]}