{"resourceType":"Bundle","id":"tests-47963aa4-4cbe-4129-b115-888542ba8b1d-bundle","type":"transaction","entry":[{"resource":{"resourceType":"Observation","id":"f326cd27-0cf6-4354-a26a-d1320d6d1be7","meta":{"profile":["http://hl7.org/fhir/us/qicore/StructureDefinition/qicore-observation-screening-assessment"]},"status":"final","category":[{"coding":[{"system":"http://terminology.hl7.org/CodeSystem/observation-category","code":"survey","display":"Survey"}]}],"code":{"coding":[{"system":"http://loinc.org","code":"75303-8","display":"Nutrition assessment narrative","userSelected":true}]},"subject":{"reference":"Patient/47963aa4-4cbe-4129-b115-888542ba8b1d"},"effectiveDateTime":"2026-10-10T10:00:00.000+00:00","valueCodeableConcept":{"coding":[{"system":"http://snomed.info/sct","code":"371597004","display":"Emaciated (finding)","userSelected":true}]}},"request":{"method":"PUT","url":"Observation/f326cd27-0cf6-4354-a26a-d1320d6d1be7"}},{"resource":{"resourceType":"Bundle","id":"ScreAtriRefAsseModNodxCP","type":"transaction","entry":[{"fullUrl":"https://madie.cms.gov/Patient/47963aa4-4cbe-4129-b115-888542ba8b1d","resource":{"resourceType":"Patient","id":"47963aa4-4cbe-4129-b115-888542ba8b1d","meta":{"profile":["http://hl7.org/fhir/us/qicore/StructureDefinition/qicore-patient"]},"extension":[{"url":"http://hl7.org/fhir/us/core/StructureDefinition/us-core-race","extension":[{"url":"ombCategory","valueCoding":{"system":"urn:oid:2.16.840.1.113883.6.238","code":"2106-3","display":"White","userSelected":true}},{"url":"text","valueString":"White"}]},{"url":"http://hl7.org/fhir/us/core/StructureDefinition/us-core-ethnicity","extension":[{"url":"ombCategory","valueCoding":{"system":"urn:oid:2.16.840.1.113883.6.238","code":"2135-2","display":"Hispanic or Latino","userSelected":true}},{"url":"text","valueString":"Hispanic or Latino"}]},{"url":"http://hl7.org/fhir/us/core/StructureDefinition/us-core-sex","valueCode":"248153007"}],"identifier":[{"type":{"coding":[{"system":"http://terminology.hl7.org/CodeSystem/v2-0203","code":"MR"}]},"system":"https://madie.cms.gov/","value":"ScreAtriRefAsseModNodxCP"}],"active":true,"name":[{"use":"usual","text":"ScreAtriRefAsseModNodxCP","family":"MSROBSPass4","given":["ScreAtriRefAsseModNodxCP"]}],"gender":"male","birthDate":"1956-02-01","address":[{"text":"ScreAtriRefAsseModNodxCP, Screened Not at risk Assessed Severely Malnourished Diagnosed Care Plan, ID=ScreAtriRefAsseModNodxCP, DOB: 02 Jan 1956"}]},"request":{"method":"PUT","url":"Patient/47963aa4-4cbe-4129-b115-888542ba8b1d"}},{"fullUrl":"https://madie.cms.gov/Encounter/c524dd6d-12df-4f42-b9a8-bed4d65b149c","resource":{"resourceType":"Encounter","id":"c524dd6d-12df-4f42-b9a8-bed4d65b149c","meta":{"profile":["http://hl7.org/fhir/us/qicore/StructureDefinition/qicore-encounter"]},"status":"finished","class":{"system":"http://terminology.hl7.org/CodeSystem/v3-ActCode","code":"IMP","display":"inpatient encounter"},"type":[{"coding":[{"system":"http://snomed.info/sct","code":"8715000"}]}],"subject":{"reference":"Patient/47963aa4-4cbe-4129-b115-888542ba8b1d"},"period":{"start":"2026-10-10T08:00:00.000+00:00","end":"2026-10-20T08:15:00.000+00:00"}},"request":{"method":"PUT","url":"Encounter/c524dd6d-12df-4f42-b9a8-bed4d65b149c"}},{"fullUrl":"https://madie.cms.gov/Observation/483a8bcc-0507-41d7-b289-c44050343d8a","resource":{"resourceType":"Observation","id":"483a8bcc-0507-41d7-b289-c44050343d8a","meta":{"profile":["http://hl7.org/fhir/us/qicore/StructureDefinition/qicore-observation-screening-assessment"]},"status":"final","category":[{"coding":[{"system":"http://terminology.hl7.org/CodeSystem/observation-category","code":"survey","display":"Survey"}]}],"code":{"coding":[{"system":"http://loinc.org","code":"98968-1","display":"Initial Screening NRS_2002","userSelected":true}]},"subject":{"reference":"Patient/47963aa4-4cbe-4129-b115-888542ba8b1d"},"effectiveDateTime":"2026-10-10T09:00:00.000+00:00","valueCodeableConcept":{"coding":[{"system":"http://snomed.info/sct","code":"129689002","display":"At increased risk for nutritional problem (finding)","userSelected":true}]}},"request":{"method":"PUT","url":"Observation/483a8bcc-0507-41d7-b289-c44050343d8a"}},{"fullUrl":"https://madie.cms.gov/Observation/f326cd27-0cf6-4354-a26a-d1320d6d1be7","resource":{"resourceType":"Observation","id":"f326cd27-0cf6-4354-a26a-d1320d6d1be7","meta":{"profile":["http://hl7.org/fhir/us/qicore/StructureDefinition/qicore-observation-screening-assessment"]},"status":"final","category":[{"coding":[{"system":"http://terminology.hl7.org/CodeSystem/observation-category","code":"survey","display":"Survey"}]}],"code":{"coding":[{"system":"http://loinc.org","code":"75303-8","display":"Nutrition assessment narrative","userSelected":true}]},"subject":{"reference":"Patient/47963aa4-4cbe-4129-b115-888542ba8b1d"},"effectiveDateTime":"2026-10-10T10:00:00.000+00:00","valueCodeableConcept":{"coding":[{"system":"http://snomed.info/sct","code":"371597004","display":"Emaciated (finding)","userSelected":true}]}},"request":{"method":"PUT","url":"Observation/f326cd27-0cf6-4354-a26a-d1320d6d1be7"}},{"fullUrl":"https://madie.cms.gov/Procedure/627c1034-42c3-4ed0-9aa5-4d49ee57bdda","resource":{"resourceType":"Procedure","id":"627c1034-42c3-4ed0-9aa5-4d49ee57bdda","meta":{"profile":["http://hl7.org/fhir/us/qicore/StructureDefinition/qicore-procedure"]},"extension":[{"url":"http://hl7.org/fhir/us/qicore/StructureDefinition/qicore-recorded","valueDateTime":"2026-10-10T11:30:00.000+00:00"}],"status":"completed","code":{"coding":[{"system":"http://snomed.info/sct","code":"306354000","display":"Referral to hospital-based dietitian (procedure)"}],"text":"Referral to hospital-based dietitian (procedure)"},"subject":{"reference":"Patient/47963aa4-4cbe-4129-b115-888542ba8b1d"},"encounter":{"reference":"Encounter/ScreAtriRefAsseModNodxCPMSROBSPass4"},"performedPeriod":{"start":"2026-10-10T11:30:00.000+00:00","end":"2026-10-12T08:15:00.000+00:00"}},"request":{"method":"PUT","url":"Procedure/627c1034-42c3-4ed0-9aa5-4d49ee57bdda"}},{"fullUrl":"https://madie.cms.gov/Procedure/63873aaf-4d2e-403a-8d2a-ea2aedbcdf91","resource":{"resourceType":"Procedure","id":"63873aaf-4d2e-403a-8d2a-ea2aedbcdf91","meta":{"profile":["http://hl7.org/fhir/us/qicore/StructureDefinition/qicore-procedure"]},"extension":[{"url":"http://hl7.org/fhir/us/qicore/StructureDefinition/qicore-recorded","valueDateTime":"2025-02-02T11:30:00.000+00:00"}],"status":"completed","code":{"coding":[{"system":"http://snomed.info/sct","code":"386372009","display":"Nutrition management"}],"text":"Nutrition management (regime/therapy)"},"subject":{"reference":"Patient/47963aa4-4cbe-4129-b115-888542ba8b1d"},"encounter":{"reference":"Encounter/ScreAtriRefAsseModNodxCPMSROBSPass4"},"performedPeriod":{"start":"2026-10-10T11:30:00.000+00:00","end":"2026-10-12T08:15:00.000+00:00"}},"request":{"method":"PUT","url":"Procedure/63873aaf-4d2e-403a-8d2a-ea2aedbcdf91"}},{"fullUrl":"https://madie.cms.gov/Coverage/b252b31f-743f-4587-9ab6-4083d02c730c","resource":{"resourceType":"Coverage","id":"b252b31f-743f-4587-9ab6-4083d02c730c","meta":{"profile":["http://hl7.org/fhir/us/qicore/StructureDefinition/qicore-coverage"]},"status":"active","type":{"coding":[{"system":"https://nahdo.org/sopt","version":"9.2","code":"11","display":"Medicare Managed Care (Includes Medicare Advantage Plans)"}]},"subscriberId":"97531","beneficiary":{"reference":"Patient/47963aa4-4cbe-4129-b115-888542ba8b1d"},"dependent":"0","relationship":{"coding":[{"system":"http://terminology.hl7.org/CodeSystem/subscriber-relationship","code":"self"}]},"period":{"start":"2024-10-01T00:00:00.000+00:00"},"payor":[{"reference":"Organization/0a93faa2-c046-4ab5-9fd9-fe6196bce03c"}]},"request":{"method":"PUT","url":"Coverage/b252b31f-743f-4587-9ab6-4083d02c730c"}},{"fullUrl":"https://madie.cms.gov/Organization/0a93faa2-c046-4ab5-9fd9-fe6196bce03c","resource":{"resourceType":"Organization","id":"0a93faa2-c046-4ab5-9fd9-fe6196bce03c","meta":{"profile":["http://hl7.org/fhir/us/qicore/StructureDefinition/qicore-organization"]},"identifier":[{"use":"temp","system":"urn:oid:2.16.840.1.113883.4.4","value":"21-3259825"}],"active":true,"type":[{"coding":[{"system":"http://terminology.hl7.org/CodeSystem/organization-type","code":"pay","display":"Payer"}]}],"name":"Blue Cross Blue Shield of Texas","telecom":[{"system":"phone","value":"(+1) 972-766-6900"}],"address":[{"use":"billing","type":"postal","line":["P.O. Box 660044"],"city":"Dallas","state":"TX","postalCode":"75266-0044","country":"USA"}]},"request":{"method":"PUT","url":"Organization/0a93faa2-c046-4ab5-9fd9-fe6196bce03c"}},{"fullUrl":"https://madie.cms.gov/MeasureReport/ea8cfe47-b9e6-4254-9420-ab1d15b45859","resource":{"resourceType":"MeasureReport","id":"ea8cfe47-b9e6-4254-9420-ab1d15b45859","meta":{"profile":["http://hl7.org/fhir/us/cqfmeasures/StructureDefinition/test-case-cqfm"]},"contained":[{"resourceType":"Parameters","id":"60e471a6-b944-4465-ade7-069123f7d455-parameters","parameter":[{"name":"subject","valueString":"47963aa4-4cbe-4129-b115-888542ba8b1d"}]}],"extension":[{"url":"http://hl7.org/fhir/StructureDefinition/cqf-inputParameters","valueReference":{"reference":"#60e471a6-b944-4465-ade7-069123f7d455-parameters"}},{"url":"http://hl7.org/fhir/us/cqfmeasures/StructureDefinition/cqfm-testCaseDescription","valueMarkdown":"Screened, At Risk, Referral, Assessed, Moderate Malnutrition, No DX, Nutrition Care Plan"}],"modifierExtension":[{"url":"http://hl7.org/fhir/us/cqfmeasures/StructureDefinition/cqfm-isTestCase","valueBoolean":true}],"status":"complete","type":"individual","measure":"https://madie.cms.gov/Measure/CMS986FHIRMalnutritionScore","period":{"start":"2026-01-01","end":"2026-12-31"},"group":[{"id":"Group_1","population":[{"id":"InitialPopulation_1","code":{"coding":[{"system":"http://terminology.hl7.org/CodeSystem/measure-population","code":"initial-population","display":"Initial Population"}]},"count":1},{"id":"MeasurePopulation_1","code":{"coding":[{"system":"http://terminology.hl7.org/CodeSystem/measure-population","code":"measure-population","display":"Measure Population"}]},"count":1},{"id":"MeasurePopulationExclusion_1","code":{"coding":[{"system":"http://terminology.hl7.org/CodeSystem/measure-population","code":"measure-population-exclusion","display":"Measure Population Exclusion"}]},"count":0},{"id":"MeasureObservation_1_1","code":{"coding":[{"system":"http://terminology.hl7.org/CodeSystem/measure-population","code":"measure-population-observation","display":"Measure Population Observation"}]},"count":1}],"measureScore":{"value":0.0}},{"id":"Group_2","population":[{"id":"InitialPopulation_2","code":{"coding":[{"system":"http://terminology.hl7.org/CodeSystem/measure-population","code":"initial-population","display":"Initial Population"}]},"count":1},{"id":"MeasurePopulation_2","code":{"coding":[{"system":"http://terminology.hl7.org/CodeSystem/measure-population","code":"measure-population","display":"Measure Population"}]},"count":1},{"id":"MeasurePopulationExclusion_2","code":{"coding":[{"system":"http://terminology.hl7.org/CodeSystem/measure-population","code":"measure-population-exclusion","display":"Measure Population Exclusion"}]},"count":0},{"id":"MeasureObservation_2_1","code":{"coding":[{"system":"http://terminology.hl7.org/CodeSystem/measure-population","code":"measure-population-observation","display":"Measure Population Observation"}]},"count":1}],"measureScore":{"value":0.0}},{"id":"Group_3","population":[{"id":"InitialPopulation_3","code":{"coding":[{"system":"http://terminology.hl7.org/CodeSystem/measure-population","code":"initial-population","display":"Initial Population"}]},"count":1},{"id":"MeasurePopulation_3","code":{"coding":[{"system":"http://terminology.hl7.org/CodeSystem/measure-population","code":"measure-population","display":"Measure Population"}]},"count":1},{"id":"MeasurePopulationExclusion_3","code":{"coding":[{"system":"http://terminology.hl7.org/CodeSystem/measure-population","code":"measure-population-exclusion","display":"Measure Population Exclusion"}]},"count":0},{"id":"MeasureObservation_3_1","code":{"coding":[{"system":"http://terminology.hl7.org/CodeSystem/measure-population","code":"measure-population-observation","display":"Measure Population Observation"}]},"count":0}],"measureScore":{"value":0.0}},{"id":"Group_4","population":[{"id":"InitialPopulation_4","code":{"coding":[{"system":"http://terminology.hl7.org/CodeSystem/measure-population","code":"initial-population","display":"Initial Population"}]},"count":1},{"id":"MeasurePopulation_4","code":{"coding":[{"system":"http://terminology.hl7.org/CodeSystem/measure-population","code":"measure-population","display":"Measure Population"}]},"count":1},{"id":"MeasurePopulationExclusion_4","code":{"coding":[{"system":"http://terminology.hl7.org/CodeSystem/measure-population","code":"measure-population-exclusion","display":"Measure Population Exclusion"}]},"count":0},{"id":"MeasureObservation_4_1","code":{"coding":[{"system":"http://terminology.hl7.org/CodeSystem/measure-population","code":"measure-population-observation","display":"Measure Population Observation"}]},"count":1}],"measureScore":{"value":0.0}},{"id":"Group_5","population":[{"id":"InitialPopulation_5","code":{"coding":[{"system":"http://terminology.hl7.org/CodeSystem/measure-population","code":"initial-population","display":"Initial Population"}]},"count":1},{"id":"MeasurePopulation_5","code":{"coding":[{"system":"http://terminology.hl7.org/CodeSystem/measure-population","code":"measure-population","display":"Measure Population"}]},"count":1},{"id":"MeasurePopulationExclusion_5","code":{"coding":[{"system":"http://terminology.hl7.org/CodeSystem/measure-population","code":"measure-population-exclusion","display":"Measure Population Exclusion"}]},"count":0},{"id":"MeasureObservation_5_1","code":{"coding":[{"system":"http://terminology.hl7.org/CodeSystem/measure-population","code":"measure-population-observation","display":"Measure Population Observation"}]},"count":3}],"measureScore":{"value":0.0}},{"id":"Group_6","population":[{"id":"InitialPopulation_6","code":{"coding":[{"system":"http://terminology.hl7.org/CodeSystem/measure-population","code":"initial-population","display":"Initial Population"}]},"count":1},{"id":"MeasurePopulation_6","code":{"coding":[{"system":"http://terminology.hl7.org/CodeSystem/measure-population","code":"measure-population","display":"Measure Population"}]},"count":1},{"id":"MeasurePopulationExclusion_6","code":{"coding":[{"system":"http://terminology.hl7.org/CodeSystem/measure-population","code":"measure-population-exclusion","display":"Measure Population Exclusion"}]},"count":0},{"id":"MeasureObservation_6_1","code":{"coding":[{"system":"http://terminology.hl7.org/CodeSystem/measure-population","code":"measure-population-observation","display":"Measure Population Observation"}]},"count":75}],"measureScore":{"value":0.0}}],"evaluatedResource":[{"reference":"Patient/47963aa4-4cbe-4129-b115-888542ba8b1d"},{"reference":"Encounter/c524dd6d-12df-4f42-b9a8-bed4d65b149c"},{"reference":"Observation/483a8bcc-0507-41d7-b289-c44050343d8a"},{"reference":"Observation/f326cd27-0cf6-4354-a26a-d1320d6d1be7"},{"reference":"Procedure/627c1034-42c3-4ed0-9aa5-4d49ee57bdda"},{"reference":"Procedure/63873aaf-4d2e-403a-8d2a-ea2aedbcdf91"},{"reference":"Coverage/b252b31f-743f-4587-9ab6-4083d02c730c"},{"reference":"Organization/0a93faa2-c046-4ab5-9fd9-fe6196bce03c"}]},"request":{"method":"PUT","url":"MeasureReport/ea8cfe47-b9e6-4254-9420-ab1d15b45859"}}]},"request":{"method":"PUT","url":"Bundle/ScreAtriRefAsseModNodxCP"}},{"resource":{"resourceType":"Encounter","id":"c524dd6d-12df-4f42-b9a8-bed4d65b149c","meta":{"profile":["http://hl7.org/fhir/us/qicore/StructureDefinition/qicore-encounter"]},"status":"finished","class":{"system":"http://terminology.hl7.org/CodeSystem/v3-ActCode","code":"IMP","display":"inpatient encounter"},"type":[{"coding":[{"system":"http://snomed.info/sct","code":"8715000"}]}],"subject":{"reference":"Patient/47963aa4-4cbe-4129-b115-888542ba8b1d"},"period":{"start":"2026-10-10T08:00:00.000+00:00","end":"2026-10-20T08:15:00.000+00:00"}},"request":{"method":"PUT","url":"Encounter/c524dd6d-12df-4f42-b9a8-bed4d65b149c"}},{"resource":{"resourceType":"Coverage","id":"b252b31f-743f-4587-9ab6-4083d02c730c","meta":{"profile":["http://hl7.org/fhir/us/qicore/StructureDefinition/qicore-coverage"]},"status":"active","type":{"coding":[{"system":"https://nahdo.org/sopt","version":"9.2","code":"11","display":"Medicare Managed Care (Includes Medicare Advantage Plans)"}]},"subscriberId":"97531","beneficiary":{"reference":"Patient/47963aa4-4cbe-4129-b115-888542ba8b1d"},"dependent":"0","relationship":{"coding":[{"system":"http://terminology.hl7.org/CodeSystem/subscriber-relationship","code":"self"}]},"period":{"start":"2024-10-01T00:00:00.000+00:00"},"payor":[{"reference":"Organization/0a93faa2-c046-4ab5-9fd9-fe6196bce03c"}]},"request":{"method":"PUT","url":"Coverage/b252b31f-743f-4587-9ab6-4083d02c730c"}},{"resource":{"resourceType":"Organization","id":"0a93faa2-c046-4ab5-9fd9-fe6196bce03c","meta":{"profile":["http://hl7.org/fhir/us/qicore/StructureDefinition/qicore-organization"]},"identifier":[{"use":"temp","system":"urn:oid:2.16.840.1.113883.4.4","value":"21-3259825"}],"active":true,"type":[{"coding":[{"system":"http://terminology.hl7.org/CodeSystem/organization-type","code":"pay","display":"Payer"}]}],"name":"Blue Cross Blue Shield of Texas","telecom":[{"system":"phone","value":"(+1) 972-766-6900"}],"address":[{"use":"billing","type":"postal","line":["P.O. Box 660044"],"city":"Dallas","state":"TX","postalCode":"75266-0044","country":"USA"}]},"request":{"method":"PUT","url":"Organization/0a93faa2-c046-4ab5-9fd9-fe6196bce03c"}},{"resource":{"resourceType":"Procedure","id":"627c1034-42c3-4ed0-9aa5-4d49ee57bdda","meta":{"profile":["http://hl7.org/fhir/us/qicore/StructureDefinition/qicore-procedure"]},"extension":[{"url":"http://hl7.org/fhir/us/qicore/StructureDefinition/qicore-recorded","valueDateTime":"2026-10-10T11:30:00.000+00:00"}],"status":"completed","code":{"coding":[{"system":"http://snomed.info/sct","code":"306354000","display":"Referral to hospital-based dietitian (procedure)"}],"text":"Referral to hospital-based dietitian (procedure)"},"subject":{"reference":"Patient/47963aa4-4cbe-4129-b115-888542ba8b1d"},"encounter":{"reference":"Encounter/ScreAtriRefAsseModNodxCPMSROBSPass4"},"performedPeriod":{"start":"2026-10-10T11:30:00.000+00:00","end":"2026-10-12T08:15:00.000+00:00"}},"request":{"method":"PUT","url":"Procedure/627c1034-42c3-4ed0-9aa5-4d49ee57bdda"}},{"resource":{"resourceType":"Observation","id":"483a8bcc-0507-41d7-b289-c44050343d8a","meta":{"profile":["http://hl7.org/fhir/us/qicore/StructureDefinition/qicore-observation-screening-assessment"]},"status":"final","category":[{"coding":[{"system":"http://terminology.hl7.org/CodeSystem/observation-category","code":"survey","display":"Survey"}]}],"code":{"coding":[{"system":"http://loinc.org","code":"98968-1","display":"Initial Screening NRS_2002","userSelected":true}]},"subject":{"reference":"Patient/47963aa4-4cbe-4129-b115-888542ba8b1d"},"effectiveDateTime":"2026-10-10T09:00:00.000+00:00","valueCodeableConcept":{"coding":[{"system":"http://snomed.info/sct","code":"129689002","display":"At increased risk for nutritional problem (finding)","userSelected":true}]}},"request":{"method":"PUT","url":"Observation/483a8bcc-0507-41d7-b289-c44050343d8a"}},{"resource":{"resourceType":"MeasureReport","id":"ea8cfe47-b9e6-4254-9420-ab1d15b45859","meta":{"profile":["http://hl7.org/fhir/us/cqfmeasures/StructureDefinition/test-case-cqfm"]},"contained":[{"resourceType":"Parameters","id":"60e471a6-b944-4465-ade7-069123f7d455-parameters","parameter":[{"name":"subject","valueString":"47963aa4-4cbe-4129-b115-888542ba8b1d"}]}],"extension":[{"url":"http://hl7.org/fhir/StructureDefinition/cqf-inputParameters","valueReference":{"reference":"#60e471a6-b944-4465-ade7-069123f7d455-parameters"}},{"url":"http://hl7.org/fhir/us/cqfmeasures/StructureDefinition/cqfm-testCaseDescription","valueMarkdown":"Screened, At Risk, Referral, Assessed, Moderate Malnutrition, No DX, Nutrition Care Plan"}],"modifierExtension":[{"url":"http://hl7.org/fhir/us/cqfmeasures/StructureDefinition/cqfm-isTestCase","valueBoolean":true}],"status":"complete","type":"individual","measure":"https://madie.cms.gov/Measure/CMS986FHIRMalnutritionScore","period":{"start":"2026-01-01","end":"2026-12-31"},"group":[{"id":"Group_1","population":[{"id":"InitialPopulation_1","code":{"coding":[{"system":"http://terminology.hl7.org/CodeSystem/measure-population","code":"initial-population","display":"Initial Population"}]},"count":1},{"id":"MeasurePopulation_1","code":{"coding":[{"system":"http://terminology.hl7.org/CodeSystem/measure-population","code":"measure-population","display":"Measure Population"}]},"count":1},{"id":"MeasurePopulationExclusion_1","code":{"coding":[{"system":"http://terminology.hl7.org/CodeSystem/measure-population","code":"measure-population-exclusion","display":"Measure Population Exclusion"}]},"count":0},{"id":"MeasureObservation_1_1","code":{"coding":[{"system":"http://terminology.hl7.org/CodeSystem/measure-population","code":"measure-population-observation","display":"Measure Population Observation"}]},"count":1}],"measureScore":{"value":0.0}},{"id":"Group_2","population":[{"id":"InitialPopulation_2","code":{"coding":[{"system":"http://terminology.hl7.org/CodeSystem/measure-population","code":"initial-population","display":"Initial Population"}]},"count":1},{"id":"MeasurePopulation_2","code":{"coding":[{"system":"http://terminology.hl7.org/CodeSystem/measure-population","code":"measure-population","display":"Measure Population"}]},"count":1},{"id":"MeasurePopulationExclusion_2","code":{"coding":[{"system":"http://terminology.hl7.org/CodeSystem/measure-population","code":"measure-population-exclusion","display":"Measure Population Exclusion"}]},"count":0},{"id":"MeasureObservation_2_1","code":{"coding":[{"system":"http://terminology.hl7.org/CodeSystem/measure-population","code":"measure-population-observation","display":"Measure Population Observation"}]},"count":1}],"measureScore":{"value":0.0}},{"id":"Group_3","population":[{"id":"InitialPopulation_3","code":{"coding":[{"system":"http://terminology.hl7.org/CodeSystem/measure-population","code":"initial-population","display":"Initial Population"}]},"count":1},{"id":"MeasurePopulation_3","code":{"coding":[{"system":"http://terminology.hl7.org/CodeSystem/measure-population","code":"measure-population","display":"Measure Population"}]},"count":1},{"id":"MeasurePopulationExclusion_3","code":{"coding":[{"system":"http://terminology.hl7.org/CodeSystem/measure-population","code":"measure-population-exclusion","display":"Measure Population Exclusion"}]},"count":0},{"id":"MeasureObservation_3_1","code":{"coding":[{"system":"http://terminology.hl7.org/CodeSystem/measure-population","code":"measure-population-observation","display":"Measure Population Observation"}]},"count":0}],"measureScore":{"value":0.0}},{"id":"Group_4","population":[{"id":"InitialPopulation_4","code":{"coding":[{"system":"http://terminology.hl7.org/CodeSystem/measure-population","code":"initial-population","display":"Initial Population"}]},"count":1},{"id":"MeasurePopulation_4","code":{"coding":[{"system":"http://terminology.hl7.org/CodeSystem/measure-population","code":"measure-population","display":"Measure Population"}]},"count":1},{"id":"MeasurePopulationExclusion_4","code":{"coding":[{"system":"http://terminology.hl7.org/CodeSystem/measure-population","code":"measure-population-exclusion","display":"Measure Population Exclusion"}]},"count":0},{"id":"MeasureObservation_4_1","code":{"coding":[{"system":"http://terminology.hl7.org/CodeSystem/measure-population","code":"measure-population-observation","display":"Measure Population Observation"}]},"count":1}],"measureScore":{"value":0.0}},{"id":"Group_5","population":[{"id":"InitialPopulation_5","code":{"coding":[{"system":"http://terminology.hl7.org/CodeSystem/measure-population","code":"initial-population","display":"Initial Population"}]},"count":1},{"id":"MeasurePopulation_5","code":{"coding":[{"system":"http://terminology.hl7.org/CodeSystem/measure-population","code":"measure-population","display":"Measure Population"}]},"count":1},{"id":"MeasurePopulationExclusion_5","code":{"coding":[{"system":"http://terminology.hl7.org/CodeSystem/measure-population","code":"measure-population-exclusion","display":"Measure Population Exclusion"}]},"count":0},{"id":"MeasureObservation_5_1","code":{"coding":[{"system":"http://terminology.hl7.org/CodeSystem/measure-population","code":"measure-population-observation","display":"Measure Population Observation"}]},"count":3}],"measureScore":{"value":0.0}},{"id":"Group_6","population":[{"id":"InitialPopulation_6","code":{"coding":[{"system":"http://terminology.hl7.org/CodeSystem/measure-population","code":"initial-population","display":"Initial Population"}]},"count":1},{"id":"MeasurePopulation_6","code":{"coding":[{"system":"http://terminology.hl7.org/CodeSystem/measure-population","code":"measure-population","display":"Measure Population"}]},"count":1},{"id":"MeasurePopulationExclusion_6","code":{"coding":[{"system":"http://terminology.hl7.org/CodeSystem/measure-population","code":"measure-population-exclusion","display":"Measure Population Exclusion"}]},"count":0},{"id":"MeasureObservation_6_1","code":{"coding":[{"system":"http://terminology.hl7.org/CodeSystem/measure-population","code":"measure-population-observation","display":"Measure Population Observation"}]},"count":75}],"measureScore":{"value":0.0}}],"evaluatedResource":[{"reference":"Patient/47963aa4-4cbe-4129-b115-888542ba8b1d"},{"reference":"Encounter/c524dd6d-12df-4f42-b9a8-bed4d65b149c"},{"reference":"Observation/483a8bcc-0507-41d7-b289-c44050343d8a"},{"reference":"Observation/f326cd27-0cf6-4354-a26a-d1320d6d1be7"},{"reference":"Procedure/627c1034-42c3-4ed0-9aa5-4d49ee57bdda"},{"reference":"Procedure/63873aaf-4d2e-403a-8d2a-ea2aedbcdf91"},{"reference":"Coverage/b252b31f-743f-4587-9ab6-4083d02c730c"},{"reference":"Organization/0a93faa2-c046-4ab5-9fd9-fe6196bce03c"}]},"request":{"method":"PUT","url":"MeasureReport/ea8cfe47-b9e6-4254-9420-ab1d15b45859"}},{"resource":{"resourceType":"Procedure","id":"63873aaf-4d2e-403a-8d2a-ea2aedbcdf91","meta":{"profile":["http://hl7.org/fhir/us/qicore/StructureDefinition/qicore-procedure"]},"extension":[{"url":"http://hl7.org/fhir/us/qicore/StructureDefinition/qicore-recorded","valueDateTime":"2025-02-02T11:30:00.000+00:00"}],"status":"completed","code":{"coding":[{"system":"http://snomed.info/sct","code":"386372009","display":"Nutrition management"}],"text":"Nutrition management (regime/therapy)"},"subject":{"reference":"Patient/47963aa4-4cbe-4129-b115-888542ba8b1d"},"encounter":{"reference":"Encounter/ScreAtriRefAsseModNodxCPMSROBSPass4"},"performedPeriod":{"start":"2026-10-10T11:30:00.000+00:00","end":"2026-10-12T08:15:00.000+00:00"}},"request":{"method":"PUT","url":"Procedure/63873aaf-4d2e-403a-8d2a-ea2aedbcdf91"}},{"resource":{"resourceType":"Patient","id":"47963aa4-4cbe-4129-b115-888542ba8b1d","meta":{"profile":["http://hl7.org/fhir/us/qicore/StructureDefinition/qicore-patient"]},"extension":[{"url":"http://hl7.org/fhir/us/core/StructureDefinition/us-core-race","extension":[{"url":"ombCategory","valueCoding":{"system":"urn:oid:2.16.840.1.113883.6.238","code":"2106-3","display":"White","userSelected":true}},{"url":"text","valueString":"White"}]},{"url":"http://hl7.org/fhir/us/core/StructureDefinition/us-core-ethnicity","extension":[{"url":"ombCategory","valueCoding":{"system":"urn:oid:2.16.840.1.113883.6.238","code":"2135-2","display":"Hispanic or Latino","userSelected":true}},{"url":"text","valueString":"Hispanic or Latino"}]},{"url":"http://hl7.org/fhir/us/core/StructureDefinition/us-core-sex","valueCode":"248153007"}],"identifier":[{"type":{"coding":[{"system":"http://terminology.hl7.org/CodeSystem/v2-0203","code":"MR"}]},"system":"https://madie.cms.gov/","value":"ScreAtriRefAsseModNodxCP"}],"active":true,"name":[{"use":"usual","text":"ScreAtriRefAsseModNodxCP","family":"MSROBSPass4","given":["ScreAtriRefAsseModNodxCP"]}],"gender":"male","birthDate":"1956-02-01","address":[{"text":"ScreAtriRefAsseModNodxCP, Screened Not at risk Assessed Severely Malnourished Diagnosed Care Plan, ID=ScreAtriRefAsseModNodxCP, DOB: 02 Jan 1956"}]},"request":{"method":"PUT","url":"Patient/47963aa4-4cbe-4129-b115-888542ba8b1d"}}]}