{"resourceType":"Bundle","id":"tests-8090a147-702c-452a-b59d-524c2bcbaaad-bundle","type":"transaction","entry":[{"fullUrl":"Procedure/b2ed7430-5bed-4ef7-8c7d-b0fe88d37339","resource":{"resourceType":"Procedure","id":"b2ed7430-5bed-4ef7-8c7d-b0fe88d37339","meta":{"profile":["http://hl7.org/fhir/us/qicore/StructureDefinition/qicore-procedure"]},"extension":[{"url":"http://hl7.org/fhir/us/qicore/StructureDefinition/qicore-recorded","valueDateTime":"2026-12-31T11:30:00.000+00:00"}],"status":"completed","code":{"coding":[{"system":"http://snomed.info/sct","code":"182922004","display":"Dietary regime (regime/therapy)"}],"text":"Dietary regime (regime/therapy)"},"subject":{"reference":"Patient/8090a147-702c-452a-b59d-524c2bcbaaad"},"encounter":{"reference":"Encounter/yearoverlap2IPPFAIL"},"performedPeriod":{"start":"2026-12-31T11:30:00.000+00:00","end":"2027-01-04T08:15:00.000+00:00"}},"request":{"method":"PUT","url":"Procedure/b2ed7430-5bed-4ef7-8c7d-b0fe88d37339"}},{"fullUrl":"Coverage/7cc241f3-bef0-4675-89bf-591d6e1e33cf","resource":{"resourceType":"Coverage","id":"7cc241f3-bef0-4675-89bf-591d6e1e33cf","meta":{"profile":["http://hl7.org/fhir/us/qicore/StructureDefinition/qicore-coverage"]},"status":"active","type":{"coding":[{"system":"https://nahdo.org/sopt","version":"9.2","code":"11","display":"Medicare Managed Care (Includes Medicare Advantage Plans)"}]},"subscriberId":"97531","beneficiary":{"reference":"Patient/8090a147-702c-452a-b59d-524c2bcbaaad"},"dependent":"0","relationship":{"coding":[{"system":"http://terminology.hl7.org/CodeSystem/subscriber-relationship","code":"self"}]},"period":{"start":"2024-10-01T00:00:00.000+00:00"},"payor":[{"reference":"Organization/53d3d8ad-c4fe-4dfe-929a-7adeab2eaf5e"}]},"request":{"method":"PUT","url":"Coverage/7cc241f3-bef0-4675-89bf-591d6e1e33cf"}},{"fullUrl":"Condition/e9f472c8-3db6-4371-9d8d-2c98b3786d8e","resource":{"resourceType":"Condition","id":"e9f472c8-3db6-4371-9d8d-2c98b3786d8e","meta":{"profile":["http://hl7.org/fhir/us/qicore/StructureDefinition/qicore-condition-encounter-diagnosis"]},"clinicalStatus":{"coding":[{"system":"http://terminology.hl7.org/CodeSystem/condition-clinical","code":"active","display":"Active","userSelected":true}]},"verificationStatus":{"coding":[{"system":"http://terminology.hl7.org/CodeSystem/condition-ver-status","code":"confirmed","display":"Confirmed","userSelected":true}]},"category":[{"coding":[{"system":"http://terminology.hl7.org/CodeSystem/condition-category","code":"encounter-diagnosis","display":"Encounter Diagnosis","userSelected":true}]}],"code":{"coding":[{"system":"http://snomed.info/sct","code":"190606006","display":"Moderate protein energy malnutrition (disorder)","userSelected":true}]},"subject":{"reference":"Patient/8090a147-702c-452a-b59d-524c2bcbaaad"},"onsetPeriod":{"start":"2026-12-31T08:00:00.000+00:00"},"recordedDate":"2027-01-04T11:00:00.000+00:00"},"request":{"method":"PUT","url":"Condition/e9f472c8-3db6-4371-9d8d-2c98b3786d8e"}},{"fullUrl":"Procedure/9c4bf3dd-6e42-42b0-9679-9a502cbe76e1","resource":{"resourceType":"Procedure","id":"9c4bf3dd-6e42-42b0-9679-9a502cbe76e1","meta":{"profile":["http://hl7.org/fhir/us/qicore/StructureDefinition/qicore-procedure"]},"extension":[{"url":"http://hl7.org/fhir/us/qicore/StructureDefinition/qicore-recorded","valueDateTime":"2026-12-31T11:30:00.000+00:00"}],"status":"completed","code":{"coding":[{"system":"http://snomed.info/sct","code":"306165000","display":"Referral to hospital-based dietetics service (procedure)"}],"text":"Referral to hospital-based dietetics service (procedure)"},"subject":{"reference":"Patient/8090a147-702c-452a-b59d-524c2bcbaaad"},"encounter":{"reference":"Encounter/yearoverlap2IPPFAIL"},"performedPeriod":{"start":"2026-12-31T11:30:00.000+00:00","end":"2027-01-04T08:15:00.000+00:00"}},"request":{"method":"PUT","url":"Procedure/9c4bf3dd-6e42-42b0-9679-9a502cbe76e1"}},{"fullUrl":"Observation/3b157ecd-89d7-4616-b400-c85598246edd","resource":{"resourceType":"Observation","id":"3b157ecd-89d7-4616-b400-c85598246edd","meta":{"profile":["http://hl7.org/fhir/us/qicore/StructureDefinition/qicore-observation-screening-assessment"]},"status":"final","category":[{"coding":[{"system":"http://terminology.hl7.org/CodeSystem/observation-category","code":"survey","display":"Survey"}]}],"code":{"coding":[{"system":"http://loinc.org","code":"101807-6","display":"Malnutrition risk screen results indicator","userSelected":true}]},"subject":{"reference":"Patient/8090a147-702c-452a-b59d-524c2bcbaaad"},"effectiveDateTime":"2025-12-31T08:00:00.000+00:00","valueCodeableConcept":{"coding":[{"system":"http://loinc.org","code":"LA33699-2","display":"Not at risk for malnutrition","userSelected":true}]}},"request":{"method":"PUT","url":"Observation/3b157ecd-89d7-4616-b400-c85598246edd"}},{"fullUrl":"Observation/03a7875c-5e26-4900-a463-1fac6b3f8aa0","resource":{"resourceType":"Observation","id":"03a7875c-5e26-4900-a463-1fac6b3f8aa0","meta":{"profile":["http://hl7.org/fhir/us/qicore/StructureDefinition/qicore-observation-screening-assessment"]},"status":"final","category":[{"coding":[{"system":"http://terminology.hl7.org/CodeSystem/observation-category","code":"survey","display":"Survey"}]}],"code":{"coding":[{"system":"http://loinc.org","code":"75282-4","display":"Nutrition assessment panel","userSelected":true}]},"subject":{"reference":"Patient/8090a147-702c-452a-b59d-524c2bcbaaad"},"effectiveDateTime":"2026-12-31T10:00:00.000+00:00","valueCodeableConcept":{"coding":[{"system":"http://snomed.info/sct","code":"102635008","display":"Acute nutritional deficiency (finding)","userSelected":true}]}},"request":{"method":"PUT","url":"Observation/03a7875c-5e26-4900-a463-1fac6b3f8aa0"}},{"fullUrl":"Bundle/yearoverlap2","resource":{"resourceType":"Bundle","id":"yearoverlap2","type":"transaction","entry":[{"fullUrl":"https://madie.cms.gov/Patient/8090a147-702c-452a-b59d-524c2bcbaaad","resource":{"resourceType":"Patient","id":"8090a147-702c-452a-b59d-524c2bcbaaad","meta":{"profile":["http://hl7.org/fhir/us/qicore/StructureDefinition/qicore-patient"]},"extension":[{"url":"http://hl7.org/fhir/us/core/StructureDefinition/us-core-race","extension":[{"url":"ombCategory","valueCoding":{"system":"urn:oid:2.16.840.1.113883.6.238","code":"2106-3","display":"White","userSelected":true}},{"url":"text","valueString":"White"}]},{"url":"http://hl7.org/fhir/us/core/StructureDefinition/us-core-ethnicity","extension":[{"url":"ombCategory","valueCoding":{"system":"urn:oid:2.16.840.1.113883.6.238","code":"2186-5","display":"Not Hispanic or Latino","userSelected":true}},{"url":"text","valueString":"Not Hispanic or Latino"}]},{"url":"http://hl7.org/fhir/us/core/StructureDefinition/us-core-sex","valueCode":"248152002"}],"identifier":[{"type":{"coding":[{"system":"http://terminology.hl7.org/CodeSystem/v2-0203","code":"MR"}]},"system":"https://madie.cms.gov/","value":"yearoverlap2"}],"active":true,"name":[{"use":"usual","text":"yearoverlap2","family":"IPPFAIL","given":["yearoverlap2"]}],"gender":"female","birthDate":"1958-01-01","address":[{"text":"yearoverlap2, Screened Not at risk Assessed Severely Malnourished Diagnosed Care Plan, ID=yearoverlap2, DOB: 14 May 1950"}]},"request":{"method":"PUT","url":"Patient/8090a147-702c-452a-b59d-524c2bcbaaad"}},{"fullUrl":"https://madie.cms.gov/Encounter/df68edbc-c4ff-4b8a-b810-88811cf9d5de","resource":{"resourceType":"Encounter","id":"df68edbc-c4ff-4b8a-b810-88811cf9d5de","meta":{"profile":["http://hl7.org/fhir/us/qicore/StructureDefinition/qicore-encounter"]},"status":"finished","class":{"system":"http://terminology.hl7.org/CodeSystem/v3-ActCode","code":"IMP","display":"inpatient encounter"},"type":[{"coding":[{"system":"http://snomed.info/sct","code":"183452005"}]}],"subject":{"reference":"Patient/8090a147-702c-452a-b59d-524c2bcbaaad"},"period":{"start":"2025-12-28T08:00:00.000+00:00","end":"2026-01-02T08:15:00.000+00:00"}},"request":{"method":"PUT","url":"Encounter/df68edbc-c4ff-4b8a-b810-88811cf9d5de"}},{"fullUrl":"https://madie.cms.gov/Condition/e9f472c8-3db6-4371-9d8d-2c98b3786d8e","resource":{"resourceType":"Condition","id":"e9f472c8-3db6-4371-9d8d-2c98b3786d8e","meta":{"profile":["http://hl7.org/fhir/us/qicore/StructureDefinition/qicore-condition-encounter-diagnosis"]},"clinicalStatus":{"coding":[{"system":"http://terminology.hl7.org/CodeSystem/condition-clinical","code":"active","display":"Active","userSelected":true}]},"verificationStatus":{"coding":[{"system":"http://terminology.hl7.org/CodeSystem/condition-ver-status","code":"confirmed","display":"Confirmed","userSelected":true}]},"category":[{"coding":[{"system":"http://terminology.hl7.org/CodeSystem/condition-category","code":"encounter-diagnosis","display":"Encounter Diagnosis","userSelected":true}]}],"code":{"coding":[{"system":"http://snomed.info/sct","code":"190606006","display":"Moderate protein energy malnutrition (disorder)","userSelected":true}]},"subject":{"reference":"Patient/8090a147-702c-452a-b59d-524c2bcbaaad"},"onsetPeriod":{"start":"2026-12-31T08:00:00.000+00:00"},"recordedDate":"2027-01-04T11:00:00.000+00:00"},"request":{"method":"PUT","url":"Condition/e9f472c8-3db6-4371-9d8d-2c98b3786d8e"}},{"fullUrl":"https://madie.cms.gov/Observation/3b157ecd-89d7-4616-b400-c85598246edd","resource":{"resourceType":"Observation","id":"3b157ecd-89d7-4616-b400-c85598246edd","meta":{"profile":["http://hl7.org/fhir/us/qicore/StructureDefinition/qicore-observation-screening-assessment"]},"status":"final","category":[{"coding":[{"system":"http://terminology.hl7.org/CodeSystem/observation-category","code":"survey","display":"Survey"}]}],"code":{"coding":[{"system":"http://loinc.org","code":"101807-6","display":"Malnutrition risk screen results indicator","userSelected":true}]},"subject":{"reference":"Patient/8090a147-702c-452a-b59d-524c2bcbaaad"},"effectiveDateTime":"2025-12-31T08:00:00.000+00:00","valueCodeableConcept":{"coding":[{"system":"http://loinc.org","code":"LA33699-2","display":"Not at risk for malnutrition","userSelected":true}]}},"request":{"method":"PUT","url":"Observation/3b157ecd-89d7-4616-b400-c85598246edd"}},{"fullUrl":"https://madie.cms.gov/Observation/03a7875c-5e26-4900-a463-1fac6b3f8aa0","resource":{"resourceType":"Observation","id":"03a7875c-5e26-4900-a463-1fac6b3f8aa0","meta":{"profile":["http://hl7.org/fhir/us/qicore/StructureDefinition/qicore-observation-screening-assessment"]},"status":"final","category":[{"coding":[{"system":"http://terminology.hl7.org/CodeSystem/observation-category","code":"survey","display":"Survey"}]}],"code":{"coding":[{"system":"http://loinc.org","code":"75282-4","display":"Nutrition assessment panel","userSelected":true}]},"subject":{"reference":"Patient/8090a147-702c-452a-b59d-524c2bcbaaad"},"effectiveDateTime":"2026-12-31T10:00:00.000+00:00","valueCodeableConcept":{"coding":[{"system":"http://snomed.info/sct","code":"102635008","display":"Acute nutritional deficiency (finding)","userSelected":true}]}},"request":{"method":"PUT","url":"Observation/03a7875c-5e26-4900-a463-1fac6b3f8aa0"}},{"fullUrl":"https://madie.cms.gov/Procedure/9c4bf3dd-6e42-42b0-9679-9a502cbe76e1","resource":{"resourceType":"Procedure","id":"9c4bf3dd-6e42-42b0-9679-9a502cbe76e1","meta":{"profile":["http://hl7.org/fhir/us/qicore/StructureDefinition/qicore-procedure"]},"extension":[{"url":"http://hl7.org/fhir/us/qicore/StructureDefinition/qicore-recorded","valueDateTime":"2026-12-31T11:30:00.000+00:00"}],"status":"completed","code":{"coding":[{"system":"http://snomed.info/sct","code":"306165000","display":"Referral to hospital-based dietetics service (procedure)"}],"text":"Referral to hospital-based dietetics service (procedure)"},"subject":{"reference":"Patient/8090a147-702c-452a-b59d-524c2bcbaaad"},"encounter":{"reference":"Encounter/yearoverlap2IPPFAIL"},"performedPeriod":{"start":"2026-12-31T11:30:00.000+00:00","end":"2027-01-04T08:15:00.000+00:00"}},"request":{"method":"PUT","url":"Procedure/9c4bf3dd-6e42-42b0-9679-9a502cbe76e1"}},{"fullUrl":"https://madie.cms.gov/Procedure/b2ed7430-5bed-4ef7-8c7d-b0fe88d37339","resource":{"resourceType":"Procedure","id":"b2ed7430-5bed-4ef7-8c7d-b0fe88d37339","meta":{"profile":["http://hl7.org/fhir/us/qicore/StructureDefinition/qicore-procedure"]},"extension":[{"url":"http://hl7.org/fhir/us/qicore/StructureDefinition/qicore-recorded","valueDateTime":"2026-12-31T11:30:00.000+00:00"}],"status":"completed","code":{"coding":[{"system":"http://snomed.info/sct","code":"182922004","display":"Dietary regime (regime/therapy)"}],"text":"Dietary regime (regime/therapy)"},"subject":{"reference":"Patient/8090a147-702c-452a-b59d-524c2bcbaaad"},"encounter":{"reference":"Encounter/yearoverlap2IPPFAIL"},"performedPeriod":{"start":"2026-12-31T11:30:00.000+00:00","end":"2027-01-04T08:15:00.000+00:00"}},"request":{"method":"PUT","url":"Procedure/b2ed7430-5bed-4ef7-8c7d-b0fe88d37339"}},{"fullUrl":"https://madie.cms.gov/Coverage/7cc241f3-bef0-4675-89bf-591d6e1e33cf","resource":{"resourceType":"Coverage","id":"7cc241f3-bef0-4675-89bf-591d6e1e33cf","meta":{"profile":["http://hl7.org/fhir/us/qicore/StructureDefinition/qicore-coverage"]},"status":"active","type":{"coding":[{"system":"https://nahdo.org/sopt","version":"9.2","code":"11","display":"Medicare Managed Care (Includes Medicare Advantage Plans)"}]},"subscriberId":"97531","beneficiary":{"reference":"Patient/8090a147-702c-452a-b59d-524c2bcbaaad"},"dependent":"0","relationship":{"coding":[{"system":"http://terminology.hl7.org/CodeSystem/subscriber-relationship","code":"self"}]},"period":{"start":"2024-10-01T00:00:00.000+00:00"},"payor":[{"reference":"Organization/53d3d8ad-c4fe-4dfe-929a-7adeab2eaf5e"}]},"request":{"method":"PUT","url":"Coverage/7cc241f3-bef0-4675-89bf-591d6e1e33cf"}},{"fullUrl":"https://madie.cms.gov/Organization/53d3d8ad-c4fe-4dfe-929a-7adeab2eaf5e","resource":{"resourceType":"Organization","id":"53d3d8ad-c4fe-4dfe-929a-7adeab2eaf5e","meta":{"profile":["http://hl7.org/fhir/us/qicore/StructureDefinition/qicore-organization"]},"identifier":[{"use":"temp","system":"urn:oid:2.16.840.1.113883.4.4","value":"21-3259825"}],"active":true,"type":[{"coding":[{"system":"http://terminology.hl7.org/CodeSystem/organization-type","code":"pay","display":"Payer"}]}],"name":"Blue Cross Blue Shield of Texas","telecom":[{"system":"phone","value":"(+1) 972-766-6900"}],"address":[{"use":"billing","type":"postal","line":["P.O. Box 660044"],"city":"Dallas","state":"TX","postalCode":"75266-0044","country":"USA"}]},"request":{"method":"PUT","url":"Organization/53d3d8ad-c4fe-4dfe-929a-7adeab2eaf5e"}},{"fullUrl":"https://madie.cms.gov/MeasureReport/68031da7-eb6a-4ada-af07-62fff4ada9a9","resource":{"resourceType":"MeasureReport","id":"68031da7-eb6a-4ada-af07-62fff4ada9a9","meta":{"profile":["http://hl7.org/fhir/us/cqfmeasures/StructureDefinition/test-case-cqfm"]},"contained":[{"resourceType":"Parameters","id":"487f1679-6a42-4c30-a438-b40e56ff17b7-parameters","parameter":[{"name":"subject","valueString":"8090a147-702c-452a-b59d-524c2bcbaaad"}]}],"extension":[{"url":"http://hl7.org/fhir/StructureDefinition/cqf-inputParameters","valueReference":{"reference":"#487f1679-6a42-4c30-a438-b40e56ff17b7-parameters"}},{"url":"http://hl7.org/fhir/us/cqfmeasures/StructureDefinition/cqfm-testCaseDescription","valueMarkdown":"EndsDuring"}],"modifierExtension":[{"url":"http://hl7.org/fhir/us/cqfmeasures/StructureDefinition/cqfm-isTestCase","valueBoolean":true}],"status":"complete","type":"individual","measure":"https://madie.cms.gov/Measure/CMS986FHIRMalnutritionScore","period":{"start":"2026-01-01","end":"2026-12-31"},"group":[{"id":"Group_1","population":[{"id":"InitialPopulation_1","code":{"coding":[{"system":"http://terminology.hl7.org/CodeSystem/measure-population","code":"initial-population","display":"Initial Population"}]},"count":1},{"id":"MeasurePopulation_1","code":{"coding":[{"system":"http://terminology.hl7.org/CodeSystem/measure-population","code":"measure-population","display":"Measure Population"}]},"count":1},{"id":"MeasurePopulationExclusion_1","code":{"coding":[{"system":"http://terminology.hl7.org/CodeSystem/measure-population","code":"measure-population-exclusion","display":"Measure Population Exclusion"}]},"count":0},{"id":"MeasureObservation_1_1","code":{"coding":[{"system":"http://terminology.hl7.org/CodeSystem/measure-population","code":"measure-population-observation","display":"Measure Population Observation"}]},"count":1}],"measureScore":{"value":0.0}},{"id":"Group_2","population":[{"id":"InitialPopulation_2","code":{"coding":[{"system":"http://terminology.hl7.org/CodeSystem/measure-population","code":"initial-population","display":"Initial Population"}]},"count":1},{"id":"MeasurePopulation_2","code":{"coding":[{"system":"http://terminology.hl7.org/CodeSystem/measure-population","code":"measure-population","display":"Measure Population"}]},"count":1},{"id":"MeasurePopulationExclusion_2","code":{"coding":[{"system":"http://terminology.hl7.org/CodeSystem/measure-population","code":"measure-population-exclusion","display":"Measure Population Exclusion"}]},"count":0},{"id":"MeasureObservation_2_1","code":{"coding":[{"system":"http://terminology.hl7.org/CodeSystem/measure-population","code":"measure-population-observation","display":"Measure Population Observation"}]},"count":0}],"measureScore":{"value":0.0}},{"id":"Group_3","population":[{"id":"InitialPopulation_3","code":{"coding":[{"system":"http://terminology.hl7.org/CodeSystem/measure-population","code":"initial-population","display":"Initial Population"}]},"count":1},{"id":"MeasurePopulation_3","code":{"coding":[{"system":"http://terminology.hl7.org/CodeSystem/measure-population","code":"measure-population","display":"Measure Population"}]},"count":1},{"id":"MeasurePopulationExclusion_3","code":{"coding":[{"system":"http://terminology.hl7.org/CodeSystem/measure-population","code":"measure-population-exclusion","display":"Measure Population Exclusion"}]},"count":0},{"id":"MeasureObservation_3_1","code":{"coding":[{"system":"http://terminology.hl7.org/CodeSystem/measure-population","code":"measure-population-observation","display":"Measure Population Observation"}]},"count":0}],"measureScore":{"value":0.0}},{"id":"Group_4","population":[{"id":"InitialPopulation_4","code":{"coding":[{"system":"http://terminology.hl7.org/CodeSystem/measure-population","code":"initial-population","display":"Initial Population"}]},"count":1},{"id":"MeasurePopulation_4","code":{"coding":[{"system":"http://terminology.hl7.org/CodeSystem/measure-population","code":"measure-population","display":"Measure Population"}]},"count":1},{"id":"MeasurePopulationExclusion_4","code":{"coding":[{"system":"http://terminology.hl7.org/CodeSystem/measure-population","code":"measure-population-exclusion","display":"Measure Population Exclusion"}]},"count":0},{"id":"MeasureObservation_4_1","code":{"coding":[{"system":"http://terminology.hl7.org/CodeSystem/measure-population","code":"measure-population-observation","display":"Measure Population Observation"}]},"count":0}],"measureScore":{"value":0.0}},{"id":"Group_5","population":[{"id":"InitialPopulation_5","code":{"coding":[{"system":"http://terminology.hl7.org/CodeSystem/measure-population","code":"initial-population","display":"Initial Population"}]},"count":1},{"id":"MeasurePopulation_5","code":{"coding":[{"system":"http://terminology.hl7.org/CodeSystem/measure-population","code":"measure-population","display":"Measure Population"}]},"count":1},{"id":"MeasurePopulationExclusion_5","code":{"coding":[{"system":"http://terminology.hl7.org/CodeSystem/measure-population","code":"measure-population-exclusion","display":"Measure Population Exclusion"}]},"count":0},{"id":"MeasureObservation_5_1","code":{"coding":[{"system":"http://terminology.hl7.org/CodeSystem/measure-population","code":"measure-population-observation","display":"Measure Population Observation"}]},"count":1}],"measureScore":{"value":0.0}},{"id":"Group_6","population":[{"id":"InitialPopulation_6","code":{"coding":[{"system":"http://terminology.hl7.org/CodeSystem/measure-population","code":"initial-population","display":"Initial Population"}]},"count":1},{"id":"MeasurePopulation_6","code":{"coding":[{"system":"http://terminology.hl7.org/CodeSystem/measure-population","code":"measure-population","display":"Measure Population"}]},"count":1},{"id":"MeasurePopulationExclusion_6","code":{"coding":[{"system":"http://terminology.hl7.org/CodeSystem/measure-population","code":"measure-population-exclusion","display":"Measure Population Exclusion"}]},"count":0},{"id":"MeasureObservation_6_1","code":{"coding":[{"system":"http://terminology.hl7.org/CodeSystem/measure-population","code":"measure-population-observation","display":"Measure Population Observation"}]},"count":100}],"measureScore":{"value":0.0}}],"evaluatedResource":[{"reference":"Patient/8090a147-702c-452a-b59d-524c2bcbaaad"},{"reference":"Encounter/df68edbc-c4ff-4b8a-b810-88811cf9d5de"},{"reference":"Condition/e9f472c8-3db6-4371-9d8d-2c98b3786d8e"},{"reference":"Observation/3b157ecd-89d7-4616-b400-c85598246edd"},{"reference":"Observation/03a7875c-5e26-4900-a463-1fac6b3f8aa0"},{"reference":"Procedure/9c4bf3dd-6e42-42b0-9679-9a502cbe76e1"},{"reference":"Procedure/b2ed7430-5bed-4ef7-8c7d-b0fe88d37339"},{"reference":"Coverage/7cc241f3-bef0-4675-89bf-591d6e1e33cf"},{"reference":"Organization/53d3d8ad-c4fe-4dfe-929a-7adeab2eaf5e"}]},"request":{"method":"PUT","url":"MeasureReport/68031da7-eb6a-4ada-af07-62fff4ada9a9"}}]},"request":{"method":"PUT","url":"Bundle/yearoverlap2"}},{"fullUrl":"Encounter/df68edbc-c4ff-4b8a-b810-88811cf9d5de","resource":{"resourceType":"Encounter","id":"df68edbc-c4ff-4b8a-b810-88811cf9d5de","meta":{"profile":["http://hl7.org/fhir/us/qicore/StructureDefinition/qicore-encounter"]},"status":"finished","class":{"system":"http://terminology.hl7.org/CodeSystem/v3-ActCode","code":"IMP","display":"inpatient encounter"},"type":[{"coding":[{"system":"http://snomed.info/sct","code":"183452005"}]}],"subject":{"reference":"Patient/8090a147-702c-452a-b59d-524c2bcbaaad"},"period":{"start":"2025-12-28T08:00:00.000+00:00","end":"2026-01-02T08:15:00.000+00:00"}},"request":{"method":"PUT","url":"Encounter/df68edbc-c4ff-4b8a-b810-88811cf9d5de"}},{"fullUrl":"Organization/53d3d8ad-c4fe-4dfe-929a-7adeab2eaf5e","resource":{"resourceType":"Organization","id":"53d3d8ad-c4fe-4dfe-929a-7adeab2eaf5e","meta":{"profile":["http://hl7.org/fhir/us/qicore/StructureDefinition/qicore-organization"]},"identifier":[{"use":"temp","system":"urn:oid:2.16.840.1.113883.4.4","value":"21-3259825"}],"active":true,"type":[{"coding":[{"system":"http://terminology.hl7.org/CodeSystem/organization-type","code":"pay","display":"Payer"}]}],"name":"Blue Cross Blue Shield of Texas","telecom":[{"system":"phone","value":"(+1) 972-766-6900"}],"address":[{"use":"billing","type":"postal","line":["P.O. Box 660044"],"city":"Dallas","state":"TX","postalCode":"75266-0044","country":"USA"}]},"request":{"method":"PUT","url":"Organization/53d3d8ad-c4fe-4dfe-929a-7adeab2eaf5e"}},{"fullUrl":"Patient/8090a147-702c-452a-b59d-524c2bcbaaad","resource":{"resourceType":"Patient","id":"8090a147-702c-452a-b59d-524c2bcbaaad","meta":{"profile":["http://hl7.org/fhir/us/qicore/StructureDefinition/qicore-patient"]},"extension":[{"url":"http://hl7.org/fhir/us/core/StructureDefinition/us-core-race","extension":[{"url":"ombCategory","valueCoding":{"system":"urn:oid:2.16.840.1.113883.6.238","code":"2106-3","display":"White","userSelected":true}},{"url":"text","valueString":"White"}]},{"url":"http://hl7.org/fhir/us/core/StructureDefinition/us-core-ethnicity","extension":[{"url":"ombCategory","valueCoding":{"system":"urn:oid:2.16.840.1.113883.6.238","code":"2186-5","display":"Not Hispanic or Latino","userSelected":true}},{"url":"text","valueString":"Not Hispanic or Latino"}]},{"url":"http://hl7.org/fhir/us/core/StructureDefinition/us-core-sex","valueCode":"248152002"}],"identifier":[{"type":{"coding":[{"system":"http://terminology.hl7.org/CodeSystem/v2-0203","code":"MR"}]},"system":"https://madie.cms.gov/","value":"yearoverlap2"}],"active":true,"name":[{"use":"usual","text":"yearoverlap2","family":"IPPFAIL","given":["yearoverlap2"]}],"gender":"female","birthDate":"1958-01-01","address":[{"text":"yearoverlap2, Screened Not at risk Assessed Severely Malnourished Diagnosed Care Plan, ID=yearoverlap2, DOB: 14 May 1950"}]},"request":{"method":"PUT","url":"Patient/8090a147-702c-452a-b59d-524c2bcbaaad"}},{"fullUrl":"MeasureReport/68031da7-eb6a-4ada-af07-62fff4ada9a9","resource":{"resourceType":"MeasureReport","id":"68031da7-eb6a-4ada-af07-62fff4ada9a9","meta":{"profile":["http://hl7.org/fhir/us/cqfmeasures/StructureDefinition/test-case-cqfm"]},"contained":[{"resourceType":"Parameters","id":"487f1679-6a42-4c30-a438-b40e56ff17b7-parameters","parameter":[{"name":"subject","valueString":"8090a147-702c-452a-b59d-524c2bcbaaad"}]}],"extension":[{"url":"http://hl7.org/fhir/StructureDefinition/cqf-inputParameters","valueReference":{"reference":"#487f1679-6a42-4c30-a438-b40e56ff17b7-parameters"}},{"url":"http://hl7.org/fhir/us/cqfmeasures/StructureDefinition/cqfm-testCaseDescription","valueMarkdown":"EndsDuring"}],"modifierExtension":[{"url":"http://hl7.org/fhir/us/cqfmeasures/StructureDefinition/cqfm-isTestCase","valueBoolean":true}],"status":"complete","type":"individual","measure":"https://madie.cms.gov/Measure/CMS986FHIRMalnutritionScore","period":{"start":"2026-01-01","end":"2026-12-31"},"group":[{"id":"Group_1","population":[{"id":"InitialPopulation_1","code":{"coding":[{"system":"http://terminology.hl7.org/CodeSystem/measure-population","code":"initial-population","display":"Initial Population"}]},"count":1},{"id":"MeasurePopulation_1","code":{"coding":[{"system":"http://terminology.hl7.org/CodeSystem/measure-population","code":"measure-population","display":"Measure Population"}]},"count":1},{"id":"MeasurePopulationExclusion_1","code":{"coding":[{"system":"http://terminology.hl7.org/CodeSystem/measure-population","code":"measure-population-exclusion","display":"Measure Population Exclusion"}]},"count":0},{"id":"MeasureObservation_1_1","code":{"coding":[{"system":"http://terminology.hl7.org/CodeSystem/measure-population","code":"measure-population-observation","display":"Measure Population Observation"}]},"count":1}],"measureScore":{"value":0.0}},{"id":"Group_2","population":[{"id":"InitialPopulation_2","code":{"coding":[{"system":"http://terminology.hl7.org/CodeSystem/measure-population","code":"initial-population","display":"Initial Population"}]},"count":1},{"id":"MeasurePopulation_2","code":{"coding":[{"system":"http://terminology.hl7.org/CodeSystem/measure-population","code":"measure-population","display":"Measure Population"}]},"count":1},{"id":"MeasurePopulationExclusion_2","code":{"coding":[{"system":"http://terminology.hl7.org/CodeSystem/measure-population","code":"measure-population-exclusion","display":"Measure Population Exclusion"}]},"count":0},{"id":"MeasureObservation_2_1","code":{"coding":[{"system":"http://terminology.hl7.org/CodeSystem/measure-population","code":"measure-population-observation","display":"Measure Population Observation"}]},"count":0}],"measureScore":{"value":0.0}},{"id":"Group_3","population":[{"id":"InitialPopulation_3","code":{"coding":[{"system":"http://terminology.hl7.org/CodeSystem/measure-population","code":"initial-population","display":"Initial Population"}]},"count":1},{"id":"MeasurePopulation_3","code":{"coding":[{"system":"http://terminology.hl7.org/CodeSystem/measure-population","code":"measure-population","display":"Measure Population"}]},"count":1},{"id":"MeasurePopulationExclusion_3","code":{"coding":[{"system":"http://terminology.hl7.org/CodeSystem/measure-population","code":"measure-population-exclusion","display":"Measure Population Exclusion"}]},"count":0},{"id":"MeasureObservation_3_1","code":{"coding":[{"system":"http://terminology.hl7.org/CodeSystem/measure-population","code":"measure-population-observation","display":"Measure Population Observation"}]},"count":0}],"measureScore":{"value":0.0}},{"id":"Group_4","population":[{"id":"InitialPopulation_4","code":{"coding":[{"system":"http://terminology.hl7.org/CodeSystem/measure-population","code":"initial-population","display":"Initial Population"}]},"count":1},{"id":"MeasurePopulation_4","code":{"coding":[{"system":"http://terminology.hl7.org/CodeSystem/measure-population","code":"measure-population","display":"Measure Population"}]},"count":1},{"id":"MeasurePopulationExclusion_4","code":{"coding":[{"system":"http://terminology.hl7.org/CodeSystem/measure-population","code":"measure-population-exclusion","display":"Measure Population Exclusion"}]},"count":0},{"id":"MeasureObservation_4_1","code":{"coding":[{"system":"http://terminology.hl7.org/CodeSystem/measure-population","code":"measure-population-observation","display":"Measure Population Observation"}]},"count":0}],"measureScore":{"value":0.0}},{"id":"Group_5","population":[{"id":"InitialPopulation_5","code":{"coding":[{"system":"http://terminology.hl7.org/CodeSystem/measure-population","code":"initial-population","display":"Initial Population"}]},"count":1},{"id":"MeasurePopulation_5","code":{"coding":[{"system":"http://terminology.hl7.org/CodeSystem/measure-population","code":"measure-population","display":"Measure Population"}]},"count":1},{"id":"MeasurePopulationExclusion_5","code":{"coding":[{"system":"http://terminology.hl7.org/CodeSystem/measure-population","code":"measure-population-exclusion","display":"Measure Population Exclusion"}]},"count":0},{"id":"MeasureObservation_5_1","code":{"coding":[{"system":"http://terminology.hl7.org/CodeSystem/measure-population","code":"measure-population-observation","display":"Measure Population Observation"}]},"count":1}],"measureScore":{"value":0.0}},{"id":"Group_6","population":[{"id":"InitialPopulation_6","code":{"coding":[{"system":"http://terminology.hl7.org/CodeSystem/measure-population","code":"initial-population","display":"Initial Population"}]},"count":1},{"id":"MeasurePopulation_6","code":{"coding":[{"system":"http://terminology.hl7.org/CodeSystem/measure-population","code":"measure-population","display":"Measure Population"}]},"count":1},{"id":"MeasurePopulationExclusion_6","code":{"coding":[{"system":"http://terminology.hl7.org/CodeSystem/measure-population","code":"measure-population-exclusion","display":"Measure Population Exclusion"}]},"count":0},{"id":"MeasureObservation_6_1","code":{"coding":[{"system":"http://terminology.hl7.org/CodeSystem/measure-population","code":"measure-population-observation","display":"Measure Population Observation"}]},"count":100}],"measureScore":{"value":0.0}}],"evaluatedResource":[{"reference":"Patient/8090a147-702c-452a-b59d-524c2bcbaaad"},{"reference":"Encounter/df68edbc-c4ff-4b8a-b810-88811cf9d5de"},{"reference":"Condition/e9f472c8-3db6-4371-9d8d-2c98b3786d8e"},{"reference":"Observation/3b157ecd-89d7-4616-b400-c85598246edd"},{"reference":"Observation/03a7875c-5e26-4900-a463-1fac6b3f8aa0"},{"reference":"Procedure/9c4bf3dd-6e42-42b0-9679-9a502cbe76e1"},{"reference":"Procedure/b2ed7430-5bed-4ef7-8c7d-b0fe88d37339"},{"reference":"Coverage/7cc241f3-bef0-4675-89bf-591d6e1e33cf"},{"reference":"Organization/53d3d8ad-c4fe-4dfe-929a-7adeab2eaf5e"}]},"request":{"method":"PUT","url":"MeasureReport/68031da7-eb6a-4ada-af07-62fff4ada9a9"}}]}