{"resourceType":"Bundle","id":"tests-5a29e7c9-9e30-4083-9bd2-6a05031d4387-bundle","type":"transaction","entry":[{"resource":{"resourceType":"Condition","id":"65c08fb3-00ea-41e2-a5bb-64073484e7a6","meta":{"profile":["http://hl7.org/fhir/us/qicore/StructureDefinition/qicore-condition-encounter-diagnosis"]},"clinicalStatus":{"coding":[{"system":"http://terminology.hl7.org/CodeSystem/condition-clinical","code":"active","display":"Active","userSelected":true}]},"verificationStatus":{"coding":[{"system":"http://terminology.hl7.org/CodeSystem/condition-ver-status","code":"confirmed","display":"Confirmed","userSelected":true}]},"category":[{"coding":[{"system":"http://terminology.hl7.org/CodeSystem/condition-category","code":"encounter-diagnosis","display":"Encounter Diagnosis","userSelected":true}]}],"code":{"coding":[{"system":"http://snomed.info/sct","code":"238111008","display":"Deficiency of micronutrients (disorder)","userSelected":true}]},"subject":{"reference":"Patient/5a29e7c9-9e30-4083-9bd2-6a05031d4387"},"onsetPeriod":{"start":"2026-08-21T08:00:00.000+00:00"},"recordedDate":"2026-08-21T11:00:00.000+00:00"},"request":{"method":"PUT","url":"Condition/65c08fb3-00ea-41e2-a5bb-64073484e7a6"}},{"resource":{"resourceType":"Encounter","id":"96b4de52-3884-4972-8688-dd2e5fde5014","meta":{"profile":["http://hl7.org/fhir/us/qicore/StructureDefinition/qicore-encounter"]},"status":"finished","class":{"system":"http://terminology.hl7.org/CodeSystem/v3-ActCode","code":"IMP","display":"inpatient encounter"},"type":[{"coding":[{"system":"http://snomed.info/sct","code":"183452005"}]}],"subject":{"reference":"Patient/5a29e7c9-9e30-4083-9bd2-6a05031d4387"},"period":{"start":"2026-08-21T08:00:00.000+00:00","end":"2026-08-28T08:15:00.000+00:00"}},"request":{"method":"PUT","url":"Encounter/96b4de52-3884-4972-8688-dd2e5fde5014"}},{"resource":{"resourceType":"Organization","id":"3752de33-fe61-4c70-b0a7-43e7b1f48dd2","meta":{"profile":["http://hl7.org/fhir/us/qicore/StructureDefinition/qicore-organization"]},"identifier":[{"use":"temp","system":"urn:oid:2.16.840.1.113883.4.4","value":"21-3259825"}],"active":true,"type":[{"coding":[{"system":"http://terminology.hl7.org/CodeSystem/organization-type","code":"pay","display":"Payer"}]}],"name":"Blue Cross Blue Shield of Texas","telecom":[{"system":"phone","value":"(+1) 972-766-6900"}],"address":[{"use":"billing","type":"postal","line":["P.O. Box 660044"],"city":"Dallas","state":"TX","postalCode":"75266-0044","country":"USA"}]},"request":{"method":"PUT","url":"Organization/3752de33-fe61-4c70-b0a7-43e7b1f48dd2"}},{"resource":{"resourceType":"Bundle","id":"NoscreRefAsseNotmDxCp","type":"transaction","entry":[{"fullUrl":"https://madie.cms.gov/Patient/5a29e7c9-9e30-4083-9bd2-6a05031d4387","resource":{"resourceType":"Patient","id":"5a29e7c9-9e30-4083-9bd2-6a05031d4387","meta":{"profile":["http://hl7.org/fhir/us/qicore/StructureDefinition/qicore-patient"]},"extension":[{"url":"http://hl7.org/fhir/us/core/StructureDefinition/us-core-race","extension":[{"url":"ombCategory","valueCoding":{"system":"urn:oid:2.16.840.1.113883.6.238","code":"2054-5","display":"Black or African American","userSelected":true}},{"url":"text","valueString":"Black or African American"}]},{"url":"http://hl7.org/fhir/us/core/StructureDefinition/us-core-ethnicity","extension":[{"url":"ombCategory","valueCoding":{"system":"urn:oid:2.16.840.1.113883.6.238","code":"2186-5","display":"Not Hispanic or Latino","userSelected":true}},{"url":"text","valueString":"Not Hispanic or Latino"}]},{"url":"http://hl7.org/fhir/us/core/StructureDefinition/us-core-sex","valueCode":"248153007"}],"identifier":[{"type":{"coding":[{"system":"http://terminology.hl7.org/CodeSystem/v2-0203","code":"MR"}]},"system":"https://madie.cms.gov/","value":"NoscreRefAsseNotmDxCp"}],"active":true,"name":[{"use":"usual","text":"NoscreRefAsseNotmDxCp","family":"MSROBSPass2","given":["NoscreRefAsseNotmDxCp"]}],"gender":"male","birthDate":"1948-04-14","address":[{"text":"NoscreRefAsseNotmDxCp, Screened Not at risk Assessed Severely Malnourished Diagnosed Care Plan, ID=NoscreRefAsseNotmDxCp, DOB: 14 May 1950"}]},"request":{"method":"PUT","url":"Patient/5a29e7c9-9e30-4083-9bd2-6a05031d4387"}},{"fullUrl":"https://madie.cms.gov/Encounter/96b4de52-3884-4972-8688-dd2e5fde5014","resource":{"resourceType":"Encounter","id":"96b4de52-3884-4972-8688-dd2e5fde5014","meta":{"profile":["http://hl7.org/fhir/us/qicore/StructureDefinition/qicore-encounter"]},"status":"finished","class":{"system":"http://terminology.hl7.org/CodeSystem/v3-ActCode","code":"IMP","display":"inpatient encounter"},"type":[{"coding":[{"system":"http://snomed.info/sct","code":"183452005"}]}],"subject":{"reference":"Patient/5a29e7c9-9e30-4083-9bd2-6a05031d4387"},"period":{"start":"2026-08-21T08:00:00.000+00:00","end":"2026-08-28T08:15:00.000+00:00"}},"request":{"method":"PUT","url":"Encounter/96b4de52-3884-4972-8688-dd2e5fde5014"}},{"fullUrl":"https://madie.cms.gov/Condition/65c08fb3-00ea-41e2-a5bb-64073484e7a6","resource":{"resourceType":"Condition","id":"65c08fb3-00ea-41e2-a5bb-64073484e7a6","meta":{"profile":["http://hl7.org/fhir/us/qicore/StructureDefinition/qicore-condition-encounter-diagnosis"]},"clinicalStatus":{"coding":[{"system":"http://terminology.hl7.org/CodeSystem/condition-clinical","code":"active","display":"Active","userSelected":true}]},"verificationStatus":{"coding":[{"system":"http://terminology.hl7.org/CodeSystem/condition-ver-status","code":"confirmed","display":"Confirmed","userSelected":true}]},"category":[{"coding":[{"system":"http://terminology.hl7.org/CodeSystem/condition-category","code":"encounter-diagnosis","display":"Encounter Diagnosis","userSelected":true}]}],"code":{"coding":[{"system":"http://snomed.info/sct","code":"238111008","display":"Deficiency of micronutrients (disorder)","userSelected":true}]},"subject":{"reference":"Patient/5a29e7c9-9e30-4083-9bd2-6a05031d4387"},"onsetPeriod":{"start":"2026-08-21T08:00:00.000+00:00"},"recordedDate":"2026-08-21T11:00:00.000+00:00"},"request":{"method":"PUT","url":"Condition/65c08fb3-00ea-41e2-a5bb-64073484e7a6"}},{"fullUrl":"https://madie.cms.gov/Observation/226e75c8-31ce-49cc-9e99-31741a1c88de","resource":{"resourceType":"Observation","id":"226e75c8-31ce-49cc-9e99-31741a1c88de","meta":{"profile":["http://hl7.org/fhir/us/qicore/StructureDefinition/qicore-observation-screening-assessment"]},"status":"final","category":[{"coding":[{"system":"http://terminology.hl7.org/CodeSystem/observation-category","code":"survey","display":"Survey"}]}],"code":{"coding":[{"system":"http://loinc.org","code":"75285-7","display":"Comparative nutrition assessment standards panel","userSelected":true}]},"subject":{"reference":"Patient/5a29e7c9-9e30-4083-9bd2-6a05031d4387"},"effectiveDateTime":"2026-08-21T10:00:00.000+00:00","valueCodeableConcept":{"coding":[{"system":"http://loinc.org","code":"LA33701-6","display":"Well nourished","userSelected":true}]}},"request":{"method":"PUT","url":"Observation/226e75c8-31ce-49cc-9e99-31741a1c88de"}},{"fullUrl":"https://madie.cms.gov/Procedure/23e15ff6-d9df-4c6d-86af-81a09564a694","resource":{"resourceType":"Procedure","id":"23e15ff6-d9df-4c6d-86af-81a09564a694","meta":{"profile":["http://hl7.org/fhir/us/qicore/StructureDefinition/qicore-procedure"]},"extension":[{"url":"http://hl7.org/fhir/us/qicore/StructureDefinition/qicore-recorded","valueDateTime":"2026-02-01T11:30:00.000+00:00"}],"status":"completed","code":{"coding":[{"system":"http://snomed.info/sct","code":"306354000","display":"Referral to hospital-based dietitian (procedure)"}],"text":"Referral to hospital-based dietitian (procedure)"},"subject":{"reference":"Patient/5a29e7c9-9e30-4083-9bd2-6a05031d4387"},"encounter":{"reference":"Encounter/NoscreRefAsseNotmDxCpMSROBSPass2"},"performedPeriod":{"start":"2026-08-21T11:30:00.000+00:00","end":"2026-08-28T08:15:00.000+00:00"}},"request":{"method":"PUT","url":"Procedure/23e15ff6-d9df-4c6d-86af-81a09564a694"}},{"fullUrl":"https://madie.cms.gov/Procedure/1382b692-8803-4d40-9708-7e3164cf3159","resource":{"resourceType":"Procedure","id":"1382b692-8803-4d40-9708-7e3164cf3159","meta":{"profile":["http://hl7.org/fhir/us/qicore/StructureDefinition/qicore-procedure"]},"extension":[{"url":"http://hl7.org/fhir/us/qicore/StructureDefinition/qicore-recorded","valueDateTime":"2025-02-02T11:30:00.000+00:00"}],"status":"completed","code":{"coding":[{"system":"http://snomed.info/sct","code":"445101000124100","display":"Collaborating in nutrition therapy (procedure)"}],"text":"Collaborating in nutrition therapy (procedure)"},"subject":{"reference":"Patient/5a29e7c9-9e30-4083-9bd2-6a05031d4387"},"encounter":{"reference":"Encounter/NoscreRefAsseNotmDxCpMSROBSPass2"},"performedPeriod":{"start":"2026-08-21T11:30:00.000+00:00","end":"2026-08-28T08:15:00.000+00:00"}},"request":{"method":"PUT","url":"Procedure/1382b692-8803-4d40-9708-7e3164cf3159"}},{"fullUrl":"https://madie.cms.gov/Coverage/4a2d408b-8faf-47ad-a704-7ea62aaaa40a","resource":{"resourceType":"Coverage","id":"4a2d408b-8faf-47ad-a704-7ea62aaaa40a","meta":{"profile":["http://hl7.org/fhir/us/qicore/StructureDefinition/qicore-coverage"]},"status":"active","type":{"coding":[{"system":"https://nahdo.org/sopt","version":"9.2","code":"11","display":"Medicare Managed Care (Includes Medicare Advantage Plans)"}]},"subscriberId":"97531","beneficiary":{"reference":"Patient/5a29e7c9-9e30-4083-9bd2-6a05031d4387"},"dependent":"0","relationship":{"coding":[{"system":"http://terminology.hl7.org/CodeSystem/subscriber-relationship","code":"self"}]},"period":{"start":"2025-10-01T00:00:00.000+00:00"},"payor":[{"reference":"Organization/3752de33-fe61-4c70-b0a7-43e7b1f48dd2"}]},"request":{"method":"PUT","url":"Coverage/4a2d408b-8faf-47ad-a704-7ea62aaaa40a"}},{"fullUrl":"https://madie.cms.gov/Organization/3752de33-fe61-4c70-b0a7-43e7b1f48dd2","resource":{"resourceType":"Organization","id":"3752de33-fe61-4c70-b0a7-43e7b1f48dd2","meta":{"profile":["http://hl7.org/fhir/us/qicore/StructureDefinition/qicore-organization"]},"identifier":[{"use":"temp","system":"urn:oid:2.16.840.1.113883.4.4","value":"21-3259825"}],"active":true,"type":[{"coding":[{"system":"http://terminology.hl7.org/CodeSystem/organization-type","code":"pay","display":"Payer"}]}],"name":"Blue Cross Blue Shield of Texas","telecom":[{"system":"phone","value":"(+1) 972-766-6900"}],"address":[{"use":"billing","type":"postal","line":["P.O. Box 660044"],"city":"Dallas","state":"TX","postalCode":"75266-0044","country":"USA"}]},"request":{"method":"PUT","url":"Organization/3752de33-fe61-4c70-b0a7-43e7b1f48dd2"}},{"fullUrl":"https://madie.cms.gov/MeasureReport/55f87cf5-9ca1-43d5-b17a-9eca9c56a174","resource":{"resourceType":"MeasureReport","id":"55f87cf5-9ca1-43d5-b17a-9eca9c56a174","meta":{"profile":["http://hl7.org/fhir/us/cqfmeasures/StructureDefinition/test-case-cqfm"]},"contained":[{"resourceType":"Parameters","id":"a50a9cc7-4f39-44b5-b8e6-edee3437ef03-parameters","parameter":[{"name":"subject","valueString":"5a29e7c9-9e30-4083-9bd2-6a05031d4387"}]}],"extension":[{"url":"http://hl7.org/fhir/StructureDefinition/cqf-inputParameters","valueReference":{"reference":"#a50a9cc7-4f39-44b5-b8e6-edee3437ef03-parameters"}},{"url":"http://hl7.org/fhir/us/cqfmeasures/StructureDefinition/cqfm-testCaseDescription","valueMarkdown":"Not Screened, Referral, Assessed, Not/Mildly Malnourished, Diagnosis, Nutrition Care Plan"}],"modifierExtension":[{"url":"http://hl7.org/fhir/us/cqfmeasures/StructureDefinition/cqfm-isTestCase","valueBoolean":true}],"status":"complete","type":"individual","measure":"https://madie.cms.gov/Measure/CMS986FHIRMalnutritionScore","period":{"start":"2026-01-01","end":"2026-12-31"},"group":[{"id":"Group_1","population":[{"id":"InitialPopulation_1","code":{"coding":[{"system":"http://terminology.hl7.org/CodeSystem/measure-population","code":"initial-population","display":"Initial Population"}]},"count":1},{"id":"MeasurePopulation_1","code":{"coding":[{"system":"http://terminology.hl7.org/CodeSystem/measure-population","code":"measure-population","display":"Measure Population"}]},"count":1},{"id":"MeasurePopulationExclusion_1","code":{"coding":[{"system":"http://terminology.hl7.org/CodeSystem/measure-population","code":"measure-population-exclusion","display":"Measure Population Exclusion"}]},"count":0},{"id":"MeasureObservation_1_1","code":{"coding":[{"system":"http://terminology.hl7.org/CodeSystem/measure-population","code":"measure-population-observation","display":"Measure Population Observation"}]},"count":1}],"measureScore":{"value":0.0}},{"id":"Group_2","population":[{"id":"InitialPopulation_2","code":{"coding":[{"system":"http://terminology.hl7.org/CodeSystem/measure-population","code":"initial-population","display":"Initial Population"}]},"count":1},{"id":"MeasurePopulation_2","code":{"coding":[{"system":"http://terminology.hl7.org/CodeSystem/measure-population","code":"measure-population","display":"Measure Population"}]},"count":1},{"id":"MeasurePopulationExclusion_2","code":{"coding":[{"system":"http://terminology.hl7.org/CodeSystem/measure-population","code":"measure-population-exclusion","display":"Measure Population Exclusion"}]},"count":0},{"id":"MeasureObservation_2_1","code":{"coding":[{"system":"http://terminology.hl7.org/CodeSystem/measure-population","code":"measure-population-observation","display":"Measure Population Observation"}]},"count":1}],"measureScore":{"value":0.0}},{"id":"Group_3","population":[{"id":"InitialPopulation_3","code":{"coding":[{"system":"http://terminology.hl7.org/CodeSystem/measure-population","code":"initial-population","display":"Initial Population"}]},"count":1},{"id":"MeasurePopulation_3","code":{"coding":[{"system":"http://terminology.hl7.org/CodeSystem/measure-population","code":"measure-population","display":"Measure Population"}]},"count":1},{"id":"MeasurePopulationExclusion_3","code":{"coding":[{"system":"http://terminology.hl7.org/CodeSystem/measure-population","code":"measure-population-exclusion","display":"Measure Population Exclusion"}]},"count":0},{"id":"MeasureObservation_3_1","code":{"coding":[{"system":"http://terminology.hl7.org/CodeSystem/measure-population","code":"measure-population-observation","display":"Measure Population Observation"}]},"count":0}],"measureScore":{"value":0.0}},{"id":"Group_4","population":[{"id":"InitialPopulation_4","code":{"coding":[{"system":"http://terminology.hl7.org/CodeSystem/measure-population","code":"initial-population","display":"Initial Population"}]},"count":1},{"id":"MeasurePopulation_4","code":{"coding":[{"system":"http://terminology.hl7.org/CodeSystem/measure-population","code":"measure-population","display":"Measure Population"}]},"count":1},{"id":"MeasurePopulationExclusion_4","code":{"coding":[{"system":"http://terminology.hl7.org/CodeSystem/measure-population","code":"measure-population-exclusion","display":"Measure Population Exclusion"}]},"count":0},{"id":"MeasureObservation_4_1","code":{"coding":[{"system":"http://terminology.hl7.org/CodeSystem/measure-population","code":"measure-population-observation","display":"Measure Population Observation"}]},"count":0}],"measureScore":{"value":0.0}},{"id":"Group_5","population":[{"id":"InitialPopulation_5","code":{"coding":[{"system":"http://terminology.hl7.org/CodeSystem/measure-population","code":"initial-population","display":"Initial Population"}]},"count":1},{"id":"MeasurePopulation_5","code":{"coding":[{"system":"http://terminology.hl7.org/CodeSystem/measure-population","code":"measure-population","display":"Measure Population"}]},"count":1},{"id":"MeasurePopulationExclusion_5","code":{"coding":[{"system":"http://terminology.hl7.org/CodeSystem/measure-population","code":"measure-population-exclusion","display":"Measure Population Exclusion"}]},"count":0},{"id":"MeasureObservation_5_1","code":{"coding":[{"system":"http://terminology.hl7.org/CodeSystem/measure-population","code":"measure-population-observation","display":"Measure Population Observation"}]},"count":2}],"measureScore":{"value":0.0}},{"id":"Group_6","population":[{"id":"InitialPopulation_6","code":{"coding":[{"system":"http://terminology.hl7.org/CodeSystem/measure-population","code":"initial-population","display":"Initial Population"}]},"count":1},{"id":"MeasurePopulation_6","code":{"coding":[{"system":"http://terminology.hl7.org/CodeSystem/measure-population","code":"measure-population","display":"Measure Population"}]},"count":1},{"id":"MeasurePopulationExclusion_6","code":{"coding":[{"system":"http://terminology.hl7.org/CodeSystem/measure-population","code":"measure-population-exclusion","display":"Measure Population Exclusion"}]},"count":0},{"id":"MeasureObservation_6_1","code":{"coding":[{"system":"http://terminology.hl7.org/CodeSystem/measure-population","code":"measure-population-observation","display":"Measure Population Observation"}]},"count":100}],"measureScore":{"value":0.0}}],"evaluatedResource":[{"reference":"Patient/5a29e7c9-9e30-4083-9bd2-6a05031d4387"},{"reference":"Encounter/96b4de52-3884-4972-8688-dd2e5fde5014"},{"reference":"Condition/65c08fb3-00ea-41e2-a5bb-64073484e7a6"},{"reference":"Observation/226e75c8-31ce-49cc-9e99-31741a1c88de"},{"reference":"Procedure/23e15ff6-d9df-4c6d-86af-81a09564a694"},{"reference":"Procedure/1382b692-8803-4d40-9708-7e3164cf3159"},{"reference":"Coverage/4a2d408b-8faf-47ad-a704-7ea62aaaa40a"},{"reference":"Organization/3752de33-fe61-4c70-b0a7-43e7b1f48dd2"}]},"request":{"method":"PUT","url":"MeasureReport/55f87cf5-9ca1-43d5-b17a-9eca9c56a174"}}]},"request":{"method":"PUT","url":"Bundle/NoscreRefAsseNotmDxCp"}},{"resource":{"resourceType":"Procedure","id":"1382b692-8803-4d40-9708-7e3164cf3159","meta":{"profile":["http://hl7.org/fhir/us/qicore/StructureDefinition/qicore-procedure"]},"extension":[{"url":"http://hl7.org/fhir/us/qicore/StructureDefinition/qicore-recorded","valueDateTime":"2025-02-02T11:30:00.000+00:00"}],"status":"completed","code":{"coding":[{"system":"http://snomed.info/sct","code":"445101000124100","display":"Collaborating in nutrition therapy (procedure)"}],"text":"Collaborating in nutrition therapy (procedure)"},"subject":{"reference":"Patient/5a29e7c9-9e30-4083-9bd2-6a05031d4387"},"encounter":{"reference":"Encounter/NoscreRefAsseNotmDxCpMSROBSPass2"},"performedPeriod":{"start":"2026-08-21T11:30:00.000+00:00","end":"2026-08-28T08:15:00.000+00:00"}},"request":{"method":"PUT","url":"Procedure/1382b692-8803-4d40-9708-7e3164cf3159"}},{"resource":{"resourceType":"Coverage","id":"4a2d408b-8faf-47ad-a704-7ea62aaaa40a","meta":{"profile":["http://hl7.org/fhir/us/qicore/StructureDefinition/qicore-coverage"]},"status":"active","type":{"coding":[{"system":"https://nahdo.org/sopt","version":"9.2","code":"11","display":"Medicare Managed Care (Includes Medicare Advantage Plans)"}]},"subscriberId":"97531","beneficiary":{"reference":"Patient/5a29e7c9-9e30-4083-9bd2-6a05031d4387"},"dependent":"0","relationship":{"coding":[{"system":"http://terminology.hl7.org/CodeSystem/subscriber-relationship","code":"self"}]},"period":{"start":"2025-10-01T00:00:00.000+00:00"},"payor":[{"reference":"Organization/3752de33-fe61-4c70-b0a7-43e7b1f48dd2"}]},"request":{"method":"PUT","url":"Coverage/4a2d408b-8faf-47ad-a704-7ea62aaaa40a"}},{"resource":{"resourceType":"Procedure","id":"23e15ff6-d9df-4c6d-86af-81a09564a694","meta":{"profile":["http://hl7.org/fhir/us/qicore/StructureDefinition/qicore-procedure"]},"extension":[{"url":"http://hl7.org/fhir/us/qicore/StructureDefinition/qicore-recorded","valueDateTime":"2026-02-01T11:30:00.000+00:00"}],"status":"completed","code":{"coding":[{"system":"http://snomed.info/sct","code":"306354000","display":"Referral to hospital-based dietitian (procedure)"}],"text":"Referral to hospital-based dietitian (procedure)"},"subject":{"reference":"Patient/5a29e7c9-9e30-4083-9bd2-6a05031d4387"},"encounter":{"reference":"Encounter/NoscreRefAsseNotmDxCpMSROBSPass2"},"performedPeriod":{"start":"2026-08-21T11:30:00.000+00:00","end":"2026-08-28T08:15:00.000+00:00"}},"request":{"method":"PUT","url":"Procedure/23e15ff6-d9df-4c6d-86af-81a09564a694"}},{"resource":{"resourceType":"Observation","id":"226e75c8-31ce-49cc-9e99-31741a1c88de","meta":{"profile":["http://hl7.org/fhir/us/qicore/StructureDefinition/qicore-observation-screening-assessment"]},"status":"final","category":[{"coding":[{"system":"http://terminology.hl7.org/CodeSystem/observation-category","code":"survey","display":"Survey"}]}],"code":{"coding":[{"system":"http://loinc.org","code":"75285-7","display":"Comparative nutrition assessment standards panel","userSelected":true}]},"subject":{"reference":"Patient/5a29e7c9-9e30-4083-9bd2-6a05031d4387"},"effectiveDateTime":"2026-08-21T10:00:00.000+00:00","valueCodeableConcept":{"coding":[{"system":"http://loinc.org","code":"LA33701-6","display":"Well nourished","userSelected":true}]}},"request":{"method":"PUT","url":"Observation/226e75c8-31ce-49cc-9e99-31741a1c88de"}},{"resource":{"resourceType":"Patient","id":"5a29e7c9-9e30-4083-9bd2-6a05031d4387","meta":{"profile":["http://hl7.org/fhir/us/qicore/StructureDefinition/qicore-patient"]},"extension":[{"url":"http://hl7.org/fhir/us/core/StructureDefinition/us-core-race","extension":[{"url":"ombCategory","valueCoding":{"system":"urn:oid:2.16.840.1.113883.6.238","code":"2054-5","display":"Black or African American","userSelected":true}},{"url":"text","valueString":"Black or African American"}]},{"url":"http://hl7.org/fhir/us/core/StructureDefinition/us-core-ethnicity","extension":[{"url":"ombCategory","valueCoding":{"system":"urn:oid:2.16.840.1.113883.6.238","code":"2186-5","display":"Not Hispanic or Latino","userSelected":true}},{"url":"text","valueString":"Not Hispanic or Latino"}]},{"url":"http://hl7.org/fhir/us/core/StructureDefinition/us-core-sex","valueCode":"248153007"}],"identifier":[{"type":{"coding":[{"system":"http://terminology.hl7.org/CodeSystem/v2-0203","code":"MR"}]},"system":"https://madie.cms.gov/","value":"NoscreRefAsseNotmDxCp"}],"active":true,"name":[{"use":"usual","text":"NoscreRefAsseNotmDxCp","family":"MSROBSPass2","given":["NoscreRefAsseNotmDxCp"]}],"gender":"male","birthDate":"1948-04-14","address":[{"text":"NoscreRefAsseNotmDxCp, Screened Not at risk Assessed Severely Malnourished Diagnosed Care Plan, ID=NoscreRefAsseNotmDxCp, DOB: 14 May 1950"}]},"request":{"method":"PUT","url":"Patient/5a29e7c9-9e30-4083-9bd2-6a05031d4387"}},{"resource":{"resourceType":"MeasureReport","id":"55f87cf5-9ca1-43d5-b17a-9eca9c56a174","meta":{"profile":["http://hl7.org/fhir/us/cqfmeasures/StructureDefinition/test-case-cqfm"]},"contained":[{"resourceType":"Parameters","id":"a50a9cc7-4f39-44b5-b8e6-edee3437ef03-parameters","parameter":[{"name":"subject","valueString":"5a29e7c9-9e30-4083-9bd2-6a05031d4387"}]}],"extension":[{"url":"http://hl7.org/fhir/StructureDefinition/cqf-inputParameters","valueReference":{"reference":"#a50a9cc7-4f39-44b5-b8e6-edee3437ef03-parameters"}},{"url":"http://hl7.org/fhir/us/cqfmeasures/StructureDefinition/cqfm-testCaseDescription","valueMarkdown":"Not Screened, Referral, Assessed, Not/Mildly Malnourished, Diagnosis, Nutrition Care Plan"}],"modifierExtension":[{"url":"http://hl7.org/fhir/us/cqfmeasures/StructureDefinition/cqfm-isTestCase","valueBoolean":true}],"status":"complete","type":"individual","measure":"https://madie.cms.gov/Measure/CMS986FHIRMalnutritionScore","period":{"start":"2026-01-01","end":"2026-12-31"},"group":[{"id":"Group_1","population":[{"id":"InitialPopulation_1","code":{"coding":[{"system":"http://terminology.hl7.org/CodeSystem/measure-population","code":"initial-population","display":"Initial Population"}]},"count":1},{"id":"MeasurePopulation_1","code":{"coding":[{"system":"http://terminology.hl7.org/CodeSystem/measure-population","code":"measure-population","display":"Measure Population"}]},"count":1},{"id":"MeasurePopulationExclusion_1","code":{"coding":[{"system":"http://terminology.hl7.org/CodeSystem/measure-population","code":"measure-population-exclusion","display":"Measure Population Exclusion"}]},"count":0},{"id":"MeasureObservation_1_1","code":{"coding":[{"system":"http://terminology.hl7.org/CodeSystem/measure-population","code":"measure-population-observation","display":"Measure Population Observation"}]},"count":1}],"measureScore":{"value":0.0}},{"id":"Group_2","population":[{"id":"InitialPopulation_2","code":{"coding":[{"system":"http://terminology.hl7.org/CodeSystem/measure-population","code":"initial-population","display":"Initial Population"}]},"count":1},{"id":"MeasurePopulation_2","code":{"coding":[{"system":"http://terminology.hl7.org/CodeSystem/measure-population","code":"measure-population","display":"Measure Population"}]},"count":1},{"id":"MeasurePopulationExclusion_2","code":{"coding":[{"system":"http://terminology.hl7.org/CodeSystem/measure-population","code":"measure-population-exclusion","display":"Measure Population Exclusion"}]},"count":0},{"id":"MeasureObservation_2_1","code":{"coding":[{"system":"http://terminology.hl7.org/CodeSystem/measure-population","code":"measure-population-observation","display":"Measure Population Observation"}]},"count":1}],"measureScore":{"value":0.0}},{"id":"Group_3","population":[{"id":"InitialPopulation_3","code":{"coding":[{"system":"http://terminology.hl7.org/CodeSystem/measure-population","code":"initial-population","display":"Initial Population"}]},"count":1},{"id":"MeasurePopulation_3","code":{"coding":[{"system":"http://terminology.hl7.org/CodeSystem/measure-population","code":"measure-population","display":"Measure Population"}]},"count":1},{"id":"MeasurePopulationExclusion_3","code":{"coding":[{"system":"http://terminology.hl7.org/CodeSystem/measure-population","code":"measure-population-exclusion","display":"Measure Population Exclusion"}]},"count":0},{"id":"MeasureObservation_3_1","code":{"coding":[{"system":"http://terminology.hl7.org/CodeSystem/measure-population","code":"measure-population-observation","display":"Measure Population Observation"}]},"count":0}],"measureScore":{"value":0.0}},{"id":"Group_4","population":[{"id":"InitialPopulation_4","code":{"coding":[{"system":"http://terminology.hl7.org/CodeSystem/measure-population","code":"initial-population","display":"Initial Population"}]},"count":1},{"id":"MeasurePopulation_4","code":{"coding":[{"system":"http://terminology.hl7.org/CodeSystem/measure-population","code":"measure-population","display":"Measure Population"}]},"count":1},{"id":"MeasurePopulationExclusion_4","code":{"coding":[{"system":"http://terminology.hl7.org/CodeSystem/measure-population","code":"measure-population-exclusion","display":"Measure Population Exclusion"}]},"count":0},{"id":"MeasureObservation_4_1","code":{"coding":[{"system":"http://terminology.hl7.org/CodeSystem/measure-population","code":"measure-population-observation","display":"Measure Population Observation"}]},"count":0}],"measureScore":{"value":0.0}},{"id":"Group_5","population":[{"id":"InitialPopulation_5","code":{"coding":[{"system":"http://terminology.hl7.org/CodeSystem/measure-population","code":"initial-population","display":"Initial Population"}]},"count":1},{"id":"MeasurePopulation_5","code":{"coding":[{"system":"http://terminology.hl7.org/CodeSystem/measure-population","code":"measure-population","display":"Measure Population"}]},"count":1},{"id":"MeasurePopulationExclusion_5","code":{"coding":[{"system":"http://terminology.hl7.org/CodeSystem/measure-population","code":"measure-population-exclusion","display":"Measure Population Exclusion"}]},"count":0},{"id":"MeasureObservation_5_1","code":{"coding":[{"system":"http://terminology.hl7.org/CodeSystem/measure-population","code":"measure-population-observation","display":"Measure Population Observation"}]},"count":2}],"measureScore":{"value":0.0}},{"id":"Group_6","population":[{"id":"InitialPopulation_6","code":{"coding":[{"system":"http://terminology.hl7.org/CodeSystem/measure-population","code":"initial-population","display":"Initial Population"}]},"count":1},{"id":"MeasurePopulation_6","code":{"coding":[{"system":"http://terminology.hl7.org/CodeSystem/measure-population","code":"measure-population","display":"Measure Population"}]},"count":1},{"id":"MeasurePopulationExclusion_6","code":{"coding":[{"system":"http://terminology.hl7.org/CodeSystem/measure-population","code":"measure-population-exclusion","display":"Measure Population Exclusion"}]},"count":0},{"id":"MeasureObservation_6_1","code":{"coding":[{"system":"http://terminology.hl7.org/CodeSystem/measure-population","code":"measure-population-observation","display":"Measure Population Observation"}]},"count":100}],"measureScore":{"value":0.0}}],"evaluatedResource":[{"reference":"Patient/5a29e7c9-9e30-4083-9bd2-6a05031d4387"},{"reference":"Encounter/96b4de52-3884-4972-8688-dd2e5fde5014"},{"reference":"Condition/65c08fb3-00ea-41e2-a5bb-64073484e7a6"},{"reference":"Observation/226e75c8-31ce-49cc-9e99-31741a1c88de"},{"reference":"Procedure/23e15ff6-d9df-4c6d-86af-81a09564a694"},{"reference":"Procedure/1382b692-8803-4d40-9708-7e3164cf3159"},{"reference":"Coverage/4a2d408b-8faf-47ad-a704-7ea62aaaa40a"},{"reference":"Organization/3752de33-fe61-4c70-b0a7-43e7b1f48dd2"}]},"request":{"method":"PUT","url":"MeasureReport/55f87cf5-9ca1-43d5-b17a-9eca9c56a174"}}]}