{"resourceType":"Bundle","id":"tests-179ed91e-44b7-4be7-a720-b7b09fcbb4d3-bundle","type":"transaction","entry":[{"fullUrl":"Organization/4dc6744d-7e5a-4f55-ab77-3023f8ed2938","resource":{"resourceType":"Organization","id":"4dc6744d-7e5a-4f55-ab77-3023f8ed2938","meta":{"profile":["http://hl7.org/fhir/us/qicore/StructureDefinition/qicore-organization"]},"identifier":[{"use":"temp","system":"urn:oid:2.16.840.1.113883.4.4","value":"21-3259825"}],"active":true,"type":[{"coding":[{"system":"http://terminology.hl7.org/CodeSystem/organization-type","code":"pay","display":"Payer"}]}],"name":"Blue Cross Blue Shield of Texas","telecom":[{"system":"phone","value":"(+1) 972-766-6900"}],"address":[{"use":"billing","type":"postal","line":["P.O. Box 660044"],"city":"Dallas","state":"TX","postalCode":"75266-0044","country":"USA"}]},"request":{"method":"PUT","url":"Organization/4dc6744d-7e5a-4f55-ab77-3023f8ed2938"}},{"fullUrl":"MeasureReport/4c40f01d-8702-4881-bb2e-767666199fa7","resource":{"resourceType":"MeasureReport","id":"4c40f01d-8702-4881-bb2e-767666199fa7","meta":{"profile":["http://hl7.org/fhir/us/cqfmeasures/StructureDefinition/test-case-cqfm"]},"contained":[{"resourceType":"Parameters","id":"66cbbdc9-6cfb-451e-8436-aa609e93e7aa-parameters","parameter":[{"name":"subject","valueString":"179ed91e-44b7-4be7-a720-b7b09fcbb4d3"}]}],"extension":[{"url":"http://hl7.org/fhir/StructureDefinition/cqf-inputParameters","valueReference":{"reference":"#66cbbdc9-6cfb-451e-8436-aa609e93e7aa-parameters"}},{"url":"http://hl7.org/fhir/us/cqfmeasures/StructureDefinition/cqfm-testCaseDescription","valueMarkdown":"Patient is not 18, fails IPP"}],"modifierExtension":[{"url":"http://hl7.org/fhir/us/cqfmeasures/StructureDefinition/cqfm-isTestCase","valueBoolean":true}],"status":"complete","type":"individual","measure":"https://madie.cms.gov/Measure/CMS986FHIRMalnutritionScore","period":{"start":"2026-01-01","end":"2026-12-31"},"group":[{"id":"Group_1","population":[{"id":"InitialPopulation_1","code":{"coding":[{"system":"http://terminology.hl7.org/CodeSystem/measure-population","code":"initial-population","display":"Initial Population"}]},"count":0},{"id":"MeasurePopulation_1","code":{"coding":[{"system":"http://terminology.hl7.org/CodeSystem/measure-population","code":"measure-population","display":"Measure Population"}]},"count":0},{"id":"MeasurePopulationExclusion_1","code":{"coding":[{"system":"http://terminology.hl7.org/CodeSystem/measure-population","code":"measure-population-exclusion","display":"Measure Population Exclusion"}]},"count":0}],"measureScore":{"value":0.0}},{"id":"Group_2","population":[{"id":"InitialPopulation_2","code":{"coding":[{"system":"http://terminology.hl7.org/CodeSystem/measure-population","code":"initial-population","display":"Initial Population"}]},"count":0},{"id":"MeasurePopulation_2","code":{"coding":[{"system":"http://terminology.hl7.org/CodeSystem/measure-population","code":"measure-population","display":"Measure Population"}]},"count":0},{"id":"MeasurePopulationExclusion_2","code":{"coding":[{"system":"http://terminology.hl7.org/CodeSystem/measure-population","code":"measure-population-exclusion","display":"Measure Population Exclusion"}]},"count":0}],"measureScore":{"value":0.0}},{"id":"Group_3","population":[{"id":"InitialPopulation_3","code":{"coding":[{"system":"http://terminology.hl7.org/CodeSystem/measure-population","code":"initial-population","display":"Initial Population"}]},"count":0},{"id":"MeasurePopulation_3","code":{"coding":[{"system":"http://terminology.hl7.org/CodeSystem/measure-population","code":"measure-population","display":"Measure Population"}]},"count":0},{"id":"MeasurePopulationExclusion_3","code":{"coding":[{"system":"http://terminology.hl7.org/CodeSystem/measure-population","code":"measure-population-exclusion","display":"Measure Population Exclusion"}]},"count":0}],"measureScore":{"value":0.0}},{"id":"Group_4","population":[{"id":"InitialPopulation_4","code":{"coding":[{"system":"http://terminology.hl7.org/CodeSystem/measure-population","code":"initial-population","display":"Initial Population"}]},"count":0},{"id":"MeasurePopulation_4","code":{"coding":[{"system":"http://terminology.hl7.org/CodeSystem/measure-population","code":"measure-population","display":"Measure Population"}]},"count":0},{"id":"MeasurePopulationExclusion_4","code":{"coding":[{"system":"http://terminology.hl7.org/CodeSystem/measure-population","code":"measure-population-exclusion","display":"Measure Population Exclusion"}]},"count":0}],"measureScore":{"value":0.0}},{"id":"Group_5","population":[{"id":"InitialPopulation_5","code":{"coding":[{"system":"http://terminology.hl7.org/CodeSystem/measure-population","code":"initial-population","display":"Initial Population"}]},"count":0},{"id":"MeasurePopulation_5","code":{"coding":[{"system":"http://terminology.hl7.org/CodeSystem/measure-population","code":"measure-population","display":"Measure Population"}]},"count":0},{"id":"MeasurePopulationExclusion_5","code":{"coding":[{"system":"http://terminology.hl7.org/CodeSystem/measure-population","code":"measure-population-exclusion","display":"Measure Population Exclusion"}]},"count":0}],"measureScore":{"value":0.0}},{"id":"Group_6","population":[{"id":"InitialPopulation_6","code":{"coding":[{"system":"http://terminology.hl7.org/CodeSystem/measure-population","code":"initial-population","display":"Initial Population"}]},"count":0},{"id":"MeasurePopulation_6","code":{"coding":[{"system":"http://terminology.hl7.org/CodeSystem/measure-population","code":"measure-population","display":"Measure Population"}]},"count":0},{"id":"MeasurePopulationExclusion_6","code":{"coding":[{"system":"http://terminology.hl7.org/CodeSystem/measure-population","code":"measure-population-exclusion","display":"Measure Population Exclusion"}]},"count":0}],"measureScore":{"value":0.0}}],"evaluatedResource":[{"reference":"Patient/179ed91e-44b7-4be7-a720-b7b09fcbb4d3"},{"reference":"Encounter/ba324f11-846f-41a3-99e0-8b01e0120772"},{"reference":"Condition/f57aebd2-c3f8-43a8-98a6-134811dfecbd"},{"reference":"Observation/e43666e6-97ce-444f-af46-269d6dc0e5a8"},{"reference":"Observation/7dd46bbe-addd-4f28-8261-a160af827107"},{"reference":"Procedure/8aaa0705-96bd-4f68-9458-acb972292e85"},{"reference":"Procedure/fde0c32d-3ade-45b7-b308-5716dde68f34"},{"reference":"Coverage/e0375067-78e3-4616-aa45-364200499188"},{"reference":"Organization/4dc6744d-7e5a-4f55-ab77-3023f8ed2938"}]},"request":{"method":"PUT","url":"MeasureReport/4c40f01d-8702-4881-bb2e-767666199fa7"}},{"fullUrl":"Patient/179ed91e-44b7-4be7-a720-b7b09fcbb4d3","resource":{"resourceType":"Patient","id":"179ed91e-44b7-4be7-a720-b7b09fcbb4d3","meta":{"profile":["http://hl7.org/fhir/us/qicore/StructureDefinition/qicore-patient"]},"extension":[{"url":"http://hl7.org/fhir/us/core/StructureDefinition/us-core-race","extension":[{"url":"ombCategory","valueCoding":{"system":"urn:oid:2.16.840.1.113883.6.238","code":"2106-3","display":"White","userSelected":true}},{"url":"text","valueString":"White"}]},{"url":"http://hl7.org/fhir/us/core/StructureDefinition/us-core-ethnicity","extension":[{"url":"ombCategory","valueCoding":{"system":"urn:oid:2.16.840.1.113883.6.238","code":"2186-5","display":"Not Hispanic or Latino","userSelected":true}},{"url":"text","valueString":"Not Hispanic or Latino"}]},{"url":"http://hl7.org/fhir/us/core/StructureDefinition/us-core-sex","valueCode":"248153007"}],"identifier":[{"type":{"coding":[{"system":"http://terminology.hl7.org/CodeSystem/v2-0203","code":"MR"}]},"system":"https://madie.cms.gov/","value":"Not18"}],"active":true,"name":[{"use":"usual","text":"Not18","family":"IPPFAIL","given":["Not18"]}],"gender":"male","birthDate":"2009-02-02","address":[{"text":"Not18, Screened Not at risk Assessed Severely Malnourished Diagnosed Care Plan, ID=Not18, DOB: 02 Feb 2009"}]},"request":{"method":"PUT","url":"Patient/179ed91e-44b7-4be7-a720-b7b09fcbb4d3"}},{"fullUrl":"Condition/f57aebd2-c3f8-43a8-98a6-134811dfecbd","resource":{"resourceType":"Condition","id":"f57aebd2-c3f8-43a8-98a6-134811dfecbd","meta":{"profile":["http://hl7.org/fhir/us/qicore/StructureDefinition/qicore-condition-encounter-diagnosis"]},"clinicalStatus":{"coding":[{"system":"http://terminology.hl7.org/CodeSystem/condition-clinical","code":"active","display":"Active","userSelected":true}]},"verificationStatus":{"coding":[{"system":"http://terminology.hl7.org/CodeSystem/condition-ver-status","code":"confirmed","display":"Confirmed","userSelected":true}]},"category":[{"coding":[{"system":"http://terminology.hl7.org/CodeSystem/condition-category","code":"encounter-diagnosis","display":"Encounter Diagnosis","userSelected":true}]}],"code":{"coding":[{"system":"http://snomed.info/sct","code":"190606006","display":"Moderate protein energy malnutrition (disorder)","userSelected":true}]},"subject":{"reference":"Patient/179ed91e-44b7-4be7-a720-b7b09fcbb4d3"},"onsetPeriod":{"start":"2026-02-01T08:00:00.000+00:00"},"recordedDate":"2026-02-01T11:00:00.000+00:00"},"request":{"method":"PUT","url":"Condition/f57aebd2-c3f8-43a8-98a6-134811dfecbd"}},{"fullUrl":"Procedure/fde0c32d-3ade-45b7-b308-5716dde68f34","resource":{"resourceType":"Procedure","id":"fde0c32d-3ade-45b7-b308-5716dde68f34","meta":{"profile":["http://hl7.org/fhir/us/qicore/StructureDefinition/qicore-procedure"]},"extension":[{"url":"http://hl7.org/fhir/us/qicore/StructureDefinition/qicore-recorded","valueDateTime":"2026-02-02T11:30:00.000+00:00"}],"status":"completed","code":{"coding":[{"system":"http://snomed.info/sct","code":"1279742004","display":"Development of nutrition care plan (procedure)"}],"text":"Development of nutrition care plan (procedure)"},"subject":{"reference":"Patient/179ed91e-44b7-4be7-a720-b7b09fcbb4d3"},"encounter":{"reference":"Encounter/Not18IPPFAIL"},"performedPeriod":{"start":"2026-02-01T11:30:00.000+00:00","end":"2026-02-07T08:15:00.000+00:00"}},"request":{"method":"PUT","url":"Procedure/fde0c32d-3ade-45b7-b308-5716dde68f34"}},{"fullUrl":"Observation/7dd46bbe-addd-4f28-8261-a160af827107","resource":{"resourceType":"Observation","id":"7dd46bbe-addd-4f28-8261-a160af827107","meta":{"profile":["http://hl7.org/fhir/us/qicore/StructureDefinition/qicore-observation-screening-assessment"]},"status":"final","category":[{"coding":[{"system":"http://terminology.hl7.org/CodeSystem/observation-category","code":"survey","display":"Survey"}]}],"code":{"coding":[{"system":"http://loinc.org","code":"75282-4","display":"Nutrition assessment panel","userSelected":true}]},"subject":{"reference":"Patient/179ed91e-44b7-4be7-a720-b7b09fcbb4d3"},"effectiveDateTime":"2026-02-01T10:00:00.000+00:00","valueCodeableConcept":{"coding":[{"system":"http://snomed.info/sct","code":"102635008","display":"Acute nutritional deficiency (finding)","userSelected":true}]}},"request":{"method":"PUT","url":"Observation/7dd46bbe-addd-4f28-8261-a160af827107"}},{"fullUrl":"Observation/e43666e6-97ce-444f-af46-269d6dc0e5a8","resource":{"resourceType":"Observation","id":"e43666e6-97ce-444f-af46-269d6dc0e5a8","meta":{"profile":["http://hl7.org/fhir/us/qicore/StructureDefinition/qicore-observation-screening-assessment"]},"status":"final","category":[{"coding":[{"system":"http://terminology.hl7.org/CodeSystem/observation-category","code":"survey","display":"Survey"}]}],"code":{"coding":[{"system":"http://loinc.org","code":"98967-3","display":"Nutritional Risk Screening 2002 panel","userSelected":true}]},"subject":{"reference":"Patient/179ed91e-44b7-4be7-a720-b7b09fcbb4d3"},"effectiveDateTime":"2026-02-01T09:00:00.000+00:00","valueCodeableConcept":{"coding":[{"system":"http://snomed.info/sct","code":"129689002","display":"At increased risk for nutritional problem (finding)","userSelected":true}]}},"request":{"method":"PUT","url":"Observation/e43666e6-97ce-444f-af46-269d6dc0e5a8"}},{"fullUrl":"Coverage/e0375067-78e3-4616-aa45-364200499188","resource":{"resourceType":"Coverage","id":"e0375067-78e3-4616-aa45-364200499188","meta":{"profile":["http://hl7.org/fhir/us/qicore/StructureDefinition/qicore-coverage"]},"status":"active","type":{"coding":[{"system":"https://nahdo.org/sopt","version":"9.2","code":"11","display":"Medicare Managed Care (Includes Medicare Advantage Plans)"}]},"subscriberId":"97531","beneficiary":{"reference":"Patient/179ed91e-44b7-4be7-a720-b7b09fcbb4d3"},"dependent":"0","relationship":{"coding":[{"system":"http://terminology.hl7.org/CodeSystem/subscriber-relationship","code":"self"}]},"period":{"start":"2024-10-01T00:00:00.000+00:00"},"payor":[{"reference":"Organization/4dc6744d-7e5a-4f55-ab77-3023f8ed2938"}]},"request":{"method":"PUT","url":"Coverage/e0375067-78e3-4616-aa45-364200499188"}},{"fullUrl":"Encounter/ba324f11-846f-41a3-99e0-8b01e0120772","resource":{"resourceType":"Encounter","id":"ba324f11-846f-41a3-99e0-8b01e0120772","meta":{"profile":["http://hl7.org/fhir/us/qicore/StructureDefinition/qicore-encounter"]},"status":"finished","class":{"system":"http://terminology.hl7.org/CodeSystem/v3-ActCode","code":"IMP","display":"inpatient encounter"},"type":[{"coding":[{"system":"http://snomed.info/sct","code":"183452005"}]}],"subject":{"reference":"Patient/179ed91e-44b7-4be7-a720-b7b09fcbb4d3"},"period":{"start":"2026-02-01T08:00:00.000+00:00","end":"2026-02-07T08:15:00.000+00:00"}},"request":{"method":"PUT","url":"Encounter/ba324f11-846f-41a3-99e0-8b01e0120772"}},{"fullUrl":"Bundle/Not18","resource":{"resourceType":"Bundle","id":"Not18","type":"transaction","entry":[{"fullUrl":"https://madie.cms.gov/Patient/179ed91e-44b7-4be7-a720-b7b09fcbb4d3","resource":{"resourceType":"Patient","id":"179ed91e-44b7-4be7-a720-b7b09fcbb4d3","meta":{"profile":["http://hl7.org/fhir/us/qicore/StructureDefinition/qicore-patient"]},"extension":[{"url":"http://hl7.org/fhir/us/core/StructureDefinition/us-core-race","extension":[{"url":"ombCategory","valueCoding":{"system":"urn:oid:2.16.840.1.113883.6.238","code":"2106-3","display":"White","userSelected":true}},{"url":"text","valueString":"White"}]},{"url":"http://hl7.org/fhir/us/core/StructureDefinition/us-core-ethnicity","extension":[{"url":"ombCategory","valueCoding":{"system":"urn:oid:2.16.840.1.113883.6.238","code":"2186-5","display":"Not Hispanic or Latino","userSelected":true}},{"url":"text","valueString":"Not Hispanic or Latino"}]},{"url":"http://hl7.org/fhir/us/core/StructureDefinition/us-core-sex","valueCode":"248153007"}],"identifier":[{"type":{"coding":[{"system":"http://terminology.hl7.org/CodeSystem/v2-0203","code":"MR"}]},"system":"https://madie.cms.gov/","value":"Not18"}],"active":true,"name":[{"use":"usual","text":"Not18","family":"IPPFAIL","given":["Not18"]}],"gender":"male","birthDate":"2009-02-02","address":[{"text":"Not18, Screened Not at risk Assessed Severely Malnourished Diagnosed Care Plan, ID=Not18, DOB: 02 Feb 2009"}]},"request":{"method":"PUT","url":"Patient/179ed91e-44b7-4be7-a720-b7b09fcbb4d3"}},{"fullUrl":"https://madie.cms.gov/Encounter/ba324f11-846f-41a3-99e0-8b01e0120772","resource":{"resourceType":"Encounter","id":"ba324f11-846f-41a3-99e0-8b01e0120772","meta":{"profile":["http://hl7.org/fhir/us/qicore/StructureDefinition/qicore-encounter"]},"status":"finished","class":{"system":"http://terminology.hl7.org/CodeSystem/v3-ActCode","code":"IMP","display":"inpatient encounter"},"type":[{"coding":[{"system":"http://snomed.info/sct","code":"183452005"}]}],"subject":{"reference":"Patient/179ed91e-44b7-4be7-a720-b7b09fcbb4d3"},"period":{"start":"2026-02-01T08:00:00.000+00:00","end":"2026-02-07T08:15:00.000+00:00"}},"request":{"method":"PUT","url":"Encounter/ba324f11-846f-41a3-99e0-8b01e0120772"}},{"fullUrl":"https://madie.cms.gov/Condition/f57aebd2-c3f8-43a8-98a6-134811dfecbd","resource":{"resourceType":"Condition","id":"f57aebd2-c3f8-43a8-98a6-134811dfecbd","meta":{"profile":["http://hl7.org/fhir/us/qicore/StructureDefinition/qicore-condition-encounter-diagnosis"]},"clinicalStatus":{"coding":[{"system":"http://terminology.hl7.org/CodeSystem/condition-clinical","code":"active","display":"Active","userSelected":true}]},"verificationStatus":{"coding":[{"system":"http://terminology.hl7.org/CodeSystem/condition-ver-status","code":"confirmed","display":"Confirmed","userSelected":true}]},"category":[{"coding":[{"system":"http://terminology.hl7.org/CodeSystem/condition-category","code":"encounter-diagnosis","display":"Encounter Diagnosis","userSelected":true}]}],"code":{"coding":[{"system":"http://snomed.info/sct","code":"190606006","display":"Moderate protein energy malnutrition (disorder)","userSelected":true}]},"subject":{"reference":"Patient/179ed91e-44b7-4be7-a720-b7b09fcbb4d3"},"onsetPeriod":{"start":"2026-02-01T08:00:00.000+00:00"},"recordedDate":"2026-02-01T11:00:00.000+00:00"},"request":{"method":"PUT","url":"Condition/f57aebd2-c3f8-43a8-98a6-134811dfecbd"}},{"fullUrl":"https://madie.cms.gov/Observation/e43666e6-97ce-444f-af46-269d6dc0e5a8","resource":{"resourceType":"Observation","id":"e43666e6-97ce-444f-af46-269d6dc0e5a8","meta":{"profile":["http://hl7.org/fhir/us/qicore/StructureDefinition/qicore-observation-screening-assessment"]},"status":"final","category":[{"coding":[{"system":"http://terminology.hl7.org/CodeSystem/observation-category","code":"survey","display":"Survey"}]}],"code":{"coding":[{"system":"http://loinc.org","code":"98967-3","display":"Nutritional Risk Screening 2002 panel","userSelected":true}]},"subject":{"reference":"Patient/179ed91e-44b7-4be7-a720-b7b09fcbb4d3"},"effectiveDateTime":"2026-02-01T09:00:00.000+00:00","valueCodeableConcept":{"coding":[{"system":"http://snomed.info/sct","code":"129689002","display":"At increased risk for nutritional problem (finding)","userSelected":true}]}},"request":{"method":"PUT","url":"Observation/e43666e6-97ce-444f-af46-269d6dc0e5a8"}},{"fullUrl":"https://madie.cms.gov/Observation/7dd46bbe-addd-4f28-8261-a160af827107","resource":{"resourceType":"Observation","id":"7dd46bbe-addd-4f28-8261-a160af827107","meta":{"profile":["http://hl7.org/fhir/us/qicore/StructureDefinition/qicore-observation-screening-assessment"]},"status":"final","category":[{"coding":[{"system":"http://terminology.hl7.org/CodeSystem/observation-category","code":"survey","display":"Survey"}]}],"code":{"coding":[{"system":"http://loinc.org","code":"75282-4","display":"Nutrition assessment panel","userSelected":true}]},"subject":{"reference":"Patient/179ed91e-44b7-4be7-a720-b7b09fcbb4d3"},"effectiveDateTime":"2026-02-01T10:00:00.000+00:00","valueCodeableConcept":{"coding":[{"system":"http://snomed.info/sct","code":"102635008","display":"Acute nutritional deficiency (finding)","userSelected":true}]}},"request":{"method":"PUT","url":"Observation/7dd46bbe-addd-4f28-8261-a160af827107"}},{"fullUrl":"https://madie.cms.gov/Procedure/8aaa0705-96bd-4f68-9458-acb972292e85","resource":{"resourceType":"Procedure","id":"8aaa0705-96bd-4f68-9458-acb972292e85","meta":{"profile":["http://hl7.org/fhir/us/qicore/StructureDefinition/qicore-procedure"]},"extension":[{"url":"http://hl7.org/fhir/us/qicore/StructureDefinition/qicore-recorded","valueDateTime":"2025-02-01T11:30:00.000+00:00"}],"status":"completed","code":{"coding":[{"system":"http://snomed.info/sct","code":"306165000","display":"Referral to hospital-based dietetics service (procedure)"}],"text":"Referral to hospital-based dietetics service (procedure)"},"subject":{"reference":"Patient/179ed91e-44b7-4be7-a720-b7b09fcbb4d3"},"encounter":{"reference":"Encounter/Not18IPPFAIL"},"performedPeriod":{"start":"2026-02-01T11:30:00.000+00:00","end":"2026-02-07T08:15:00.000+00:00"}},"request":{"method":"PUT","url":"Procedure/8aaa0705-96bd-4f68-9458-acb972292e85"}},{"fullUrl":"https://madie.cms.gov/Procedure/fde0c32d-3ade-45b7-b308-5716dde68f34","resource":{"resourceType":"Procedure","id":"fde0c32d-3ade-45b7-b308-5716dde68f34","meta":{"profile":["http://hl7.org/fhir/us/qicore/StructureDefinition/qicore-procedure"]},"extension":[{"url":"http://hl7.org/fhir/us/qicore/StructureDefinition/qicore-recorded","valueDateTime":"2026-02-02T11:30:00.000+00:00"}],"status":"completed","code":{"coding":[{"system":"http://snomed.info/sct","code":"1279742004","display":"Development of nutrition care plan (procedure)"}],"text":"Development of nutrition care plan (procedure)"},"subject":{"reference":"Patient/179ed91e-44b7-4be7-a720-b7b09fcbb4d3"},"encounter":{"reference":"Encounter/Not18IPPFAIL"},"performedPeriod":{"start":"2026-02-01T11:30:00.000+00:00","end":"2026-02-07T08:15:00.000+00:00"}},"request":{"method":"PUT","url":"Procedure/fde0c32d-3ade-45b7-b308-5716dde68f34"}},{"fullUrl":"https://madie.cms.gov/Coverage/e0375067-78e3-4616-aa45-364200499188","resource":{"resourceType":"Coverage","id":"e0375067-78e3-4616-aa45-364200499188","meta":{"profile":["http://hl7.org/fhir/us/qicore/StructureDefinition/qicore-coverage"]},"status":"active","type":{"coding":[{"system":"https://nahdo.org/sopt","version":"9.2","code":"11","display":"Medicare Managed Care (Includes Medicare Advantage Plans)"}]},"subscriberId":"97531","beneficiary":{"reference":"Patient/179ed91e-44b7-4be7-a720-b7b09fcbb4d3"},"dependent":"0","relationship":{"coding":[{"system":"http://terminology.hl7.org/CodeSystem/subscriber-relationship","code":"self"}]},"period":{"start":"2024-10-01T00:00:00.000+00:00"},"payor":[{"reference":"Organization/4dc6744d-7e5a-4f55-ab77-3023f8ed2938"}]},"request":{"method":"PUT","url":"Coverage/e0375067-78e3-4616-aa45-364200499188"}},{"fullUrl":"https://madie.cms.gov/Organization/4dc6744d-7e5a-4f55-ab77-3023f8ed2938","resource":{"resourceType":"Organization","id":"4dc6744d-7e5a-4f55-ab77-3023f8ed2938","meta":{"profile":["http://hl7.org/fhir/us/qicore/StructureDefinition/qicore-organization"]},"identifier":[{"use":"temp","system":"urn:oid:2.16.840.1.113883.4.4","value":"21-3259825"}],"active":true,"type":[{"coding":[{"system":"http://terminology.hl7.org/CodeSystem/organization-type","code":"pay","display":"Payer"}]}],"name":"Blue Cross Blue Shield of Texas","telecom":[{"system":"phone","value":"(+1) 972-766-6900"}],"address":[{"use":"billing","type":"postal","line":["P.O. Box 660044"],"city":"Dallas","state":"TX","postalCode":"75266-0044","country":"USA"}]},"request":{"method":"PUT","url":"Organization/4dc6744d-7e5a-4f55-ab77-3023f8ed2938"}},{"fullUrl":"https://madie.cms.gov/MeasureReport/4c40f01d-8702-4881-bb2e-767666199fa7","resource":{"resourceType":"MeasureReport","id":"4c40f01d-8702-4881-bb2e-767666199fa7","meta":{"profile":["http://hl7.org/fhir/us/cqfmeasures/StructureDefinition/test-case-cqfm"]},"contained":[{"resourceType":"Parameters","id":"66cbbdc9-6cfb-451e-8436-aa609e93e7aa-parameters","parameter":[{"name":"subject","valueString":"179ed91e-44b7-4be7-a720-b7b09fcbb4d3"}]}],"extension":[{"url":"http://hl7.org/fhir/StructureDefinition/cqf-inputParameters","valueReference":{"reference":"#66cbbdc9-6cfb-451e-8436-aa609e93e7aa-parameters"}},{"url":"http://hl7.org/fhir/us/cqfmeasures/StructureDefinition/cqfm-testCaseDescription","valueMarkdown":"Patient is not 18, fails IPP"}],"modifierExtension":[{"url":"http://hl7.org/fhir/us/cqfmeasures/StructureDefinition/cqfm-isTestCase","valueBoolean":true}],"status":"complete","type":"individual","measure":"https://madie.cms.gov/Measure/CMS986FHIRMalnutritionScore","period":{"start":"2026-01-01","end":"2026-12-31"},"group":[{"id":"Group_1","population":[{"id":"InitialPopulation_1","code":{"coding":[{"system":"http://terminology.hl7.org/CodeSystem/measure-population","code":"initial-population","display":"Initial Population"}]},"count":0},{"id":"MeasurePopulation_1","code":{"coding":[{"system":"http://terminology.hl7.org/CodeSystem/measure-population","code":"measure-population","display":"Measure Population"}]},"count":0},{"id":"MeasurePopulationExclusion_1","code":{"coding":[{"system":"http://terminology.hl7.org/CodeSystem/measure-population","code":"measure-population-exclusion","display":"Measure Population Exclusion"}]},"count":0}],"measureScore":{"value":0.0}},{"id":"Group_2","population":[{"id":"InitialPopulation_2","code":{"coding":[{"system":"http://terminology.hl7.org/CodeSystem/measure-population","code":"initial-population","display":"Initial Population"}]},"count":0},{"id":"MeasurePopulation_2","code":{"coding":[{"system":"http://terminology.hl7.org/CodeSystem/measure-population","code":"measure-population","display":"Measure Population"}]},"count":0},{"id":"MeasurePopulationExclusion_2","code":{"coding":[{"system":"http://terminology.hl7.org/CodeSystem/measure-population","code":"measure-population-exclusion","display":"Measure Population Exclusion"}]},"count":0}],"measureScore":{"value":0.0}},{"id":"Group_3","population":[{"id":"InitialPopulation_3","code":{"coding":[{"system":"http://terminology.hl7.org/CodeSystem/measure-population","code":"initial-population","display":"Initial Population"}]},"count":0},{"id":"MeasurePopulation_3","code":{"coding":[{"system":"http://terminology.hl7.org/CodeSystem/measure-population","code":"measure-population","display":"Measure Population"}]},"count":0},{"id":"MeasurePopulationExclusion_3","code":{"coding":[{"system":"http://terminology.hl7.org/CodeSystem/measure-population","code":"measure-population-exclusion","display":"Measure Population Exclusion"}]},"count":0}],"measureScore":{"value":0.0}},{"id":"Group_4","population":[{"id":"InitialPopulation_4","code":{"coding":[{"system":"http://terminology.hl7.org/CodeSystem/measure-population","code":"initial-population","display":"Initial Population"}]},"count":0},{"id":"MeasurePopulation_4","code":{"coding":[{"system":"http://terminology.hl7.org/CodeSystem/measure-population","code":"measure-population","display":"Measure Population"}]},"count":0},{"id":"MeasurePopulationExclusion_4","code":{"coding":[{"system":"http://terminology.hl7.org/CodeSystem/measure-population","code":"measure-population-exclusion","display":"Measure Population Exclusion"}]},"count":0}],"measureScore":{"value":0.0}},{"id":"Group_5","population":[{"id":"InitialPopulation_5","code":{"coding":[{"system":"http://terminology.hl7.org/CodeSystem/measure-population","code":"initial-population","display":"Initial Population"}]},"count":0},{"id":"MeasurePopulation_5","code":{"coding":[{"system":"http://terminology.hl7.org/CodeSystem/measure-population","code":"measure-population","display":"Measure Population"}]},"count":0},{"id":"MeasurePopulationExclusion_5","code":{"coding":[{"system":"http://terminology.hl7.org/CodeSystem/measure-population","code":"measure-population-exclusion","display":"Measure Population Exclusion"}]},"count":0}],"measureScore":{"value":0.0}},{"id":"Group_6","population":[{"id":"InitialPopulation_6","code":{"coding":[{"system":"http://terminology.hl7.org/CodeSystem/measure-population","code":"initial-population","display":"Initial Population"}]},"count":0},{"id":"MeasurePopulation_6","code":{"coding":[{"system":"http://terminology.hl7.org/CodeSystem/measure-population","code":"measure-population","display":"Measure Population"}]},"count":0},{"id":"MeasurePopulationExclusion_6","code":{"coding":[{"system":"http://terminology.hl7.org/CodeSystem/measure-population","code":"measure-population-exclusion","display":"Measure Population Exclusion"}]},"count":0}],"measureScore":{"value":0.0}}],"evaluatedResource":[{"reference":"Patient/179ed91e-44b7-4be7-a720-b7b09fcbb4d3"},{"reference":"Encounter/ba324f11-846f-41a3-99e0-8b01e0120772"},{"reference":"Condition/f57aebd2-c3f8-43a8-98a6-134811dfecbd"},{"reference":"Observation/e43666e6-97ce-444f-af46-269d6dc0e5a8"},{"reference":"Observation/7dd46bbe-addd-4f28-8261-a160af827107"},{"reference":"Procedure/8aaa0705-96bd-4f68-9458-acb972292e85"},{"reference":"Procedure/fde0c32d-3ade-45b7-b308-5716dde68f34"},{"reference":"Coverage/e0375067-78e3-4616-aa45-364200499188"},{"reference":"Organization/4dc6744d-7e5a-4f55-ab77-3023f8ed2938"}]},"request":{"method":"PUT","url":"MeasureReport/4c40f01d-8702-4881-bb2e-767666199fa7"}}]},"request":{"method":"PUT","url":"Bundle/Not18"}},{"fullUrl":"Procedure/8aaa0705-96bd-4f68-9458-acb972292e85","resource":{"resourceType":"Procedure","id":"8aaa0705-96bd-4f68-9458-acb972292e85","meta":{"profile":["http://hl7.org/fhir/us/qicore/StructureDefinition/qicore-procedure"]},"extension":[{"url":"http://hl7.org/fhir/us/qicore/StructureDefinition/qicore-recorded","valueDateTime":"2025-02-01T11:30:00.000+00:00"}],"status":"completed","code":{"coding":[{"system":"http://snomed.info/sct","code":"306165000","display":"Referral to hospital-based dietetics service (procedure)"}],"text":"Referral to hospital-based dietetics service (procedure)"},"subject":{"reference":"Patient/179ed91e-44b7-4be7-a720-b7b09fcbb4d3"},"encounter":{"reference":"Encounter/Not18IPPFAIL"},"performedPeriod":{"start":"2026-02-01T11:30:00.000+00:00","end":"2026-02-07T08:15:00.000+00:00"}},"request":{"method":"PUT","url":"Procedure/8aaa0705-96bd-4f68-9458-acb972292e85"}}]}