{"resourceType":"Bundle","id":"tests-b3ee3e77-b813-42ac-949a-5d85e3df5002-bundle","type":"transaction","entry":[{"resource":{"resourceType":"Observation","id":"b2d469e4-7cf8-4c41-b531-a5c42629277c","meta":{"profile":["http://hl7.org/fhir/us/qicore/StructureDefinition/qicore-observation-screening-assessment"]},"status":"final","category":[{"coding":[{"system":"http://terminology.hl7.org/CodeSystem/observation-category","code":"survey","display":"Survey"}]}],"code":{"coding":[{"system":"http://loinc.org","code":"75304-6","display":"Nutrition status observation panel","userSelected":true}]},"subject":{"reference":"Patient/b3ee3e77-b813-42ac-949a-5d85e3df5002"},"effectiveDateTime":"2026-04-01T10:00:00.000+00:00","valueCodeableConcept":{"coding":[{"system":"http://snomed.info/sct","code":"722960005","display":"Anorexia nervosa co-occurrent with significantly low body weight","userSelected":true}]}},"request":{"method":"PUT","url":"Observation/b2d469e4-7cf8-4c41-b531-a5c42629277c"}},{"resource":{"resourceType":"Patient","id":"b3ee3e77-b813-42ac-949a-5d85e3df5002","meta":{"profile":["http://hl7.org/fhir/us/qicore/StructureDefinition/qicore-patient"]},"extension":[{"url":"http://hl7.org/fhir/us/core/StructureDefinition/us-core-race","extension":[{"url":"ombCategory","valueCoding":{"system":"urn:oid:2.16.840.1.113883.6.238","code":"2106-3","display":"White","userSelected":true}},{"url":"text","valueString":"White"}]},{"url":"http://hl7.org/fhir/us/core/StructureDefinition/us-core-ethnicity","extension":[{"url":"ombCategory","valueCoding":{"system":"urn:oid:2.16.840.1.113883.6.238","code":"2186-5","display":"Not Hispanic or Latino","userSelected":true}},{"url":"text","valueString":"Not Hispanic or Latino"}]},{"url":"http://hl7.org/fhir/us/core/StructureDefinition/us-core-sex","valueCode":"248152002"}],"identifier":[{"type":{"coding":[{"system":"http://terminology.hl7.org/CodeSystem/v2-0203","code":"MR"}]},"system":"https://madie.cms.gov/","value":"ScreNotatriNorefAsseModNodxCp"}],"active":true,"name":[{"use":"usual","text":"ScreNotatriNorefAsseModNodxCp","family":"MSROBSPass1","given":["ScreNotatriNorefAsseModNodxCp"]}],"gender":"female","birthDate":"1952-02-20","address":[{"text":"ScreNotatriNorefAsseModNodxCp, Screened Not at risk Assessed Severely Malnourished Diagnosed Care Plan, ID=ScreNotatriNorefAsseModNodxCp, DOB: 20 Feb 1952"}]},"request":{"method":"PUT","url":"Patient/b3ee3e77-b813-42ac-949a-5d85e3df5002"}},{"resource":{"resourceType":"Bundle","id":"ScreNotatriNorefAsseModNodxCp","type":"transaction","entry":[{"fullUrl":"https://madie.cms.gov/Patient/b3ee3e77-b813-42ac-949a-5d85e3df5002","resource":{"resourceType":"Patient","id":"b3ee3e77-b813-42ac-949a-5d85e3df5002","meta":{"profile":["http://hl7.org/fhir/us/qicore/StructureDefinition/qicore-patient"]},"extension":[{"url":"http://hl7.org/fhir/us/core/StructureDefinition/us-core-race","extension":[{"url":"ombCategory","valueCoding":{"system":"urn:oid:2.16.840.1.113883.6.238","code":"2106-3","display":"White","userSelected":true}},{"url":"text","valueString":"White"}]},{"url":"http://hl7.org/fhir/us/core/StructureDefinition/us-core-ethnicity","extension":[{"url":"ombCategory","valueCoding":{"system":"urn:oid:2.16.840.1.113883.6.238","code":"2186-5","display":"Not Hispanic or Latino","userSelected":true}},{"url":"text","valueString":"Not Hispanic or Latino"}]},{"url":"http://hl7.org/fhir/us/core/StructureDefinition/us-core-sex","valueCode":"248152002"}],"identifier":[{"type":{"coding":[{"system":"http://terminology.hl7.org/CodeSystem/v2-0203","code":"MR"}]},"system":"https://madie.cms.gov/","value":"ScreNotatriNorefAsseModNodxCp"}],"active":true,"name":[{"use":"usual","text":"ScreNotatriNorefAsseModNodxCp","family":"MSROBSPass1","given":["ScreNotatriNorefAsseModNodxCp"]}],"gender":"female","birthDate":"1952-02-20","address":[{"text":"ScreNotatriNorefAsseModNodxCp, Screened Not at risk Assessed Severely Malnourished Diagnosed Care Plan, ID=ScreNotatriNorefAsseModNodxCp, DOB: 20 Feb 1952"}]},"request":{"method":"PUT","url":"Patient/b3ee3e77-b813-42ac-949a-5d85e3df5002"}},{"fullUrl":"https://madie.cms.gov/Encounter/ef100776-eda6-4788-8454-d736eb7e59e9","resource":{"resourceType":"Encounter","id":"ef100776-eda6-4788-8454-d736eb7e59e9","meta":{"profile":["http://hl7.org/fhir/us/qicore/StructureDefinition/qicore-encounter"]},"status":"finished","class":{"system":"http://terminology.hl7.org/CodeSystem/v3-ActCode","code":"IMP","display":"inpatient encounter"},"type":[{"coding":[{"system":"http://snomed.info/sct","code":"183452005"}]}],"subject":{"reference":"Patient/b3ee3e77-b813-42ac-949a-5d85e3df5002"},"period":{"start":"2026-04-01T08:00:00.000+00:00","end":"2026-04-03T08:15:00.000+00:00"}},"request":{"method":"PUT","url":"Encounter/ef100776-eda6-4788-8454-d736eb7e59e9"}},{"fullUrl":"https://madie.cms.gov/Observation/31893c83-7b45-48ef-b664-533b6d7a452b","resource":{"resourceType":"Observation","id":"31893c83-7b45-48ef-b664-533b6d7a452b","meta":{"profile":["http://hl7.org/fhir/us/qicore/StructureDefinition/qicore-observation-screening-assessment"]},"status":"final","category":[{"coding":[{"system":"http://terminology.hl7.org/CodeSystem/observation-category","code":"survey","display":"Survey"}]}],"code":{"coding":[{"system":"http://loinc.org","code":"98972-3","display":"Final screening NRS_2002","userSelected":true}]},"subject":{"reference":"Patient/b3ee3e77-b813-42ac-949a-5d85e3df5002"},"effectiveDateTime":"2026-04-01T09:00:00.000+00:00","valueCodeableConcept":{"coding":[{"system":"http://loinc.org","code":"LA33699-2","display":"Not at risk for malnutrition","userSelected":true}]}},"request":{"method":"PUT","url":"Observation/31893c83-7b45-48ef-b664-533b6d7a452b"}},{"fullUrl":"https://madie.cms.gov/Observation/b2d469e4-7cf8-4c41-b531-a5c42629277c","resource":{"resourceType":"Observation","id":"b2d469e4-7cf8-4c41-b531-a5c42629277c","meta":{"profile":["http://hl7.org/fhir/us/qicore/StructureDefinition/qicore-observation-screening-assessment"]},"status":"final","category":[{"coding":[{"system":"http://terminology.hl7.org/CodeSystem/observation-category","code":"survey","display":"Survey"}]}],"code":{"coding":[{"system":"http://loinc.org","code":"75304-6","display":"Nutrition status observation panel","userSelected":true}]},"subject":{"reference":"Patient/b3ee3e77-b813-42ac-949a-5d85e3df5002"},"effectiveDateTime":"2026-04-01T10:00:00.000+00:00","valueCodeableConcept":{"coding":[{"system":"http://snomed.info/sct","code":"722960005","display":"Anorexia nervosa co-occurrent with significantly low body weight","userSelected":true}]}},"request":{"method":"PUT","url":"Observation/b2d469e4-7cf8-4c41-b531-a5c42629277c"}},{"fullUrl":"https://madie.cms.gov/Procedure/d98fae82-2125-4ae2-84fd-b2f31516bb1a","resource":{"resourceType":"Procedure","id":"d98fae82-2125-4ae2-84fd-b2f31516bb1a","meta":{"profile":["http://hl7.org/fhir/us/qicore/StructureDefinition/qicore-procedure"]},"extension":[{"url":"http://hl7.org/fhir/us/qicore/StructureDefinition/qicore-recorded","valueDateTime":"2026-04-02T11:30:00.000+00:00"}],"status":"completed","code":{"coding":[{"system":"http://snomed.info/sct","code":"410172000","display":"Nutrition care management (procedure)"}],"text":"Nutrition care management (procedure)"},"subject":{"reference":"Patient/b3ee3e77-b813-42ac-949a-5d85e3df5002"},"encounter":{"reference":"Encounter/ScreNotatriNorefAsseModNodxCpMSROBSPass1"},"performedPeriod":{"start":"2026-04-01T11:30:00.000+00:00","end":"2026-04-03T08:15:00.000+00:00"}},"request":{"method":"PUT","url":"Procedure/d98fae82-2125-4ae2-84fd-b2f31516bb1a"}},{"fullUrl":"https://madie.cms.gov/Coverage/46561ad3-9730-4af2-9644-79b0fb926d68","resource":{"resourceType":"Coverage","id":"46561ad3-9730-4af2-9644-79b0fb926d68","meta":{"profile":["http://hl7.org/fhir/us/qicore/StructureDefinition/qicore-coverage"]},"status":"active","type":{"coding":[{"system":"https://nahdo.org/sopt","version":"9.2","code":"11","display":"Medicare Managed Care (Includes Medicare Advantage Plans)"}]},"subscriberId":"97531","beneficiary":{"reference":"Patient/b3ee3e77-b813-42ac-949a-5d85e3df5002"},"dependent":"0","relationship":{"coding":[{"system":"http://terminology.hl7.org/CodeSystem/subscriber-relationship","code":"self"}]},"period":{"start":"2026-10-01T00:00:00.000+00:00"},"payor":[{"reference":"Organization/d9f8dfcc-c904-4922-86a4-3136a4d4e2f4"}]},"request":{"method":"PUT","url":"Coverage/46561ad3-9730-4af2-9644-79b0fb926d68"}},{"fullUrl":"https://madie.cms.gov/Organization/d9f8dfcc-c904-4922-86a4-3136a4d4e2f4","resource":{"resourceType":"Organization","id":"d9f8dfcc-c904-4922-86a4-3136a4d4e2f4","meta":{"profile":["http://hl7.org/fhir/us/qicore/StructureDefinition/qicore-organization"]},"identifier":[{"use":"temp","system":"urn:oid:2.16.840.1.113883.4.4","value":"21-3259825"}],"active":true,"type":[{"coding":[{"system":"http://terminology.hl7.org/CodeSystem/organization-type","code":"pay","display":"Payer"}]}],"name":"Blue Cross Blue Shield of Texas","telecom":[{"system":"phone","value":"(+1) 972-766-6900"}],"address":[{"use":"billing","type":"postal","line":["P.O. Box 660044"],"city":"Dallas","state":"TX","postalCode":"75266-0044","country":"USA"}]},"request":{"method":"PUT","url":"Organization/d9f8dfcc-c904-4922-86a4-3136a4d4e2f4"}},{"fullUrl":"https://madie.cms.gov/MeasureReport/83fc1dbc-51ea-4f00-b45f-a6428e7f98bf","resource":{"resourceType":"MeasureReport","id":"83fc1dbc-51ea-4f00-b45f-a6428e7f98bf","meta":{"profile":["http://hl7.org/fhir/us/cqfmeasures/StructureDefinition/test-case-cqfm"]},"contained":[{"resourceType":"Parameters","id":"d958b3a9-52b7-46b3-bad8-66797a6cb245-parameters","parameter":[{"name":"subject","valueString":"b3ee3e77-b813-42ac-949a-5d85e3df5002"}]}],"extension":[{"url":"http://hl7.org/fhir/StructureDefinition/cqf-inputParameters","valueReference":{"reference":"#d958b3a9-52b7-46b3-bad8-66797a6cb245-parameters"}},{"url":"http://hl7.org/fhir/us/cqfmeasures/StructureDefinition/cqfm-testCaseDescription","valueMarkdown":"Screened, Not at Risk, No Referral, Assessment, Severe Malnutrition, No Diagnosis, Care Plan"}],"modifierExtension":[{"url":"http://hl7.org/fhir/us/cqfmeasures/StructureDefinition/cqfm-isTestCase","valueBoolean":true}],"status":"complete","type":"individual","measure":"https://madie.cms.gov/Measure/CMS986FHIRMalnutritionScore","period":{"start":"2026-01-01","end":"2026-12-31"},"group":[{"id":"Group_1","population":[{"id":"InitialPopulation_1","code":{"coding":[{"system":"http://terminology.hl7.org/CodeSystem/measure-population","code":"initial-population","display":"Initial Population"}]},"count":1},{"id":"MeasurePopulation_1","code":{"coding":[{"system":"http://terminology.hl7.org/CodeSystem/measure-population","code":"measure-population","display":"Measure Population"}]},"count":1},{"id":"MeasurePopulationExclusion_1","code":{"coding":[{"system":"http://terminology.hl7.org/CodeSystem/measure-population","code":"measure-population-exclusion","display":"Measure Population Exclusion"}]},"count":0},{"id":"MeasureObservation_1_1","code":{"coding":[{"system":"http://terminology.hl7.org/CodeSystem/measure-population","code":"measure-population-observation","display":"Measure Population Observation"}]},"count":1}],"measureScore":{"value":0.0}},{"id":"Group_2","population":[{"id":"InitialPopulation_2","code":{"coding":[{"system":"http://terminology.hl7.org/CodeSystem/measure-population","code":"initial-population","display":"Initial Population"}]},"count":1},{"id":"MeasurePopulation_2","code":{"coding":[{"system":"http://terminology.hl7.org/CodeSystem/measure-population","code":"measure-population","display":"Measure Population"}]},"count":1},{"id":"MeasurePopulationExclusion_2","code":{"coding":[{"system":"http://terminology.hl7.org/CodeSystem/measure-population","code":"measure-population-exclusion","display":"Measure Population Exclusion"}]},"count":0},{"id":"MeasureObservation_2_1","code":{"coding":[{"system":"http://terminology.hl7.org/CodeSystem/measure-population","code":"measure-population-observation","display":"Measure Population Observation"}]},"count":0}],"measureScore":{"value":0.0}},{"id":"Group_3","population":[{"id":"InitialPopulation_3","code":{"coding":[{"system":"http://terminology.hl7.org/CodeSystem/measure-population","code":"initial-population","display":"Initial Population"}]},"count":1},{"id":"MeasurePopulation_3","code":{"coding":[{"system":"http://terminology.hl7.org/CodeSystem/measure-population","code":"measure-population","display":"Measure Population"}]},"count":1},{"id":"MeasurePopulationExclusion_3","code":{"coding":[{"system":"http://terminology.hl7.org/CodeSystem/measure-population","code":"measure-population-exclusion","display":"Measure Population Exclusion"}]},"count":0},{"id":"MeasureObservation_3_1","code":{"coding":[{"system":"http://terminology.hl7.org/CodeSystem/measure-population","code":"measure-population-observation","display":"Measure Population Observation"}]},"count":0}],"measureScore":{"value":0.0}},{"id":"Group_4","population":[{"id":"InitialPopulation_4","code":{"coding":[{"system":"http://terminology.hl7.org/CodeSystem/measure-population","code":"initial-population","display":"Initial Population"}]},"count":1},{"id":"MeasurePopulation_4","code":{"coding":[{"system":"http://terminology.hl7.org/CodeSystem/measure-population","code":"measure-population","display":"Measure Population"}]},"count":1},{"id":"MeasurePopulationExclusion_4","code":{"coding":[{"system":"http://terminology.hl7.org/CodeSystem/measure-population","code":"measure-population-exclusion","display":"Measure Population Exclusion"}]},"count":0},{"id":"MeasureObservation_4_1","code":{"coding":[{"system":"http://terminology.hl7.org/CodeSystem/measure-population","code":"measure-population-observation","display":"Measure Population Observation"}]},"count":0}],"measureScore":{"value":0.0}},{"id":"Group_5","population":[{"id":"InitialPopulation_5","code":{"coding":[{"system":"http://terminology.hl7.org/CodeSystem/measure-population","code":"initial-population","display":"Initial Population"}]},"count":1},{"id":"MeasurePopulation_5","code":{"coding":[{"system":"http://terminology.hl7.org/CodeSystem/measure-population","code":"measure-population","display":"Measure Population"}]},"count":1},{"id":"MeasurePopulationExclusion_5","code":{"coding":[{"system":"http://terminology.hl7.org/CodeSystem/measure-population","code":"measure-population-exclusion","display":"Measure Population Exclusion"}]},"count":0},{"id":"MeasureObservation_5_1","code":{"coding":[{"system":"http://terminology.hl7.org/CodeSystem/measure-population","code":"measure-population-observation","display":"Measure Population Observation"}]},"count":1}],"measureScore":{"value":0.0}},{"id":"Group_6","population":[{"id":"InitialPopulation_6","code":{"coding":[{"system":"http://terminology.hl7.org/CodeSystem/measure-population","code":"initial-population","display":"Initial Population"}]},"count":1},{"id":"MeasurePopulation_6","code":{"coding":[{"system":"http://terminology.hl7.org/CodeSystem/measure-population","code":"measure-population","display":"Measure Population"}]},"count":1},{"id":"MeasurePopulationExclusion_6","code":{"coding":[{"system":"http://terminology.hl7.org/CodeSystem/measure-population","code":"measure-population-exclusion","display":"Measure Population Exclusion"}]},"count":0},{"id":"MeasureObservation_6_1","code":{"coding":[{"system":"http://terminology.hl7.org/CodeSystem/measure-population","code":"measure-population-observation","display":"Measure Population Observation"}]},"count":100}],"measureScore":{"value":0.0}}],"evaluatedResource":[{"reference":"Patient/b3ee3e77-b813-42ac-949a-5d85e3df5002"},{"reference":"Encounter/ef100776-eda6-4788-8454-d736eb7e59e9"},{"reference":"Observation/31893c83-7b45-48ef-b664-533b6d7a452b"},{"reference":"Observation/b2d469e4-7cf8-4c41-b531-a5c42629277c"},{"reference":"Procedure/d98fae82-2125-4ae2-84fd-b2f31516bb1a"},{"reference":"Coverage/46561ad3-9730-4af2-9644-79b0fb926d68"},{"reference":"Organization/d9f8dfcc-c904-4922-86a4-3136a4d4e2f4"}]},"request":{"method":"PUT","url":"MeasureReport/83fc1dbc-51ea-4f00-b45f-a6428e7f98bf"}}]},"request":{"method":"PUT","url":"Bundle/ScreNotatriNorefAsseModNodxCp"}},{"resource":{"resourceType":"Organization","id":"d9f8dfcc-c904-4922-86a4-3136a4d4e2f4","meta":{"profile":["http://hl7.org/fhir/us/qicore/StructureDefinition/qicore-organization"]},"identifier":[{"use":"temp","system":"urn:oid:2.16.840.1.113883.4.4","value":"21-3259825"}],"active":true,"type":[{"coding":[{"system":"http://terminology.hl7.org/CodeSystem/organization-type","code":"pay","display":"Payer"}]}],"name":"Blue Cross Blue Shield of Texas","telecom":[{"system":"phone","value":"(+1) 972-766-6900"}],"address":[{"use":"billing","type":"postal","line":["P.O. Box 660044"],"city":"Dallas","state":"TX","postalCode":"75266-0044","country":"USA"}]},"request":{"method":"PUT","url":"Organization/d9f8dfcc-c904-4922-86a4-3136a4d4e2f4"}},{"resource":{"resourceType":"MeasureReport","id":"83fc1dbc-51ea-4f00-b45f-a6428e7f98bf","meta":{"profile":["http://hl7.org/fhir/us/cqfmeasures/StructureDefinition/test-case-cqfm"]},"contained":[{"resourceType":"Parameters","id":"d958b3a9-52b7-46b3-bad8-66797a6cb245-parameters","parameter":[{"name":"subject","valueString":"b3ee3e77-b813-42ac-949a-5d85e3df5002"}]}],"extension":[{"url":"http://hl7.org/fhir/StructureDefinition/cqf-inputParameters","valueReference":{"reference":"#d958b3a9-52b7-46b3-bad8-66797a6cb245-parameters"}},{"url":"http://hl7.org/fhir/us/cqfmeasures/StructureDefinition/cqfm-testCaseDescription","valueMarkdown":"Screened, Not at Risk, No Referral, Assessment, Severe Malnutrition, No Diagnosis, Care Plan"}],"modifierExtension":[{"url":"http://hl7.org/fhir/us/cqfmeasures/StructureDefinition/cqfm-isTestCase","valueBoolean":true}],"status":"complete","type":"individual","measure":"https://madie.cms.gov/Measure/CMS986FHIRMalnutritionScore","period":{"start":"2026-01-01","end":"2026-12-31"},"group":[{"id":"Group_1","population":[{"id":"InitialPopulation_1","code":{"coding":[{"system":"http://terminology.hl7.org/CodeSystem/measure-population","code":"initial-population","display":"Initial Population"}]},"count":1},{"id":"MeasurePopulation_1","code":{"coding":[{"system":"http://terminology.hl7.org/CodeSystem/measure-population","code":"measure-population","display":"Measure Population"}]},"count":1},{"id":"MeasurePopulationExclusion_1","code":{"coding":[{"system":"http://terminology.hl7.org/CodeSystem/measure-population","code":"measure-population-exclusion","display":"Measure Population Exclusion"}]},"count":0},{"id":"MeasureObservation_1_1","code":{"coding":[{"system":"http://terminology.hl7.org/CodeSystem/measure-population","code":"measure-population-observation","display":"Measure Population Observation"}]},"count":1}],"measureScore":{"value":0.0}},{"id":"Group_2","population":[{"id":"InitialPopulation_2","code":{"coding":[{"system":"http://terminology.hl7.org/CodeSystem/measure-population","code":"initial-population","display":"Initial Population"}]},"count":1},{"id":"MeasurePopulation_2","code":{"coding":[{"system":"http://terminology.hl7.org/CodeSystem/measure-population","code":"measure-population","display":"Measure Population"}]},"count":1},{"id":"MeasurePopulationExclusion_2","code":{"coding":[{"system":"http://terminology.hl7.org/CodeSystem/measure-population","code":"measure-population-exclusion","display":"Measure Population Exclusion"}]},"count":0},{"id":"MeasureObservation_2_1","code":{"coding":[{"system":"http://terminology.hl7.org/CodeSystem/measure-population","code":"measure-population-observation","display":"Measure Population Observation"}]},"count":0}],"measureScore":{"value":0.0}},{"id":"Group_3","population":[{"id":"InitialPopulation_3","code":{"coding":[{"system":"http://terminology.hl7.org/CodeSystem/measure-population","code":"initial-population","display":"Initial Population"}]},"count":1},{"id":"MeasurePopulation_3","code":{"coding":[{"system":"http://terminology.hl7.org/CodeSystem/measure-population","code":"measure-population","display":"Measure Population"}]},"count":1},{"id":"MeasurePopulationExclusion_3","code":{"coding":[{"system":"http://terminology.hl7.org/CodeSystem/measure-population","code":"measure-population-exclusion","display":"Measure Population Exclusion"}]},"count":0},{"id":"MeasureObservation_3_1","code":{"coding":[{"system":"http://terminology.hl7.org/CodeSystem/measure-population","code":"measure-population-observation","display":"Measure Population Observation"}]},"count":0}],"measureScore":{"value":0.0}},{"id":"Group_4","population":[{"id":"InitialPopulation_4","code":{"coding":[{"system":"http://terminology.hl7.org/CodeSystem/measure-population","code":"initial-population","display":"Initial Population"}]},"count":1},{"id":"MeasurePopulation_4","code":{"coding":[{"system":"http://terminology.hl7.org/CodeSystem/measure-population","code":"measure-population","display":"Measure Population"}]},"count":1},{"id":"MeasurePopulationExclusion_4","code":{"coding":[{"system":"http://terminology.hl7.org/CodeSystem/measure-population","code":"measure-population-exclusion","display":"Measure Population Exclusion"}]},"count":0},{"id":"MeasureObservation_4_1","code":{"coding":[{"system":"http://terminology.hl7.org/CodeSystem/measure-population","code":"measure-population-observation","display":"Measure Population Observation"}]},"count":0}],"measureScore":{"value":0.0}},{"id":"Group_5","population":[{"id":"InitialPopulation_5","code":{"coding":[{"system":"http://terminology.hl7.org/CodeSystem/measure-population","code":"initial-population","display":"Initial Population"}]},"count":1},{"id":"MeasurePopulation_5","code":{"coding":[{"system":"http://terminology.hl7.org/CodeSystem/measure-population","code":"measure-population","display":"Measure Population"}]},"count":1},{"id":"MeasurePopulationExclusion_5","code":{"coding":[{"system":"http://terminology.hl7.org/CodeSystem/measure-population","code":"measure-population-exclusion","display":"Measure Population Exclusion"}]},"count":0},{"id":"MeasureObservation_5_1","code":{"coding":[{"system":"http://terminology.hl7.org/CodeSystem/measure-population","code":"measure-population-observation","display":"Measure Population Observation"}]},"count":1}],"measureScore":{"value":0.0}},{"id":"Group_6","population":[{"id":"InitialPopulation_6","code":{"coding":[{"system":"http://terminology.hl7.org/CodeSystem/measure-population","code":"initial-population","display":"Initial Population"}]},"count":1},{"id":"MeasurePopulation_6","code":{"coding":[{"system":"http://terminology.hl7.org/CodeSystem/measure-population","code":"measure-population","display":"Measure Population"}]},"count":1},{"id":"MeasurePopulationExclusion_6","code":{"coding":[{"system":"http://terminology.hl7.org/CodeSystem/measure-population","code":"measure-population-exclusion","display":"Measure Population Exclusion"}]},"count":0},{"id":"MeasureObservation_6_1","code":{"coding":[{"system":"http://terminology.hl7.org/CodeSystem/measure-population","code":"measure-population-observation","display":"Measure Population Observation"}]},"count":100}],"measureScore":{"value":0.0}}],"evaluatedResource":[{"reference":"Patient/b3ee3e77-b813-42ac-949a-5d85e3df5002"},{"reference":"Encounter/ef100776-eda6-4788-8454-d736eb7e59e9"},{"reference":"Observation/31893c83-7b45-48ef-b664-533b6d7a452b"},{"reference":"Observation/b2d469e4-7cf8-4c41-b531-a5c42629277c"},{"reference":"Procedure/d98fae82-2125-4ae2-84fd-b2f31516bb1a"},{"reference":"Coverage/46561ad3-9730-4af2-9644-79b0fb926d68"},{"reference":"Organization/d9f8dfcc-c904-4922-86a4-3136a4d4e2f4"}]},"request":{"method":"PUT","url":"MeasureReport/83fc1dbc-51ea-4f00-b45f-a6428e7f98bf"}},{"resource":{"resourceType":"Observation","id":"31893c83-7b45-48ef-b664-533b6d7a452b","meta":{"profile":["http://hl7.org/fhir/us/qicore/StructureDefinition/qicore-observation-screening-assessment"]},"status":"final","category":[{"coding":[{"system":"http://terminology.hl7.org/CodeSystem/observation-category","code":"survey","display":"Survey"}]}],"code":{"coding":[{"system":"http://loinc.org","code":"98972-3","display":"Final screening NRS_2002","userSelected":true}]},"subject":{"reference":"Patient/b3ee3e77-b813-42ac-949a-5d85e3df5002"},"effectiveDateTime":"2026-04-01T09:00:00.000+00:00","valueCodeableConcept":{"coding":[{"system":"http://loinc.org","code":"LA33699-2","display":"Not at risk for malnutrition","userSelected":true}]}},"request":{"method":"PUT","url":"Observation/31893c83-7b45-48ef-b664-533b6d7a452b"}},{"resource":{"resourceType":"Procedure","id":"d98fae82-2125-4ae2-84fd-b2f31516bb1a","meta":{"profile":["http://hl7.org/fhir/us/qicore/StructureDefinition/qicore-procedure"]},"extension":[{"url":"http://hl7.org/fhir/us/qicore/StructureDefinition/qicore-recorded","valueDateTime":"2026-04-02T11:30:00.000+00:00"}],"status":"completed","code":{"coding":[{"system":"http://snomed.info/sct","code":"410172000","display":"Nutrition care management (procedure)"}],"text":"Nutrition care management (procedure)"},"subject":{"reference":"Patient/b3ee3e77-b813-42ac-949a-5d85e3df5002"},"encounter":{"reference":"Encounter/ScreNotatriNorefAsseModNodxCpMSROBSPass1"},"performedPeriod":{"start":"2026-04-01T11:30:00.000+00:00","end":"2026-04-03T08:15:00.000+00:00"}},"request":{"method":"PUT","url":"Procedure/d98fae82-2125-4ae2-84fd-b2f31516bb1a"}},{"resource":{"resourceType":"Encounter","id":"ef100776-eda6-4788-8454-d736eb7e59e9","meta":{"profile":["http://hl7.org/fhir/us/qicore/StructureDefinition/qicore-encounter"]},"status":"finished","class":{"system":"http://terminology.hl7.org/CodeSystem/v3-ActCode","code":"IMP","display":"inpatient encounter"},"type":[{"coding":[{"system":"http://snomed.info/sct","code":"183452005"}]}],"subject":{"reference":"Patient/b3ee3e77-b813-42ac-949a-5d85e3df5002"},"period":{"start":"2026-04-01T08:00:00.000+00:00","end":"2026-04-03T08:15:00.000+00:00"}},"request":{"method":"PUT","url":"Encounter/ef100776-eda6-4788-8454-d736eb7e59e9"}},{"resource":{"resourceType":"Coverage","id":"46561ad3-9730-4af2-9644-79b0fb926d68","meta":{"profile":["http://hl7.org/fhir/us/qicore/StructureDefinition/qicore-coverage"]},"status":"active","type":{"coding":[{"system":"https://nahdo.org/sopt","version":"9.2","code":"11","display":"Medicare Managed Care (Includes Medicare Advantage Plans)"}]},"subscriberId":"97531","beneficiary":{"reference":"Patient/b3ee3e77-b813-42ac-949a-5d85e3df5002"},"dependent":"0","relationship":{"coding":[{"system":"http://terminology.hl7.org/CodeSystem/subscriber-relationship","code":"self"}]},"period":{"start":"2026-10-01T00:00:00.000+00:00"},"payor":[{"reference":"Organization/d9f8dfcc-c904-4922-86a4-3136a4d4e2f4"}]},"request":{"method":"PUT","url":"Coverage/46561ad3-9730-4af2-9644-79b0fb926d68"}}]}