{"resourceType":"Bundle","id":"tests-1418a446-97bc-4785-be4e-fbe0a8ed4596-bundle","type":"transaction","entry":[{"fullUrl":"Encounter/93079795-709a-4bf7-abdd-a0b51c66701e","resource":{"resourceType":"Encounter","id":"93079795-709a-4bf7-abdd-a0b51c66701e","meta":{"profile":["http://hl7.org/fhir/us/qicore/StructureDefinition/qicore-encounter"]},"status":"finished","class":{"system":"http://terminology.hl7.org/CodeSystem/v3-ActCode","code":"IMP","display":"inpatient encounter"},"type":[{"coding":[{"system":"http://snomed.info/sct","code":"32485007"}]}],"subject":{"reference":"Patient/1418a446-97bc-4785-be4e-fbe0a8ed4596"},"period":{"start":"2026-02-02T08:00:00Z","end":"2026-02-22T08:00:00Z"}},"request":{"method":"PUT","url":"Encounter/93079795-709a-4bf7-abdd-a0b51c66701e"}},{"fullUrl":"Procedure/5a28e3f0-c840-439c-a80b-e290af547f0f","resource":{"resourceType":"Procedure","id":"5a28e3f0-c840-439c-a80b-e290af547f0f","meta":{"profile":["http://hl7.org/fhir/us/qicore/StructureDefinition/qicore-procedure"]},"extension":[{"url":"http://hl7.org/fhir/us/qicore/StructureDefinition/qicore-recorded","valueDateTime":"2012-12-04T13:35:00Z"}],"status":"completed","code":{"coding":[{"system":"http://snomed.info/sct","code":"385763009","display":"Hospice care (regime/therapy)"}]},"subject":{"reference":"Patient/1418a446-97bc-4785-be4e-fbe0a8ed4596"},"performedPeriod":{"start":"2026-02-05T08:00:00Z","end":"2026-02-05T08:15:00Z"}},"request":{"method":"PUT","url":"Procedure/5a28e3f0-c840-439c-a80b-e290af547f0f"}},{"fullUrl":"Bundle/HospiceExclusion","resource":{"resourceType":"Bundle","id":"HospiceExclusion","type":"transaction","entry":[{"fullUrl":"https://madie.cms.gov/Patient/1418a446-97bc-4785-be4e-fbe0a8ed4596","resource":{"resourceType":"Patient","id":"1418a446-97bc-4785-be4e-fbe0a8ed4596","meta":{"profile":["http://hl7.org/fhir/us/qicore/StructureDefinition/qicore-patient"]},"extension":[{"url":"http://hl7.org/fhir/us/core/StructureDefinition/us-core-race","extension":[{"url":"ombCategory","valueCoding":{"system":"urn:oid:2.16.840.1.113883.6.238","code":"2106-3","display":"White","userSelected":true}},{"url":"text","valueString":"White"}]},{"url":"http://hl7.org/fhir/us/core/StructureDefinition/us-core-ethnicity","extension":[{"url":"ombCategory","valueCoding":{"system":"urn:oid:2.16.840.1.113883.6.238","code":"2135-2","display":"Hispanic or Latino","userSelected":true}},{"url":"text","valueString":"Hispanic or Latino"}]},{"url":"http://hl7.org/fhir/us/core/StructureDefinition/us-core-sex","valueCode":"248152002"}],"identifier":[{"type":{"coding":[{"system":"http://terminology.hl7.org/CodeSystem/v2-0203","code":"MR"}]},"system":"https://madie.cms.gov/","value":"HospiceExclusion"}],"active":true,"name":[{"use":"usual","text":"HospiceExclusion","family":"DENEXPass","given":["HospiceExclusion"]}],"gender":"female","birthDate":"1987-01-01","address":[{"text":"HospiceExclusion, Screened Not at risk No referral No Assessment Diagnosed Care Plan, ID=HospiceExclusion, DOB: 01 Jan 1987"}]},"request":{"method":"PUT","url":"Patient/1418a446-97bc-4785-be4e-fbe0a8ed4596"}},{"fullUrl":"https://madie.cms.gov/Encounter/93079795-709a-4bf7-abdd-a0b51c66701e","resource":{"resourceType":"Encounter","id":"93079795-709a-4bf7-abdd-a0b51c66701e","meta":{"profile":["http://hl7.org/fhir/us/qicore/StructureDefinition/qicore-encounter"]},"status":"finished","class":{"system":"http://terminology.hl7.org/CodeSystem/v3-ActCode","code":"IMP","display":"inpatient encounter"},"type":[{"coding":[{"system":"http://snomed.info/sct","code":"32485007"}]}],"subject":{"reference":"Patient/1418a446-97bc-4785-be4e-fbe0a8ed4596"},"period":{"start":"2026-02-02T08:00:00Z","end":"2026-02-22T08:00:00Z"}},"request":{"method":"PUT","url":"Encounter/93079795-709a-4bf7-abdd-a0b51c66701e"}},{"fullUrl":"https://madie.cms.gov/Procedure/5a28e3f0-c840-439c-a80b-e290af547f0f","resource":{"resourceType":"Procedure","id":"5a28e3f0-c840-439c-a80b-e290af547f0f","meta":{"profile":["http://hl7.org/fhir/us/qicore/StructureDefinition/qicore-procedure"]},"extension":[{"url":"http://hl7.org/fhir/us/qicore/StructureDefinition/qicore-recorded","valueDateTime":"2012-12-04T13:35:00Z"}],"status":"completed","code":{"coding":[{"system":"http://snomed.info/sct","code":"385763009","display":"Hospice care (regime/therapy)"}]},"subject":{"reference":"Patient/1418a446-97bc-4785-be4e-fbe0a8ed4596"},"performedPeriod":{"start":"2026-02-05T08:00:00Z","end":"2026-02-05T08:15:00Z"}},"request":{"method":"PUT","url":"Procedure/5a28e3f0-c840-439c-a80b-e290af547f0f"}},{"fullUrl":"https://madie.cms.gov/ServiceRequest/0cacd862-25a1-403b-9c42-dc00ea703555","resource":{"resourceType":"ServiceRequest","id":"0cacd862-25a1-403b-9c42-dc00ea703555","meta":{"profile":["http://hl7.org/fhir/us/qicore/StructureDefinition/qicore-servicerequest"]},"intent":"order","doNotPerform":true,"code":{"coding":[{"system":"http://snomed.info/sct","code":"385763009","display":"Hospice care (regime/therapy)"}]},"subject":{"reference":"Patient/1418a446-97bc-4785-be4e-fbe0a8ed4596"},"authoredOn":"2026-02-05T08:00:00Z"},"request":{"method":"PUT","url":"ServiceRequest/0cacd862-25a1-403b-9c42-dc00ea703555"}},{"fullUrl":"https://madie.cms.gov/Procedure/1ce5b1d6-331b-4a5e-bd25-d81e851c531b","resource":{"resourceType":"Procedure","id":"1ce5b1d6-331b-4a5e-bd25-d81e851c531b","meta":{"profile":["http://hl7.org/fhir/us/qicore/StructureDefinition/qicore-procedure"]},"extension":[{"url":"http://hl7.org/fhir/us/qicore/StructureDefinition/qicore-recorded","valueDateTime":"2026-02-01T11:30:00Z"}],"status":"completed","code":{"coding":[{"system":"http://snomed.info/sct","code":"306165000","display":"Referral to hospital-based dietetics service (procedure)"}],"text":"Referral to hospital-based dietetics service (procedure)"},"subject":{"reference":"Patient/1418a446-97bc-4785-be4e-fbe0a8ed4596"},"encounter":{"reference":"Encounter/HospiceExclusion"},"performedPeriod":{"start":"2026-02-01T08:30:00Z","end":"2026-02-07T09:15:00Z"}},"request":{"method":"PUT","url":"Procedure/1ce5b1d6-331b-4a5e-bd25-d81e851c531b"}},{"fullUrl":"https://madie.cms.gov/MeasureReport/76bbbf41-0c6f-4e39-bb54-d68bdeeb27cc","resource":{"resourceType":"MeasureReport","id":"76bbbf41-0c6f-4e39-bb54-d68bdeeb27cc","meta":{"profile":["http://hl7.org/fhir/us/cqfmeasures/StructureDefinition/test-case-cqfm"]},"contained":[{"resourceType":"Parameters","id":"c06a2253-99de-460d-b07d-f0945ee81b21-parameters","parameter":[{"name":"subject","valueString":"1418a446-97bc-4785-be4e-fbe0a8ed4596"}]}],"extension":[{"url":"http://hl7.org/fhir/StructureDefinition/cqf-inputParameters","valueReference":{"reference":"#c06a2253-99de-460d-b07d-f0945ee81b21-parameters"}},{"url":"http://hl7.org/fhir/us/cqfmeasures/StructureDefinition/cqfm-testCaseDescription","valueMarkdown":"Hospice admission (Procedure)\n\nHospice (ServiceRequest) - doNotPerform is true"}],"modifierExtension":[{"url":"http://hl7.org/fhir/us/cqfmeasures/StructureDefinition/cqfm-isTestCase","valueBoolean":true}],"status":"complete","type":"individual","measure":"https://madie.cms.gov/Measure/CMS986FHIRMalnutritionScore","period":{"start":"2026-01-01","end":"2026-12-31"},"group":[{"id":"Group_1","population":[{"id":"InitialPopulation_1","code":{"coding":[{"system":"http://terminology.hl7.org/CodeSystem/measure-population","code":"initial-population","display":"Initial Population"}]},"count":1},{"id":"MeasurePopulation_1","code":{"coding":[{"system":"http://terminology.hl7.org/CodeSystem/measure-population","code":"measure-population","display":"Measure Population"}]},"count":1},{"id":"MeasurePopulationExclusion_1","code":{"coding":[{"system":"http://terminology.hl7.org/CodeSystem/measure-population","code":"measure-population-exclusion","display":"Measure Population Exclusion"}]},"count":1}],"measureScore":{"value":0.0}},{"id":"Group_2","population":[{"id":"InitialPopulation_2","code":{"coding":[{"system":"http://terminology.hl7.org/CodeSystem/measure-population","code":"initial-population","display":"Initial Population"}]},"count":1},{"id":"MeasurePopulation_2","code":{"coding":[{"system":"http://terminology.hl7.org/CodeSystem/measure-population","code":"measure-population","display":"Measure Population"}]},"count":1},{"id":"MeasurePopulationExclusion_2","code":{"coding":[{"system":"http://terminology.hl7.org/CodeSystem/measure-population","code":"measure-population-exclusion","display":"Measure Population Exclusion"}]},"count":1}],"measureScore":{"value":0.0}},{"id":"Group_3","population":[{"id":"InitialPopulation_3","code":{"coding":[{"system":"http://terminology.hl7.org/CodeSystem/measure-population","code":"initial-population","display":"Initial Population"}]},"count":1},{"id":"MeasurePopulation_3","code":{"coding":[{"system":"http://terminology.hl7.org/CodeSystem/measure-population","code":"measure-population","display":"Measure Population"}]},"count":1},{"id":"MeasurePopulationExclusion_3","code":{"coding":[{"system":"http://terminology.hl7.org/CodeSystem/measure-population","code":"measure-population-exclusion","display":"Measure Population Exclusion"}]},"count":1}],"measureScore":{"value":0.0}},{"id":"Group_4","population":[{"id":"InitialPopulation_4","code":{"coding":[{"system":"http://terminology.hl7.org/CodeSystem/measure-population","code":"initial-population","display":"Initial Population"}]},"count":1},{"id":"MeasurePopulation_4","code":{"coding":[{"system":"http://terminology.hl7.org/CodeSystem/measure-population","code":"measure-population","display":"Measure Population"}]},"count":1},{"id":"MeasurePopulationExclusion_4","code":{"coding":[{"system":"http://terminology.hl7.org/CodeSystem/measure-population","code":"measure-population-exclusion","display":"Measure Population Exclusion"}]},"count":1}],"measureScore":{"value":0.0}},{"id":"Group_5","population":[{"id":"InitialPopulation_5","code":{"coding":[{"system":"http://terminology.hl7.org/CodeSystem/measure-population","code":"initial-population","display":"Initial Population"}]},"count":1},{"id":"MeasurePopulation_5","code":{"coding":[{"system":"http://terminology.hl7.org/CodeSystem/measure-population","code":"measure-population","display":"Measure Population"}]},"count":1},{"id":"MeasurePopulationExclusion_5","code":{"coding":[{"system":"http://terminology.hl7.org/CodeSystem/measure-population","code":"measure-population-exclusion","display":"Measure Population Exclusion"}]},"count":1}],"measureScore":{"value":0.0}},{"id":"Group_6","population":[{"id":"InitialPopulation_6","code":{"coding":[{"system":"http://terminology.hl7.org/CodeSystem/measure-population","code":"initial-population","display":"Initial Population"}]},"count":1},{"id":"MeasurePopulation_6","code":{"coding":[{"system":"http://terminology.hl7.org/CodeSystem/measure-population","code":"measure-population","display":"Measure Population"}]},"count":1},{"id":"MeasurePopulationExclusion_6","code":{"coding":[{"system":"http://terminology.hl7.org/CodeSystem/measure-population","code":"measure-population-exclusion","display":"Measure Population Exclusion"}]},"count":1}],"measureScore":{"value":0.0}}],"evaluatedResource":[{"reference":"Patient/1418a446-97bc-4785-be4e-fbe0a8ed4596"},{"reference":"Encounter/93079795-709a-4bf7-abdd-a0b51c66701e"},{"reference":"Procedure/5a28e3f0-c840-439c-a80b-e290af547f0f"},{"reference":"ServiceRequest/0cacd862-25a1-403b-9c42-dc00ea703555"},{"reference":"Procedure/1ce5b1d6-331b-4a5e-bd25-d81e851c531b"}]},"request":{"method":"PUT","url":"MeasureReport/76bbbf41-0c6f-4e39-bb54-d68bdeeb27cc"}}]},"request":{"method":"PUT","url":"Bundle/HospiceExclusion"}},{"fullUrl":"Patient/1418a446-97bc-4785-be4e-fbe0a8ed4596","resource":{"resourceType":"Patient","id":"1418a446-97bc-4785-be4e-fbe0a8ed4596","meta":{"profile":["http://hl7.org/fhir/us/qicore/StructureDefinition/qicore-patient"]},"extension":[{"url":"http://hl7.org/fhir/us/core/StructureDefinition/us-core-race","extension":[{"url":"ombCategory","valueCoding":{"system":"urn:oid:2.16.840.1.113883.6.238","code":"2106-3","display":"White","userSelected":true}},{"url":"text","valueString":"White"}]},{"url":"http://hl7.org/fhir/us/core/StructureDefinition/us-core-ethnicity","extension":[{"url":"ombCategory","valueCoding":{"system":"urn:oid:2.16.840.1.113883.6.238","code":"2135-2","display":"Hispanic or Latino","userSelected":true}},{"url":"text","valueString":"Hispanic or Latino"}]},{"url":"http://hl7.org/fhir/us/core/StructureDefinition/us-core-sex","valueCode":"248152002"}],"identifier":[{"type":{"coding":[{"system":"http://terminology.hl7.org/CodeSystem/v2-0203","code":"MR"}]},"system":"https://madie.cms.gov/","value":"HospiceExclusion"}],"active":true,"name":[{"use":"usual","text":"HospiceExclusion","family":"DENEXPass","given":["HospiceExclusion"]}],"gender":"female","birthDate":"1987-01-01","address":[{"text":"HospiceExclusion, Screened Not at risk No referral No Assessment Diagnosed Care Plan, ID=HospiceExclusion, DOB: 01 Jan 1987"}]},"request":{"method":"PUT","url":"Patient/1418a446-97bc-4785-be4e-fbe0a8ed4596"}},{"fullUrl":"Procedure/1ce5b1d6-331b-4a5e-bd25-d81e851c531b","resource":{"resourceType":"Procedure","id":"1ce5b1d6-331b-4a5e-bd25-d81e851c531b","meta":{"profile":["http://hl7.org/fhir/us/qicore/StructureDefinition/qicore-procedure"]},"extension":[{"url":"http://hl7.org/fhir/us/qicore/StructureDefinition/qicore-recorded","valueDateTime":"2026-02-01T11:30:00Z"}],"status":"completed","code":{"coding":[{"system":"http://snomed.info/sct","code":"306165000","display":"Referral to hospital-based dietetics service (procedure)"}],"text":"Referral to hospital-based dietetics service (procedure)"},"subject":{"reference":"Patient/1418a446-97bc-4785-be4e-fbe0a8ed4596"},"encounter":{"reference":"Encounter/HospiceExclusion"},"performedPeriod":{"start":"2026-02-01T08:30:00Z","end":"2026-02-07T09:15:00Z"}},"request":{"method":"PUT","url":"Procedure/1ce5b1d6-331b-4a5e-bd25-d81e851c531b"}},{"fullUrl":"ServiceRequest/0cacd862-25a1-403b-9c42-dc00ea703555","resource":{"resourceType":"ServiceRequest","id":"0cacd862-25a1-403b-9c42-dc00ea703555","meta":{"profile":["http://hl7.org/fhir/us/qicore/StructureDefinition/qicore-servicerequest"]},"intent":"order","doNotPerform":true,"code":{"coding":[{"system":"http://snomed.info/sct","code":"385763009","display":"Hospice care (regime/therapy)"}]},"subject":{"reference":"Patient/1418a446-97bc-4785-be4e-fbe0a8ed4596"},"authoredOn":"2026-02-05T08:00:00Z"},"request":{"method":"PUT","url":"ServiceRequest/0cacd862-25a1-403b-9c42-dc00ea703555"}},{"fullUrl":"MeasureReport/76bbbf41-0c6f-4e39-bb54-d68bdeeb27cc","resource":{"resourceType":"MeasureReport","id":"76bbbf41-0c6f-4e39-bb54-d68bdeeb27cc","meta":{"profile":["http://hl7.org/fhir/us/cqfmeasures/StructureDefinition/test-case-cqfm"]},"contained":[{"resourceType":"Parameters","id":"c06a2253-99de-460d-b07d-f0945ee81b21-parameters","parameter":[{"name":"subject","valueString":"1418a446-97bc-4785-be4e-fbe0a8ed4596"}]}],"extension":[{"url":"http://hl7.org/fhir/StructureDefinition/cqf-inputParameters","valueReference":{"reference":"#c06a2253-99de-460d-b07d-f0945ee81b21-parameters"}},{"url":"http://hl7.org/fhir/us/cqfmeasures/StructureDefinition/cqfm-testCaseDescription","valueMarkdown":"Hospice admission (Procedure)\n\nHospice (ServiceRequest) - doNotPerform is true"}],"modifierExtension":[{"url":"http://hl7.org/fhir/us/cqfmeasures/StructureDefinition/cqfm-isTestCase","valueBoolean":true}],"status":"complete","type":"individual","measure":"https://madie.cms.gov/Measure/CMS986FHIRMalnutritionScore","period":{"start":"2026-01-01","end":"2026-12-31"},"group":[{"id":"Group_1","population":[{"id":"InitialPopulation_1","code":{"coding":[{"system":"http://terminology.hl7.org/CodeSystem/measure-population","code":"initial-population","display":"Initial Population"}]},"count":1},{"id":"MeasurePopulation_1","code":{"coding":[{"system":"http://terminology.hl7.org/CodeSystem/measure-population","code":"measure-population","display":"Measure Population"}]},"count":1},{"id":"MeasurePopulationExclusion_1","code":{"coding":[{"system":"http://terminology.hl7.org/CodeSystem/measure-population","code":"measure-population-exclusion","display":"Measure Population Exclusion"}]},"count":1}],"measureScore":{"value":0.0}},{"id":"Group_2","population":[{"id":"InitialPopulation_2","code":{"coding":[{"system":"http://terminology.hl7.org/CodeSystem/measure-population","code":"initial-population","display":"Initial Population"}]},"count":1},{"id":"MeasurePopulation_2","code":{"coding":[{"system":"http://terminology.hl7.org/CodeSystem/measure-population","code":"measure-population","display":"Measure Population"}]},"count":1},{"id":"MeasurePopulationExclusion_2","code":{"coding":[{"system":"http://terminology.hl7.org/CodeSystem/measure-population","code":"measure-population-exclusion","display":"Measure Population Exclusion"}]},"count":1}],"measureScore":{"value":0.0}},{"id":"Group_3","population":[{"id":"InitialPopulation_3","code":{"coding":[{"system":"http://terminology.hl7.org/CodeSystem/measure-population","code":"initial-population","display":"Initial Population"}]},"count":1},{"id":"MeasurePopulation_3","code":{"coding":[{"system":"http://terminology.hl7.org/CodeSystem/measure-population","code":"measure-population","display":"Measure Population"}]},"count":1},{"id":"MeasurePopulationExclusion_3","code":{"coding":[{"system":"http://terminology.hl7.org/CodeSystem/measure-population","code":"measure-population-exclusion","display":"Measure Population Exclusion"}]},"count":1}],"measureScore":{"value":0.0}},{"id":"Group_4","population":[{"id":"InitialPopulation_4","code":{"coding":[{"system":"http://terminology.hl7.org/CodeSystem/measure-population","code":"initial-population","display":"Initial Population"}]},"count":1},{"id":"MeasurePopulation_4","code":{"coding":[{"system":"http://terminology.hl7.org/CodeSystem/measure-population","code":"measure-population","display":"Measure Population"}]},"count":1},{"id":"MeasurePopulationExclusion_4","code":{"coding":[{"system":"http://terminology.hl7.org/CodeSystem/measure-population","code":"measure-population-exclusion","display":"Measure Population Exclusion"}]},"count":1}],"measureScore":{"value":0.0}},{"id":"Group_5","population":[{"id":"InitialPopulation_5","code":{"coding":[{"system":"http://terminology.hl7.org/CodeSystem/measure-population","code":"initial-population","display":"Initial Population"}]},"count":1},{"id":"MeasurePopulation_5","code":{"coding":[{"system":"http://terminology.hl7.org/CodeSystem/measure-population","code":"measure-population","display":"Measure Population"}]},"count":1},{"id":"MeasurePopulationExclusion_5","code":{"coding":[{"system":"http://terminology.hl7.org/CodeSystem/measure-population","code":"measure-population-exclusion","display":"Measure Population Exclusion"}]},"count":1}],"measureScore":{"value":0.0}},{"id":"Group_6","population":[{"id":"InitialPopulation_6","code":{"coding":[{"system":"http://terminology.hl7.org/CodeSystem/measure-population","code":"initial-population","display":"Initial Population"}]},"count":1},{"id":"MeasurePopulation_6","code":{"coding":[{"system":"http://terminology.hl7.org/CodeSystem/measure-population","code":"measure-population","display":"Measure Population"}]},"count":1},{"id":"MeasurePopulationExclusion_6","code":{"coding":[{"system":"http://terminology.hl7.org/CodeSystem/measure-population","code":"measure-population-exclusion","display":"Measure Population Exclusion"}]},"count":1}],"measureScore":{"value":0.0}}],"evaluatedResource":[{"reference":"Patient/1418a446-97bc-4785-be4e-fbe0a8ed4596"},{"reference":"Encounter/93079795-709a-4bf7-abdd-a0b51c66701e"},{"reference":"Procedure/5a28e3f0-c840-439c-a80b-e290af547f0f"},{"reference":"ServiceRequest/0cacd862-25a1-403b-9c42-dc00ea703555"},{"reference":"Procedure/1ce5b1d6-331b-4a5e-bd25-d81e851c531b"}]},"request":{"method":"PUT","url":"MeasureReport/76bbbf41-0c6f-4e39-bb54-d68bdeeb27cc"}}]}