{"resourceType":"Bundle","id":"tests-3a1145a6-7884-4c11-be4d-dd7641fd7beb-bundle","type":"transaction","entry":[{"fullUrl":"Coverage/7e1915ad-252c-4d93-a0d7-f874e577832a","resource":{"resourceType":"Coverage","id":"7e1915ad-252c-4d93-a0d7-f874e577832a","meta":{"profile":["http://hl7.org/fhir/us/qicore/StructureDefinition/qicore-coverage"]},"status":"active","type":{"coding":[{"system":"https://nahdo.org/sopt","version":"9.2","code":"11","display":"Medicare Managed Care (Includes Medicare Advantage Plans)"}]},"subscriberId":"97531","beneficiary":{"reference":"Patient/3a1145a6-7884-4c11-be4d-dd7641fd7beb"},"dependent":"0","relationship":{"coding":[{"system":"http://terminology.hl7.org/CodeSystem/subscriber-relationship","code":"self"}]},"period":{"start":"2026-10-01T00:00:00.000+00:00"},"payor":[{"reference":"Organization/6d03cc20-b150-4506-8fc5-7a61aec4ce6c"}]},"request":{"method":"PUT","url":"Coverage/7e1915ad-252c-4d93-a0d7-f874e577832a"}},{"fullUrl":"Bundle/ScreNotatriRefNoasseNodxCp","resource":{"resourceType":"Bundle","id":"ScreNotatriRefNoasseNodxCp","type":"transaction","entry":[{"fullUrl":"https://madie.cms.gov/Patient/3a1145a6-7884-4c11-be4d-dd7641fd7beb","resource":{"resourceType":"Patient","id":"3a1145a6-7884-4c11-be4d-dd7641fd7beb","meta":{"profile":["http://hl7.org/fhir/us/qicore/StructureDefinition/qicore-patient"]},"extension":[{"url":"http://hl7.org/fhir/us/core/StructureDefinition/us-core-race","extension":[{"url":"ombCategory","valueCoding":{"system":"urn:oid:2.16.840.1.113883.6.238","code":"2106-3","display":"White","userSelected":true}},{"url":"text","valueString":"White"}]},{"url":"http://hl7.org/fhir/us/core/StructureDefinition/us-core-ethnicity","extension":[{"url":"ombCategory","valueCoding":{"system":"urn:oid:2.16.840.1.113883.6.238","code":"2186-5","display":"Not Hispanic or Latino","userSelected":true}},{"url":"text","valueString":"Not Hispanic or Latino"}]},{"url":"http://hl7.org/fhir/us/core/StructureDefinition/us-core-sex","valueCode":"248152002"}],"identifier":[{"type":{"coding":[{"system":"http://terminology.hl7.org/CodeSystem/v2-0203","code":"MR"}]},"system":"https://madie.cms.gov/","value":"ScreNotatriRefNoasseNodxCp"}],"active":true,"name":[{"use":"usual","text":"ScreNotatriRefNoasseNodxCp","family":"MSROBSPass2","given":["ScreNotatriRefNoasseNodxCp"]}],"gender":"female","birthDate":"1937-11-06","address":[{"text":"ScreNotatriRefNoasseNodxCp, Screened Not at risk Assessed Severely Malnourished Diagnosed Care Plan, ID=ScreNotatriRefNoasseNodxCp, DOB: 06 Nov 1937"}]},"request":{"method":"PUT","url":"Patient/3a1145a6-7884-4c11-be4d-dd7641fd7beb"}},{"fullUrl":"https://madie.cms.gov/Encounter/e11e9d24-aaa8-4125-acfb-cba313cf0dd7","resource":{"resourceType":"Encounter","id":"e11e9d24-aaa8-4125-acfb-cba313cf0dd7","meta":{"profile":["http://hl7.org/fhir/us/qicore/StructureDefinition/qicore-encounter"]},"status":"finished","class":{"system":"http://terminology.hl7.org/CodeSystem/v3-ActCode","code":"IMP","display":"inpatient encounter"},"type":[{"coding":[{"system":"http://snomed.info/sct","code":"8715000"}]}],"subject":{"reference":"Patient/3a1145a6-7884-4c11-be4d-dd7641fd7beb"},"period":{"start":"2026-05-17T08:00:00.000+00:00","end":"2026-05-24T08:15:00.000+00:00"}},"request":{"method":"PUT","url":"Encounter/e11e9d24-aaa8-4125-acfb-cba313cf0dd7"}},{"fullUrl":"https://madie.cms.gov/Observation/b2a802b6-df0a-4c45-8431-bce473b53fb9","resource":{"resourceType":"Observation","id":"b2a802b6-df0a-4c45-8431-bce473b53fb9","meta":{"profile":["http://hl7.org/fhir/us/qicore/StructureDefinition/qicore-observation-screening-assessment"]},"status":"final","category":[{"coding":[{"system":"http://terminology.hl7.org/CodeSystem/observation-category","code":"survey","display":"Survey"}]}],"code":{"coding":[{"system":"http://loinc.org","code":"98968-1","display":"Initial screening NRS_2002","userSelected":true}]},"subject":{"reference":"Patient/3a1145a6-7884-4c11-be4d-dd7641fd7beb"},"effectiveDateTime":"2026-05-17T09:00:00.000+00:00","valueCodeableConcept":{"coding":[{"system":"http://loinc.org","code":"LA33699-2","display":"Not at risk for malnutrition","userSelected":true}]}},"request":{"method":"PUT","url":"Observation/b2a802b6-df0a-4c45-8431-bce473b53fb9"}},{"fullUrl":"https://madie.cms.gov/Procedure/e91778d3-a4a1-44f7-add9-1ab36c670c64","resource":{"resourceType":"Procedure","id":"e91778d3-a4a1-44f7-add9-1ab36c670c64","meta":{"profile":["http://hl7.org/fhir/us/qicore/StructureDefinition/qicore-procedure"]},"extension":[{"url":"http://hl7.org/fhir/us/qicore/StructureDefinition/qicore-recorded","valueDateTime":"2026-05-17T11:30:00.000+00:00"}],"status":"completed","code":{"coding":[{"system":"http://snomed.info/sct","code":"306165000","display":"Referral to hospital-based dietetics service (procedure)"}],"text":"Referral to hospital-based dietetics service (procedure)"},"subject":{"reference":"Patient/3a1145a6-7884-4c11-be4d-dd7641fd7beb"},"encounter":{"reference":"Encounter/ScreNotatriRefNoasseNodxCpMSROBSPass2"},"performedPeriod":{"start":"2026-05-17T11:30:00.000+00:00","end":"2026-05-20T08:15:00.000+00:00"}},"request":{"method":"PUT","url":"Procedure/e91778d3-a4a1-44f7-add9-1ab36c670c64"}},{"fullUrl":"https://madie.cms.gov/Procedure/464bbba4-0e30-40a2-b1b6-f5a0de4d2c95","resource":{"resourceType":"Procedure","id":"464bbba4-0e30-40a2-b1b6-f5a0de4d2c95","meta":{"profile":["http://hl7.org/fhir/us/qicore/StructureDefinition/qicore-procedure"]},"extension":[{"url":"http://hl7.org/fhir/us/qicore/StructureDefinition/qicore-recorded","valueDateTime":"2026-05-17T11:30:00.000+00:00"}],"status":"completed","code":{"coding":[{"system":"http://snomed.info/sct","code":"1279742004","display":"Development of nutrition care plan (procedure)"}],"text":"Development of nutrition care plan (procedure)"},"subject":{"reference":"Patient/3a1145a6-7884-4c11-be4d-dd7641fd7beb"},"encounter":{"reference":"Encounter/ScreNotatriRefNoasseNodxCpMSROBSPass2"},"performedPeriod":{"start":"2026-05-17T11:30:00.000+00:00","end":"2026-05-20T08:15:00.000+00:00"}},"request":{"method":"PUT","url":"Procedure/464bbba4-0e30-40a2-b1b6-f5a0de4d2c95"}},{"fullUrl":"https://madie.cms.gov/Coverage/7e1915ad-252c-4d93-a0d7-f874e577832a","resource":{"resourceType":"Coverage","id":"7e1915ad-252c-4d93-a0d7-f874e577832a","meta":{"profile":["http://hl7.org/fhir/us/qicore/StructureDefinition/qicore-coverage"]},"status":"active","type":{"coding":[{"system":"https://nahdo.org/sopt","version":"9.2","code":"11","display":"Medicare Managed Care (Includes Medicare Advantage Plans)"}]},"subscriberId":"97531","beneficiary":{"reference":"Patient/3a1145a6-7884-4c11-be4d-dd7641fd7beb"},"dependent":"0","relationship":{"coding":[{"system":"http://terminology.hl7.org/CodeSystem/subscriber-relationship","code":"self"}]},"period":{"start":"2026-10-01T00:00:00.000+00:00"},"payor":[{"reference":"Organization/6d03cc20-b150-4506-8fc5-7a61aec4ce6c"}]},"request":{"method":"PUT","url":"Coverage/7e1915ad-252c-4d93-a0d7-f874e577832a"}},{"fullUrl":"https://madie.cms.gov/Organization/6d03cc20-b150-4506-8fc5-7a61aec4ce6c","resource":{"resourceType":"Organization","id":"6d03cc20-b150-4506-8fc5-7a61aec4ce6c","meta":{"profile":["http://hl7.org/fhir/us/qicore/StructureDefinition/qicore-organization"]},"identifier":[{"use":"temp","system":"urn:oid:2.16.840.1.113883.4.4","value":"21-3259825"}],"active":true,"type":[{"coding":[{"system":"http://terminology.hl7.org/CodeSystem/organization-type","code":"pay","display":"Payer"}]}],"name":"Blue Cross Blue Shield of Texas","telecom":[{"system":"phone","value":"(+1) 972-766-6900"}],"address":[{"use":"billing","type":"postal","line":["P.O. Box 660044"],"city":"Dallas","state":"TX","postalCode":"75266-0044","country":"USA"}]},"request":{"method":"PUT","url":"Organization/6d03cc20-b150-4506-8fc5-7a61aec4ce6c"}},{"fullUrl":"https://madie.cms.gov/MeasureReport/18789666-2cc2-4c2b-9fd5-6ac219ef1783","resource":{"resourceType":"MeasureReport","id":"18789666-2cc2-4c2b-9fd5-6ac219ef1783","meta":{"profile":["http://hl7.org/fhir/us/cqfmeasures/StructureDefinition/test-case-cqfm"]},"contained":[{"resourceType":"Parameters","id":"8d38104a-583f-4ca9-abe8-f49b04a24683-parameters","parameter":[{"name":"subject","valueString":"3a1145a6-7884-4c11-be4d-dd7641fd7beb"}]}],"extension":[{"url":"http://hl7.org/fhir/StructureDefinition/cqf-inputParameters","valueReference":{"reference":"#8d38104a-583f-4ca9-abe8-f49b04a24683-parameters"}},{"url":"http://hl7.org/fhir/us/cqfmeasures/StructureDefinition/cqfm-testCaseDescription","valueMarkdown":"Screened, Not at Risk, Referral, Not Assessed, No Diagnosis, Nutrition Care Plan"}],"modifierExtension":[{"url":"http://hl7.org/fhir/us/cqfmeasures/StructureDefinition/cqfm-isTestCase","valueBoolean":true}],"status":"complete","type":"individual","measure":"https://madie.cms.gov/Measure/CMS986FHIRMalnutritionScore","period":{"start":"2026-01-01","end":"2026-12-31"},"group":[{"id":"Group_1","population":[{"id":"InitialPopulation_1","code":{"coding":[{"system":"http://terminology.hl7.org/CodeSystem/measure-population","code":"initial-population","display":"Initial Population"}]},"count":1},{"id":"MeasurePopulation_1","code":{"coding":[{"system":"http://terminology.hl7.org/CodeSystem/measure-population","code":"measure-population","display":"Measure Population"}]},"count":1},{"id":"MeasurePopulationExclusion_1","code":{"coding":[{"system":"http://terminology.hl7.org/CodeSystem/measure-population","code":"measure-population-exclusion","display":"Measure Population Exclusion"}]},"count":0},{"id":"MeasureObservation_1_1","code":{"coding":[{"system":"http://terminology.hl7.org/CodeSystem/measure-population","code":"measure-population-observation","display":"Measure Population Observation"}]},"count":1}],"measureScore":{"value":0.0}},{"id":"Group_2","population":[{"id":"InitialPopulation_2","code":{"coding":[{"system":"http://terminology.hl7.org/CodeSystem/measure-population","code":"initial-population","display":"Initial Population"}]},"count":1},{"id":"MeasurePopulation_2","code":{"coding":[{"system":"http://terminology.hl7.org/CodeSystem/measure-population","code":"measure-population","display":"Measure Population"}]},"count":1},{"id":"MeasurePopulationExclusion_2","code":{"coding":[{"system":"http://terminology.hl7.org/CodeSystem/measure-population","code":"measure-population-exclusion","display":"Measure Population Exclusion"}]},"count":0},{"id":"MeasureObservation_2_1","code":{"coding":[{"system":"http://terminology.hl7.org/CodeSystem/measure-population","code":"measure-population-observation","display":"Measure Population Observation"}]},"count":0}],"measureScore":{"value":0.0}},{"id":"Group_3","population":[{"id":"InitialPopulation_3","code":{"coding":[{"system":"http://terminology.hl7.org/CodeSystem/measure-population","code":"initial-population","display":"Initial Population"}]},"count":1},{"id":"MeasurePopulation_3","code":{"coding":[{"system":"http://terminology.hl7.org/CodeSystem/measure-population","code":"measure-population","display":"Measure Population"}]},"count":1},{"id":"MeasurePopulationExclusion_3","code":{"coding":[{"system":"http://terminology.hl7.org/CodeSystem/measure-population","code":"measure-population-exclusion","display":"Measure Population Exclusion"}]},"count":0},{"id":"MeasureObservation_3_1","code":{"coding":[{"system":"http://terminology.hl7.org/CodeSystem/measure-population","code":"measure-population-observation","display":"Measure Population Observation"}]},"count":0}],"measureScore":{"value":0.0}},{"id":"Group_4","population":[{"id":"InitialPopulation_4","code":{"coding":[{"system":"http://terminology.hl7.org/CodeSystem/measure-population","code":"initial-population","display":"Initial Population"}]},"count":1},{"id":"MeasurePopulation_4","code":{"coding":[{"system":"http://terminology.hl7.org/CodeSystem/measure-population","code":"measure-population","display":"Measure Population"}]},"count":1},{"id":"MeasurePopulationExclusion_4","code":{"coding":[{"system":"http://terminology.hl7.org/CodeSystem/measure-population","code":"measure-population-exclusion","display":"Measure Population Exclusion"}]},"count":0},{"id":"MeasureObservation_4_1","code":{"coding":[{"system":"http://terminology.hl7.org/CodeSystem/measure-population","code":"measure-population-observation","display":"Measure Population Observation"}]},"count":0}],"measureScore":{"value":0.0}},{"id":"Group_5","population":[{"id":"InitialPopulation_5","code":{"coding":[{"system":"http://terminology.hl7.org/CodeSystem/measure-population","code":"initial-population","display":"Initial Population"}]},"count":1},{"id":"MeasurePopulation_5","code":{"coding":[{"system":"http://terminology.hl7.org/CodeSystem/measure-population","code":"measure-population","display":"Measure Population"}]},"count":1},{"id":"MeasurePopulationExclusion_5","code":{"coding":[{"system":"http://terminology.hl7.org/CodeSystem/measure-population","code":"measure-population-exclusion","display":"Measure Population Exclusion"}]},"count":0},{"id":"MeasureObservation_5_1","code":{"coding":[{"system":"http://terminology.hl7.org/CodeSystem/measure-population","code":"measure-population-observation","display":"Measure Population Observation"}]},"count":1}],"measureScore":{"value":0.0}},{"id":"Group_6","population":[{"id":"InitialPopulation_6","code":{"coding":[{"system":"http://terminology.hl7.org/CodeSystem/measure-population","code":"initial-population","display":"Initial Population"}]},"count":1},{"id":"MeasurePopulation_6","code":{"coding":[{"system":"http://terminology.hl7.org/CodeSystem/measure-population","code":"measure-population","display":"Measure Population"}]},"count":1},{"id":"MeasurePopulationExclusion_6","code":{"coding":[{"system":"http://terminology.hl7.org/CodeSystem/measure-population","code":"measure-population-exclusion","display":"Measure Population Exclusion"}]},"count":0},{"id":"MeasureObservation_6_1","code":{"coding":[{"system":"http://terminology.hl7.org/CodeSystem/measure-population","code":"measure-population-observation","display":"Measure Population Observation"}]},"count":50}],"measureScore":{"value":0.0}}],"evaluatedResource":[{"reference":"Patient/3a1145a6-7884-4c11-be4d-dd7641fd7beb"},{"reference":"Encounter/e11e9d24-aaa8-4125-acfb-cba313cf0dd7"},{"reference":"Observation/b2a802b6-df0a-4c45-8431-bce473b53fb9"},{"reference":"Procedure/e91778d3-a4a1-44f7-add9-1ab36c670c64"},{"reference":"Procedure/464bbba4-0e30-40a2-b1b6-f5a0de4d2c95"},{"reference":"Coverage/7e1915ad-252c-4d93-a0d7-f874e577832a"},{"reference":"Organization/6d03cc20-b150-4506-8fc5-7a61aec4ce6c"}]},"request":{"method":"PUT","url":"MeasureReport/18789666-2cc2-4c2b-9fd5-6ac219ef1783"}}]},"request":{"method":"PUT","url":"Bundle/ScreNotatriRefNoasseNodxCp"}},{"fullUrl":"Encounter/e11e9d24-aaa8-4125-acfb-cba313cf0dd7","resource":{"resourceType":"Encounter","id":"e11e9d24-aaa8-4125-acfb-cba313cf0dd7","meta":{"profile":["http://hl7.org/fhir/us/qicore/StructureDefinition/qicore-encounter"]},"status":"finished","class":{"system":"http://terminology.hl7.org/CodeSystem/v3-ActCode","code":"IMP","display":"inpatient encounter"},"type":[{"coding":[{"system":"http://snomed.info/sct","code":"8715000"}]}],"subject":{"reference":"Patient/3a1145a6-7884-4c11-be4d-dd7641fd7beb"},"period":{"start":"2026-05-17T08:00:00.000+00:00","end":"2026-05-24T08:15:00.000+00:00"}},"request":{"method":"PUT","url":"Encounter/e11e9d24-aaa8-4125-acfb-cba313cf0dd7"}},{"fullUrl":"MeasureReport/18789666-2cc2-4c2b-9fd5-6ac219ef1783","resource":{"resourceType":"MeasureReport","id":"18789666-2cc2-4c2b-9fd5-6ac219ef1783","meta":{"profile":["http://hl7.org/fhir/us/cqfmeasures/StructureDefinition/test-case-cqfm"]},"contained":[{"resourceType":"Parameters","id":"8d38104a-583f-4ca9-abe8-f49b04a24683-parameters","parameter":[{"name":"subject","valueString":"3a1145a6-7884-4c11-be4d-dd7641fd7beb"}]}],"extension":[{"url":"http://hl7.org/fhir/StructureDefinition/cqf-inputParameters","valueReference":{"reference":"#8d38104a-583f-4ca9-abe8-f49b04a24683-parameters"}},{"url":"http://hl7.org/fhir/us/cqfmeasures/StructureDefinition/cqfm-testCaseDescription","valueMarkdown":"Screened, Not at Risk, Referral, Not Assessed, No Diagnosis, Nutrition Care Plan"}],"modifierExtension":[{"url":"http://hl7.org/fhir/us/cqfmeasures/StructureDefinition/cqfm-isTestCase","valueBoolean":true}],"status":"complete","type":"individual","measure":"https://madie.cms.gov/Measure/CMS986FHIRMalnutritionScore","period":{"start":"2026-01-01","end":"2026-12-31"},"group":[{"id":"Group_1","population":[{"id":"InitialPopulation_1","code":{"coding":[{"system":"http://terminology.hl7.org/CodeSystem/measure-population","code":"initial-population","display":"Initial Population"}]},"count":1},{"id":"MeasurePopulation_1","code":{"coding":[{"system":"http://terminology.hl7.org/CodeSystem/measure-population","code":"measure-population","display":"Measure Population"}]},"count":1},{"id":"MeasurePopulationExclusion_1","code":{"coding":[{"system":"http://terminology.hl7.org/CodeSystem/measure-population","code":"measure-population-exclusion","display":"Measure Population Exclusion"}]},"count":0},{"id":"MeasureObservation_1_1","code":{"coding":[{"system":"http://terminology.hl7.org/CodeSystem/measure-population","code":"measure-population-observation","display":"Measure Population Observation"}]},"count":1}],"measureScore":{"value":0.0}},{"id":"Group_2","population":[{"id":"InitialPopulation_2","code":{"coding":[{"system":"http://terminology.hl7.org/CodeSystem/measure-population","code":"initial-population","display":"Initial Population"}]},"count":1},{"id":"MeasurePopulation_2","code":{"coding":[{"system":"http://terminology.hl7.org/CodeSystem/measure-population","code":"measure-population","display":"Measure Population"}]},"count":1},{"id":"MeasurePopulationExclusion_2","code":{"coding":[{"system":"http://terminology.hl7.org/CodeSystem/measure-population","code":"measure-population-exclusion","display":"Measure Population Exclusion"}]},"count":0},{"id":"MeasureObservation_2_1","code":{"coding":[{"system":"http://terminology.hl7.org/CodeSystem/measure-population","code":"measure-population-observation","display":"Measure Population Observation"}]},"count":0}],"measureScore":{"value":0.0}},{"id":"Group_3","population":[{"id":"InitialPopulation_3","code":{"coding":[{"system":"http://terminology.hl7.org/CodeSystem/measure-population","code":"initial-population","display":"Initial Population"}]},"count":1},{"id":"MeasurePopulation_3","code":{"coding":[{"system":"http://terminology.hl7.org/CodeSystem/measure-population","code":"measure-population","display":"Measure Population"}]},"count":1},{"id":"MeasurePopulationExclusion_3","code":{"coding":[{"system":"http://terminology.hl7.org/CodeSystem/measure-population","code":"measure-population-exclusion","display":"Measure Population Exclusion"}]},"count":0},{"id":"MeasureObservation_3_1","code":{"coding":[{"system":"http://terminology.hl7.org/CodeSystem/measure-population","code":"measure-population-observation","display":"Measure Population Observation"}]},"count":0}],"measureScore":{"value":0.0}},{"id":"Group_4","population":[{"id":"InitialPopulation_4","code":{"coding":[{"system":"http://terminology.hl7.org/CodeSystem/measure-population","code":"initial-population","display":"Initial Population"}]},"count":1},{"id":"MeasurePopulation_4","code":{"coding":[{"system":"http://terminology.hl7.org/CodeSystem/measure-population","code":"measure-population","display":"Measure Population"}]},"count":1},{"id":"MeasurePopulationExclusion_4","code":{"coding":[{"system":"http://terminology.hl7.org/CodeSystem/measure-population","code":"measure-population-exclusion","display":"Measure Population Exclusion"}]},"count":0},{"id":"MeasureObservation_4_1","code":{"coding":[{"system":"http://terminology.hl7.org/CodeSystem/measure-population","code":"measure-population-observation","display":"Measure Population Observation"}]},"count":0}],"measureScore":{"value":0.0}},{"id":"Group_5","population":[{"id":"InitialPopulation_5","code":{"coding":[{"system":"http://terminology.hl7.org/CodeSystem/measure-population","code":"initial-population","display":"Initial Population"}]},"count":1},{"id":"MeasurePopulation_5","code":{"coding":[{"system":"http://terminology.hl7.org/CodeSystem/measure-population","code":"measure-population","display":"Measure Population"}]},"count":1},{"id":"MeasurePopulationExclusion_5","code":{"coding":[{"system":"http://terminology.hl7.org/CodeSystem/measure-population","code":"measure-population-exclusion","display":"Measure Population Exclusion"}]},"count":0},{"id":"MeasureObservation_5_1","code":{"coding":[{"system":"http://terminology.hl7.org/CodeSystem/measure-population","code":"measure-population-observation","display":"Measure Population Observation"}]},"count":1}],"measureScore":{"value":0.0}},{"id":"Group_6","population":[{"id":"InitialPopulation_6","code":{"coding":[{"system":"http://terminology.hl7.org/CodeSystem/measure-population","code":"initial-population","display":"Initial Population"}]},"count":1},{"id":"MeasurePopulation_6","code":{"coding":[{"system":"http://terminology.hl7.org/CodeSystem/measure-population","code":"measure-population","display":"Measure Population"}]},"count":1},{"id":"MeasurePopulationExclusion_6","code":{"coding":[{"system":"http://terminology.hl7.org/CodeSystem/measure-population","code":"measure-population-exclusion","display":"Measure Population Exclusion"}]},"count":0},{"id":"MeasureObservation_6_1","code":{"coding":[{"system":"http://terminology.hl7.org/CodeSystem/measure-population","code":"measure-population-observation","display":"Measure Population Observation"}]},"count":50}],"measureScore":{"value":0.0}}],"evaluatedResource":[{"reference":"Patient/3a1145a6-7884-4c11-be4d-dd7641fd7beb"},{"reference":"Encounter/e11e9d24-aaa8-4125-acfb-cba313cf0dd7"},{"reference":"Observation/b2a802b6-df0a-4c45-8431-bce473b53fb9"},{"reference":"Procedure/e91778d3-a4a1-44f7-add9-1ab36c670c64"},{"reference":"Procedure/464bbba4-0e30-40a2-b1b6-f5a0de4d2c95"},{"reference":"Coverage/7e1915ad-252c-4d93-a0d7-f874e577832a"},{"reference":"Organization/6d03cc20-b150-4506-8fc5-7a61aec4ce6c"}]},"request":{"method":"PUT","url":"MeasureReport/18789666-2cc2-4c2b-9fd5-6ac219ef1783"}},{"fullUrl":"Observation/b2a802b6-df0a-4c45-8431-bce473b53fb9","resource":{"resourceType":"Observation","id":"b2a802b6-df0a-4c45-8431-bce473b53fb9","meta":{"profile":["http://hl7.org/fhir/us/qicore/StructureDefinition/qicore-observation-screening-assessment"]},"status":"final","category":[{"coding":[{"system":"http://terminology.hl7.org/CodeSystem/observation-category","code":"survey","display":"Survey"}]}],"code":{"coding":[{"system":"http://loinc.org","code":"98968-1","display":"Initial screening NRS_2002","userSelected":true}]},"subject":{"reference":"Patient/3a1145a6-7884-4c11-be4d-dd7641fd7beb"},"effectiveDateTime":"2026-05-17T09:00:00.000+00:00","valueCodeableConcept":{"coding":[{"system":"http://loinc.org","code":"LA33699-2","display":"Not at risk for malnutrition","userSelected":true}]}},"request":{"method":"PUT","url":"Observation/b2a802b6-df0a-4c45-8431-bce473b53fb9"}},{"fullUrl":"Procedure/464bbba4-0e30-40a2-b1b6-f5a0de4d2c95","resource":{"resourceType":"Procedure","id":"464bbba4-0e30-40a2-b1b6-f5a0de4d2c95","meta":{"profile":["http://hl7.org/fhir/us/qicore/StructureDefinition/qicore-procedure"]},"extension":[{"url":"http://hl7.org/fhir/us/qicore/StructureDefinition/qicore-recorded","valueDateTime":"2026-05-17T11:30:00.000+00:00"}],"status":"completed","code":{"coding":[{"system":"http://snomed.info/sct","code":"1279742004","display":"Development of nutrition care plan (procedure)"}],"text":"Development of nutrition care plan (procedure)"},"subject":{"reference":"Patient/3a1145a6-7884-4c11-be4d-dd7641fd7beb"},"encounter":{"reference":"Encounter/ScreNotatriRefNoasseNodxCpMSROBSPass2"},"performedPeriod":{"start":"2026-05-17T11:30:00.000+00:00","end":"2026-05-20T08:15:00.000+00:00"}},"request":{"method":"PUT","url":"Procedure/464bbba4-0e30-40a2-b1b6-f5a0de4d2c95"}},{"fullUrl":"Organization/6d03cc20-b150-4506-8fc5-7a61aec4ce6c","resource":{"resourceType":"Organization","id":"6d03cc20-b150-4506-8fc5-7a61aec4ce6c","meta":{"profile":["http://hl7.org/fhir/us/qicore/StructureDefinition/qicore-organization"]},"identifier":[{"use":"temp","system":"urn:oid:2.16.840.1.113883.4.4","value":"21-3259825"}],"active":true,"type":[{"coding":[{"system":"http://terminology.hl7.org/CodeSystem/organization-type","code":"pay","display":"Payer"}]}],"name":"Blue Cross Blue Shield of Texas","telecom":[{"system":"phone","value":"(+1) 972-766-6900"}],"address":[{"use":"billing","type":"postal","line":["P.O. Box 660044"],"city":"Dallas","state":"TX","postalCode":"75266-0044","country":"USA"}]},"request":{"method":"PUT","url":"Organization/6d03cc20-b150-4506-8fc5-7a61aec4ce6c"}},{"fullUrl":"Patient/3a1145a6-7884-4c11-be4d-dd7641fd7beb","resource":{"resourceType":"Patient","id":"3a1145a6-7884-4c11-be4d-dd7641fd7beb","meta":{"profile":["http://hl7.org/fhir/us/qicore/StructureDefinition/qicore-patient"]},"extension":[{"url":"http://hl7.org/fhir/us/core/StructureDefinition/us-core-race","extension":[{"url":"ombCategory","valueCoding":{"system":"urn:oid:2.16.840.1.113883.6.238","code":"2106-3","display":"White","userSelected":true}},{"url":"text","valueString":"White"}]},{"url":"http://hl7.org/fhir/us/core/StructureDefinition/us-core-ethnicity","extension":[{"url":"ombCategory","valueCoding":{"system":"urn:oid:2.16.840.1.113883.6.238","code":"2186-5","display":"Not Hispanic or Latino","userSelected":true}},{"url":"text","valueString":"Not Hispanic or Latino"}]},{"url":"http://hl7.org/fhir/us/core/StructureDefinition/us-core-sex","valueCode":"248152002"}],"identifier":[{"type":{"coding":[{"system":"http://terminology.hl7.org/CodeSystem/v2-0203","code":"MR"}]},"system":"https://madie.cms.gov/","value":"ScreNotatriRefNoasseNodxCp"}],"active":true,"name":[{"use":"usual","text":"ScreNotatriRefNoasseNodxCp","family":"MSROBSPass2","given":["ScreNotatriRefNoasseNodxCp"]}],"gender":"female","birthDate":"1937-11-06","address":[{"text":"ScreNotatriRefNoasseNodxCp, Screened Not at risk Assessed Severely Malnourished Diagnosed Care Plan, ID=ScreNotatriRefNoasseNodxCp, DOB: 06 Nov 1937"}]},"request":{"method":"PUT","url":"Patient/3a1145a6-7884-4c11-be4d-dd7641fd7beb"}},{"fullUrl":"Procedure/e91778d3-a4a1-44f7-add9-1ab36c670c64","resource":{"resourceType":"Procedure","id":"e91778d3-a4a1-44f7-add9-1ab36c670c64","meta":{"profile":["http://hl7.org/fhir/us/qicore/StructureDefinition/qicore-procedure"]},"extension":[{"url":"http://hl7.org/fhir/us/qicore/StructureDefinition/qicore-recorded","valueDateTime":"2026-05-17T11:30:00.000+00:00"}],"status":"completed","code":{"coding":[{"system":"http://snomed.info/sct","code":"306165000","display":"Referral to hospital-based dietetics service (procedure)"}],"text":"Referral to hospital-based dietetics service (procedure)"},"subject":{"reference":"Patient/3a1145a6-7884-4c11-be4d-dd7641fd7beb"},"encounter":{"reference":"Encounter/ScreNotatriRefNoasseNodxCpMSROBSPass2"},"performedPeriod":{"start":"2026-05-17T11:30:00.000+00:00","end":"2026-05-20T08:15:00.000+00:00"}},"request":{"method":"PUT","url":"Procedure/e91778d3-a4a1-44f7-add9-1ab36c670c64"}}]}