{"resourceType":"Bundle","id":"tests-ac2adb48-5f93-46dc-ba35-11abf0b20c49-bundle","type":"transaction","entry":[{"resource":{"resourceType":"Observation","id":"2fbd671c-4f2f-4ec4-b3d3-8f284f1a3b39","meta":{"profile":["http://hl7.org/fhir/us/qicore/StructureDefinition/qicore-observation-screening-assessment"]},"status":"final","category":[{"coding":[{"system":"http://terminology.hl7.org/CodeSystem/observation-category","code":"survey","display":"Survey"}]}],"code":{"coding":[{"system":"http://loinc.org","code":"101819-1","display":"Nutritional Assessment for malnutrition status","userSelected":true}]},"subject":{"reference":"Patient/ac2adb48-5f93-46dc-ba35-11abf0b20c49"},"effectiveDateTime":"2026-02-02T09:00:00.000+00:00","valueCodeableConcept":{"coding":[{"system":"http://snomed.info/sct","code":"102636009","display":"Chronic nutritional deficiency (finding)","userSelected":true}]}},"request":{"method":"PUT","url":"Observation/2fbd671c-4f2f-4ec4-b3d3-8f284f1a3b39"}},{"resource":{"resourceType":"Patient","id":"ac2adb48-5f93-46dc-ba35-11abf0b20c49","meta":{"profile":["http://hl7.org/fhir/us/qicore/StructureDefinition/qicore-patient"]},"extension":[{"url":"http://hl7.org/fhir/us/core/StructureDefinition/us-core-race","extension":[{"url":"ombCategory","valueCoding":{"system":"urn:oid:2.16.840.1.113883.6.238","code":"2106-3","display":"White","userSelected":true}},{"url":"text","valueString":"White"}]},{"url":"http://hl7.org/fhir/us/core/StructureDefinition/us-core-ethnicity","extension":[{"url":"ombCategory","valueCoding":{"system":"urn:oid:2.16.840.1.113883.6.238","code":"2186-5","display":"Not Hispanic or Latino","userSelected":true}},{"url":"text","valueString":"Not Hispanic or Latino"}]},{"url":"http://hl7.org/fhir/us/core/StructureDefinition/us-core-sex","valueCode":"248153007"}],"identifier":[{"type":{"coding":[{"system":"http://terminology.hl7.org/CodeSystem/v2-0203","code":"MR"}]},"system":"https://madie.cms.gov/","value":"DxStartAftrStart"}],"active":true,"name":[{"use":"usual","text":"DxStartAftrStart","family":"MSROBSPass4","given":["DxStartAftrStart"]}],"gender":"male","birthDate":"1965-01-01","address":[{"text":"DxStartAftrStart, Screened Not at risk Assessed Severely Malnourished Diagnosed Care Plan, ID=DxStartAftrStart, DOB: 01 Jan 1965"}]},"request":{"method":"PUT","url":"Patient/ac2adb48-5f93-46dc-ba35-11abf0b20c49"}},{"resource":{"resourceType":"Bundle","id":"DxStartCurPrevEnc","type":"transaction","entry":[{"fullUrl":"https://madie.cms.gov/Patient/ac2adb48-5f93-46dc-ba35-11abf0b20c49","resource":{"resourceType":"Patient","id":"ac2adb48-5f93-46dc-ba35-11abf0b20c49","meta":{"profile":["http://hl7.org/fhir/us/qicore/StructureDefinition/qicore-patient"]},"extension":[{"url":"http://hl7.org/fhir/us/core/StructureDefinition/us-core-race","extension":[{"url":"ombCategory","valueCoding":{"system":"urn:oid:2.16.840.1.113883.6.238","code":"2106-3","display":"White","userSelected":true}},{"url":"text","valueString":"White"}]},{"url":"http://hl7.org/fhir/us/core/StructureDefinition/us-core-ethnicity","extension":[{"url":"ombCategory","valueCoding":{"system":"urn:oid:2.16.840.1.113883.6.238","code":"2186-5","display":"Not Hispanic or Latino","userSelected":true}},{"url":"text","valueString":"Not Hispanic or Latino"}]},{"url":"http://hl7.org/fhir/us/core/StructureDefinition/us-core-sex","valueCode":"248153007"}],"identifier":[{"type":{"coding":[{"system":"http://terminology.hl7.org/CodeSystem/v2-0203","code":"MR"}]},"system":"https://madie.cms.gov/","value":"DxStartAftrStart"}],"active":true,"name":[{"use":"usual","text":"DxStartAftrStart","family":"MSROBSPass4","given":["DxStartAftrStart"]}],"gender":"male","birthDate":"1965-01-01","address":[{"text":"DxStartAftrStart, Screened Not at risk Assessed Severely Malnourished Diagnosed Care Plan, ID=DxStartAftrStart, DOB: 01 Jan 1965"}]},"request":{"method":"PUT","url":"Patient/ac2adb48-5f93-46dc-ba35-11abf0b20c49"}},{"fullUrl":"https://madie.cms.gov/Encounter/2d589488-4046-4a3c-8d77-756fd112ed3c","resource":{"resourceType":"Encounter","id":"2d589488-4046-4a3c-8d77-756fd112ed3c","meta":{"profile":["http://hl7.org/fhir/us/qicore/StructureDefinition/qicore-encounter"]},"status":"finished","class":{"system":"http://terminology.hl7.org/CodeSystem/v3-ActCode","code":"IMP","display":"inpatient encounter"},"type":[{"coding":[{"system":"http://snomed.info/sct","code":"32485007"}]}],"subject":{"reference":"Patient/ac2adb48-5f93-46dc-ba35-11abf0b20c49"},"period":{"start":"2026-02-01T08:00:00.000+00:00","end":"2026-02-07T08:15:00.000+00:00"},"reasonReference":[{"reference":"Condition/7c8e096c-0727-4eb5-925c-5c841b1c45d7"}]},"request":{"method":"PUT","url":"Encounter/2d589488-4046-4a3c-8d77-756fd112ed3c"}},{"fullUrl":"https://madie.cms.gov/Condition/7c8e096c-0727-4eb5-925c-5c841b1c45d7","resource":{"resourceType":"Condition","id":"7c8e096c-0727-4eb5-925c-5c841b1c45d7","meta":{"profile":["http://hl7.org/fhir/us/qicore/StructureDefinition/qicore-condition-encounter-diagnosis"]},"clinicalStatus":{"coding":[{"system":"http://terminology.hl7.org/CodeSystem/condition-clinical","code":"active","display":"Active","userSelected":true}]},"verificationStatus":{"coding":[{"system":"http://terminology.hl7.org/CodeSystem/condition-ver-status","code":"confirmed","display":"Confirmed","userSelected":true}]},"category":[{"coding":[{"system":"http://terminology.hl7.org/CodeSystem/condition-category","code":"encounter-diagnosis","display":"Encounter Diagnosis","userSelected":true}]}],"code":{"coding":[{"system":"http://hl7.org/fhir/sid/icd-10-cm","code":"O25.11","display":"Malnutrition in pregnancy, first trimester","userSelected":true}]},"subject":{"reference":"Patient/ac2adb48-5f93-46dc-ba35-11abf0b20c49"},"onsetPeriod":{"start":"2026-02-03T08:00:00.000+00:00"},"recordedDate":"2026-02-03T11:00:00.000+00:00"},"request":{"method":"PUT","url":"Condition/7c8e096c-0727-4eb5-925c-5c841b1c45d7"}},{"fullUrl":"https://madie.cms.gov/Observation/0de6bfc9-88e8-4e54-86bb-ba4e8a6791a6","resource":{"resourceType":"Observation","id":"0de6bfc9-88e8-4e54-86bb-ba4e8a6791a6","meta":{"profile":["http://hl7.org/fhir/us/qicore/StructureDefinition/qicore-observation-screening-assessment"]},"status":"final","category":[{"coding":[{"system":"http://terminology.hl7.org/CodeSystem/observation-category","code":"survey","display":"Survey"}]}],"code":{"coding":[{"system":"http://loinc.org","code":"101807-6","display":"Malnutrition risk screen results indicator","userSelected":true}]},"subject":{"reference":"Patient/ac2adb48-5f93-46dc-ba35-11abf0b20c49"},"effectiveDateTime":"2026-02-02T09:00:00.000+00:00","valueCodeableConcept":{"coding":[{"system":"http://snomed.info/sct","code":"129689002","display":"At increased risk for nutritional problem (finding)","userSelected":true}]}},"request":{"method":"PUT","url":"Observation/0de6bfc9-88e8-4e54-86bb-ba4e8a6791a6"}},{"fullUrl":"https://madie.cms.gov/Observation/2fbd671c-4f2f-4ec4-b3d3-8f284f1a3b39","resource":{"resourceType":"Observation","id":"2fbd671c-4f2f-4ec4-b3d3-8f284f1a3b39","meta":{"profile":["http://hl7.org/fhir/us/qicore/StructureDefinition/qicore-observation-screening-assessment"]},"status":"final","category":[{"coding":[{"system":"http://terminology.hl7.org/CodeSystem/observation-category","code":"survey","display":"Survey"}]}],"code":{"coding":[{"system":"http://loinc.org","code":"101819-1","display":"Nutritional Assessment for malnutrition status","userSelected":true}]},"subject":{"reference":"Patient/ac2adb48-5f93-46dc-ba35-11abf0b20c49"},"effectiveDateTime":"2026-02-02T09:00:00.000+00:00","valueCodeableConcept":{"coding":[{"system":"http://snomed.info/sct","code":"102636009","display":"Chronic nutritional deficiency (finding)","userSelected":true}]}},"request":{"method":"PUT","url":"Observation/2fbd671c-4f2f-4ec4-b3d3-8f284f1a3b39"}},{"fullUrl":"https://madie.cms.gov/Coverage/2983996a-8076-4cfa-b422-3e906b06111b","resource":{"resourceType":"Coverage","id":"2983996a-8076-4cfa-b422-3e906b06111b","meta":{"profile":["http://hl7.org/fhir/us/qicore/StructureDefinition/qicore-coverage"]},"status":"active","type":{"coding":[{"system":"https://nahdo.org/sopt","version":"9.2","code":"11","display":"Medicare Managed Care (Includes Medicare Advantage Plans)"}]},"subscriberId":"97531","beneficiary":{"reference":"Patient/ac2adb48-5f93-46dc-ba35-11abf0b20c49"},"dependent":"0","relationship":{"coding":[{"system":"http://terminology.hl7.org/CodeSystem/subscriber-relationship","code":"self"}]},"period":{"start":"2025-10-01T00:00:00.000+00:00"},"payor":[{"reference":"Organization/DxStartAftrStart-98"}]},"request":{"method":"PUT","url":"Coverage/2983996a-8076-4cfa-b422-3e906b06111b"}},{"fullUrl":"https://madie.cms.gov/MeasureReport/2ec26d0b-6703-457e-b32c-fd6ee7795a16","resource":{"resourceType":"MeasureReport","id":"2ec26d0b-6703-457e-b32c-fd6ee7795a16","meta":{"profile":["http://hl7.org/fhir/us/cqfmeasures/StructureDefinition/test-case-cqfm"]},"contained":[{"resourceType":"Parameters","id":"6ebdbae9-38dc-45c1-b4d3-c8dc4b5c420f-parameters","parameter":[{"name":"subject","valueString":"ac2adb48-5f93-46dc-ba35-11abf0b20c49"}]}],"extension":[{"url":"http://hl7.org/fhir/StructureDefinition/cqf-inputParameters","valueReference":{"reference":"#6ebdbae9-38dc-45c1-b4d3-c8dc4b5c420f-parameters"}},{"url":"http://hl7.org/fhir/us/cqfmeasures/StructureDefinition/cqfm-testCaseDescription","valueMarkdown":"Dx Start After Start of Encounter and is Active"}],"modifierExtension":[{"url":"http://hl7.org/fhir/us/cqfmeasures/StructureDefinition/cqfm-isTestCase","valueBoolean":true}],"status":"complete","type":"individual","measure":"https://madie.cms.gov/Measure/CMS986FHIRMalnutritionScore","period":{"start":"2026-01-01","end":"2026-12-31"},"group":[{"id":"Group_1","population":[{"id":"InitialPopulation_1","code":{"coding":[{"system":"http://terminology.hl7.org/CodeSystem/measure-population","code":"initial-population","display":"Initial Population"}]},"count":1},{"id":"MeasurePopulation_1","code":{"coding":[{"system":"http://terminology.hl7.org/CodeSystem/measure-population","code":"measure-population","display":"Measure Population"}]},"count":1},{"id":"MeasurePopulationExclusion_1","code":{"coding":[{"system":"http://terminology.hl7.org/CodeSystem/measure-population","code":"measure-population-exclusion","display":"Measure Population Exclusion"}]},"count":0},{"id":"MeasureObservation_1_1","code":{"coding":[{"system":"http://terminology.hl7.org/CodeSystem/measure-population","code":"measure-population-observation","display":"Measure Population Observation"}]},"count":1}],"measureScore":{"value":0.0}},{"id":"Group_2","population":[{"id":"InitialPopulation_2","code":{"coding":[{"system":"http://terminology.hl7.org/CodeSystem/measure-population","code":"initial-population","display":"Initial Population"}]},"count":1},{"id":"MeasurePopulation_2","code":{"coding":[{"system":"http://terminology.hl7.org/CodeSystem/measure-population","code":"measure-population","display":"Measure Population"}]},"count":1},{"id":"MeasurePopulationExclusion_2","code":{"coding":[{"system":"http://terminology.hl7.org/CodeSystem/measure-population","code":"measure-population-exclusion","display":"Measure Population Exclusion"}]},"count":0},{"id":"MeasureObservation_2_1","code":{"coding":[{"system":"http://terminology.hl7.org/CodeSystem/measure-population","code":"measure-population-observation","display":"Measure Population Observation"}]},"count":1}],"measureScore":{"value":0.0}},{"id":"Group_3","population":[{"id":"InitialPopulation_3","code":{"coding":[{"system":"http://terminology.hl7.org/CodeSystem/measure-population","code":"initial-population","display":"Initial Population"}]},"count":1},{"id":"MeasurePopulation_3","code":{"coding":[{"system":"http://terminology.hl7.org/CodeSystem/measure-population","code":"measure-population","display":"Measure Population"}]},"count":1},{"id":"MeasurePopulationExclusion_3","code":{"coding":[{"system":"http://terminology.hl7.org/CodeSystem/measure-population","code":"measure-population-exclusion","display":"Measure Population Exclusion"}]},"count":0},{"id":"MeasureObservation_3_1","code":{"coding":[{"system":"http://terminology.hl7.org/CodeSystem/measure-population","code":"measure-population-observation","display":"Measure Population Observation"}]},"count":1}],"measureScore":{"value":0.0}},{"id":"Group_4","population":[{"id":"InitialPopulation_4","code":{"coding":[{"system":"http://terminology.hl7.org/CodeSystem/measure-population","code":"initial-population","display":"Initial Population"}]},"count":1},{"id":"MeasurePopulation_4","code":{"coding":[{"system":"http://terminology.hl7.org/CodeSystem/measure-population","code":"measure-population","display":"Measure Population"}]},"count":1},{"id":"MeasurePopulationExclusion_4","code":{"coding":[{"system":"http://terminology.hl7.org/CodeSystem/measure-population","code":"measure-population-exclusion","display":"Measure Population Exclusion"}]},"count":0},{"id":"MeasureObservation_4_1","code":{"coding":[{"system":"http://terminology.hl7.org/CodeSystem/measure-population","code":"measure-population-observation","display":"Measure Population Observation"}]},"count":0}],"measureScore":{"value":0.0}},{"id":"Group_5","population":[{"id":"InitialPopulation_5","code":{"coding":[{"system":"http://terminology.hl7.org/CodeSystem/measure-population","code":"initial-population","display":"Initial Population"}]},"count":1},{"id":"MeasurePopulation_5","code":{"coding":[{"system":"http://terminology.hl7.org/CodeSystem/measure-population","code":"measure-population","display":"Measure Population"}]},"count":1},{"id":"MeasurePopulationExclusion_5","code":{"coding":[{"system":"http://terminology.hl7.org/CodeSystem/measure-population","code":"measure-population-exclusion","display":"Measure Population Exclusion"}]},"count":0},{"id":"MeasureObservation_5_1","code":{"coding":[{"system":"http://terminology.hl7.org/CodeSystem/measure-population","code":"measure-population-observation","display":"Measure Population Observation"}]},"count":3}],"measureScore":{"value":0.0}},{"id":"Group_6","population":[{"id":"InitialPopulation_6","code":{"coding":[{"system":"http://terminology.hl7.org/CodeSystem/measure-population","code":"initial-population","display":"Initial Population"}]},"count":1},{"id":"MeasurePopulation_6","code":{"coding":[{"system":"http://terminology.hl7.org/CodeSystem/measure-population","code":"measure-population","display":"Measure Population"}]},"count":1},{"id":"MeasurePopulationExclusion_6","code":{"coding":[{"system":"http://terminology.hl7.org/CodeSystem/measure-population","code":"measure-population-exclusion","display":"Measure Population Exclusion"}]},"count":0},{"id":"MeasureObservation_6_1","code":{"coding":[{"system":"http://terminology.hl7.org/CodeSystem/measure-population","code":"measure-population-observation","display":"Measure Population Observation"}]},"count":75}],"measureScore":{"value":0.0}}],"evaluatedResource":[{"reference":"Patient/ac2adb48-5f93-46dc-ba35-11abf0b20c49"},{"reference":"Encounter/2d589488-4046-4a3c-8d77-756fd112ed3c"},{"reference":"Condition/7c8e096c-0727-4eb5-925c-5c841b1c45d7"},{"reference":"Observation/0de6bfc9-88e8-4e54-86bb-ba4e8a6791a6"},{"reference":"Observation/2fbd671c-4f2f-4ec4-b3d3-8f284f1a3b39"},{"reference":"Coverage/2983996a-8076-4cfa-b422-3e906b06111b"}]},"request":{"method":"PUT","url":"MeasureReport/2ec26d0b-6703-457e-b32c-fd6ee7795a16"}}]},"request":{"method":"PUT","url":"Bundle/DxStartCurPrevEnc"}},{"resource":{"resourceType":"Condition","id":"7c8e096c-0727-4eb5-925c-5c841b1c45d7","meta":{"profile":["http://hl7.org/fhir/us/qicore/StructureDefinition/qicore-condition-encounter-diagnosis"]},"clinicalStatus":{"coding":[{"system":"http://terminology.hl7.org/CodeSystem/condition-clinical","code":"active","display":"Active","userSelected":true}]},"verificationStatus":{"coding":[{"system":"http://terminology.hl7.org/CodeSystem/condition-ver-status","code":"confirmed","display":"Confirmed","userSelected":true}]},"category":[{"coding":[{"system":"http://terminology.hl7.org/CodeSystem/condition-category","code":"encounter-diagnosis","display":"Encounter Diagnosis","userSelected":true}]}],"code":{"coding":[{"system":"http://hl7.org/fhir/sid/icd-10-cm","code":"O25.11","display":"Malnutrition in pregnancy, first trimester","userSelected":true}]},"subject":{"reference":"Patient/ac2adb48-5f93-46dc-ba35-11abf0b20c49"},"onsetPeriod":{"start":"2026-02-03T08:00:00.000+00:00"},"recordedDate":"2026-02-03T11:00:00.000+00:00"},"request":{"method":"PUT","url":"Condition/7c8e096c-0727-4eb5-925c-5c841b1c45d7"}},{"resource":{"resourceType":"Coverage","id":"2983996a-8076-4cfa-b422-3e906b06111b","meta":{"profile":["http://hl7.org/fhir/us/qicore/StructureDefinition/qicore-coverage"]},"status":"active","type":{"coding":[{"system":"https://nahdo.org/sopt","version":"9.2","code":"11","display":"Medicare Managed Care (Includes Medicare Advantage Plans)"}]},"subscriberId":"97531","beneficiary":{"reference":"Patient/ac2adb48-5f93-46dc-ba35-11abf0b20c49"},"dependent":"0","relationship":{"coding":[{"system":"http://terminology.hl7.org/CodeSystem/subscriber-relationship","code":"self"}]},"period":{"start":"2025-10-01T00:00:00.000+00:00"},"payor":[{"reference":"Organization/DxStartAftrStart-98"}]},"request":{"method":"PUT","url":"Coverage/2983996a-8076-4cfa-b422-3e906b06111b"}},{"resource":{"resourceType":"Observation","id":"0de6bfc9-88e8-4e54-86bb-ba4e8a6791a6","meta":{"profile":["http://hl7.org/fhir/us/qicore/StructureDefinition/qicore-observation-screening-assessment"]},"status":"final","category":[{"coding":[{"system":"http://terminology.hl7.org/CodeSystem/observation-category","code":"survey","display":"Survey"}]}],"code":{"coding":[{"system":"http://loinc.org","code":"101807-6","display":"Malnutrition risk screen results indicator","userSelected":true}]},"subject":{"reference":"Patient/ac2adb48-5f93-46dc-ba35-11abf0b20c49"},"effectiveDateTime":"2026-02-02T09:00:00.000+00:00","valueCodeableConcept":{"coding":[{"system":"http://snomed.info/sct","code":"129689002","display":"At increased risk for nutritional problem (finding)","userSelected":true}]}},"request":{"method":"PUT","url":"Observation/0de6bfc9-88e8-4e54-86bb-ba4e8a6791a6"}},{"resource":{"resourceType":"MeasureReport","id":"2ec26d0b-6703-457e-b32c-fd6ee7795a16","meta":{"profile":["http://hl7.org/fhir/us/cqfmeasures/StructureDefinition/test-case-cqfm"]},"contained":[{"resourceType":"Parameters","id":"6ebdbae9-38dc-45c1-b4d3-c8dc4b5c420f-parameters","parameter":[{"name":"subject","valueString":"ac2adb48-5f93-46dc-ba35-11abf0b20c49"}]}],"extension":[{"url":"http://hl7.org/fhir/StructureDefinition/cqf-inputParameters","valueReference":{"reference":"#6ebdbae9-38dc-45c1-b4d3-c8dc4b5c420f-parameters"}},{"url":"http://hl7.org/fhir/us/cqfmeasures/StructureDefinition/cqfm-testCaseDescription","valueMarkdown":"Dx Start After Start of Encounter and is Active"}],"modifierExtension":[{"url":"http://hl7.org/fhir/us/cqfmeasures/StructureDefinition/cqfm-isTestCase","valueBoolean":true}],"status":"complete","type":"individual","measure":"https://madie.cms.gov/Measure/CMS986FHIRMalnutritionScore","period":{"start":"2026-01-01","end":"2026-12-31"},"group":[{"id":"Group_1","population":[{"id":"InitialPopulation_1","code":{"coding":[{"system":"http://terminology.hl7.org/CodeSystem/measure-population","code":"initial-population","display":"Initial Population"}]},"count":1},{"id":"MeasurePopulation_1","code":{"coding":[{"system":"http://terminology.hl7.org/CodeSystem/measure-population","code":"measure-population","display":"Measure Population"}]},"count":1},{"id":"MeasurePopulationExclusion_1","code":{"coding":[{"system":"http://terminology.hl7.org/CodeSystem/measure-population","code":"measure-population-exclusion","display":"Measure Population Exclusion"}]},"count":0},{"id":"MeasureObservation_1_1","code":{"coding":[{"system":"http://terminology.hl7.org/CodeSystem/measure-population","code":"measure-population-observation","display":"Measure Population Observation"}]},"count":1}],"measureScore":{"value":0.0}},{"id":"Group_2","population":[{"id":"InitialPopulation_2","code":{"coding":[{"system":"http://terminology.hl7.org/CodeSystem/measure-population","code":"initial-population","display":"Initial Population"}]},"count":1},{"id":"MeasurePopulation_2","code":{"coding":[{"system":"http://terminology.hl7.org/CodeSystem/measure-population","code":"measure-population","display":"Measure Population"}]},"count":1},{"id":"MeasurePopulationExclusion_2","code":{"coding":[{"system":"http://terminology.hl7.org/CodeSystem/measure-population","code":"measure-population-exclusion","display":"Measure Population Exclusion"}]},"count":0},{"id":"MeasureObservation_2_1","code":{"coding":[{"system":"http://terminology.hl7.org/CodeSystem/measure-population","code":"measure-population-observation","display":"Measure Population Observation"}]},"count":1}],"measureScore":{"value":0.0}},{"id":"Group_3","population":[{"id":"InitialPopulation_3","code":{"coding":[{"system":"http://terminology.hl7.org/CodeSystem/measure-population","code":"initial-population","display":"Initial Population"}]},"count":1},{"id":"MeasurePopulation_3","code":{"coding":[{"system":"http://terminology.hl7.org/CodeSystem/measure-population","code":"measure-population","display":"Measure Population"}]},"count":1},{"id":"MeasurePopulationExclusion_3","code":{"coding":[{"system":"http://terminology.hl7.org/CodeSystem/measure-population","code":"measure-population-exclusion","display":"Measure Population Exclusion"}]},"count":0},{"id":"MeasureObservation_3_1","code":{"coding":[{"system":"http://terminology.hl7.org/CodeSystem/measure-population","code":"measure-population-observation","display":"Measure Population Observation"}]},"count":1}],"measureScore":{"value":0.0}},{"id":"Group_4","population":[{"id":"InitialPopulation_4","code":{"coding":[{"system":"http://terminology.hl7.org/CodeSystem/measure-population","code":"initial-population","display":"Initial Population"}]},"count":1},{"id":"MeasurePopulation_4","code":{"coding":[{"system":"http://terminology.hl7.org/CodeSystem/measure-population","code":"measure-population","display":"Measure Population"}]},"count":1},{"id":"MeasurePopulationExclusion_4","code":{"coding":[{"system":"http://terminology.hl7.org/CodeSystem/measure-population","code":"measure-population-exclusion","display":"Measure Population Exclusion"}]},"count":0},{"id":"MeasureObservation_4_1","code":{"coding":[{"system":"http://terminology.hl7.org/CodeSystem/measure-population","code":"measure-population-observation","display":"Measure Population Observation"}]},"count":0}],"measureScore":{"value":0.0}},{"id":"Group_5","population":[{"id":"InitialPopulation_5","code":{"coding":[{"system":"http://terminology.hl7.org/CodeSystem/measure-population","code":"initial-population","display":"Initial Population"}]},"count":1},{"id":"MeasurePopulation_5","code":{"coding":[{"system":"http://terminology.hl7.org/CodeSystem/measure-population","code":"measure-population","display":"Measure Population"}]},"count":1},{"id":"MeasurePopulationExclusion_5","code":{"coding":[{"system":"http://terminology.hl7.org/CodeSystem/measure-population","code":"measure-population-exclusion","display":"Measure Population Exclusion"}]},"count":0},{"id":"MeasureObservation_5_1","code":{"coding":[{"system":"http://terminology.hl7.org/CodeSystem/measure-population","code":"measure-population-observation","display":"Measure Population Observation"}]},"count":3}],"measureScore":{"value":0.0}},{"id":"Group_6","population":[{"id":"InitialPopulation_6","code":{"coding":[{"system":"http://terminology.hl7.org/CodeSystem/measure-population","code":"initial-population","display":"Initial Population"}]},"count":1},{"id":"MeasurePopulation_6","code":{"coding":[{"system":"http://terminology.hl7.org/CodeSystem/measure-population","code":"measure-population","display":"Measure Population"}]},"count":1},{"id":"MeasurePopulationExclusion_6","code":{"coding":[{"system":"http://terminology.hl7.org/CodeSystem/measure-population","code":"measure-population-exclusion","display":"Measure Population Exclusion"}]},"count":0},{"id":"MeasureObservation_6_1","code":{"coding":[{"system":"http://terminology.hl7.org/CodeSystem/measure-population","code":"measure-population-observation","display":"Measure Population Observation"}]},"count":75}],"measureScore":{"value":0.0}}],"evaluatedResource":[{"reference":"Patient/ac2adb48-5f93-46dc-ba35-11abf0b20c49"},{"reference":"Encounter/2d589488-4046-4a3c-8d77-756fd112ed3c"},{"reference":"Condition/7c8e096c-0727-4eb5-925c-5c841b1c45d7"},{"reference":"Observation/0de6bfc9-88e8-4e54-86bb-ba4e8a6791a6"},{"reference":"Observation/2fbd671c-4f2f-4ec4-b3d3-8f284f1a3b39"},{"reference":"Coverage/2983996a-8076-4cfa-b422-3e906b06111b"}]},"request":{"method":"PUT","url":"MeasureReport/2ec26d0b-6703-457e-b32c-fd6ee7795a16"}},{"resource":{"resourceType":"Encounter","id":"2d589488-4046-4a3c-8d77-756fd112ed3c","meta":{"profile":["http://hl7.org/fhir/us/qicore/StructureDefinition/qicore-encounter"]},"status":"finished","class":{"system":"http://terminology.hl7.org/CodeSystem/v3-ActCode","code":"IMP","display":"inpatient encounter"},"type":[{"coding":[{"system":"http://snomed.info/sct","code":"32485007"}]}],"subject":{"reference":"Patient/ac2adb48-5f93-46dc-ba35-11abf0b20c49"},"period":{"start":"2026-02-01T08:00:00.000+00:00","end":"2026-02-07T08:15:00.000+00:00"},"reasonReference":[{"reference":"Condition/7c8e096c-0727-4eb5-925c-5c841b1c45d7"}]},"request":{"method":"PUT","url":"Encounter/2d589488-4046-4a3c-8d77-756fd112ed3c"}}]}