{"resourceType":"Bundle","id":"tests-e5582d8a-91d9-4234-910d-db7a6fa68785-bundle","type":"transaction","entry":[{"fullUrl":"Coverage/5e7aca32-837e-4cae-b192-7af58314828a","resource":{"resourceType":"Coverage","id":"5e7aca32-837e-4cae-b192-7af58314828a","meta":{"profile":["http://hl7.org/fhir/us/qicore/StructureDefinition/qicore-coverage"]},"status":"active","type":{"coding":[{"system":"https://nahdo.org/sopt","version":"9.2","code":"11","display":"Medicare Managed Care (Includes Medicare Advantage Plans)"}]},"subscriberId":"97531","beneficiary":{"reference":"Patient/e5582d8a-91d9-4234-910d-db7a6fa68785"},"dependent":"0","relationship":{"coding":[{"system":"http://terminology.hl7.org/CodeSystem/subscriber-relationship","code":"self"}]},"period":{"start":"2025-10-01T00:00:00Z"},"payor":[{"reference":"Organization/ScreAtriNorefAsseModTHENNotMDxCpScreAtriNorefAsseModDxNocp-98"}]},"request":{"method":"PUT","url":"Coverage/5e7aca32-837e-4cae-b192-7af58314828a"}},{"fullUrl":"Observation/df59da4a-b3b3-46cd-92b3-4a8be20a02e3","resource":{"resourceType":"Observation","id":"df59da4a-b3b3-46cd-92b3-4a8be20a02e3","meta":{"profile":["http://hl7.org/fhir/us/qicore/StructureDefinition/qicore-observation-screening-assessment"]},"status":"final","category":[{"coding":[{"system":"http://terminology.hl7.org/CodeSystem/observation-category","code":"survey","display":"Survey"}]}],"code":{"coding":[{"system":"http://loinc.org","code":"75285-7","display":"Comparative Nutrition Assessment Standards Panel","userSelected":true}]},"subject":{"reference":"Patient/e5582d8a-91d9-4234-910d-db7a6fa68785"},"effectiveDateTime":"2026-07-15T08:00:00Z","valueCodeableConcept":{"coding":[{"system":"http://loinc.org","code":"LA33701-6","display":"Well nourished","userSelected":true}]}},"request":{"method":"PUT","url":"Observation/df59da4a-b3b3-46cd-92b3-4a8be20a02e3"}},{"fullUrl":"Organization/48b74683-5a34-4628-9088-1f821bf12fd4","resource":{"resourceType":"Organization","id":"48b74683-5a34-4628-9088-1f821bf12fd4","meta":{"profile":["http://hl7.org/fhir/us/qicore/StructureDefinition/qicore-organization"]},"identifier":[{"use":"temp","system":"urn:oid:2.16.840.1.113883.4.4","value":"21-3259825"}],"active":true,"type":[{"coding":[{"system":"http://terminology.hl7.org/CodeSystem/organization-type","code":"pay","display":"Payer"}]}],"name":"Blue Cross Blue Shield of Texas","telecom":[{"system":"phone","value":"(+1) 972-766-6900"}],"address":[{"use":"billing","type":"postal","line":["P.O. Box 660044"],"city":"Dallas","state":"TX","postalCode":"75266-0044","country":"USA"}]},"request":{"method":"PUT","url":"Organization/48b74683-5a34-4628-9088-1f821bf12fd4"}},{"fullUrl":"Procedure/f0490537-592d-4359-b4f3-4a65862aaea1","resource":{"resourceType":"Procedure","id":"f0490537-592d-4359-b4f3-4a65862aaea1","meta":{"profile":["http://hl7.org/fhir/us/qicore/StructureDefinition/qicore-procedure"]},"extension":[{"url":"http://hl7.org/fhir/us/qicore/StructureDefinition/qicore-recorded","valueDateTime":"2025-02-02T11:30:00Z"}],"status":"completed","code":{"coding":[{"system":"http://snomed.info/sct","code":"445101000124100","display":"Collaborating in nutrition therapy (procedure)"}],"text":"Collaborating in nutrition therapy (procedure)"},"subject":{"reference":"Patient/e5582d8a-91d9-4234-910d-db7a6fa68785"},"encounter":{"reference":"Encounter/ScreAtriNorefAsseModTHENNotMDxCpMSROBSPass2"},"performedPeriod":{"start":"2026-07-15T08:00:00Z","end":"2026-07-15T08:00:00Z"}},"request":{"method":"PUT","url":"Procedure/f0490537-592d-4359-b4f3-4a65862aaea1"}},{"fullUrl":"Bundle/ScreAtriNorefAsseModTHENNotMDxCp","resource":{"resourceType":"Bundle","id":"ScreAtriNorefAsseModTHENNotMDxCp","type":"transaction","entry":[{"fullUrl":"https://madie.cms.gov/Patient/e5582d8a-91d9-4234-910d-db7a6fa68785","resource":{"resourceType":"Patient","id":"e5582d8a-91d9-4234-910d-db7a6fa68785","meta":{"profile":["http://hl7.org/fhir/us/qicore/StructureDefinition/qicore-patient"]},"extension":[{"url":"http://hl7.org/fhir/us/core/StructureDefinition/us-core-race","extension":[{"url":"ombCategory","valueCoding":{"system":"urn:oid:2.16.840.1.113883.6.238","code":"2106-3","display":"White","userSelected":true}},{"url":"text","valueString":"White"}]},{"url":"http://hl7.org/fhir/us/core/StructureDefinition/us-core-ethnicity","extension":[{"url":"ombCategory","valueCoding":{"system":"urn:oid:2.16.840.1.113883.6.238","code":"2186-5","display":"Not Hispanic or Latino","userSelected":true}},{"url":"text","valueString":"Not Hispanic or Latino"}]},{"url":"http://hl7.org/fhir/us/core/StructureDefinition/us-core-sex","valueCode":"248152002"}],"identifier":[{"type":{"coding":[{"system":"http://terminology.hl7.org/CodeSystem/v2-0203","code":"MR"}]},"system":"https://madie.cms.gov/","value":"ScreAtriNorefAsseModTHENNotMDxCp"}],"active":true,"name":[{"use":"usual","text":"ScreAtriNorefAsseModTHENNotMDxCp","family":"MSROBSPass2","given":["ScreAtriNorefAsseModTHENNotMDxCp"]}],"gender":"female","birthDate":"1950-03-10","address":[{"text":"ScreAtriNorefAsseModTHENNotMDxCp, Screened at risk No ref Assessed Mod then Not Malnourished Diagnosed Care Plan, ID=ScreAtriNorefAsseModDxNocp, DOB: 10 Mar 1950"}]},"request":{"method":"PUT","url":"Patient/e5582d8a-91d9-4234-910d-db7a6fa68785"}},{"fullUrl":"https://madie.cms.gov/Encounter/d195f843-fed6-4313-9d94-cee8a997c235","resource":{"resourceType":"Encounter","id":"d195f843-fed6-4313-9d94-cee8a997c235","meta":{"profile":["http://hl7.org/fhir/us/qicore/StructureDefinition/qicore-encounter"]},"status":"finished","class":{"system":"http://terminology.hl7.org/CodeSystem/v3-ActCode","code":"IMP","display":"inpatient encounter"},"type":[{"coding":[{"system":"http://snomed.info/sct","code":"183452005"}]}],"subject":{"reference":"Patient/e5582d8a-91d9-4234-910d-db7a6fa68785"},"period":{"start":"2026-07-14T08:00:00Z","end":"2026-07-16T08:00:00Z"},"reasonCode":[{"coding":[{"system":"http://snomed.info/sct","code":"77675002","display":"Anorexia nervosa, restricting type (disorder)"}]}],"diagnosis":[{"condition":{"reference":"Condition/5ab2d3f0-ea66-4ada-a535-d9bb4be06a85"}}]},"request":{"method":"PUT","url":"Encounter/d195f843-fed6-4313-9d94-cee8a997c235"}},{"fullUrl":"https://madie.cms.gov/Observation/c697bde9-a6a2-44f5-8e0e-ffd399ca47ba","resource":{"resourceType":"Observation","id":"c697bde9-a6a2-44f5-8e0e-ffd399ca47ba","meta":{"profile":["http://hl7.org/fhir/us/qicore/StructureDefinition/qicore-observation-screening-assessment"]},"status":"final","category":[{"coding":[{"system":"http://terminology.hl7.org/CodeSystem/observation-category","code":"survey","display":"Survey"}]}],"code":{"coding":[{"system":"http://loinc.org","code":"98967-3","display":"Nutritional Risk Screening 2002 panel","userSelected":true}]},"subject":{"reference":"Patient/e5582d8a-91d9-4234-910d-db7a6fa68785"},"effectiveDateTime":"2026-07-15T08:00:00Z","valueCodeableConcept":{"coding":[{"system":"http://snomed.info/sct","code":"704361005","display":"At risk of deficient food intake","userSelected":true}]}},"request":{"method":"PUT","url":"Observation/c697bde9-a6a2-44f5-8e0e-ffd399ca47ba"}},{"fullUrl":"https://madie.cms.gov/Observation/35c98fd5-1f56-4dab-aa5f-3b6f8fb1fc1a","resource":{"resourceType":"Observation","id":"35c98fd5-1f56-4dab-aa5f-3b6f8fb1fc1a","meta":{"profile":["http://hl7.org/fhir/us/qicore/StructureDefinition/qicore-observation-screening-assessment"]},"status":"final","category":[{"coding":[{"system":"http://terminology.hl7.org/CodeSystem/observation-category","code":"survey","display":"Survey"}]}],"code":{"coding":[{"system":"http://loinc.org","code":"75285-7","display":"Comparative Nutrition Assessment Standards Panel","userSelected":true}]},"subject":{"reference":"Patient/e5582d8a-91d9-4234-910d-db7a6fa68785"},"effectiveDateTime":"2026-07-14T08:00:00Z","valueCodeableConcept":{"coding":[{"system":"http://snomed.info/sct","code":"190606006","display":"Moderate protein energy malnutrition (disorder)","userSelected":true}]}},"request":{"method":"PUT","url":"Observation/35c98fd5-1f56-4dab-aa5f-3b6f8fb1fc1a"}},{"fullUrl":"https://madie.cms.gov/Procedure/f0490537-592d-4359-b4f3-4a65862aaea1","resource":{"resourceType":"Procedure","id":"f0490537-592d-4359-b4f3-4a65862aaea1","meta":{"profile":["http://hl7.org/fhir/us/qicore/StructureDefinition/qicore-procedure"]},"extension":[{"url":"http://hl7.org/fhir/us/qicore/StructureDefinition/qicore-recorded","valueDateTime":"2025-02-02T11:30:00Z"}],"status":"completed","code":{"coding":[{"system":"http://snomed.info/sct","code":"445101000124100","display":"Collaborating in nutrition therapy (procedure)"}],"text":"Collaborating in nutrition therapy (procedure)"},"subject":{"reference":"Patient/e5582d8a-91d9-4234-910d-db7a6fa68785"},"encounter":{"reference":"Encounter/ScreAtriNorefAsseModTHENNotMDxCpMSROBSPass2"},"performedPeriod":{"start":"2026-07-15T08:00:00Z","end":"2026-07-15T08:00:00Z"}},"request":{"method":"PUT","url":"Procedure/f0490537-592d-4359-b4f3-4a65862aaea1"}},{"fullUrl":"https://madie.cms.gov/Observation/df59da4a-b3b3-46cd-92b3-4a8be20a02e3","resource":{"resourceType":"Observation","id":"df59da4a-b3b3-46cd-92b3-4a8be20a02e3","meta":{"profile":["http://hl7.org/fhir/us/qicore/StructureDefinition/qicore-observation-screening-assessment"]},"status":"final","category":[{"coding":[{"system":"http://terminology.hl7.org/CodeSystem/observation-category","code":"survey","display":"Survey"}]}],"code":{"coding":[{"system":"http://loinc.org","code":"75285-7","display":"Comparative Nutrition Assessment Standards Panel","userSelected":true}]},"subject":{"reference":"Patient/e5582d8a-91d9-4234-910d-db7a6fa68785"},"effectiveDateTime":"2026-07-15T08:00:00Z","valueCodeableConcept":{"coding":[{"system":"http://loinc.org","code":"LA33701-6","display":"Well nourished","userSelected":true}]}},"request":{"method":"PUT","url":"Observation/df59da4a-b3b3-46cd-92b3-4a8be20a02e3"}},{"fullUrl":"https://madie.cms.gov/Condition/5ab2d3f0-ea66-4ada-a535-d9bb4be06a85","resource":{"resourceType":"Condition","id":"5ab2d3f0-ea66-4ada-a535-d9bb4be06a85","meta":{"profile":["http://hl7.org/fhir/us/qicore/StructureDefinition/qicore-condition-encounter-diagnosis"]},"clinicalStatus":{"coding":[{"system":"http://terminology.hl7.org/CodeSystem/condition-clinical","code":"active","display":"Active","userSelected":true}]},"verificationStatus":{"coding":[{"system":"http://terminology.hl7.org/CodeSystem/condition-ver-status","code":"confirmed","display":"Confirmed","userSelected":true}]},"category":[{"coding":[{"system":"http://terminology.hl7.org/CodeSystem/condition-category","code":"encounter-diagnosis","display":"Encounter Diagnosis","userSelected":true}]}],"code":{"coding":[{"system":"http://snomed.info/sct","code":"77675002","display":"Anorexia nervosa, restricting type (disorder)","userSelected":true}]},"subject":{"reference":"Patient/e5582d8a-91d9-4234-910d-db7a6fa68785"},"onsetPeriod":{"start":"2026-07-14T08:00:00Z"},"recordedDate":"2026-07-16T08:00:00Z"},"request":{"method":"PUT","url":"Condition/5ab2d3f0-ea66-4ada-a535-d9bb4be06a85"}},{"fullUrl":"https://madie.cms.gov/Coverage/5e7aca32-837e-4cae-b192-7af58314828a","resource":{"resourceType":"Coverage","id":"5e7aca32-837e-4cae-b192-7af58314828a","meta":{"profile":["http://hl7.org/fhir/us/qicore/StructureDefinition/qicore-coverage"]},"status":"active","type":{"coding":[{"system":"https://nahdo.org/sopt","version":"9.2","code":"11","display":"Medicare Managed Care (Includes Medicare Advantage Plans)"}]},"subscriberId":"97531","beneficiary":{"reference":"Patient/e5582d8a-91d9-4234-910d-db7a6fa68785"},"dependent":"0","relationship":{"coding":[{"system":"http://terminology.hl7.org/CodeSystem/subscriber-relationship","code":"self"}]},"period":{"start":"2025-10-01T00:00:00Z"},"payor":[{"reference":"Organization/ScreAtriNorefAsseModTHENNotMDxCpScreAtriNorefAsseModDxNocp-98"}]},"request":{"method":"PUT","url":"Coverage/5e7aca32-837e-4cae-b192-7af58314828a"}},{"fullUrl":"https://madie.cms.gov/Organization/48b74683-5a34-4628-9088-1f821bf12fd4","resource":{"resourceType":"Organization","id":"48b74683-5a34-4628-9088-1f821bf12fd4","meta":{"profile":["http://hl7.org/fhir/us/qicore/StructureDefinition/qicore-organization"]},"identifier":[{"use":"temp","system":"urn:oid:2.16.840.1.113883.4.4","value":"21-3259825"}],"active":true,"type":[{"coding":[{"system":"http://terminology.hl7.org/CodeSystem/organization-type","code":"pay","display":"Payer"}]}],"name":"Blue Cross Blue Shield of Texas","telecom":[{"system":"phone","value":"(+1) 972-766-6900"}],"address":[{"use":"billing","type":"postal","line":["P.O. Box 660044"],"city":"Dallas","state":"TX","postalCode":"75266-0044","country":"USA"}]},"request":{"method":"PUT","url":"Organization/48b74683-5a34-4628-9088-1f821bf12fd4"}},{"fullUrl":"https://madie.cms.gov/MeasureReport/a4e1d79e-0420-49e0-80be-fd5f8d090112","resource":{"resourceType":"MeasureReport","id":"a4e1d79e-0420-49e0-80be-fd5f8d090112","meta":{"profile":["http://hl7.org/fhir/us/cqfmeasures/StructureDefinition/test-case-cqfm"]},"contained":[{"resourceType":"Parameters","id":"7a9b5b2f-2242-427d-abc0-0888f130c73e-parameters","parameter":[{"name":"subject","valueString":"e5582d8a-91d9-4234-910d-db7a6fa68785"}]}],"extension":[{"url":"http://hl7.org/fhir/StructureDefinition/cqf-inputParameters","valueReference":{"reference":"#7a9b5b2f-2242-427d-abc0-0888f130c73e-parameters"}},{"url":"http://hl7.org/fhir/us/cqfmeasures/StructureDefinition/cqfm-testCaseDescription","valueMarkdown":"Screened, At Risk, No Referral, Assessed, mod malnourished, then Not/Mildly Malnourished, Diagnosis (reasonCode), Nutrition Care Plan"}],"modifierExtension":[{"url":"http://hl7.org/fhir/us/cqfmeasures/StructureDefinition/cqfm-isTestCase","valueBoolean":true}],"status":"complete","type":"individual","measure":"https://madie.cms.gov/Measure/CMS986FHIRMalnutritionScore","period":{"start":"2026-01-01","end":"2026-12-31"},"group":[{"id":"Group_1","population":[{"id":"InitialPopulation_1","code":{"coding":[{"system":"http://terminology.hl7.org/CodeSystem/measure-population","code":"initial-population","display":"Initial Population"}]},"count":1},{"id":"MeasurePopulation_1","code":{"coding":[{"system":"http://terminology.hl7.org/CodeSystem/measure-population","code":"measure-population","display":"Measure Population"}]},"count":1},{"id":"MeasurePopulationExclusion_1","code":{"coding":[{"system":"http://terminology.hl7.org/CodeSystem/measure-population","code":"measure-population-exclusion","display":"Measure Population Exclusion"}]},"count":0},{"id":"MeasureObservation_1_1","code":{"coding":[{"system":"http://terminology.hl7.org/CodeSystem/measure-population","code":"measure-population-observation","display":"Measure Population Observation"}]},"count":1}],"measureScore":{"value":0.0}},{"id":"Group_2","population":[{"id":"InitialPopulation_2","code":{"coding":[{"system":"http://terminology.hl7.org/CodeSystem/measure-population","code":"initial-population","display":"Initial Population"}]},"count":1},{"id":"MeasurePopulation_2","code":{"coding":[{"system":"http://terminology.hl7.org/CodeSystem/measure-population","code":"measure-population","display":"Measure Population"}]},"count":1},{"id":"MeasurePopulationExclusion_2","code":{"coding":[{"system":"http://terminology.hl7.org/CodeSystem/measure-population","code":"measure-population-exclusion","display":"Measure Population Exclusion"}]},"count":0},{"id":"MeasureObservation_2_1","code":{"coding":[{"system":"http://terminology.hl7.org/CodeSystem/measure-population","code":"measure-population-observation","display":"Measure Population Observation"}]},"count":1}],"measureScore":{"value":0.0}},{"id":"Group_3","population":[{"id":"InitialPopulation_3","code":{"coding":[{"system":"http://terminology.hl7.org/CodeSystem/measure-population","code":"initial-population","display":"Initial Population"}]},"count":1},{"id":"MeasurePopulation_3","code":{"coding":[{"system":"http://terminology.hl7.org/CodeSystem/measure-population","code":"measure-population","display":"Measure Population"}]},"count":1},{"id":"MeasurePopulationExclusion_3","code":{"coding":[{"system":"http://terminology.hl7.org/CodeSystem/measure-population","code":"measure-population-exclusion","display":"Measure Population Exclusion"}]},"count":0},{"id":"MeasureObservation_3_1","code":{"coding":[{"system":"http://terminology.hl7.org/CodeSystem/measure-population","code":"measure-population-observation","display":"Measure Population Observation"}]},"count":0}],"measureScore":{"value":0.0}},{"id":"Group_4","population":[{"id":"InitialPopulation_4","code":{"coding":[{"system":"http://terminology.hl7.org/CodeSystem/measure-population","code":"initial-population","display":"Initial Population"}]},"count":1},{"id":"MeasurePopulation_4","code":{"coding":[{"system":"http://terminology.hl7.org/CodeSystem/measure-population","code":"measure-population","display":"Measure Population"}]},"count":1},{"id":"MeasurePopulationExclusion_4","code":{"coding":[{"system":"http://terminology.hl7.org/CodeSystem/measure-population","code":"measure-population-exclusion","display":"Measure Population Exclusion"}]},"count":0},{"id":"MeasureObservation_4_1","code":{"coding":[{"system":"http://terminology.hl7.org/CodeSystem/measure-population","code":"measure-population-observation","display":"Measure Population Observation"}]},"count":0}],"measureScore":{"value":0.0}},{"id":"Group_5","population":[{"id":"InitialPopulation_5","code":{"coding":[{"system":"http://terminology.hl7.org/CodeSystem/measure-population","code":"initial-population","display":"Initial Population"}]},"count":1},{"id":"MeasurePopulation_5","code":{"coding":[{"system":"http://terminology.hl7.org/CodeSystem/measure-population","code":"measure-population","display":"Measure Population"}]},"count":1},{"id":"MeasurePopulationExclusion_5","code":{"coding":[{"system":"http://terminology.hl7.org/CodeSystem/measure-population","code":"measure-population-exclusion","display":"Measure Population Exclusion"}]},"count":0},{"id":"MeasureObservation_5_1","code":{"coding":[{"system":"http://terminology.hl7.org/CodeSystem/measure-population","code":"measure-population-observation","display":"Measure Population Observation"}]},"count":2}],"measureScore":{"value":0.0}},{"id":"Group_6","population":[{"id":"InitialPopulation_6","code":{"coding":[{"system":"http://terminology.hl7.org/CodeSystem/measure-population","code":"initial-population","display":"Initial Population"}]},"count":1},{"id":"MeasurePopulation_6","code":{"coding":[{"system":"http://terminology.hl7.org/CodeSystem/measure-population","code":"measure-population","display":"Measure Population"}]},"count":1},{"id":"MeasurePopulationExclusion_6","code":{"coding":[{"system":"http://terminology.hl7.org/CodeSystem/measure-population","code":"measure-population-exclusion","display":"Measure Population Exclusion"}]},"count":0},{"id":"MeasureObservation_6_1","code":{"coding":[{"system":"http://terminology.hl7.org/CodeSystem/measure-population","code":"measure-population-observation","display":"Measure Population Observation"}]},"count":100}],"measureScore":{"value":0.0}}],"evaluatedResource":[{"reference":"Patient/e5582d8a-91d9-4234-910d-db7a6fa68785"},{"reference":"Encounter/d195f843-fed6-4313-9d94-cee8a997c235"},{"reference":"Observation/c697bde9-a6a2-44f5-8e0e-ffd399ca47ba"},{"reference":"Observation/35c98fd5-1f56-4dab-aa5f-3b6f8fb1fc1a"},{"reference":"Procedure/f0490537-592d-4359-b4f3-4a65862aaea1"},{"reference":"Observation/df59da4a-b3b3-46cd-92b3-4a8be20a02e3"},{"reference":"Condition/5ab2d3f0-ea66-4ada-a535-d9bb4be06a85"},{"reference":"Coverage/5e7aca32-837e-4cae-b192-7af58314828a"},{"reference":"Organization/48b74683-5a34-4628-9088-1f821bf12fd4"}]},"request":{"method":"PUT","url":"MeasureReport/a4e1d79e-0420-49e0-80be-fd5f8d090112"}}]},"request":{"method":"PUT","url":"Bundle/ScreAtriNorefAsseModTHENNotMDxCp"}},{"fullUrl":"Condition/5ab2d3f0-ea66-4ada-a535-d9bb4be06a85","resource":{"resourceType":"Condition","id":"5ab2d3f0-ea66-4ada-a535-d9bb4be06a85","meta":{"profile":["http://hl7.org/fhir/us/qicore/StructureDefinition/qicore-condition-encounter-diagnosis"]},"clinicalStatus":{"coding":[{"system":"http://terminology.hl7.org/CodeSystem/condition-clinical","code":"active","display":"Active","userSelected":true}]},"verificationStatus":{"coding":[{"system":"http://terminology.hl7.org/CodeSystem/condition-ver-status","code":"confirmed","display":"Confirmed","userSelected":true}]},"category":[{"coding":[{"system":"http://terminology.hl7.org/CodeSystem/condition-category","code":"encounter-diagnosis","display":"Encounter Diagnosis","userSelected":true}]}],"code":{"coding":[{"system":"http://snomed.info/sct","code":"77675002","display":"Anorexia nervosa, restricting type (disorder)","userSelected":true}]},"subject":{"reference":"Patient/e5582d8a-91d9-4234-910d-db7a6fa68785"},"onsetPeriod":{"start":"2026-07-14T08:00:00Z"},"recordedDate":"2026-07-16T08:00:00Z"},"request":{"method":"PUT","url":"Condition/5ab2d3f0-ea66-4ada-a535-d9bb4be06a85"}},{"fullUrl":"Observation/35c98fd5-1f56-4dab-aa5f-3b6f8fb1fc1a","resource":{"resourceType":"Observation","id":"35c98fd5-1f56-4dab-aa5f-3b6f8fb1fc1a","meta":{"profile":["http://hl7.org/fhir/us/qicore/StructureDefinition/qicore-observation-screening-assessment"]},"status":"final","category":[{"coding":[{"system":"http://terminology.hl7.org/CodeSystem/observation-category","code":"survey","display":"Survey"}]}],"code":{"coding":[{"system":"http://loinc.org","code":"75285-7","display":"Comparative Nutrition Assessment Standards Panel","userSelected":true}]},"subject":{"reference":"Patient/e5582d8a-91d9-4234-910d-db7a6fa68785"},"effectiveDateTime":"2026-07-14T08:00:00Z","valueCodeableConcept":{"coding":[{"system":"http://snomed.info/sct","code":"190606006","display":"Moderate protein energy malnutrition (disorder)","userSelected":true}]}},"request":{"method":"PUT","url":"Observation/35c98fd5-1f56-4dab-aa5f-3b6f8fb1fc1a"}},{"fullUrl":"Patient/e5582d8a-91d9-4234-910d-db7a6fa68785","resource":{"resourceType":"Patient","id":"e5582d8a-91d9-4234-910d-db7a6fa68785","meta":{"profile":["http://hl7.org/fhir/us/qicore/StructureDefinition/qicore-patient"]},"extension":[{"url":"http://hl7.org/fhir/us/core/StructureDefinition/us-core-race","extension":[{"url":"ombCategory","valueCoding":{"system":"urn:oid:2.16.840.1.113883.6.238","code":"2106-3","display":"White","userSelected":true}},{"url":"text","valueString":"White"}]},{"url":"http://hl7.org/fhir/us/core/StructureDefinition/us-core-ethnicity","extension":[{"url":"ombCategory","valueCoding":{"system":"urn:oid:2.16.840.1.113883.6.238","code":"2186-5","display":"Not Hispanic or Latino","userSelected":true}},{"url":"text","valueString":"Not Hispanic or Latino"}]},{"url":"http://hl7.org/fhir/us/core/StructureDefinition/us-core-sex","valueCode":"248152002"}],"identifier":[{"type":{"coding":[{"system":"http://terminology.hl7.org/CodeSystem/v2-0203","code":"MR"}]},"system":"https://madie.cms.gov/","value":"ScreAtriNorefAsseModTHENNotMDxCp"}],"active":true,"name":[{"use":"usual","text":"ScreAtriNorefAsseModTHENNotMDxCp","family":"MSROBSPass2","given":["ScreAtriNorefAsseModTHENNotMDxCp"]}],"gender":"female","birthDate":"1950-03-10","address":[{"text":"ScreAtriNorefAsseModTHENNotMDxCp, Screened at risk No ref Assessed Mod then Not Malnourished Diagnosed Care Plan, ID=ScreAtriNorefAsseModDxNocp, DOB: 10 Mar 1950"}]},"request":{"method":"PUT","url":"Patient/e5582d8a-91d9-4234-910d-db7a6fa68785"}},{"fullUrl":"Encounter/d195f843-fed6-4313-9d94-cee8a997c235","resource":{"resourceType":"Encounter","id":"d195f843-fed6-4313-9d94-cee8a997c235","meta":{"profile":["http://hl7.org/fhir/us/qicore/StructureDefinition/qicore-encounter"]},"status":"finished","class":{"system":"http://terminology.hl7.org/CodeSystem/v3-ActCode","code":"IMP","display":"inpatient encounter"},"type":[{"coding":[{"system":"http://snomed.info/sct","code":"183452005"}]}],"subject":{"reference":"Patient/e5582d8a-91d9-4234-910d-db7a6fa68785"},"period":{"start":"2026-07-14T08:00:00Z","end":"2026-07-16T08:00:00Z"},"reasonCode":[{"coding":[{"system":"http://snomed.info/sct","code":"77675002","display":"Anorexia nervosa, restricting type (disorder)"}]}],"diagnosis":[{"condition":{"reference":"Condition/5ab2d3f0-ea66-4ada-a535-d9bb4be06a85"}}]},"request":{"method":"PUT","url":"Encounter/d195f843-fed6-4313-9d94-cee8a997c235"}},{"fullUrl":"MeasureReport/a4e1d79e-0420-49e0-80be-fd5f8d090112","resource":{"resourceType":"MeasureReport","id":"a4e1d79e-0420-49e0-80be-fd5f8d090112","meta":{"profile":["http://hl7.org/fhir/us/cqfmeasures/StructureDefinition/test-case-cqfm"]},"contained":[{"resourceType":"Parameters","id":"7a9b5b2f-2242-427d-abc0-0888f130c73e-parameters","parameter":[{"name":"subject","valueString":"e5582d8a-91d9-4234-910d-db7a6fa68785"}]}],"extension":[{"url":"http://hl7.org/fhir/StructureDefinition/cqf-inputParameters","valueReference":{"reference":"#7a9b5b2f-2242-427d-abc0-0888f130c73e-parameters"}},{"url":"http://hl7.org/fhir/us/cqfmeasures/StructureDefinition/cqfm-testCaseDescription","valueMarkdown":"Screened, At Risk, No Referral, Assessed, mod malnourished, then Not/Mildly Malnourished, Diagnosis (reasonCode), Nutrition Care Plan"}],"modifierExtension":[{"url":"http://hl7.org/fhir/us/cqfmeasures/StructureDefinition/cqfm-isTestCase","valueBoolean":true}],"status":"complete","type":"individual","measure":"https://madie.cms.gov/Measure/CMS986FHIRMalnutritionScore","period":{"start":"2026-01-01","end":"2026-12-31"},"group":[{"id":"Group_1","population":[{"id":"InitialPopulation_1","code":{"coding":[{"system":"http://terminology.hl7.org/CodeSystem/measure-population","code":"initial-population","display":"Initial Population"}]},"count":1},{"id":"MeasurePopulation_1","code":{"coding":[{"system":"http://terminology.hl7.org/CodeSystem/measure-population","code":"measure-population","display":"Measure Population"}]},"count":1},{"id":"MeasurePopulationExclusion_1","code":{"coding":[{"system":"http://terminology.hl7.org/CodeSystem/measure-population","code":"measure-population-exclusion","display":"Measure Population Exclusion"}]},"count":0},{"id":"MeasureObservation_1_1","code":{"coding":[{"system":"http://terminology.hl7.org/CodeSystem/measure-population","code":"measure-population-observation","display":"Measure Population Observation"}]},"count":1}],"measureScore":{"value":0.0}},{"id":"Group_2","population":[{"id":"InitialPopulation_2","code":{"coding":[{"system":"http://terminology.hl7.org/CodeSystem/measure-population","code":"initial-population","display":"Initial Population"}]},"count":1},{"id":"MeasurePopulation_2","code":{"coding":[{"system":"http://terminology.hl7.org/CodeSystem/measure-population","code":"measure-population","display":"Measure Population"}]},"count":1},{"id":"MeasurePopulationExclusion_2","code":{"coding":[{"system":"http://terminology.hl7.org/CodeSystem/measure-population","code":"measure-population-exclusion","display":"Measure Population Exclusion"}]},"count":0},{"id":"MeasureObservation_2_1","code":{"coding":[{"system":"http://terminology.hl7.org/CodeSystem/measure-population","code":"measure-population-observation","display":"Measure Population Observation"}]},"count":1}],"measureScore":{"value":0.0}},{"id":"Group_3","population":[{"id":"InitialPopulation_3","code":{"coding":[{"system":"http://terminology.hl7.org/CodeSystem/measure-population","code":"initial-population","display":"Initial Population"}]},"count":1},{"id":"MeasurePopulation_3","code":{"coding":[{"system":"http://terminology.hl7.org/CodeSystem/measure-population","code":"measure-population","display":"Measure Population"}]},"count":1},{"id":"MeasurePopulationExclusion_3","code":{"coding":[{"system":"http://terminology.hl7.org/CodeSystem/measure-population","code":"measure-population-exclusion","display":"Measure Population Exclusion"}]},"count":0},{"id":"MeasureObservation_3_1","code":{"coding":[{"system":"http://terminology.hl7.org/CodeSystem/measure-population","code":"measure-population-observation","display":"Measure Population Observation"}]},"count":0}],"measureScore":{"value":0.0}},{"id":"Group_4","population":[{"id":"InitialPopulation_4","code":{"coding":[{"system":"http://terminology.hl7.org/CodeSystem/measure-population","code":"initial-population","display":"Initial Population"}]},"count":1},{"id":"MeasurePopulation_4","code":{"coding":[{"system":"http://terminology.hl7.org/CodeSystem/measure-population","code":"measure-population","display":"Measure Population"}]},"count":1},{"id":"MeasurePopulationExclusion_4","code":{"coding":[{"system":"http://terminology.hl7.org/CodeSystem/measure-population","code":"measure-population-exclusion","display":"Measure Population Exclusion"}]},"count":0},{"id":"MeasureObservation_4_1","code":{"coding":[{"system":"http://terminology.hl7.org/CodeSystem/measure-population","code":"measure-population-observation","display":"Measure Population Observation"}]},"count":0}],"measureScore":{"value":0.0}},{"id":"Group_5","population":[{"id":"InitialPopulation_5","code":{"coding":[{"system":"http://terminology.hl7.org/CodeSystem/measure-population","code":"initial-population","display":"Initial Population"}]},"count":1},{"id":"MeasurePopulation_5","code":{"coding":[{"system":"http://terminology.hl7.org/CodeSystem/measure-population","code":"measure-population","display":"Measure Population"}]},"count":1},{"id":"MeasurePopulationExclusion_5","code":{"coding":[{"system":"http://terminology.hl7.org/CodeSystem/measure-population","code":"measure-population-exclusion","display":"Measure Population Exclusion"}]},"count":0},{"id":"MeasureObservation_5_1","code":{"coding":[{"system":"http://terminology.hl7.org/CodeSystem/measure-population","code":"measure-population-observation","display":"Measure Population Observation"}]},"count":2}],"measureScore":{"value":0.0}},{"id":"Group_6","population":[{"id":"InitialPopulation_6","code":{"coding":[{"system":"http://terminology.hl7.org/CodeSystem/measure-population","code":"initial-population","display":"Initial Population"}]},"count":1},{"id":"MeasurePopulation_6","code":{"coding":[{"system":"http://terminology.hl7.org/CodeSystem/measure-population","code":"measure-population","display":"Measure Population"}]},"count":1},{"id":"MeasurePopulationExclusion_6","code":{"coding":[{"system":"http://terminology.hl7.org/CodeSystem/measure-population","code":"measure-population-exclusion","display":"Measure Population Exclusion"}]},"count":0},{"id":"MeasureObservation_6_1","code":{"coding":[{"system":"http://terminology.hl7.org/CodeSystem/measure-population","code":"measure-population-observation","display":"Measure Population Observation"}]},"count":100}],"measureScore":{"value":0.0}}],"evaluatedResource":[{"reference":"Patient/e5582d8a-91d9-4234-910d-db7a6fa68785"},{"reference":"Encounter/d195f843-fed6-4313-9d94-cee8a997c235"},{"reference":"Observation/c697bde9-a6a2-44f5-8e0e-ffd399ca47ba"},{"reference":"Observation/35c98fd5-1f56-4dab-aa5f-3b6f8fb1fc1a"},{"reference":"Procedure/f0490537-592d-4359-b4f3-4a65862aaea1"},{"reference":"Observation/df59da4a-b3b3-46cd-92b3-4a8be20a02e3"},{"reference":"Condition/5ab2d3f0-ea66-4ada-a535-d9bb4be06a85"},{"reference":"Coverage/5e7aca32-837e-4cae-b192-7af58314828a"},{"reference":"Organization/48b74683-5a34-4628-9088-1f821bf12fd4"}]},"request":{"method":"PUT","url":"MeasureReport/a4e1d79e-0420-49e0-80be-fd5f8d090112"}},{"fullUrl":"Observation/c697bde9-a6a2-44f5-8e0e-ffd399ca47ba","resource":{"resourceType":"Observation","id":"c697bde9-a6a2-44f5-8e0e-ffd399ca47ba","meta":{"profile":["http://hl7.org/fhir/us/qicore/StructureDefinition/qicore-observation-screening-assessment"]},"status":"final","category":[{"coding":[{"system":"http://terminology.hl7.org/CodeSystem/observation-category","code":"survey","display":"Survey"}]}],"code":{"coding":[{"system":"http://loinc.org","code":"98967-3","display":"Nutritional Risk Screening 2002 panel","userSelected":true}]},"subject":{"reference":"Patient/e5582d8a-91d9-4234-910d-db7a6fa68785"},"effectiveDateTime":"2026-07-15T08:00:00Z","valueCodeableConcept":{"coding":[{"system":"http://snomed.info/sct","code":"704361005","display":"At risk of deficient food intake","userSelected":true}]}},"request":{"method":"PUT","url":"Observation/c697bde9-a6a2-44f5-8e0e-ffd399ca47ba"}}]}