{"resourceType":"Bundle","id":"tests-f1d12297-45c4-4984-8e28-02bf21d84efd-bundle","type":"transaction","entry":[{"fullUrl":"Procedure/8061cb41-e47d-4ed8-8ad1-952fa65341c9","resource":{"resourceType":"Procedure","id":"8061cb41-e47d-4ed8-8ad1-952fa65341c9","meta":{"profile":["http://hl7.org/fhir/us/qicore/StructureDefinition/qicore-procedure"]},"extension":[{"url":"http://hl7.org/fhir/us/qicore/StructureDefinition/qicore-recorded","valueDateTime":"2025-02-02T11:30:00.000+00:00"}],"status":"completed","code":{"coding":[{"system":"http://snomed.info/sct","code":"445101000124100","display":"Collaborating in nutrition therapy (procedure)"}],"text":"Collaborating in nutrition therapy (procedure)"},"subject":{"reference":"Patient/f1d12297-45c4-4984-8e28-02bf21d84efd"},"encounter":{"reference":"Encounter/ScreAtriRefAsseModNodxCp2MSROBSPass2"},"performedPeriod":{"start":"2026-07-15T08:00:00.000+00:00","end":"2026-07-15T08:15:00.000+00:00"}},"request":{"method":"PUT","url":"Procedure/8061cb41-e47d-4ed8-8ad1-952fa65341c9"}},{"fullUrl":"Bundle/MildAsseAftEncountModAsse","resource":{"resourceType":"Bundle","id":"MildAsseAftEncountModAsse","type":"transaction","entry":[{"fullUrl":"https://madie.cms.gov/Patient/f1d12297-45c4-4984-8e28-02bf21d84efd","resource":{"resourceType":"Patient","id":"f1d12297-45c4-4984-8e28-02bf21d84efd","meta":{"profile":["http://hl7.org/fhir/us/qicore/StructureDefinition/qicore-patient"]},"extension":[{"url":"http://hl7.org/fhir/us/core/StructureDefinition/us-core-race","extension":[{"url":"ombCategory","valueCoding":{"system":"urn:oid:2.16.840.1.113883.6.238","code":"1002-5","display":"American Indian or Alaska Native","userSelected":true}},{"url":"text","valueString":"American Indian or Alaska Native"}]},{"url":"http://hl7.org/fhir/us/core/StructureDefinition/us-core-ethnicity","extension":[{"url":"ombCategory","valueCoding":{"system":"urn:oid:2.16.840.1.113883.6.238","code":"2135-2","display":"Hispanic or Latino","userSelected":true}},{"url":"text","valueString":"Hispanic or Latino"}]},{"url":"http://hl7.org/fhir/us/core/StructureDefinition/us-core-sex","valueCode":"248152002"}],"identifier":[{"type":{"coding":[{"system":"http://terminology.hl7.org/CodeSystem/v2-0203","code":"MR"}]},"system":"https://madie.cms.gov/","value":"MildAsseAftEncountModAsse"}],"active":true,"name":[{"use":"usual","text":"MildAsseAftEncountModAsse","family":"MSROBSPass2","given":["MildAsseAftEncountModAsse"]}],"gender":"female","birthDate":"1950-03-10","address":[{"text":"MildAsseAftEncountModAsse, Screened at risk No ref Assessed Mod then Not Malnourished Diagnosed Care Plan, ID=MildAsseAftEncountModAsse, DOB: 10 Mar 1950"}]},"request":{"method":"PUT","url":"Patient/f1d12297-45c4-4984-8e28-02bf21d84efd"}},{"fullUrl":"https://madie.cms.gov/Encounter/bc7883de-991c-4982-ae8b-8252af55e141","resource":{"resourceType":"Encounter","id":"bc7883de-991c-4982-ae8b-8252af55e141","meta":{"profile":["http://hl7.org/fhir/us/qicore/StructureDefinition/qicore-encounter"]},"status":"finished","class":{"system":"http://terminology.hl7.org/CodeSystem/v3-ActCode","code":"IMP","display":"inpatient encounter"},"type":[{"coding":[{"system":"http://snomed.info/sct","code":"183452005"}]}],"subject":{"reference":"Patient/f1d12297-45c4-4984-8e28-02bf21d84efd"},"period":{"start":"2026-07-14T08:00:00.000+00:00","end":"2026-07-16T08:15:00.000+00:00"}},"request":{"method":"PUT","url":"Encounter/bc7883de-991c-4982-ae8b-8252af55e141"}},{"fullUrl":"https://madie.cms.gov/Observation/1ffc7ddd-90eb-45af-853b-eb85b6ff3148","resource":{"resourceType":"Observation","id":"1ffc7ddd-90eb-45af-853b-eb85b6ff3148","meta":{"profile":["http://hl7.org/fhir/us/qicore/StructureDefinition/qicore-observation-screening-assessment"]},"status":"final","category":[{"coding":[{"system":"http://terminology.hl7.org/CodeSystem/observation-category","code":"survey","display":"Survey"}]}],"code":{"coding":[{"system":"http://loinc.org","code":"98967-3","display":"Nutritional Risk Screening 2002 panel","userSelected":true}]},"subject":{"reference":"Patient/f1d12297-45c4-4984-8e28-02bf21d84efd"},"effectiveDateTime":"2026-07-14T09:00:00.000+00:00","valueCodeableConcept":{"coding":[{"system":"http://snomed.info/sct","code":"704361005","display":"At risk of deficient food intake","userSelected":true}]}},"request":{"method":"PUT","url":"Observation/1ffc7ddd-90eb-45af-853b-eb85b6ff3148"}},{"fullUrl":"https://madie.cms.gov/Observation/4a430655-30ba-4f81-bc9d-48bb462355fd","resource":{"resourceType":"Observation","id":"4a430655-30ba-4f81-bc9d-48bb462355fd","meta":{"profile":["http://hl7.org/fhir/us/qicore/StructureDefinition/qicore-observation-screening-assessment"]},"status":"final","category":[{"coding":[{"system":"http://terminology.hl7.org/CodeSystem/observation-category","code":"survey","display":"Survey"}]}],"code":{"coding":[{"system":"http://loinc.org","code":"75285-7","display":"Comparative Nutrition Assessment Standards Panel","userSelected":true}]},"subject":{"reference":"Patient/f1d12297-45c4-4984-8e28-02bf21d84efd"},"effectiveDateTime":"2026-07-14T09:30:00.000+00:00","valueCodeableConcept":{"coding":[{"system":"http://snomed.info/sct","code":"190606006","display":"Moderate protein energy malnutrition (disorder)","userSelected":true}]}},"request":{"method":"PUT","url":"Observation/4a430655-30ba-4f81-bc9d-48bb462355fd"}},{"fullUrl":"https://madie.cms.gov/Procedure/8061cb41-e47d-4ed8-8ad1-952fa65341c9","resource":{"resourceType":"Procedure","id":"8061cb41-e47d-4ed8-8ad1-952fa65341c9","meta":{"profile":["http://hl7.org/fhir/us/qicore/StructureDefinition/qicore-procedure"]},"extension":[{"url":"http://hl7.org/fhir/us/qicore/StructureDefinition/qicore-recorded","valueDateTime":"2025-02-02T11:30:00.000+00:00"}],"status":"completed","code":{"coding":[{"system":"http://snomed.info/sct","code":"445101000124100","display":"Collaborating in nutrition therapy (procedure)"}],"text":"Collaborating in nutrition therapy (procedure)"},"subject":{"reference":"Patient/f1d12297-45c4-4984-8e28-02bf21d84efd"},"encounter":{"reference":"Encounter/ScreAtriRefAsseModNodxCp2MSROBSPass2"},"performedPeriod":{"start":"2026-07-15T08:00:00.000+00:00","end":"2026-07-15T08:15:00.000+00:00"}},"request":{"method":"PUT","url":"Procedure/8061cb41-e47d-4ed8-8ad1-952fa65341c9"}},{"fullUrl":"https://madie.cms.gov/Observation/e2120696-b284-472d-8ea9-7712aa6153a0","resource":{"resourceType":"Observation","id":"e2120696-b284-472d-8ea9-7712aa6153a0","meta":{"profile":["http://hl7.org/fhir/us/qicore/StructureDefinition/qicore-observation-screening-assessment"]},"status":"final","category":[{"coding":[{"system":"http://terminology.hl7.org/CodeSystem/observation-category","code":"survey","display":"Survey"}]}],"code":{"coding":[{"system":"http://loinc.org","code":"75285-7","display":"Comparative Nutrition Assessment Standards Panel","userSelected":true}]},"subject":{"reference":"Patient/f1d12297-45c4-4984-8e28-02bf21d84efd"},"effectiveDateTime":"2026-07-15T06:00:00.000+00:00","valueCodeableConcept":{"coding":[{"system":"http://loinc.org","code":"LA33701-6","display":"Well nourished","userSelected":true}]}},"request":{"method":"PUT","url":"Observation/e2120696-b284-472d-8ea9-7712aa6153a0"}},{"fullUrl":"https://madie.cms.gov/Coverage/34054b7a-bf52-4be5-a3a8-2282909a7680","resource":{"resourceType":"Coverage","id":"34054b7a-bf52-4be5-a3a8-2282909a7680","meta":{"profile":["http://hl7.org/fhir/us/qicore/StructureDefinition/qicore-coverage"]},"status":"active","type":{"coding":[{"system":"https://nahdo.org/sopt","version":"9.2","code":"11","display":"Medicare Managed Care (Includes Medicare Advantage Plans)"}]},"subscriberId":"97531","beneficiary":{"reference":"Patient/f1d12297-45c4-4984-8e28-02bf21d84efd"},"dependent":"0","relationship":{"coding":[{"system":"http://terminology.hl7.org/CodeSystem/subscriber-relationship","code":"self"}]},"period":{"start":"2025-10-01T00:00:00.000+00:00"},"payor":[{"reference":"Organization/MildAsseAftEncountModAsseMildAsseAftEncountModAsse-98"}]},"request":{"method":"PUT","url":"Coverage/34054b7a-bf52-4be5-a3a8-2282909a7680"}},{"fullUrl":"https://madie.cms.gov/Organization/ad1f0034-9873-4a43-bfdc-25b5f0d2b174","resource":{"resourceType":"Organization","id":"ad1f0034-9873-4a43-bfdc-25b5f0d2b174","meta":{"profile":["http://hl7.org/fhir/us/qicore/StructureDefinition/qicore-organization"]},"identifier":[{"use":"temp","system":"urn:oid:2.16.840.1.113883.4.4","value":"21-3259825"}],"active":true,"type":[{"coding":[{"system":"http://terminology.hl7.org/CodeSystem/organization-type","code":"pay","display":"Payer"}]}],"name":"Blue Cross Blue Shield of Texas","telecom":[{"system":"phone","value":"(+1) 972-766-6900"}],"address":[{"use":"billing","type":"postal","line":["P.O. Box 660044"],"city":"Dallas","state":"TX","postalCode":"75266-0044","country":"USA"}]},"request":{"method":"PUT","url":"Organization/ad1f0034-9873-4a43-bfdc-25b5f0d2b174"}},{"fullUrl":"https://madie.cms.gov/MeasureReport/da9c849a-6e2f-48ff-9658-d9bcf3dc9cd1","resource":{"resourceType":"MeasureReport","id":"da9c849a-6e2f-48ff-9658-d9bcf3dc9cd1","meta":{"profile":["http://hl7.org/fhir/us/cqfmeasures/StructureDefinition/test-case-cqfm"]},"contained":[{"resourceType":"Parameters","id":"21e3e5cb-386a-43bc-a619-97a4120d9074-parameters","parameter":[{"name":"subject","valueString":"f1d12297-45c4-4984-8e28-02bf21d84efd"}]}],"extension":[{"url":"http://hl7.org/fhir/StructureDefinition/cqf-inputParameters","valueReference":{"reference":"#21e3e5cb-386a-43bc-a619-97a4120d9074-parameters"}},{"url":"http://hl7.org/fhir/us/cqfmeasures/StructureDefinition/cqfm-testCaseDescription","valueMarkdown":"Screened, At Risk, No Referral, Assessed, Not/Mildly Malnourished, , mod malnourished after encounter, Diagnosis, Nutrition Care Plan"}],"modifierExtension":[{"url":"http://hl7.org/fhir/us/cqfmeasures/StructureDefinition/cqfm-isTestCase","valueBoolean":true}],"status":"complete","type":"individual","measure":"https://madie.cms.gov/Measure/CMS986FHIRMalnutritionScore","period":{"start":"2026-01-01","end":"2026-12-31"},"group":[{"id":"Group_1","population":[{"id":"InitialPopulation_1","code":{"coding":[{"system":"http://terminology.hl7.org/CodeSystem/measure-population","code":"initial-population","display":"Initial Population"}]},"count":1},{"id":"MeasurePopulation_1","code":{"coding":[{"system":"http://terminology.hl7.org/CodeSystem/measure-population","code":"measure-population","display":"Measure Population"}]},"count":1},{"id":"MeasurePopulationExclusion_1","code":{"coding":[{"system":"http://terminology.hl7.org/CodeSystem/measure-population","code":"measure-population-exclusion","display":"Measure Population Exclusion"}]},"count":0},{"id":"MeasureObservation_1_1","code":{"coding":[{"system":"http://terminology.hl7.org/CodeSystem/measure-population","code":"measure-population-observation","display":"Measure Population Observation"}]},"count":1}],"measureScore":{"value":0.0}},{"id":"Group_2","population":[{"id":"InitialPopulation_2","code":{"coding":[{"system":"http://terminology.hl7.org/CodeSystem/measure-population","code":"initial-population","display":"Initial Population"}]},"count":1},{"id":"MeasurePopulation_2","code":{"coding":[{"system":"http://terminology.hl7.org/CodeSystem/measure-population","code":"measure-population","display":"Measure Population"}]},"count":1},{"id":"MeasurePopulationExclusion_2","code":{"coding":[{"system":"http://terminology.hl7.org/CodeSystem/measure-population","code":"measure-population-exclusion","display":"Measure Population Exclusion"}]},"count":0},{"id":"MeasureObservation_2_1","code":{"coding":[{"system":"http://terminology.hl7.org/CodeSystem/measure-population","code":"measure-population-observation","display":"Measure Population Observation"}]},"count":1}],"measureScore":{"value":0.0}},{"id":"Group_3","population":[{"id":"InitialPopulation_3","code":{"coding":[{"system":"http://terminology.hl7.org/CodeSystem/measure-population","code":"initial-population","display":"Initial Population"}]},"count":1},{"id":"MeasurePopulation_3","code":{"coding":[{"system":"http://terminology.hl7.org/CodeSystem/measure-population","code":"measure-population","display":"Measure Population"}]},"count":1},{"id":"MeasurePopulationExclusion_3","code":{"coding":[{"system":"http://terminology.hl7.org/CodeSystem/measure-population","code":"measure-population-exclusion","display":"Measure Population Exclusion"}]},"count":0},{"id":"MeasureObservation_3_1","code":{"coding":[{"system":"http://terminology.hl7.org/CodeSystem/measure-population","code":"measure-population-observation","display":"Measure Population Observation"}]},"count":0}],"measureScore":{"value":0.0}},{"id":"Group_4","population":[{"id":"InitialPopulation_4","code":{"coding":[{"system":"http://terminology.hl7.org/CodeSystem/measure-population","code":"initial-population","display":"Initial Population"}]},"count":1},{"id":"MeasurePopulation_4","code":{"coding":[{"system":"http://terminology.hl7.org/CodeSystem/measure-population","code":"measure-population","display":"Measure Population"}]},"count":1},{"id":"MeasurePopulationExclusion_4","code":{"coding":[{"system":"http://terminology.hl7.org/CodeSystem/measure-population","code":"measure-population-exclusion","display":"Measure Population Exclusion"}]},"count":0},{"id":"MeasureObservation_4_1","code":{"coding":[{"system":"http://terminology.hl7.org/CodeSystem/measure-population","code":"measure-population-observation","display":"Measure Population Observation"}]},"count":0}],"measureScore":{"value":0.0}},{"id":"Group_5","population":[{"id":"InitialPopulation_5","code":{"coding":[{"system":"http://terminology.hl7.org/CodeSystem/measure-population","code":"initial-population","display":"Initial Population"}]},"count":1},{"id":"MeasurePopulation_5","code":{"coding":[{"system":"http://terminology.hl7.org/CodeSystem/measure-population","code":"measure-population","display":"Measure Population"}]},"count":1},{"id":"MeasurePopulationExclusion_5","code":{"coding":[{"system":"http://terminology.hl7.org/CodeSystem/measure-population","code":"measure-population-exclusion","display":"Measure Population Exclusion"}]},"count":0},{"id":"MeasureObservation_5_1","code":{"coding":[{"system":"http://terminology.hl7.org/CodeSystem/measure-population","code":"measure-population-observation","display":"Measure Population Observation"}]},"count":2}],"measureScore":{"value":0.0}},{"id":"Group_6","population":[{"id":"InitialPopulation_6","code":{"coding":[{"system":"http://terminology.hl7.org/CodeSystem/measure-population","code":"initial-population","display":"Initial Population"}]},"count":1},{"id":"MeasurePopulation_6","code":{"coding":[{"system":"http://terminology.hl7.org/CodeSystem/measure-population","code":"measure-population","display":"Measure Population"}]},"count":1},{"id":"MeasurePopulationExclusion_6","code":{"coding":[{"system":"http://terminology.hl7.org/CodeSystem/measure-population","code":"measure-population-exclusion","display":"Measure Population Exclusion"}]},"count":0},{"id":"MeasureObservation_6_1","code":{"coding":[{"system":"http://terminology.hl7.org/CodeSystem/measure-population","code":"measure-population-observation","display":"Measure Population Observation"}]},"count":100}],"measureScore":{"value":0.0}}],"evaluatedResource":[{"reference":"Patient/f1d12297-45c4-4984-8e28-02bf21d84efd"},{"reference":"Encounter/bc7883de-991c-4982-ae8b-8252af55e141"},{"reference":"Observation/1ffc7ddd-90eb-45af-853b-eb85b6ff3148"},{"reference":"Observation/4a430655-30ba-4f81-bc9d-48bb462355fd"},{"reference":"Procedure/8061cb41-e47d-4ed8-8ad1-952fa65341c9"},{"reference":"Observation/e2120696-b284-472d-8ea9-7712aa6153a0"},{"reference":"Coverage/34054b7a-bf52-4be5-a3a8-2282909a7680"},{"reference":"Organization/ad1f0034-9873-4a43-bfdc-25b5f0d2b174"}]},"request":{"method":"PUT","url":"MeasureReport/da9c849a-6e2f-48ff-9658-d9bcf3dc9cd1"}}]},"request":{"method":"PUT","url":"Bundle/MildAsseAftEncountModAsse"}},{"fullUrl":"Coverage/34054b7a-bf52-4be5-a3a8-2282909a7680","resource":{"resourceType":"Coverage","id":"34054b7a-bf52-4be5-a3a8-2282909a7680","meta":{"profile":["http://hl7.org/fhir/us/qicore/StructureDefinition/qicore-coverage"]},"status":"active","type":{"coding":[{"system":"https://nahdo.org/sopt","version":"9.2","code":"11","display":"Medicare Managed Care (Includes Medicare Advantage Plans)"}]},"subscriberId":"97531","beneficiary":{"reference":"Patient/f1d12297-45c4-4984-8e28-02bf21d84efd"},"dependent":"0","relationship":{"coding":[{"system":"http://terminology.hl7.org/CodeSystem/subscriber-relationship","code":"self"}]},"period":{"start":"2025-10-01T00:00:00.000+00:00"},"payor":[{"reference":"Organization/MildAsseAftEncountModAsseMildAsseAftEncountModAsse-98"}]},"request":{"method":"PUT","url":"Coverage/34054b7a-bf52-4be5-a3a8-2282909a7680"}},{"fullUrl":"Observation/e2120696-b284-472d-8ea9-7712aa6153a0","resource":{"resourceType":"Observation","id":"e2120696-b284-472d-8ea9-7712aa6153a0","meta":{"profile":["http://hl7.org/fhir/us/qicore/StructureDefinition/qicore-observation-screening-assessment"]},"status":"final","category":[{"coding":[{"system":"http://terminology.hl7.org/CodeSystem/observation-category","code":"survey","display":"Survey"}]}],"code":{"coding":[{"system":"http://loinc.org","code":"75285-7","display":"Comparative Nutrition Assessment Standards Panel","userSelected":true}]},"subject":{"reference":"Patient/f1d12297-45c4-4984-8e28-02bf21d84efd"},"effectiveDateTime":"2026-07-15T06:00:00.000+00:00","valueCodeableConcept":{"coding":[{"system":"http://loinc.org","code":"LA33701-6","display":"Well nourished","userSelected":true}]}},"request":{"method":"PUT","url":"Observation/e2120696-b284-472d-8ea9-7712aa6153a0"}},{"fullUrl":"Observation/4a430655-30ba-4f81-bc9d-48bb462355fd","resource":{"resourceType":"Observation","id":"4a430655-30ba-4f81-bc9d-48bb462355fd","meta":{"profile":["http://hl7.org/fhir/us/qicore/StructureDefinition/qicore-observation-screening-assessment"]},"status":"final","category":[{"coding":[{"system":"http://terminology.hl7.org/CodeSystem/observation-category","code":"survey","display":"Survey"}]}],"code":{"coding":[{"system":"http://loinc.org","code":"75285-7","display":"Comparative Nutrition Assessment Standards Panel","userSelected":true}]},"subject":{"reference":"Patient/f1d12297-45c4-4984-8e28-02bf21d84efd"},"effectiveDateTime":"2026-07-14T09:30:00.000+00:00","valueCodeableConcept":{"coding":[{"system":"http://snomed.info/sct","code":"190606006","display":"Moderate protein energy malnutrition (disorder)","userSelected":true}]}},"request":{"method":"PUT","url":"Observation/4a430655-30ba-4f81-bc9d-48bb462355fd"}},{"fullUrl":"MeasureReport/da9c849a-6e2f-48ff-9658-d9bcf3dc9cd1","resource":{"resourceType":"MeasureReport","id":"da9c849a-6e2f-48ff-9658-d9bcf3dc9cd1","meta":{"profile":["http://hl7.org/fhir/us/cqfmeasures/StructureDefinition/test-case-cqfm"]},"contained":[{"resourceType":"Parameters","id":"21e3e5cb-386a-43bc-a619-97a4120d9074-parameters","parameter":[{"name":"subject","valueString":"f1d12297-45c4-4984-8e28-02bf21d84efd"}]}],"extension":[{"url":"http://hl7.org/fhir/StructureDefinition/cqf-inputParameters","valueReference":{"reference":"#21e3e5cb-386a-43bc-a619-97a4120d9074-parameters"}},{"url":"http://hl7.org/fhir/us/cqfmeasures/StructureDefinition/cqfm-testCaseDescription","valueMarkdown":"Screened, At Risk, No Referral, Assessed, Not/Mildly Malnourished, , mod malnourished after encounter, Diagnosis, Nutrition Care Plan"}],"modifierExtension":[{"url":"http://hl7.org/fhir/us/cqfmeasures/StructureDefinition/cqfm-isTestCase","valueBoolean":true}],"status":"complete","type":"individual","measure":"https://madie.cms.gov/Measure/CMS986FHIRMalnutritionScore","period":{"start":"2026-01-01","end":"2026-12-31"},"group":[{"id":"Group_1","population":[{"id":"InitialPopulation_1","code":{"coding":[{"system":"http://terminology.hl7.org/CodeSystem/measure-population","code":"initial-population","display":"Initial Population"}]},"count":1},{"id":"MeasurePopulation_1","code":{"coding":[{"system":"http://terminology.hl7.org/CodeSystem/measure-population","code":"measure-population","display":"Measure Population"}]},"count":1},{"id":"MeasurePopulationExclusion_1","code":{"coding":[{"system":"http://terminology.hl7.org/CodeSystem/measure-population","code":"measure-population-exclusion","display":"Measure Population Exclusion"}]},"count":0},{"id":"MeasureObservation_1_1","code":{"coding":[{"system":"http://terminology.hl7.org/CodeSystem/measure-population","code":"measure-population-observation","display":"Measure Population Observation"}]},"count":1}],"measureScore":{"value":0.0}},{"id":"Group_2","population":[{"id":"InitialPopulation_2","code":{"coding":[{"system":"http://terminology.hl7.org/CodeSystem/measure-population","code":"initial-population","display":"Initial Population"}]},"count":1},{"id":"MeasurePopulation_2","code":{"coding":[{"system":"http://terminology.hl7.org/CodeSystem/measure-population","code":"measure-population","display":"Measure Population"}]},"count":1},{"id":"MeasurePopulationExclusion_2","code":{"coding":[{"system":"http://terminology.hl7.org/CodeSystem/measure-population","code":"measure-population-exclusion","display":"Measure Population Exclusion"}]},"count":0},{"id":"MeasureObservation_2_1","code":{"coding":[{"system":"http://terminology.hl7.org/CodeSystem/measure-population","code":"measure-population-observation","display":"Measure Population Observation"}]},"count":1}],"measureScore":{"value":0.0}},{"id":"Group_3","population":[{"id":"InitialPopulation_3","code":{"coding":[{"system":"http://terminology.hl7.org/CodeSystem/measure-population","code":"initial-population","display":"Initial Population"}]},"count":1},{"id":"MeasurePopulation_3","code":{"coding":[{"system":"http://terminology.hl7.org/CodeSystem/measure-population","code":"measure-population","display":"Measure Population"}]},"count":1},{"id":"MeasurePopulationExclusion_3","code":{"coding":[{"system":"http://terminology.hl7.org/CodeSystem/measure-population","code":"measure-population-exclusion","display":"Measure Population Exclusion"}]},"count":0},{"id":"MeasureObservation_3_1","code":{"coding":[{"system":"http://terminology.hl7.org/CodeSystem/measure-population","code":"measure-population-observation","display":"Measure Population Observation"}]},"count":0}],"measureScore":{"value":0.0}},{"id":"Group_4","population":[{"id":"InitialPopulation_4","code":{"coding":[{"system":"http://terminology.hl7.org/CodeSystem/measure-population","code":"initial-population","display":"Initial Population"}]},"count":1},{"id":"MeasurePopulation_4","code":{"coding":[{"system":"http://terminology.hl7.org/CodeSystem/measure-population","code":"measure-population","display":"Measure Population"}]},"count":1},{"id":"MeasurePopulationExclusion_4","code":{"coding":[{"system":"http://terminology.hl7.org/CodeSystem/measure-population","code":"measure-population-exclusion","display":"Measure Population Exclusion"}]},"count":0},{"id":"MeasureObservation_4_1","code":{"coding":[{"system":"http://terminology.hl7.org/CodeSystem/measure-population","code":"measure-population-observation","display":"Measure Population Observation"}]},"count":0}],"measureScore":{"value":0.0}},{"id":"Group_5","population":[{"id":"InitialPopulation_5","code":{"coding":[{"system":"http://terminology.hl7.org/CodeSystem/measure-population","code":"initial-population","display":"Initial Population"}]},"count":1},{"id":"MeasurePopulation_5","code":{"coding":[{"system":"http://terminology.hl7.org/CodeSystem/measure-population","code":"measure-population","display":"Measure Population"}]},"count":1},{"id":"MeasurePopulationExclusion_5","code":{"coding":[{"system":"http://terminology.hl7.org/CodeSystem/measure-population","code":"measure-population-exclusion","display":"Measure Population Exclusion"}]},"count":0},{"id":"MeasureObservation_5_1","code":{"coding":[{"system":"http://terminology.hl7.org/CodeSystem/measure-population","code":"measure-population-observation","display":"Measure Population Observation"}]},"count":2}],"measureScore":{"value":0.0}},{"id":"Group_6","population":[{"id":"InitialPopulation_6","code":{"coding":[{"system":"http://terminology.hl7.org/CodeSystem/measure-population","code":"initial-population","display":"Initial Population"}]},"count":1},{"id":"MeasurePopulation_6","code":{"coding":[{"system":"http://terminology.hl7.org/CodeSystem/measure-population","code":"measure-population","display":"Measure Population"}]},"count":1},{"id":"MeasurePopulationExclusion_6","code":{"coding":[{"system":"http://terminology.hl7.org/CodeSystem/measure-population","code":"measure-population-exclusion","display":"Measure Population Exclusion"}]},"count":0},{"id":"MeasureObservation_6_1","code":{"coding":[{"system":"http://terminology.hl7.org/CodeSystem/measure-population","code":"measure-population-observation","display":"Measure Population Observation"}]},"count":100}],"measureScore":{"value":0.0}}],"evaluatedResource":[{"reference":"Patient/f1d12297-45c4-4984-8e28-02bf21d84efd"},{"reference":"Encounter/bc7883de-991c-4982-ae8b-8252af55e141"},{"reference":"Observation/1ffc7ddd-90eb-45af-853b-eb85b6ff3148"},{"reference":"Observation/4a430655-30ba-4f81-bc9d-48bb462355fd"},{"reference":"Procedure/8061cb41-e47d-4ed8-8ad1-952fa65341c9"},{"reference":"Observation/e2120696-b284-472d-8ea9-7712aa6153a0"},{"reference":"Coverage/34054b7a-bf52-4be5-a3a8-2282909a7680"},{"reference":"Organization/ad1f0034-9873-4a43-bfdc-25b5f0d2b174"}]},"request":{"method":"PUT","url":"MeasureReport/da9c849a-6e2f-48ff-9658-d9bcf3dc9cd1"}},{"fullUrl":"Observation/1ffc7ddd-90eb-45af-853b-eb85b6ff3148","resource":{"resourceType":"Observation","id":"1ffc7ddd-90eb-45af-853b-eb85b6ff3148","meta":{"profile":["http://hl7.org/fhir/us/qicore/StructureDefinition/qicore-observation-screening-assessment"]},"status":"final","category":[{"coding":[{"system":"http://terminology.hl7.org/CodeSystem/observation-category","code":"survey","display":"Survey"}]}],"code":{"coding":[{"system":"http://loinc.org","code":"98967-3","display":"Nutritional Risk Screening 2002 panel","userSelected":true}]},"subject":{"reference":"Patient/f1d12297-45c4-4984-8e28-02bf21d84efd"},"effectiveDateTime":"2026-07-14T09:00:00.000+00:00","valueCodeableConcept":{"coding":[{"system":"http://snomed.info/sct","code":"704361005","display":"At risk of deficient food intake","userSelected":true}]}},"request":{"method":"PUT","url":"Observation/1ffc7ddd-90eb-45af-853b-eb85b6ff3148"}},{"fullUrl":"Encounter/bc7883de-991c-4982-ae8b-8252af55e141","resource":{"resourceType":"Encounter","id":"bc7883de-991c-4982-ae8b-8252af55e141","meta":{"profile":["http://hl7.org/fhir/us/qicore/StructureDefinition/qicore-encounter"]},"status":"finished","class":{"system":"http://terminology.hl7.org/CodeSystem/v3-ActCode","code":"IMP","display":"inpatient encounter"},"type":[{"coding":[{"system":"http://snomed.info/sct","code":"183452005"}]}],"subject":{"reference":"Patient/f1d12297-45c4-4984-8e28-02bf21d84efd"},"period":{"start":"2026-07-14T08:00:00.000+00:00","end":"2026-07-16T08:15:00.000+00:00"}},"request":{"method":"PUT","url":"Encounter/bc7883de-991c-4982-ae8b-8252af55e141"}},{"fullUrl":"Organization/ad1f0034-9873-4a43-bfdc-25b5f0d2b174","resource":{"resourceType":"Organization","id":"ad1f0034-9873-4a43-bfdc-25b5f0d2b174","meta":{"profile":["http://hl7.org/fhir/us/qicore/StructureDefinition/qicore-organization"]},"identifier":[{"use":"temp","system":"urn:oid:2.16.840.1.113883.4.4","value":"21-3259825"}],"active":true,"type":[{"coding":[{"system":"http://terminology.hl7.org/CodeSystem/organization-type","code":"pay","display":"Payer"}]}],"name":"Blue Cross Blue Shield of Texas","telecom":[{"system":"phone","value":"(+1) 972-766-6900"}],"address":[{"use":"billing","type":"postal","line":["P.O. Box 660044"],"city":"Dallas","state":"TX","postalCode":"75266-0044","country":"USA"}]},"request":{"method":"PUT","url":"Organization/ad1f0034-9873-4a43-bfdc-25b5f0d2b174"}},{"fullUrl":"Patient/f1d12297-45c4-4984-8e28-02bf21d84efd","resource":{"resourceType":"Patient","id":"f1d12297-45c4-4984-8e28-02bf21d84efd","meta":{"profile":["http://hl7.org/fhir/us/qicore/StructureDefinition/qicore-patient"]},"extension":[{"url":"http://hl7.org/fhir/us/core/StructureDefinition/us-core-race","extension":[{"url":"ombCategory","valueCoding":{"system":"urn:oid:2.16.840.1.113883.6.238","code":"1002-5","display":"American Indian or Alaska Native","userSelected":true}},{"url":"text","valueString":"American Indian or Alaska Native"}]},{"url":"http://hl7.org/fhir/us/core/StructureDefinition/us-core-ethnicity","extension":[{"url":"ombCategory","valueCoding":{"system":"urn:oid:2.16.840.1.113883.6.238","code":"2135-2","display":"Hispanic or Latino","userSelected":true}},{"url":"text","valueString":"Hispanic or Latino"}]},{"url":"http://hl7.org/fhir/us/core/StructureDefinition/us-core-sex","valueCode":"248152002"}],"identifier":[{"type":{"coding":[{"system":"http://terminology.hl7.org/CodeSystem/v2-0203","code":"MR"}]},"system":"https://madie.cms.gov/","value":"MildAsseAftEncountModAsse"}],"active":true,"name":[{"use":"usual","text":"MildAsseAftEncountModAsse","family":"MSROBSPass2","given":["MildAsseAftEncountModAsse"]}],"gender":"female","birthDate":"1950-03-10","address":[{"text":"MildAsseAftEncountModAsse, Screened at risk No ref Assessed Mod then Not Malnourished Diagnosed Care Plan, ID=MildAsseAftEncountModAsse, DOB: 10 Mar 1950"}]},"request":{"method":"PUT","url":"Patient/f1d12297-45c4-4984-8e28-02bf21d84efd"}}]}