{"resourceType":"Bundle","id":"tests-47643903-6f24-428e-a354-f4a59d006ddf-bundle","type":"transaction","entry":[{"fullUrl":"Coverage/4cd346e6-a06e-4d21-9322-0094fdc604f7","resource":{"resourceType":"Coverage","id":"4cd346e6-a06e-4d21-9322-0094fdc604f7","meta":{"profile":["http://hl7.org/fhir/us/qicore/StructureDefinition/qicore-coverage"]},"status":"active","type":{"coding":[{"system":"https://nahdo.org/sopt","version":"9.2","code":"11","display":"Medicare Managed Care (Includes Medicare Advantage Plans)"}]},"subscriberId":"97531","beneficiary":{"reference":"Patient/47643903-6f24-428e-a354-f4a59d006ddf"},"dependent":"0","relationship":{"coding":[{"system":"http://terminology.hl7.org/CodeSystem/subscriber-relationship","code":"self"}]},"period":{"start":"2025-10-01T00:00:00.000+00:00"},"payor":[{"reference":"Organization/2299e95d-e69e-46d4-b236-d73fd447f527"}]},"request":{"method":"PUT","url":"Coverage/4cd346e6-a06e-4d21-9322-0094fdc604f7"}},{"fullUrl":"MeasureReport/a0d6d7af-09eb-4b08-91af-fb77d10534f2","resource":{"resourceType":"MeasureReport","id":"a0d6d7af-09eb-4b08-91af-fb77d10534f2","meta":{"profile":["http://hl7.org/fhir/us/cqfmeasures/StructureDefinition/test-case-cqfm"]},"contained":[{"resourceType":"Parameters","id":"6e2ef26b-1411-4afd-a9fe-40e33eaa51b3-parameters","parameter":[{"name":"subject","valueString":"47643903-6f24-428e-a354-f4a59d006ddf"}]}],"extension":[{"url":"http://hl7.org/fhir/StructureDefinition/cqf-inputParameters","valueReference":{"reference":"#6e2ef26b-1411-4afd-a9fe-40e33eaa51b3-parameters"}},{"url":"http://hl7.org/fhir/us/cqfmeasures/StructureDefinition/cqfm-testCaseDescription","valueMarkdown":"2 Encounters: 1-Referral, assessment (mod), dx, care plan (4/4, 100%)\n2-Referral, assessment (mod), no dx, no care plan (2/4, 50%)"}],"modifierExtension":[{"url":"http://hl7.org/fhir/us/cqfmeasures/StructureDefinition/cqfm-isTestCase","valueBoolean":true}],"status":"complete","type":"individual","measure":"https://madie.cms.gov/Measure/CMS986FHIRMalnutritionScore","period":{"start":"2026-01-01","end":"2026-12-31"},"group":[{"id":"Group_1","population":[{"id":"InitialPopulation_1","code":{"coding":[{"system":"http://terminology.hl7.org/CodeSystem/measure-population","code":"initial-population","display":"Initial Population"}]},"count":2},{"id":"MeasurePopulation_1","code":{"coding":[{"system":"http://terminology.hl7.org/CodeSystem/measure-population","code":"measure-population","display":"Measure Population"}]},"count":2},{"id":"MeasurePopulationExclusion_1","code":{"coding":[{"system":"http://terminology.hl7.org/CodeSystem/measure-population","code":"measure-population-exclusion","display":"Measure Population Exclusion"}]},"count":0},{"id":"MeasureObservation_1_1","code":{"coding":[{"system":"http://terminology.hl7.org/CodeSystem/measure-population","code":"measure-population-observation","display":"Measure Population Observation"}]},"count":1},{"id":"MeasureObservation_1_2","code":{"coding":[{"system":"http://terminology.hl7.org/CodeSystem/measure-population","code":"measure-population-observation","display":"Measure Population Observation"}]},"count":1}],"measureScore":{"value":0.0}},{"id":"Group_2","population":[{"id":"InitialPopulation_2","code":{"coding":[{"system":"http://terminology.hl7.org/CodeSystem/measure-population","code":"initial-population","display":"Initial Population"}]},"count":2},{"id":"MeasurePopulation_2","code":{"coding":[{"system":"http://terminology.hl7.org/CodeSystem/measure-population","code":"measure-population","display":"Measure Population"}]},"count":2},{"id":"MeasurePopulationExclusion_2","code":{"coding":[{"system":"http://terminology.hl7.org/CodeSystem/measure-population","code":"measure-population-exclusion","display":"Measure Population Exclusion"}]},"count":0},{"id":"MeasureObservation_2_1","code":{"coding":[{"system":"http://terminology.hl7.org/CodeSystem/measure-population","code":"measure-population-observation","display":"Measure Population Observation"}]},"count":1},{"id":"MeasureObservation_2_2","code":{"coding":[{"system":"http://terminology.hl7.org/CodeSystem/measure-population","code":"measure-population-observation","display":"Measure Population Observation"}]},"count":1}],"measureScore":{"value":0.0}},{"id":"Group_3","population":[{"id":"InitialPopulation_3","code":{"coding":[{"system":"http://terminology.hl7.org/CodeSystem/measure-population","code":"initial-population","display":"Initial Population"}]},"count":2},{"id":"MeasurePopulation_3","code":{"coding":[{"system":"http://terminology.hl7.org/CodeSystem/measure-population","code":"measure-population","display":"Measure Population"}]},"count":2},{"id":"MeasurePopulationExclusion_3","code":{"coding":[{"system":"http://terminology.hl7.org/CodeSystem/measure-population","code":"measure-population-exclusion","display":"Measure Population Exclusion"}]},"count":0},{"id":"MeasureObservation_3_1","code":{"coding":[{"system":"http://terminology.hl7.org/CodeSystem/measure-population","code":"measure-population-observation","display":"Measure Population Observation"}]},"count":0},{"id":"MeasureObservation_3_2","code":{"coding":[{"system":"http://terminology.hl7.org/CodeSystem/measure-population","code":"measure-population-observation","display":"Measure Population Observation"}]},"count":0}],"measureScore":{"value":0.0}},{"id":"Group_4","population":[{"id":"InitialPopulation_4","code":{"coding":[{"system":"http://terminology.hl7.org/CodeSystem/measure-population","code":"initial-population","display":"Initial Population"}]},"count":2},{"id":"MeasurePopulation_4","code":{"coding":[{"system":"http://terminology.hl7.org/CodeSystem/measure-population","code":"measure-population","display":"Measure Population"}]},"count":2},{"id":"MeasurePopulationExclusion_4","code":{"coding":[{"system":"http://terminology.hl7.org/CodeSystem/measure-population","code":"measure-population-exclusion","display":"Measure Population Exclusion"}]},"count":0},{"id":"MeasureObservation_4_1","code":{"coding":[{"system":"http://terminology.hl7.org/CodeSystem/measure-population","code":"measure-population-observation","display":"Measure Population Observation"}]},"count":1},{"id":"MeasureObservation_4_2","code":{"coding":[{"system":"http://terminology.hl7.org/CodeSystem/measure-population","code":"measure-population-observation","display":"Measure Population Observation"}]},"count":0}],"measureScore":{"value":0.0}},{"id":"Group_5","population":[{"id":"InitialPopulation_5","code":{"coding":[{"system":"http://terminology.hl7.org/CodeSystem/measure-population","code":"initial-population","display":"Initial Population"}]},"count":2},{"id":"MeasurePopulation_5","code":{"coding":[{"system":"http://terminology.hl7.org/CodeSystem/measure-population","code":"measure-population","display":"Measure Population"}]},"count":2},{"id":"MeasurePopulationExclusion_5","code":{"coding":[{"system":"http://terminology.hl7.org/CodeSystem/measure-population","code":"measure-population-exclusion","display":"Measure Population Exclusion"}]},"count":0},{"id":"MeasureObservation_5_1","code":{"coding":[{"system":"http://terminology.hl7.org/CodeSystem/measure-population","code":"measure-population-observation","display":"Measure Population Observation"}]},"count":3},{"id":"MeasureObservation_5_2","code":{"coding":[{"system":"http://terminology.hl7.org/CodeSystem/measure-population","code":"measure-population-observation","display":"Measure Population Observation"}]},"count":2}],"measureScore":{"value":0.0}},{"id":"Group_6","population":[{"id":"InitialPopulation_6","code":{"coding":[{"system":"http://terminology.hl7.org/CodeSystem/measure-population","code":"initial-population","display":"Initial Population"}]},"count":2},{"id":"MeasurePopulation_6","code":{"coding":[{"system":"http://terminology.hl7.org/CodeSystem/measure-population","code":"measure-population","display":"Measure Population"}]},"count":2},{"id":"MeasurePopulationExclusion_6","code":{"coding":[{"system":"http://terminology.hl7.org/CodeSystem/measure-population","code":"measure-population-exclusion","display":"Measure Population Exclusion"}]},"count":0},{"id":"MeasureObservation_6_1","code":{"coding":[{"system":"http://terminology.hl7.org/CodeSystem/measure-population","code":"measure-population-observation","display":"Measure Population Observation"}]},"count":75},{"id":"MeasureObservation_6_2","code":{"coding":[{"system":"http://terminology.hl7.org/CodeSystem/measure-population","code":"measure-population-observation","display":"Measure Population Observation"}]},"count":50}],"measureScore":{"value":0.0}}],"evaluatedResource":[{"reference":"Patient/47643903-6f24-428e-a354-f4a59d006ddf"},{"reference":"Encounter/b00b0361-2e84-4332-a9cc-6e7175fb447c"},{"reference":"Condition/6ca88683-bc78-4e4c-a8de-95dca49f587b"},{"reference":"Observation/6ac3809a-3c13-4b9c-ae05-5eb27d5e6138"},{"reference":"Procedure/2084e801-5b82-4de6-807e-0da00c6efe82"},{"reference":"Procedure/d3e6a45f-c38b-405d-bca8-3b7e757a1af6"},{"reference":"Coverage/4cd346e6-a06e-4d21-9322-0094fdc604f7"},{"reference":"Encounter/02ef3c15-1bbc-43a8-9462-a26f210f98b8"},{"reference":"Condition/4b628687-8544-48ba-b7ab-0e005c9f40d2"},{"reference":"Observation/8de85216-5e4c-4071-9bc7-6ca325d7f757"},{"reference":"Procedure/0a5335ea-3fc2-4f0d-892d-fdffb4eae5fb"},{"reference":"Coverage/5f9b5e46-1161-411f-8dd9-1fed69741c4d"},{"reference":"Organization/2299e95d-e69e-46d4-b236-d73fd447f527"}]},"request":{"method":"PUT","url":"MeasureReport/a0d6d7af-09eb-4b08-91af-fb77d10534f2"}},{"fullUrl":"Procedure/d3e6a45f-c38b-405d-bca8-3b7e757a1af6","resource":{"resourceType":"Procedure","id":"d3e6a45f-c38b-405d-bca8-3b7e757a1af6","meta":{"profile":["http://hl7.org/fhir/us/qicore/StructureDefinition/qicore-procedure"]},"extension":[{"url":"http://hl7.org/fhir/us/qicore/StructureDefinition/qicore-recorded","valueDateTime":"2026-02-02T11:30:00.000+00:00"}],"status":"completed","code":{"coding":[{"system":"http://snomed.info/sct","code":"1279742004","display":"Development of nutrition care plan (procedure)"}],"text":"Development of nutrition care plan (procedure)"},"subject":{"reference":"Patient/47643903-6f24-428e-a354-f4a59d006ddf"},"encounter":{"reference":"Encounter/SecondEncountNoDxNoCpMSROBSPass4"},"performedPeriod":{"start":"2026-02-01T11:30:00.000+00:00","end":"2026-02-07T08:15:00.000+00:00"}},"request":{"method":"PUT","url":"Procedure/d3e6a45f-c38b-405d-bca8-3b7e757a1af6"}},{"fullUrl":"Condition/6ca88683-bc78-4e4c-a8de-95dca49f587b","resource":{"resourceType":"Condition","id":"6ca88683-bc78-4e4c-a8de-95dca49f587b","meta":{"profile":["http://hl7.org/fhir/us/qicore/StructureDefinition/qicore-condition-encounter-diagnosis"]},"clinicalStatus":{"coding":[{"system":"http://terminology.hl7.org/CodeSystem/condition-clinical","code":"resolved","display":"resolved","userSelected":true}]},"verificationStatus":{"coding":[{"system":"http://terminology.hl7.org/CodeSystem/condition-ver-status","code":"confirmed","display":"Confirmed","userSelected":true}]},"category":[{"coding":[{"system":"http://terminology.hl7.org/CodeSystem/condition-category","code":"encounter-diagnosis","display":"Encounter Diagnosis","userSelected":true}]}],"code":{"coding":[{"system":"http://snomed.info/sct","code":"432788009","display":"Pediatric failure to thrive (disorder)","userSelected":true}]},"subject":{"reference":"Patient/47643903-6f24-428e-a354-f4a59d006ddf"},"onsetPeriod":{"start":"2026-02-01T08:00:00.000+00:00"},"recordedDate":"2026-02-01T11:00:00.000+00:00"},"request":{"method":"PUT","url":"Condition/6ca88683-bc78-4e4c-a8de-95dca49f587b"}},{"fullUrl":"Procedure/0a5335ea-3fc2-4f0d-892d-fdffb4eae5fb","resource":{"resourceType":"Procedure","id":"0a5335ea-3fc2-4f0d-892d-fdffb4eae5fb","meta":{"profile":["http://hl7.org/fhir/us/qicore/StructureDefinition/qicore-procedure"]},"extension":[{"url":"http://hl7.org/fhir/us/qicore/StructureDefinition/qicore-recorded","valueDateTime":"2026-03-01T11:30:00.000+00:00"}],"status":"completed","code":{"coding":[{"system":"http://snomed.info/sct","code":"306165000","display":"Referral to hospital-based dietetics service (procedure)"}],"text":"Referral to hospital-based dietetics service (procedure)"},"subject":{"reference":"Patient/47643903-6f24-428e-a354-f4a59d006ddf"},"encounter":{"reference":"Encounter/SecondEncountNoDxNoCpMSROBSPass4"},"performedPeriod":{"start":"2026-03-01T11:30:00.000+00:00","end":"2026-03-07T08:15:00.000+00:00"}},"request":{"method":"PUT","url":"Procedure/0a5335ea-3fc2-4f0d-892d-fdffb4eae5fb"}},{"fullUrl":"Bundle/SecondEncountNoDxNoCp","resource":{"resourceType":"Bundle","id":"SecondEncountNoDxNoCp","type":"transaction","entry":[{"fullUrl":"https://madie.cms.gov/Patient/47643903-6f24-428e-a354-f4a59d006ddf","resource":{"resourceType":"Patient","id":"47643903-6f24-428e-a354-f4a59d006ddf","meta":{"profile":["http://hl7.org/fhir/us/qicore/StructureDefinition/qicore-patient"]},"extension":[{"url":"http://hl7.org/fhir/us/core/StructureDefinition/us-core-race","extension":[{"url":"ombCategory","valueCoding":{"system":"urn:oid:2.16.840.1.113883.6.238","code":"2054-5","display":"Black or African American","userSelected":true}},{"url":"text","valueString":"Black or African American"}]},{"url":"http://hl7.org/fhir/us/core/StructureDefinition/us-core-ethnicity","extension":[{"url":"ombCategory","valueCoding":{"system":"urn:oid:2.16.840.1.113883.6.238","code":"2135-2","display":"Hispanic or Latino","userSelected":true}},{"url":"text","valueString":"Hispanic or Latino"}]},{"url":"http://hl7.org/fhir/us/core/StructureDefinition/us-core-sex","valueCode":"248152002"}],"identifier":[{"type":{"coding":[{"system":"http://terminology.hl7.org/CodeSystem/v2-0203","code":"MR"}]},"system":"https://madie.cms.gov/","value":"SecondEncountNoDxNoCp"}],"active":true,"name":[{"use":"usual","text":"SecondEncountNoDxNoCp","family":"MSROBSPass4","given":["SecondEncountNoDxNoCp"]}],"gender":"female","birthDate":"1947-01-01","address":[{"text":"SecondEncountNoDxNoCp, Screened Not at risk Assessed Severely Malnourished Diagnosed Care Plan, ID=SecondEncountNoDxNoCp, DOB: 01 Jan 1947"}]},"request":{"method":"PUT","url":"Patient/47643903-6f24-428e-a354-f4a59d006ddf"}},{"fullUrl":"https://madie.cms.gov/Encounter/b00b0361-2e84-4332-a9cc-6e7175fb447c","resource":{"resourceType":"Encounter","id":"b00b0361-2e84-4332-a9cc-6e7175fb447c","meta":{"profile":["http://hl7.org/fhir/us/qicore/StructureDefinition/qicore-encounter"]},"status":"finished","class":{"system":"http://terminology.hl7.org/CodeSystem/v3-ActCode","code":"IMP","display":"inpatient encounter"},"type":[{"coding":[{"system":"http://snomed.info/sct","code":"183452005"}]}],"subject":{"reference":"Patient/47643903-6f24-428e-a354-f4a59d006ddf"},"period":{"start":"2026-02-01T08:00:00.000+00:00","end":"2026-02-07T08:15:00.000+00:00"}},"request":{"method":"PUT","url":"Encounter/b00b0361-2e84-4332-a9cc-6e7175fb447c"}},{"fullUrl":"https://madie.cms.gov/Condition/6ca88683-bc78-4e4c-a8de-95dca49f587b","resource":{"resourceType":"Condition","id":"6ca88683-bc78-4e4c-a8de-95dca49f587b","meta":{"profile":["http://hl7.org/fhir/us/qicore/StructureDefinition/qicore-condition-encounter-diagnosis"]},"clinicalStatus":{"coding":[{"system":"http://terminology.hl7.org/CodeSystem/condition-clinical","code":"resolved","display":"resolved","userSelected":true}]},"verificationStatus":{"coding":[{"system":"http://terminology.hl7.org/CodeSystem/condition-ver-status","code":"confirmed","display":"Confirmed","userSelected":true}]},"category":[{"coding":[{"system":"http://terminology.hl7.org/CodeSystem/condition-category","code":"encounter-diagnosis","display":"Encounter Diagnosis","userSelected":true}]}],"code":{"coding":[{"system":"http://snomed.info/sct","code":"432788009","display":"Pediatric failure to thrive (disorder)","userSelected":true}]},"subject":{"reference":"Patient/47643903-6f24-428e-a354-f4a59d006ddf"},"onsetPeriod":{"start":"2026-02-01T08:00:00.000+00:00"},"recordedDate":"2026-02-01T11:00:00.000+00:00"},"request":{"method":"PUT","url":"Condition/6ca88683-bc78-4e4c-a8de-95dca49f587b"}},{"fullUrl":"https://madie.cms.gov/Observation/6ac3809a-3c13-4b9c-ae05-5eb27d5e6138","resource":{"resourceType":"Observation","id":"6ac3809a-3c13-4b9c-ae05-5eb27d5e6138","meta":{"profile":["http://hl7.org/fhir/us/qicore/StructureDefinition/qicore-observation-screening-assessment"]},"status":"final","category":[{"coding":[{"system":"http://terminology.hl7.org/CodeSystem/observation-category","code":"survey","display":"Survey"}]}],"code":{"coding":[{"system":"http://loinc.org","code":"101819-1","display":"Nutritional assessment for malnutrition status","userSelected":true}]},"subject":{"reference":"Patient/47643903-6f24-428e-a354-f4a59d006ddf"},"effectiveDateTime":"2026-02-01T10:00:00.000+00:00","valueCodeableConcept":{"coding":[{"system":"http://snomed.info/sct","code":"102636009","display":"Chronic nutritional deficiency (finding)","userSelected":true}]}},"request":{"method":"PUT","url":"Observation/6ac3809a-3c13-4b9c-ae05-5eb27d5e6138"}},{"fullUrl":"https://madie.cms.gov/Procedure/2084e801-5b82-4de6-807e-0da00c6efe82","resource":{"resourceType":"Procedure","id":"2084e801-5b82-4de6-807e-0da00c6efe82","meta":{"profile":["http://hl7.org/fhir/us/qicore/StructureDefinition/qicore-procedure"]},"extension":[{"url":"http://hl7.org/fhir/us/qicore/StructureDefinition/qicore-recorded","valueDateTime":"2026-02-01T11:30:00.000+00:00"}],"status":"completed","code":{"coding":[{"system":"http://snomed.info/sct","code":"306165000","display":"Referral to hospital-based dietetics service (procedure)"}],"text":"Referral to hospital-based dietetics service (procedure)"},"subject":{"reference":"Patient/47643903-6f24-428e-a354-f4a59d006ddf"},"encounter":{"reference":"Encounter/SecondEncountNoDxNoCpMSROBSPass4"},"performedPeriod":{"start":"2026-02-01T11:30:00.000+00:00","end":"2026-02-07T08:15:00.000+00:00"}},"request":{"method":"PUT","url":"Procedure/2084e801-5b82-4de6-807e-0da00c6efe82"}},{"fullUrl":"https://madie.cms.gov/Procedure/d3e6a45f-c38b-405d-bca8-3b7e757a1af6","resource":{"resourceType":"Procedure","id":"d3e6a45f-c38b-405d-bca8-3b7e757a1af6","meta":{"profile":["http://hl7.org/fhir/us/qicore/StructureDefinition/qicore-procedure"]},"extension":[{"url":"http://hl7.org/fhir/us/qicore/StructureDefinition/qicore-recorded","valueDateTime":"2026-02-02T11:30:00.000+00:00"}],"status":"completed","code":{"coding":[{"system":"http://snomed.info/sct","code":"1279742004","display":"Development of nutrition care plan (procedure)"}],"text":"Development of nutrition care plan (procedure)"},"subject":{"reference":"Patient/47643903-6f24-428e-a354-f4a59d006ddf"},"encounter":{"reference":"Encounter/SecondEncountNoDxNoCpMSROBSPass4"},"performedPeriod":{"start":"2026-02-01T11:30:00.000+00:00","end":"2026-02-07T08:15:00.000+00:00"}},"request":{"method":"PUT","url":"Procedure/d3e6a45f-c38b-405d-bca8-3b7e757a1af6"}},{"fullUrl":"https://madie.cms.gov/Coverage/4cd346e6-a06e-4d21-9322-0094fdc604f7","resource":{"resourceType":"Coverage","id":"4cd346e6-a06e-4d21-9322-0094fdc604f7","meta":{"profile":["http://hl7.org/fhir/us/qicore/StructureDefinition/qicore-coverage"]},"status":"active","type":{"coding":[{"system":"https://nahdo.org/sopt","version":"9.2","code":"11","display":"Medicare Managed Care (Includes Medicare Advantage Plans)"}]},"subscriberId":"97531","beneficiary":{"reference":"Patient/47643903-6f24-428e-a354-f4a59d006ddf"},"dependent":"0","relationship":{"coding":[{"system":"http://terminology.hl7.org/CodeSystem/subscriber-relationship","code":"self"}]},"period":{"start":"2025-10-01T00:00:00.000+00:00"},"payor":[{"reference":"Organization/2299e95d-e69e-46d4-b236-d73fd447f527"}]},"request":{"method":"PUT","url":"Coverage/4cd346e6-a06e-4d21-9322-0094fdc604f7"}},{"fullUrl":"https://madie.cms.gov/Encounter/02ef3c15-1bbc-43a8-9462-a26f210f98b8","resource":{"resourceType":"Encounter","id":"02ef3c15-1bbc-43a8-9462-a26f210f98b8","meta":{"profile":["http://hl7.org/fhir/us/qicore/StructureDefinition/qicore-encounter"]},"status":"finished","class":{"system":"http://terminology.hl7.org/CodeSystem/v3-ActCode","code":"IMP","display":"inpatient encounter"},"type":[{"coding":[{"system":"http://snomed.info/sct","code":"183452005"}]}],"subject":{"reference":"Patient/47643903-6f24-428e-a354-f4a59d006ddf"},"period":{"start":"2026-03-01T08:00:00.000+00:00","end":"2026-03-07T08:15:00.000+00:00"}},"request":{"method":"PUT","url":"Encounter/02ef3c15-1bbc-43a8-9462-a26f210f98b8"}},{"fullUrl":"https://madie.cms.gov/Condition/4b628687-8544-48ba-b7ab-0e005c9f40d2","resource":{"resourceType":"Condition","id":"4b628687-8544-48ba-b7ab-0e005c9f40d2","meta":{"profile":["http://hl7.org/fhir/us/qicore/StructureDefinition/qicore-condition-encounter-diagnosis"]},"clinicalStatus":{"coding":[{"system":"http://terminology.hl7.org/CodeSystem/condition-clinical","code":"resolved","display":"resolved","userSelected":true}]},"verificationStatus":{"coding":[{"system":"http://terminology.hl7.org/CodeSystem/condition-ver-status","code":"confirmed","display":"Confirmed","userSelected":true}]},"category":[{"coding":[{"system":"http://terminology.hl7.org/CodeSystem/condition-category","code":"encounter-diagnosis","display":"Encounter Diagnosis","userSelected":true}]}],"code":{"coding":[{"system":"http://hl7.org/fhir/sid/icd-10-cm","code":"E43","display":"Unspecified severe protein-calorie malnutrition","userSelected":true}]},"subject":{"reference":"Patient/47643903-6f24-428e-a354-f4a59d006ddf"},"onsetPeriod":{"start":"2026-02-01T08:00:00.000+00:00","end":"2026-02-03T08:00:00.000+00:00"},"recordedDate":"2026-02-01T11:00:00.000+00:00"},"request":{"method":"PUT","url":"Condition/4b628687-8544-48ba-b7ab-0e005c9f40d2"}},{"fullUrl":"https://madie.cms.gov/Observation/8de85216-5e4c-4071-9bc7-6ca325d7f757","resource":{"resourceType":"Observation","id":"8de85216-5e4c-4071-9bc7-6ca325d7f757","meta":{"profile":["http://hl7.org/fhir/us/qicore/StructureDefinition/qicore-observation-screening-assessment"]},"status":"final","category":[{"coding":[{"system":"http://terminology.hl7.org/CodeSystem/observation-category","code":"survey","display":"Survey"}]}],"code":{"coding":[{"system":"http://loinc.org","code":"101819-1","display":"Nutritional assessment for malnutrition status","userSelected":true}]},"subject":{"reference":"Patient/47643903-6f24-428e-a354-f4a59d006ddf"},"effectiveDateTime":"2026-03-01T10:00:00.000+00:00","valueCodeableConcept":{"coding":[{"system":"http://snomed.info/sct","code":"102636009","display":"Chronic nutritional deficiency (finding)","userSelected":true}]}},"request":{"method":"PUT","url":"Observation/8de85216-5e4c-4071-9bc7-6ca325d7f757"}},{"fullUrl":"https://madie.cms.gov/Procedure/0a5335ea-3fc2-4f0d-892d-fdffb4eae5fb","resource":{"resourceType":"Procedure","id":"0a5335ea-3fc2-4f0d-892d-fdffb4eae5fb","meta":{"profile":["http://hl7.org/fhir/us/qicore/StructureDefinition/qicore-procedure"]},"extension":[{"url":"http://hl7.org/fhir/us/qicore/StructureDefinition/qicore-recorded","valueDateTime":"2026-03-01T11:30:00.000+00:00"}],"status":"completed","code":{"coding":[{"system":"http://snomed.info/sct","code":"306165000","display":"Referral to hospital-based dietetics service (procedure)"}],"text":"Referral to hospital-based dietetics service (procedure)"},"subject":{"reference":"Patient/47643903-6f24-428e-a354-f4a59d006ddf"},"encounter":{"reference":"Encounter/SecondEncountNoDxNoCpMSROBSPass4"},"performedPeriod":{"start":"2026-03-01T11:30:00.000+00:00","end":"2026-03-07T08:15:00.000+00:00"}},"request":{"method":"PUT","url":"Procedure/0a5335ea-3fc2-4f0d-892d-fdffb4eae5fb"}},{"fullUrl":"https://madie.cms.gov/Coverage/5f9b5e46-1161-411f-8dd9-1fed69741c4d","resource":{"resourceType":"Coverage","id":"5f9b5e46-1161-411f-8dd9-1fed69741c4d","meta":{"profile":["http://hl7.org/fhir/us/qicore/StructureDefinition/qicore-coverage"]},"status":"active","type":{"coding":[{"system":"https://nahdo.org/sopt","version":"9.2","code":"11","display":"Medicare Managed Care (Includes Medicare Advantage Plans)"}]},"subscriberId":"97531","beneficiary":{"reference":"Patient/47643903-6f24-428e-a354-f4a59d006ddf"},"dependent":"0","relationship":{"coding":[{"system":"http://terminology.hl7.org/CodeSystem/subscriber-relationship","code":"self"}]},"period":{"start":"2025-10-01T00:00:00.000+00:00"},"payor":[{"reference":"Organization/2299e95d-e69e-46d4-b236-d73fd447f527"}]},"request":{"method":"PUT","url":"Coverage/5f9b5e46-1161-411f-8dd9-1fed69741c4d"}},{"fullUrl":"https://madie.cms.gov/Organization/2299e95d-e69e-46d4-b236-d73fd447f527","resource":{"resourceType":"Organization","id":"2299e95d-e69e-46d4-b236-d73fd447f527","meta":{"profile":["http://hl7.org/fhir/us/qicore/StructureDefinition/qicore-organization"]},"identifier":[{"use":"temp","system":"urn:oid:2.16.840.1.113883.4.4","value":"21-3259825"}],"active":true,"type":[{"coding":[{"system":"http://terminology.hl7.org/CodeSystem/organization-type","code":"pay","display":"Payer"}]}],"name":"Blue Cross Blue Shield of Texas","telecom":[{"system":"phone","value":"(+1) 972-766-6900"}],"address":[{"use":"billing","type":"postal","line":["P.O. Box 660044"],"city":"Dallas","state":"TX","postalCode":"75266-0044","country":"USA"}]},"request":{"method":"PUT","url":"Organization/2299e95d-e69e-46d4-b236-d73fd447f527"}},{"fullUrl":"https://madie.cms.gov/MeasureReport/a0d6d7af-09eb-4b08-91af-fb77d10534f2","resource":{"resourceType":"MeasureReport","id":"a0d6d7af-09eb-4b08-91af-fb77d10534f2","meta":{"profile":["http://hl7.org/fhir/us/cqfmeasures/StructureDefinition/test-case-cqfm"]},"contained":[{"resourceType":"Parameters","id":"6e2ef26b-1411-4afd-a9fe-40e33eaa51b3-parameters","parameter":[{"name":"subject","valueString":"47643903-6f24-428e-a354-f4a59d006ddf"}]}],"extension":[{"url":"http://hl7.org/fhir/StructureDefinition/cqf-inputParameters","valueReference":{"reference":"#6e2ef26b-1411-4afd-a9fe-40e33eaa51b3-parameters"}},{"url":"http://hl7.org/fhir/us/cqfmeasures/StructureDefinition/cqfm-testCaseDescription","valueMarkdown":"2 Encounters: 1-Referral, assessment (mod), dx, care plan (4/4, 100%)\n2-Referral, assessment (mod), no dx, no care plan (2/4, 50%)"}],"modifierExtension":[{"url":"http://hl7.org/fhir/us/cqfmeasures/StructureDefinition/cqfm-isTestCase","valueBoolean":true}],"status":"complete","type":"individual","measure":"https://madie.cms.gov/Measure/CMS986FHIRMalnutritionScore","period":{"start":"2026-01-01","end":"2026-12-31"},"group":[{"id":"Group_1","population":[{"id":"InitialPopulation_1","code":{"coding":[{"system":"http://terminology.hl7.org/CodeSystem/measure-population","code":"initial-population","display":"Initial Population"}]},"count":2},{"id":"MeasurePopulation_1","code":{"coding":[{"system":"http://terminology.hl7.org/CodeSystem/measure-population","code":"measure-population","display":"Measure Population"}]},"count":2},{"id":"MeasurePopulationExclusion_1","code":{"coding":[{"system":"http://terminology.hl7.org/CodeSystem/measure-population","code":"measure-population-exclusion","display":"Measure Population Exclusion"}]},"count":0},{"id":"MeasureObservation_1_1","code":{"coding":[{"system":"http://terminology.hl7.org/CodeSystem/measure-population","code":"measure-population-observation","display":"Measure Population Observation"}]},"count":1},{"id":"MeasureObservation_1_2","code":{"coding":[{"system":"http://terminology.hl7.org/CodeSystem/measure-population","code":"measure-population-observation","display":"Measure Population Observation"}]},"count":1}],"measureScore":{"value":0.0}},{"id":"Group_2","population":[{"id":"InitialPopulation_2","code":{"coding":[{"system":"http://terminology.hl7.org/CodeSystem/measure-population","code":"initial-population","display":"Initial Population"}]},"count":2},{"id":"MeasurePopulation_2","code":{"coding":[{"system":"http://terminology.hl7.org/CodeSystem/measure-population","code":"measure-population","display":"Measure Population"}]},"count":2},{"id":"MeasurePopulationExclusion_2","code":{"coding":[{"system":"http://terminology.hl7.org/CodeSystem/measure-population","code":"measure-population-exclusion","display":"Measure Population Exclusion"}]},"count":0},{"id":"MeasureObservation_2_1","code":{"coding":[{"system":"http://terminology.hl7.org/CodeSystem/measure-population","code":"measure-population-observation","display":"Measure Population Observation"}]},"count":1},{"id":"MeasureObservation_2_2","code":{"coding":[{"system":"http://terminology.hl7.org/CodeSystem/measure-population","code":"measure-population-observation","display":"Measure Population Observation"}]},"count":1}],"measureScore":{"value":0.0}},{"id":"Group_3","population":[{"id":"InitialPopulation_3","code":{"coding":[{"system":"http://terminology.hl7.org/CodeSystem/measure-population","code":"initial-population","display":"Initial Population"}]},"count":2},{"id":"MeasurePopulation_3","code":{"coding":[{"system":"http://terminology.hl7.org/CodeSystem/measure-population","code":"measure-population","display":"Measure Population"}]},"count":2},{"id":"MeasurePopulationExclusion_3","code":{"coding":[{"system":"http://terminology.hl7.org/CodeSystem/measure-population","code":"measure-population-exclusion","display":"Measure Population Exclusion"}]},"count":0},{"id":"MeasureObservation_3_1","code":{"coding":[{"system":"http://terminology.hl7.org/CodeSystem/measure-population","code":"measure-population-observation","display":"Measure Population Observation"}]},"count":0},{"id":"MeasureObservation_3_2","code":{"coding":[{"system":"http://terminology.hl7.org/CodeSystem/measure-population","code":"measure-population-observation","display":"Measure Population Observation"}]},"count":0}],"measureScore":{"value":0.0}},{"id":"Group_4","population":[{"id":"InitialPopulation_4","code":{"coding":[{"system":"http://terminology.hl7.org/CodeSystem/measure-population","code":"initial-population","display":"Initial Population"}]},"count":2},{"id":"MeasurePopulation_4","code":{"coding":[{"system":"http://terminology.hl7.org/CodeSystem/measure-population","code":"measure-population","display":"Measure Population"}]},"count":2},{"id":"MeasurePopulationExclusion_4","code":{"coding":[{"system":"http://terminology.hl7.org/CodeSystem/measure-population","code":"measure-population-exclusion","display":"Measure Population Exclusion"}]},"count":0},{"id":"MeasureObservation_4_1","code":{"coding":[{"system":"http://terminology.hl7.org/CodeSystem/measure-population","code":"measure-population-observation","display":"Measure Population Observation"}]},"count":1},{"id":"MeasureObservation_4_2","code":{"coding":[{"system":"http://terminology.hl7.org/CodeSystem/measure-population","code":"measure-population-observation","display":"Measure Population Observation"}]},"count":0}],"measureScore":{"value":0.0}},{"id":"Group_5","population":[{"id":"InitialPopulation_5","code":{"coding":[{"system":"http://terminology.hl7.org/CodeSystem/measure-population","code":"initial-population","display":"Initial Population"}]},"count":2},{"id":"MeasurePopulation_5","code":{"coding":[{"system":"http://terminology.hl7.org/CodeSystem/measure-population","code":"measure-population","display":"Measure Population"}]},"count":2},{"id":"MeasurePopulationExclusion_5","code":{"coding":[{"system":"http://terminology.hl7.org/CodeSystem/measure-population","code":"measure-population-exclusion","display":"Measure Population Exclusion"}]},"count":0},{"id":"MeasureObservation_5_1","code":{"coding":[{"system":"http://terminology.hl7.org/CodeSystem/measure-population","code":"measure-population-observation","display":"Measure Population Observation"}]},"count":3},{"id":"MeasureObservation_5_2","code":{"coding":[{"system":"http://terminology.hl7.org/CodeSystem/measure-population","code":"measure-population-observation","display":"Measure Population Observation"}]},"count":2}],"measureScore":{"value":0.0}},{"id":"Group_6","population":[{"id":"InitialPopulation_6","code":{"coding":[{"system":"http://terminology.hl7.org/CodeSystem/measure-population","code":"initial-population","display":"Initial Population"}]},"count":2},{"id":"MeasurePopulation_6","code":{"coding":[{"system":"http://terminology.hl7.org/CodeSystem/measure-population","code":"measure-population","display":"Measure Population"}]},"count":2},{"id":"MeasurePopulationExclusion_6","code":{"coding":[{"system":"http://terminology.hl7.org/CodeSystem/measure-population","code":"measure-population-exclusion","display":"Measure Population Exclusion"}]},"count":0},{"id":"MeasureObservation_6_1","code":{"coding":[{"system":"http://terminology.hl7.org/CodeSystem/measure-population","code":"measure-population-observation","display":"Measure Population Observation"}]},"count":75},{"id":"MeasureObservation_6_2","code":{"coding":[{"system":"http://terminology.hl7.org/CodeSystem/measure-population","code":"measure-population-observation","display":"Measure Population Observation"}]},"count":50}],"measureScore":{"value":0.0}}],"evaluatedResource":[{"reference":"Patient/47643903-6f24-428e-a354-f4a59d006ddf"},{"reference":"Encounter/b00b0361-2e84-4332-a9cc-6e7175fb447c"},{"reference":"Condition/6ca88683-bc78-4e4c-a8de-95dca49f587b"},{"reference":"Observation/6ac3809a-3c13-4b9c-ae05-5eb27d5e6138"},{"reference":"Procedure/2084e801-5b82-4de6-807e-0da00c6efe82"},{"reference":"Procedure/d3e6a45f-c38b-405d-bca8-3b7e757a1af6"},{"reference":"Coverage/4cd346e6-a06e-4d21-9322-0094fdc604f7"},{"reference":"Encounter/02ef3c15-1bbc-43a8-9462-a26f210f98b8"},{"reference":"Condition/4b628687-8544-48ba-b7ab-0e005c9f40d2"},{"reference":"Observation/8de85216-5e4c-4071-9bc7-6ca325d7f757"},{"reference":"Procedure/0a5335ea-3fc2-4f0d-892d-fdffb4eae5fb"},{"reference":"Coverage/5f9b5e46-1161-411f-8dd9-1fed69741c4d"},{"reference":"Organization/2299e95d-e69e-46d4-b236-d73fd447f527"}]},"request":{"method":"PUT","url":"MeasureReport/a0d6d7af-09eb-4b08-91af-fb77d10534f2"}}]},"request":{"method":"PUT","url":"Bundle/SecondEncountNoDxNoCp"}},{"fullUrl":"Observation/6ac3809a-3c13-4b9c-ae05-5eb27d5e6138","resource":{"resourceType":"Observation","id":"6ac3809a-3c13-4b9c-ae05-5eb27d5e6138","meta":{"profile":["http://hl7.org/fhir/us/qicore/StructureDefinition/qicore-observation-screening-assessment"]},"status":"final","category":[{"coding":[{"system":"http://terminology.hl7.org/CodeSystem/observation-category","code":"survey","display":"Survey"}]}],"code":{"coding":[{"system":"http://loinc.org","code":"101819-1","display":"Nutritional assessment for malnutrition status","userSelected":true}]},"subject":{"reference":"Patient/47643903-6f24-428e-a354-f4a59d006ddf"},"effectiveDateTime":"2026-02-01T10:00:00.000+00:00","valueCodeableConcept":{"coding":[{"system":"http://snomed.info/sct","code":"102636009","display":"Chronic nutritional deficiency (finding)","userSelected":true}]}},"request":{"method":"PUT","url":"Observation/6ac3809a-3c13-4b9c-ae05-5eb27d5e6138"}},{"fullUrl":"Encounter/02ef3c15-1bbc-43a8-9462-a26f210f98b8","resource":{"resourceType":"Encounter","id":"02ef3c15-1bbc-43a8-9462-a26f210f98b8","meta":{"profile":["http://hl7.org/fhir/us/qicore/StructureDefinition/qicore-encounter"]},"status":"finished","class":{"system":"http://terminology.hl7.org/CodeSystem/v3-ActCode","code":"IMP","display":"inpatient encounter"},"type":[{"coding":[{"system":"http://snomed.info/sct","code":"183452005"}]}],"subject":{"reference":"Patient/47643903-6f24-428e-a354-f4a59d006ddf"},"period":{"start":"2026-03-01T08:00:00.000+00:00","end":"2026-03-07T08:15:00.000+00:00"}},"request":{"method":"PUT","url":"Encounter/02ef3c15-1bbc-43a8-9462-a26f210f98b8"}},{"fullUrl":"Procedure/2084e801-5b82-4de6-807e-0da00c6efe82","resource":{"resourceType":"Procedure","id":"2084e801-5b82-4de6-807e-0da00c6efe82","meta":{"profile":["http://hl7.org/fhir/us/qicore/StructureDefinition/qicore-procedure"]},"extension":[{"url":"http://hl7.org/fhir/us/qicore/StructureDefinition/qicore-recorded","valueDateTime":"2026-02-01T11:30:00.000+00:00"}],"status":"completed","code":{"coding":[{"system":"http://snomed.info/sct","code":"306165000","display":"Referral to hospital-based dietetics service (procedure)"}],"text":"Referral to hospital-based dietetics service (procedure)"},"subject":{"reference":"Patient/47643903-6f24-428e-a354-f4a59d006ddf"},"encounter":{"reference":"Encounter/SecondEncountNoDxNoCpMSROBSPass4"},"performedPeriod":{"start":"2026-02-01T11:30:00.000+00:00","end":"2026-02-07T08:15:00.000+00:00"}},"request":{"method":"PUT","url":"Procedure/2084e801-5b82-4de6-807e-0da00c6efe82"}},{"fullUrl":"Patient/47643903-6f24-428e-a354-f4a59d006ddf","resource":{"resourceType":"Patient","id":"47643903-6f24-428e-a354-f4a59d006ddf","meta":{"profile":["http://hl7.org/fhir/us/qicore/StructureDefinition/qicore-patient"]},"extension":[{"url":"http://hl7.org/fhir/us/core/StructureDefinition/us-core-race","extension":[{"url":"ombCategory","valueCoding":{"system":"urn:oid:2.16.840.1.113883.6.238","code":"2054-5","display":"Black or African American","userSelected":true}},{"url":"text","valueString":"Black or African American"}]},{"url":"http://hl7.org/fhir/us/core/StructureDefinition/us-core-ethnicity","extension":[{"url":"ombCategory","valueCoding":{"system":"urn:oid:2.16.840.1.113883.6.238","code":"2135-2","display":"Hispanic or Latino","userSelected":true}},{"url":"text","valueString":"Hispanic or Latino"}]},{"url":"http://hl7.org/fhir/us/core/StructureDefinition/us-core-sex","valueCode":"248152002"}],"identifier":[{"type":{"coding":[{"system":"http://terminology.hl7.org/CodeSystem/v2-0203","code":"MR"}]},"system":"https://madie.cms.gov/","value":"SecondEncountNoDxNoCp"}],"active":true,"name":[{"use":"usual","text":"SecondEncountNoDxNoCp","family":"MSROBSPass4","given":["SecondEncountNoDxNoCp"]}],"gender":"female","birthDate":"1947-01-01","address":[{"text":"SecondEncountNoDxNoCp, Screened Not at risk Assessed Severely Malnourished Diagnosed Care Plan, ID=SecondEncountNoDxNoCp, DOB: 01 Jan 1947"}]},"request":{"method":"PUT","url":"Patient/47643903-6f24-428e-a354-f4a59d006ddf"}},{"fullUrl":"Observation/8de85216-5e4c-4071-9bc7-6ca325d7f757","resource":{"resourceType":"Observation","id":"8de85216-5e4c-4071-9bc7-6ca325d7f757","meta":{"profile":["http://hl7.org/fhir/us/qicore/StructureDefinition/qicore-observation-screening-assessment"]},"status":"final","category":[{"coding":[{"system":"http://terminology.hl7.org/CodeSystem/observation-category","code":"survey","display":"Survey"}]}],"code":{"coding":[{"system":"http://loinc.org","code":"101819-1","display":"Nutritional assessment for malnutrition status","userSelected":true}]},"subject":{"reference":"Patient/47643903-6f24-428e-a354-f4a59d006ddf"},"effectiveDateTime":"2026-03-01T10:00:00.000+00:00","valueCodeableConcept":{"coding":[{"system":"http://snomed.info/sct","code":"102636009","display":"Chronic nutritional deficiency (finding)","userSelected":true}]}},"request":{"method":"PUT","url":"Observation/8de85216-5e4c-4071-9bc7-6ca325d7f757"}},{"fullUrl":"Encounter/b00b0361-2e84-4332-a9cc-6e7175fb447c","resource":{"resourceType":"Encounter","id":"b00b0361-2e84-4332-a9cc-6e7175fb447c","meta":{"profile":["http://hl7.org/fhir/us/qicore/StructureDefinition/qicore-encounter"]},"status":"finished","class":{"system":"http://terminology.hl7.org/CodeSystem/v3-ActCode","code":"IMP","display":"inpatient encounter"},"type":[{"coding":[{"system":"http://snomed.info/sct","code":"183452005"}]}],"subject":{"reference":"Patient/47643903-6f24-428e-a354-f4a59d006ddf"},"period":{"start":"2026-02-01T08:00:00.000+00:00","end":"2026-02-07T08:15:00.000+00:00"}},"request":{"method":"PUT","url":"Encounter/b00b0361-2e84-4332-a9cc-6e7175fb447c"}},{"fullUrl":"Organization/2299e95d-e69e-46d4-b236-d73fd447f527","resource":{"resourceType":"Organization","id":"2299e95d-e69e-46d4-b236-d73fd447f527","meta":{"profile":["http://hl7.org/fhir/us/qicore/StructureDefinition/qicore-organization"]},"identifier":[{"use":"temp","system":"urn:oid:2.16.840.1.113883.4.4","value":"21-3259825"}],"active":true,"type":[{"coding":[{"system":"http://terminology.hl7.org/CodeSystem/organization-type","code":"pay","display":"Payer"}]}],"name":"Blue Cross Blue Shield of Texas","telecom":[{"system":"phone","value":"(+1) 972-766-6900"}],"address":[{"use":"billing","type":"postal","line":["P.O. Box 660044"],"city":"Dallas","state":"TX","postalCode":"75266-0044","country":"USA"}]},"request":{"method":"PUT","url":"Organization/2299e95d-e69e-46d4-b236-d73fd447f527"}},{"fullUrl":"Condition/4b628687-8544-48ba-b7ab-0e005c9f40d2","resource":{"resourceType":"Condition","id":"4b628687-8544-48ba-b7ab-0e005c9f40d2","meta":{"profile":["http://hl7.org/fhir/us/qicore/StructureDefinition/qicore-condition-encounter-diagnosis"]},"clinicalStatus":{"coding":[{"system":"http://terminology.hl7.org/CodeSystem/condition-clinical","code":"resolved","display":"resolved","userSelected":true}]},"verificationStatus":{"coding":[{"system":"http://terminology.hl7.org/CodeSystem/condition-ver-status","code":"confirmed","display":"Confirmed","userSelected":true}]},"category":[{"coding":[{"system":"http://terminology.hl7.org/CodeSystem/condition-category","code":"encounter-diagnosis","display":"Encounter Diagnosis","userSelected":true}]}],"code":{"coding":[{"system":"http://hl7.org/fhir/sid/icd-10-cm","code":"E43","display":"Unspecified severe protein-calorie malnutrition","userSelected":true}]},"subject":{"reference":"Patient/47643903-6f24-428e-a354-f4a59d006ddf"},"onsetPeriod":{"start":"2026-02-01T08:00:00.000+00:00","end":"2026-02-03T08:00:00.000+00:00"},"recordedDate":"2026-02-01T11:00:00.000+00:00"},"request":{"method":"PUT","url":"Condition/4b628687-8544-48ba-b7ab-0e005c9f40d2"}},{"fullUrl":"Coverage/5f9b5e46-1161-411f-8dd9-1fed69741c4d","resource":{"resourceType":"Coverage","id":"5f9b5e46-1161-411f-8dd9-1fed69741c4d","meta":{"profile":["http://hl7.org/fhir/us/qicore/StructureDefinition/qicore-coverage"]},"status":"active","type":{"coding":[{"system":"https://nahdo.org/sopt","version":"9.2","code":"11","display":"Medicare Managed Care (Includes Medicare Advantage Plans)"}]},"subscriberId":"97531","beneficiary":{"reference":"Patient/47643903-6f24-428e-a354-f4a59d006ddf"},"dependent":"0","relationship":{"coding":[{"system":"http://terminology.hl7.org/CodeSystem/subscriber-relationship","code":"self"}]},"period":{"start":"2025-10-01T00:00:00.000+00:00"},"payor":[{"reference":"Organization/2299e95d-e69e-46d4-b236-d73fd447f527"}]},"request":{"method":"PUT","url":"Coverage/5f9b5e46-1161-411f-8dd9-1fed69741c4d"}}]}