{"resourceType":"Bundle","id":"tests-4f90847d-e626-4ebb-8382-ae1c05079579-bundle","type":"transaction","entry":[{"fullUrl":"Observation/de03724e-6eb0-4ad3-9ca5-5bc453b1182f","resource":{"resourceType":"Observation","id":"de03724e-6eb0-4ad3-9ca5-5bc453b1182f","meta":{"profile":["http://hl7.org/fhir/us/qicore/StructureDefinition/qicore-observation-screening-assessment"]},"status":"final","category":[{"coding":[{"system":"http://terminology.hl7.org/CodeSystem/observation-category","code":"survey","display":"Survey"}]}],"code":{"coding":[{"system":"http://loinc.org","code":"75303-8","display":"Nutrition assessment narrative","userSelected":true}]},"subject":{"reference":"Patient/4f90847d-e626-4ebb-8382-ae1c05079579"},"effectiveDateTime":"2026-08-25T10:00:00.000+00:00","valueCodeableConcept":{"coding":[{"system":"http://snomed.info/sct","code":"248324001","display":"Well nourished (finding)","userSelected":true}]}},"request":{"method":"PUT","url":"Observation/de03724e-6eb0-4ad3-9ca5-5bc453b1182f"}},{"fullUrl":"Condition/d32fa0a4-c8e7-4c45-9c8f-49f0813adc9b","resource":{"resourceType":"Condition","id":"d32fa0a4-c8e7-4c45-9c8f-49f0813adc9b","meta":{"profile":["http://hl7.org/fhir/us/qicore/StructureDefinition/qicore-condition-encounter-diagnosis"]},"clinicalStatus":{"coding":[{"system":"http://terminology.hl7.org/CodeSystem/condition-clinical","code":"active","display":"Active","userSelected":true}]},"verificationStatus":{"coding":[{"system":"http://terminology.hl7.org/CodeSystem/condition-ver-status","code":"confirmed","display":"Confirmed","userSelected":true}]},"category":[{"coding":[{"system":"http://terminology.hl7.org/CodeSystem/condition-category","code":"encounter-diagnosis","display":"Encounter Diagnosis","userSelected":true}]}],"code":{"coding":[{"system":"http://snomed.info/sct","code":"54840006","display":"Failure to thrive (disorder)","userSelected":true}]},"subject":{"reference":"Patient/4f90847d-e626-4ebb-8382-ae1c05079579"},"onsetPeriod":{"start":"2026-08-25T08:00:00.000+00:00"},"recordedDate":"2026-08-25T11:00:00.000+00:00"},"request":{"method":"PUT","url":"Condition/d32fa0a4-c8e7-4c45-9c8f-49f0813adc9b"}},{"fullUrl":"Encounter/9c4953ec-d2df-435e-9de7-aafe804088aa","resource":{"resourceType":"Encounter","id":"9c4953ec-d2df-435e-9de7-aafe804088aa","meta":{"profile":["http://hl7.org/fhir/us/qicore/StructureDefinition/qicore-encounter"]},"status":"finished","class":{"system":"http://terminology.hl7.org/CodeSystem/v3-ActCode","code":"IMP","display":"inpatient encounter"},"type":[{"coding":[{"system":"http://snomed.info/sct","code":"183452005"}]}],"subject":{"reference":"Patient/4f90847d-e626-4ebb-8382-ae1c05079579"},"period":{"start":"2026-08-24T08:00:00.000+00:00","end":"2026-08-29T08:15:00.000+00:00"}},"request":{"method":"PUT","url":"Encounter/9c4953ec-d2df-435e-9de7-aafe804088aa"}},{"fullUrl":"Coverage/31368830-3ef5-44b6-8783-b6964d748db2","resource":{"resourceType":"Coverage","id":"31368830-3ef5-44b6-8783-b6964d748db2","meta":{"profile":["http://hl7.org/fhir/us/qicore/StructureDefinition/qicore-coverage"]},"status":"active","type":{"coding":[{"system":"https://nahdo.org/sopt","version":"9.2","code":"11","display":"Medicare Managed Care (Includes Medicare Advantage Plans)"}]},"subscriberId":"97531","beneficiary":{"reference":"Patient/4f90847d-e626-4ebb-8382-ae1c05079579"},"dependent":"0","relationship":{"coding":[{"system":"http://terminology.hl7.org/CodeSystem/subscriber-relationship","code":"self"}]},"period":{"start":"2025-10-01T00:00:00.000+00:00"},"payor":[{"reference":"Organization/1e75633d-a8db-4a45-a4ac-97e96770a078"}]},"request":{"method":"PUT","url":"Coverage/31368830-3ef5-44b6-8783-b6964d748db2"}},{"fullUrl":"MeasureReport/cd85f349-b577-4f25-ac59-71d95a1cdb73","resource":{"resourceType":"MeasureReport","id":"cd85f349-b577-4f25-ac59-71d95a1cdb73","meta":{"profile":["http://hl7.org/fhir/us/cqfmeasures/StructureDefinition/test-case-cqfm"]},"contained":[{"resourceType":"Parameters","id":"b2804b42-39a4-4a55-ba87-71b0cabc8403-parameters","parameter":[{"name":"subject","valueString":"4f90847d-e626-4ebb-8382-ae1c05079579"}]}],"extension":[{"url":"http://hl7.org/fhir/StructureDefinition/cqf-inputParameters","valueReference":{"reference":"#b2804b42-39a4-4a55-ba87-71b0cabc8403-parameters"}},{"url":"http://hl7.org/fhir/us/cqfmeasures/StructureDefinition/cqfm-testCaseDescription","valueMarkdown":"Screened, Not at Risk, No Referral, Assessment, Severe Malnutrition, Diagnosis, No Care Plan"}],"modifierExtension":[{"url":"http://hl7.org/fhir/us/cqfmeasures/StructureDefinition/cqfm-isTestCase","valueBoolean":true}],"status":"complete","type":"individual","measure":"https://madie.cms.gov/Measure/CMS986FHIRMalnutritionScore","period":{"start":"2026-01-01","end":"2026-12-31"},"group":[{"id":"Group_1","population":[{"id":"InitialPopulation_1","code":{"coding":[{"system":"http://terminology.hl7.org/CodeSystem/measure-population","code":"initial-population","display":"Initial Population"}]},"count":1},{"id":"MeasurePopulation_1","code":{"coding":[{"system":"http://terminology.hl7.org/CodeSystem/measure-population","code":"measure-population","display":"Measure Population"}]},"count":1},{"id":"MeasurePopulationExclusion_1","code":{"coding":[{"system":"http://terminology.hl7.org/CodeSystem/measure-population","code":"measure-population-exclusion","display":"Measure Population Exclusion"}]},"count":0},{"id":"MeasureObservation_1_1","code":{"coding":[{"system":"http://terminology.hl7.org/CodeSystem/measure-population","code":"measure-population-observation","display":"Measure Population Observation"}]},"count":1}],"measureScore":{"value":0.0}},{"id":"Group_2","population":[{"id":"InitialPopulation_2","code":{"coding":[{"system":"http://terminology.hl7.org/CodeSystem/measure-population","code":"initial-population","display":"Initial Population"}]},"count":1},{"id":"MeasurePopulation_2","code":{"coding":[{"system":"http://terminology.hl7.org/CodeSystem/measure-population","code":"measure-population","display":"Measure Population"}]},"count":1},{"id":"MeasurePopulationExclusion_2","code":{"coding":[{"system":"http://terminology.hl7.org/CodeSystem/measure-population","code":"measure-population-exclusion","display":"Measure Population Exclusion"}]},"count":0},{"id":"MeasureObservation_2_1","code":{"coding":[{"system":"http://terminology.hl7.org/CodeSystem/measure-population","code":"measure-population-observation","display":"Measure Population Observation"}]},"count":0}],"measureScore":{"value":0.0}},{"id":"Group_3","population":[{"id":"InitialPopulation_3","code":{"coding":[{"system":"http://terminology.hl7.org/CodeSystem/measure-population","code":"initial-population","display":"Initial Population"}]},"count":1},{"id":"MeasurePopulation_3","code":{"coding":[{"system":"http://terminology.hl7.org/CodeSystem/measure-population","code":"measure-population","display":"Measure Population"}]},"count":1},{"id":"MeasurePopulationExclusion_3","code":{"coding":[{"system":"http://terminology.hl7.org/CodeSystem/measure-population","code":"measure-population-exclusion","display":"Measure Population Exclusion"}]},"count":0},{"id":"MeasureObservation_3_1","code":{"coding":[{"system":"http://terminology.hl7.org/CodeSystem/measure-population","code":"measure-population-observation","display":"Measure Population Observation"}]},"count":0}],"measureScore":{"value":0.0}},{"id":"Group_4","population":[{"id":"InitialPopulation_4","code":{"coding":[{"system":"http://terminology.hl7.org/CodeSystem/measure-population","code":"initial-population","display":"Initial Population"}]},"count":1},{"id":"MeasurePopulation_4","code":{"coding":[{"system":"http://terminology.hl7.org/CodeSystem/measure-population","code":"measure-population","display":"Measure Population"}]},"count":1},{"id":"MeasurePopulationExclusion_4","code":{"coding":[{"system":"http://terminology.hl7.org/CodeSystem/measure-population","code":"measure-population-exclusion","display":"Measure Population Exclusion"}]},"count":0},{"id":"MeasureObservation_4_1","code":{"coding":[{"system":"http://terminology.hl7.org/CodeSystem/measure-population","code":"measure-population-observation","display":"Measure Population Observation"}]},"count":0}],"measureScore":{"value":0.0}},{"id":"Group_5","population":[{"id":"InitialPopulation_5","code":{"coding":[{"system":"http://terminology.hl7.org/CodeSystem/measure-population","code":"initial-population","display":"Initial Population"}]},"count":1},{"id":"MeasurePopulation_5","code":{"coding":[{"system":"http://terminology.hl7.org/CodeSystem/measure-population","code":"measure-population","display":"Measure Population"}]},"count":1},{"id":"MeasurePopulationExclusion_5","code":{"coding":[{"system":"http://terminology.hl7.org/CodeSystem/measure-population","code":"measure-population-exclusion","display":"Measure Population Exclusion"}]},"count":0},{"id":"MeasureObservation_5_1","code":{"coding":[{"system":"http://terminology.hl7.org/CodeSystem/measure-population","code":"measure-population-observation","display":"Measure Population Observation"}]},"count":1}],"measureScore":{"value":0.0}},{"id":"Group_6","population":[{"id":"InitialPopulation_6","code":{"coding":[{"system":"http://terminology.hl7.org/CodeSystem/measure-population","code":"initial-population","display":"Initial Population"}]},"count":1},{"id":"MeasurePopulation_6","code":{"coding":[{"system":"http://terminology.hl7.org/CodeSystem/measure-population","code":"measure-population","display":"Measure Population"}]},"count":1},{"id":"MeasurePopulationExclusion_6","code":{"coding":[{"system":"http://terminology.hl7.org/CodeSystem/measure-population","code":"measure-population-exclusion","display":"Measure Population Exclusion"}]},"count":0},{"id":"MeasureObservation_6_1","code":{"coding":[{"system":"http://terminology.hl7.org/CodeSystem/measure-population","code":"measure-population-observation","display":"Measure Population Observation"}]},"count":100}],"measureScore":{"value":0.0}}],"evaluatedResource":[{"reference":"Patient/4f90847d-e626-4ebb-8382-ae1c05079579"},{"reference":"Encounter/9c4953ec-d2df-435e-9de7-aafe804088aa"},{"reference":"Condition/d32fa0a4-c8e7-4c45-9c8f-49f0813adc9b"},{"reference":"Observation/a8c19f4d-2816-4243-a0a2-0dd7c07a88b7"},{"reference":"Observation/de03724e-6eb0-4ad3-9ca5-5bc453b1182f"},{"reference":"Coverage/31368830-3ef5-44b6-8783-b6964d748db2"},{"reference":"Organization/1e75633d-a8db-4a45-a4ac-97e96770a078"}]},"request":{"method":"PUT","url":"MeasureReport/cd85f349-b577-4f25-ac59-71d95a1cdb73"}},{"fullUrl":"Patient/4f90847d-e626-4ebb-8382-ae1c05079579","resource":{"resourceType":"Patient","id":"4f90847d-e626-4ebb-8382-ae1c05079579","meta":{"profile":["http://hl7.org/fhir/us/qicore/StructureDefinition/qicore-patient"]},"extension":[{"url":"http://hl7.org/fhir/us/core/StructureDefinition/us-core-race","extension":[{"url":"ombCategory","valueCoding":{"system":"urn:oid:2.16.840.1.113883.6.238","code":"2028-9","display":"Asian","userSelected":true}},{"url":"text","valueString":"Asian"}]},{"url":"http://hl7.org/fhir/us/core/StructureDefinition/us-core-ethnicity","extension":[{"url":"ombCategory","valueCoding":{"system":"urn:oid:2.16.840.1.113883.6.238","code":"2135-2","display":"Hispanic or Latino","userSelected":true}},{"url":"text","valueString":"Hispanic or Latino"}]},{"url":"http://hl7.org/fhir/us/core/StructureDefinition/us-core-sex","valueCode":"248152002"}],"identifier":[{"type":{"coding":[{"system":"http://terminology.hl7.org/CodeSystem/v2-0203","code":"MR"}]},"system":"https://madie.cms.gov/","value":"ScreNoatriNorefAsseModDxNocp"}],"active":true,"name":[{"use":"usual","text":"ScreNoatriNorefAsseModDxNocp","family":"MSROBSPass1","given":["ScreNoatriNorefAsseModDxNocp"]}],"gender":"female","birthDate":"1954-12-02","address":[{"text":"ScreNoatriNorefAsseModDxNocp, Screened Not at risk Assessed Severely Malnourished Diagnosed Care Plan, ID=ScreNoatriNorefAsseModDxNocp, DOB: 02 Dec 1954"}]},"request":{"method":"PUT","url":"Patient/4f90847d-e626-4ebb-8382-ae1c05079579"}},{"fullUrl":"Observation/a8c19f4d-2816-4243-a0a2-0dd7c07a88b7","resource":{"resourceType":"Observation","id":"a8c19f4d-2816-4243-a0a2-0dd7c07a88b7","meta":{"profile":["http://hl7.org/fhir/us/qicore/StructureDefinition/qicore-observation-screening-assessment"]},"status":"final","category":[{"coding":[{"system":"http://terminology.hl7.org/CodeSystem/observation-category","code":"survey","display":"Survey"}]}],"code":{"coding":[{"system":"http://loinc.org","code":"98968-1","display":"Initial Screening NRS_2002","userSelected":true}]},"subject":{"reference":"Patient/4f90847d-e626-4ebb-8382-ae1c05079579"},"effectiveDateTime":"2026-08-25T09:00:00.000+00:00","valueCodeableConcept":{"coding":[{"system":"http://loinc.org","code":"LA33699-2","display":"Not at risk for malnutrition","userSelected":true}]}},"request":{"method":"PUT","url":"Observation/a8c19f4d-2816-4243-a0a2-0dd7c07a88b7"}},{"fullUrl":"Organization/1e75633d-a8db-4a45-a4ac-97e96770a078","resource":{"resourceType":"Organization","id":"1e75633d-a8db-4a45-a4ac-97e96770a078","meta":{"profile":["http://hl7.org/fhir/us/qicore/StructureDefinition/qicore-organization"]},"identifier":[{"use":"temp","system":"urn:oid:2.16.840.1.113883.4.4","value":"21-3259825"}],"active":true,"type":[{"coding":[{"system":"http://terminology.hl7.org/CodeSystem/organization-type","code":"pay","display":"Payer"}]}],"name":"Blue Cross Blue Shield of Texas","telecom":[{"system":"phone","value":"(+1) 972-766-6900"}],"address":[{"use":"billing","type":"postal","line":["P.O. Box 660044"],"city":"Dallas","state":"TX","postalCode":"75266-0044","country":"USA"}]},"request":{"method":"PUT","url":"Organization/1e75633d-a8db-4a45-a4ac-97e96770a078"}},{"fullUrl":"Bundle/ScreNoatriNorefAsseModDxNocp","resource":{"resourceType":"Bundle","id":"ScreNoatriNorefAsseModDxNocp","type":"transaction","entry":[{"fullUrl":"https://madie.cms.gov/Patient/4f90847d-e626-4ebb-8382-ae1c05079579","resource":{"resourceType":"Patient","id":"4f90847d-e626-4ebb-8382-ae1c05079579","meta":{"profile":["http://hl7.org/fhir/us/qicore/StructureDefinition/qicore-patient"]},"extension":[{"url":"http://hl7.org/fhir/us/core/StructureDefinition/us-core-race","extension":[{"url":"ombCategory","valueCoding":{"system":"urn:oid:2.16.840.1.113883.6.238","code":"2028-9","display":"Asian","userSelected":true}},{"url":"text","valueString":"Asian"}]},{"url":"http://hl7.org/fhir/us/core/StructureDefinition/us-core-ethnicity","extension":[{"url":"ombCategory","valueCoding":{"system":"urn:oid:2.16.840.1.113883.6.238","code":"2135-2","display":"Hispanic or Latino","userSelected":true}},{"url":"text","valueString":"Hispanic or Latino"}]},{"url":"http://hl7.org/fhir/us/core/StructureDefinition/us-core-sex","valueCode":"248152002"}],"identifier":[{"type":{"coding":[{"system":"http://terminology.hl7.org/CodeSystem/v2-0203","code":"MR"}]},"system":"https://madie.cms.gov/","value":"ScreNoatriNorefAsseModDxNocp"}],"active":true,"name":[{"use":"usual","text":"ScreNoatriNorefAsseModDxNocp","family":"MSROBSPass1","given":["ScreNoatriNorefAsseModDxNocp"]}],"gender":"female","birthDate":"1954-12-02","address":[{"text":"ScreNoatriNorefAsseModDxNocp, Screened Not at risk Assessed Severely Malnourished Diagnosed Care Plan, ID=ScreNoatriNorefAsseModDxNocp, DOB: 02 Dec 1954"}]},"request":{"method":"PUT","url":"Patient/4f90847d-e626-4ebb-8382-ae1c05079579"}},{"fullUrl":"https://madie.cms.gov/Encounter/9c4953ec-d2df-435e-9de7-aafe804088aa","resource":{"resourceType":"Encounter","id":"9c4953ec-d2df-435e-9de7-aafe804088aa","meta":{"profile":["http://hl7.org/fhir/us/qicore/StructureDefinition/qicore-encounter"]},"status":"finished","class":{"system":"http://terminology.hl7.org/CodeSystem/v3-ActCode","code":"IMP","display":"inpatient encounter"},"type":[{"coding":[{"system":"http://snomed.info/sct","code":"183452005"}]}],"subject":{"reference":"Patient/4f90847d-e626-4ebb-8382-ae1c05079579"},"period":{"start":"2026-08-24T08:00:00.000+00:00","end":"2026-08-29T08:15:00.000+00:00"}},"request":{"method":"PUT","url":"Encounter/9c4953ec-d2df-435e-9de7-aafe804088aa"}},{"fullUrl":"https://madie.cms.gov/Condition/d32fa0a4-c8e7-4c45-9c8f-49f0813adc9b","resource":{"resourceType":"Condition","id":"d32fa0a4-c8e7-4c45-9c8f-49f0813adc9b","meta":{"profile":["http://hl7.org/fhir/us/qicore/StructureDefinition/qicore-condition-encounter-diagnosis"]},"clinicalStatus":{"coding":[{"system":"http://terminology.hl7.org/CodeSystem/condition-clinical","code":"active","display":"Active","userSelected":true}]},"verificationStatus":{"coding":[{"system":"http://terminology.hl7.org/CodeSystem/condition-ver-status","code":"confirmed","display":"Confirmed","userSelected":true}]},"category":[{"coding":[{"system":"http://terminology.hl7.org/CodeSystem/condition-category","code":"encounter-diagnosis","display":"Encounter Diagnosis","userSelected":true}]}],"code":{"coding":[{"system":"http://snomed.info/sct","code":"54840006","display":"Failure to thrive (disorder)","userSelected":true}]},"subject":{"reference":"Patient/4f90847d-e626-4ebb-8382-ae1c05079579"},"onsetPeriod":{"start":"2026-08-25T08:00:00.000+00:00"},"recordedDate":"2026-08-25T11:00:00.000+00:00"},"request":{"method":"PUT","url":"Condition/d32fa0a4-c8e7-4c45-9c8f-49f0813adc9b"}},{"fullUrl":"https://madie.cms.gov/Observation/a8c19f4d-2816-4243-a0a2-0dd7c07a88b7","resource":{"resourceType":"Observation","id":"a8c19f4d-2816-4243-a0a2-0dd7c07a88b7","meta":{"profile":["http://hl7.org/fhir/us/qicore/StructureDefinition/qicore-observation-screening-assessment"]},"status":"final","category":[{"coding":[{"system":"http://terminology.hl7.org/CodeSystem/observation-category","code":"survey","display":"Survey"}]}],"code":{"coding":[{"system":"http://loinc.org","code":"98968-1","display":"Initial Screening NRS_2002","userSelected":true}]},"subject":{"reference":"Patient/4f90847d-e626-4ebb-8382-ae1c05079579"},"effectiveDateTime":"2026-08-25T09:00:00.000+00:00","valueCodeableConcept":{"coding":[{"system":"http://loinc.org","code":"LA33699-2","display":"Not at risk for malnutrition","userSelected":true}]}},"request":{"method":"PUT","url":"Observation/a8c19f4d-2816-4243-a0a2-0dd7c07a88b7"}},{"fullUrl":"https://madie.cms.gov/Observation/de03724e-6eb0-4ad3-9ca5-5bc453b1182f","resource":{"resourceType":"Observation","id":"de03724e-6eb0-4ad3-9ca5-5bc453b1182f","meta":{"profile":["http://hl7.org/fhir/us/qicore/StructureDefinition/qicore-observation-screening-assessment"]},"status":"final","category":[{"coding":[{"system":"http://terminology.hl7.org/CodeSystem/observation-category","code":"survey","display":"Survey"}]}],"code":{"coding":[{"system":"http://loinc.org","code":"75303-8","display":"Nutrition assessment narrative","userSelected":true}]},"subject":{"reference":"Patient/4f90847d-e626-4ebb-8382-ae1c05079579"},"effectiveDateTime":"2026-08-25T10:00:00.000+00:00","valueCodeableConcept":{"coding":[{"system":"http://snomed.info/sct","code":"248324001","display":"Well nourished (finding)","userSelected":true}]}},"request":{"method":"PUT","url":"Observation/de03724e-6eb0-4ad3-9ca5-5bc453b1182f"}},{"fullUrl":"https://madie.cms.gov/Coverage/31368830-3ef5-44b6-8783-b6964d748db2","resource":{"resourceType":"Coverage","id":"31368830-3ef5-44b6-8783-b6964d748db2","meta":{"profile":["http://hl7.org/fhir/us/qicore/StructureDefinition/qicore-coverage"]},"status":"active","type":{"coding":[{"system":"https://nahdo.org/sopt","version":"9.2","code":"11","display":"Medicare Managed Care (Includes Medicare Advantage Plans)"}]},"subscriberId":"97531","beneficiary":{"reference":"Patient/4f90847d-e626-4ebb-8382-ae1c05079579"},"dependent":"0","relationship":{"coding":[{"system":"http://terminology.hl7.org/CodeSystem/subscriber-relationship","code":"self"}]},"period":{"start":"2025-10-01T00:00:00.000+00:00"},"payor":[{"reference":"Organization/1e75633d-a8db-4a45-a4ac-97e96770a078"}]},"request":{"method":"PUT","url":"Coverage/31368830-3ef5-44b6-8783-b6964d748db2"}},{"fullUrl":"https://madie.cms.gov/Organization/1e75633d-a8db-4a45-a4ac-97e96770a078","resource":{"resourceType":"Organization","id":"1e75633d-a8db-4a45-a4ac-97e96770a078","meta":{"profile":["http://hl7.org/fhir/us/qicore/StructureDefinition/qicore-organization"]},"identifier":[{"use":"temp","system":"urn:oid:2.16.840.1.113883.4.4","value":"21-3259825"}],"active":true,"type":[{"coding":[{"system":"http://terminology.hl7.org/CodeSystem/organization-type","code":"pay","display":"Payer"}]}],"name":"Blue Cross Blue Shield of Texas","telecom":[{"system":"phone","value":"(+1) 972-766-6900"}],"address":[{"use":"billing","type":"postal","line":["P.O. Box 660044"],"city":"Dallas","state":"TX","postalCode":"75266-0044","country":"USA"}]},"request":{"method":"PUT","url":"Organization/1e75633d-a8db-4a45-a4ac-97e96770a078"}},{"fullUrl":"https://madie.cms.gov/MeasureReport/cd85f349-b577-4f25-ac59-71d95a1cdb73","resource":{"resourceType":"MeasureReport","id":"cd85f349-b577-4f25-ac59-71d95a1cdb73","meta":{"profile":["http://hl7.org/fhir/us/cqfmeasures/StructureDefinition/test-case-cqfm"]},"contained":[{"resourceType":"Parameters","id":"b2804b42-39a4-4a55-ba87-71b0cabc8403-parameters","parameter":[{"name":"subject","valueString":"4f90847d-e626-4ebb-8382-ae1c05079579"}]}],"extension":[{"url":"http://hl7.org/fhir/StructureDefinition/cqf-inputParameters","valueReference":{"reference":"#b2804b42-39a4-4a55-ba87-71b0cabc8403-parameters"}},{"url":"http://hl7.org/fhir/us/cqfmeasures/StructureDefinition/cqfm-testCaseDescription","valueMarkdown":"Screened, Not at Risk, No Referral, Assessment, Severe Malnutrition, Diagnosis, No Care Plan"}],"modifierExtension":[{"url":"http://hl7.org/fhir/us/cqfmeasures/StructureDefinition/cqfm-isTestCase","valueBoolean":true}],"status":"complete","type":"individual","measure":"https://madie.cms.gov/Measure/CMS986FHIRMalnutritionScore","period":{"start":"2026-01-01","end":"2026-12-31"},"group":[{"id":"Group_1","population":[{"id":"InitialPopulation_1","code":{"coding":[{"system":"http://terminology.hl7.org/CodeSystem/measure-population","code":"initial-population","display":"Initial Population"}]},"count":1},{"id":"MeasurePopulation_1","code":{"coding":[{"system":"http://terminology.hl7.org/CodeSystem/measure-population","code":"measure-population","display":"Measure Population"}]},"count":1},{"id":"MeasurePopulationExclusion_1","code":{"coding":[{"system":"http://terminology.hl7.org/CodeSystem/measure-population","code":"measure-population-exclusion","display":"Measure Population Exclusion"}]},"count":0},{"id":"MeasureObservation_1_1","code":{"coding":[{"system":"http://terminology.hl7.org/CodeSystem/measure-population","code":"measure-population-observation","display":"Measure Population Observation"}]},"count":1}],"measureScore":{"value":0.0}},{"id":"Group_2","population":[{"id":"InitialPopulation_2","code":{"coding":[{"system":"http://terminology.hl7.org/CodeSystem/measure-population","code":"initial-population","display":"Initial Population"}]},"count":1},{"id":"MeasurePopulation_2","code":{"coding":[{"system":"http://terminology.hl7.org/CodeSystem/measure-population","code":"measure-population","display":"Measure Population"}]},"count":1},{"id":"MeasurePopulationExclusion_2","code":{"coding":[{"system":"http://terminology.hl7.org/CodeSystem/measure-population","code":"measure-population-exclusion","display":"Measure Population Exclusion"}]},"count":0},{"id":"MeasureObservation_2_1","code":{"coding":[{"system":"http://terminology.hl7.org/CodeSystem/measure-population","code":"measure-population-observation","display":"Measure Population Observation"}]},"count":0}],"measureScore":{"value":0.0}},{"id":"Group_3","population":[{"id":"InitialPopulation_3","code":{"coding":[{"system":"http://terminology.hl7.org/CodeSystem/measure-population","code":"initial-population","display":"Initial Population"}]},"count":1},{"id":"MeasurePopulation_3","code":{"coding":[{"system":"http://terminology.hl7.org/CodeSystem/measure-population","code":"measure-population","display":"Measure Population"}]},"count":1},{"id":"MeasurePopulationExclusion_3","code":{"coding":[{"system":"http://terminology.hl7.org/CodeSystem/measure-population","code":"measure-population-exclusion","display":"Measure Population Exclusion"}]},"count":0},{"id":"MeasureObservation_3_1","code":{"coding":[{"system":"http://terminology.hl7.org/CodeSystem/measure-population","code":"measure-population-observation","display":"Measure Population Observation"}]},"count":0}],"measureScore":{"value":0.0}},{"id":"Group_4","population":[{"id":"InitialPopulation_4","code":{"coding":[{"system":"http://terminology.hl7.org/CodeSystem/measure-population","code":"initial-population","display":"Initial Population"}]},"count":1},{"id":"MeasurePopulation_4","code":{"coding":[{"system":"http://terminology.hl7.org/CodeSystem/measure-population","code":"measure-population","display":"Measure Population"}]},"count":1},{"id":"MeasurePopulationExclusion_4","code":{"coding":[{"system":"http://terminology.hl7.org/CodeSystem/measure-population","code":"measure-population-exclusion","display":"Measure Population Exclusion"}]},"count":0},{"id":"MeasureObservation_4_1","code":{"coding":[{"system":"http://terminology.hl7.org/CodeSystem/measure-population","code":"measure-population-observation","display":"Measure Population Observation"}]},"count":0}],"measureScore":{"value":0.0}},{"id":"Group_5","population":[{"id":"InitialPopulation_5","code":{"coding":[{"system":"http://terminology.hl7.org/CodeSystem/measure-population","code":"initial-population","display":"Initial Population"}]},"count":1},{"id":"MeasurePopulation_5","code":{"coding":[{"system":"http://terminology.hl7.org/CodeSystem/measure-population","code":"measure-population","display":"Measure Population"}]},"count":1},{"id":"MeasurePopulationExclusion_5","code":{"coding":[{"system":"http://terminology.hl7.org/CodeSystem/measure-population","code":"measure-population-exclusion","display":"Measure Population Exclusion"}]},"count":0},{"id":"MeasureObservation_5_1","code":{"coding":[{"system":"http://terminology.hl7.org/CodeSystem/measure-population","code":"measure-population-observation","display":"Measure Population Observation"}]},"count":1}],"measureScore":{"value":0.0}},{"id":"Group_6","population":[{"id":"InitialPopulation_6","code":{"coding":[{"system":"http://terminology.hl7.org/CodeSystem/measure-population","code":"initial-population","display":"Initial Population"}]},"count":1},{"id":"MeasurePopulation_6","code":{"coding":[{"system":"http://terminology.hl7.org/CodeSystem/measure-population","code":"measure-population","display":"Measure Population"}]},"count":1},{"id":"MeasurePopulationExclusion_6","code":{"coding":[{"system":"http://terminology.hl7.org/CodeSystem/measure-population","code":"measure-population-exclusion","display":"Measure Population Exclusion"}]},"count":0},{"id":"MeasureObservation_6_1","code":{"coding":[{"system":"http://terminology.hl7.org/CodeSystem/measure-population","code":"measure-population-observation","display":"Measure Population Observation"}]},"count":100}],"measureScore":{"value":0.0}}],"evaluatedResource":[{"reference":"Patient/4f90847d-e626-4ebb-8382-ae1c05079579"},{"reference":"Encounter/9c4953ec-d2df-435e-9de7-aafe804088aa"},{"reference":"Condition/d32fa0a4-c8e7-4c45-9c8f-49f0813adc9b"},{"reference":"Observation/a8c19f4d-2816-4243-a0a2-0dd7c07a88b7"},{"reference":"Observation/de03724e-6eb0-4ad3-9ca5-5bc453b1182f"},{"reference":"Coverage/31368830-3ef5-44b6-8783-b6964d748db2"},{"reference":"Organization/1e75633d-a8db-4a45-a4ac-97e96770a078"}]},"request":{"method":"PUT","url":"MeasureReport/cd85f349-b577-4f25-ac59-71d95a1cdb73"}}]},"request":{"method":"PUT","url":"Bundle/ScreNoatriNorefAsseModDxNocp"}}]}