{"resourceType":"Bundle","id":"tests-3c8279f4-42ee-45a4-aaac-61cf53a121a2-bundle","type":"transaction","entry":[{"fullUrl":"Procedure/e2e9f976-4237-4bc5-9165-b7aeb8c10179","resource":{"resourceType":"Procedure","id":"e2e9f976-4237-4bc5-9165-b7aeb8c10179","meta":{"profile":["http://hl7.org/fhir/us/qicore/StructureDefinition/qicore-procedure"]},"extension":[{"url":"http://hl7.org/fhir/us/qicore/StructureDefinition/qicore-recorded","valueDateTime":"2026-05-01T11:30:00.000+00:00"}],"status":"completed","code":{"coding":[{"system":"http://snomed.info/sct","code":"306354000","display":"Referral to hospital-based dietitian (procedure)"}],"text":"Referral to hospital-based dietitian (procedure)"},"subject":{"reference":"Patient/3c8279f4-42ee-45a4-aaac-61cf53a121a2"},"encounter":{"reference":"Encounter/NoscreRefAsseModNodxCpMSROBSPass4"},"performedPeriod":{"start":"2026-05-01T11:30:00.000+00:00","end":"2026-05-07T08:15:00.000+00:00"}},"request":{"method":"PUT","url":"Procedure/e2e9f976-4237-4bc5-9165-b7aeb8c10179"}},{"fullUrl":"Procedure/d421439e-4bf1-47b4-b12d-505c9d790057","resource":{"resourceType":"Procedure","id":"d421439e-4bf1-47b4-b12d-505c9d790057","meta":{"profile":["http://hl7.org/fhir/us/qicore/StructureDefinition/qicore-procedure"]},"extension":[{"url":"http://hl7.org/fhir/us/qicore/StructureDefinition/qicore-recorded","valueDateTime":"2026-02-02T11:30:00.000+00:00"}],"status":"completed","code":{"coding":[{"system":"http://snomed.info/sct","code":"386372009","display":"Nutrition management"}],"text":"Nutrition management (regime/therapy)"},"subject":{"reference":"Patient/3c8279f4-42ee-45a4-aaac-61cf53a121a2"},"encounter":{"reference":"Encounter/NoscreRefAsseModNodxCpMSROBSPass4"},"performedPeriod":{"start":"2026-05-01T11:30:00.000+00:00","end":"2026-05-07T08:15:00.000+00:00"}},"request":{"method":"PUT","url":"Procedure/d421439e-4bf1-47b4-b12d-505c9d790057"}},{"fullUrl":"Organization/7afd4d71-7dd0-4425-b224-936749803592","resource":{"resourceType":"Organization","id":"7afd4d71-7dd0-4425-b224-936749803592","meta":{"profile":["http://hl7.org/fhir/us/qicore/StructureDefinition/qicore-organization"]},"identifier":[{"use":"temp","system":"urn:oid:2.16.840.1.113883.4.4","value":"21-3259825"}],"active":true,"type":[{"coding":[{"system":"http://terminology.hl7.org/CodeSystem/organization-type","code":"pay","display":"Payer"}]}],"name":"Blue Cross Blue Shield of Texas","telecom":[{"system":"phone","value":"(+1) 972-766-6900"}],"address":[{"use":"billing","type":"postal","line":["P.O. Box 660044"],"city":"Dallas","state":"TX","postalCode":"75266-0044","country":"USA"}]},"request":{"method":"PUT","url":"Organization/7afd4d71-7dd0-4425-b224-936749803592"}},{"fullUrl":"MeasureReport/c2b5c6f9-f3ba-4af8-9b5b-20a65990c179","resource":{"resourceType":"MeasureReport","id":"c2b5c6f9-f3ba-4af8-9b5b-20a65990c179","meta":{"profile":["http://hl7.org/fhir/us/cqfmeasures/StructureDefinition/test-case-cqfm"]},"contained":[{"resourceType":"Parameters","id":"4b216094-9daf-45fb-9998-80726f75bb86-parameters","parameter":[{"name":"subject","valueString":"3c8279f4-42ee-45a4-aaac-61cf53a121a2"}]}],"extension":[{"url":"http://hl7.org/fhir/StructureDefinition/cqf-inputParameters","valueReference":{"reference":"#4b216094-9daf-45fb-9998-80726f75bb86-parameters"}},{"url":"http://hl7.org/fhir/us/cqfmeasures/StructureDefinition/cqfm-testCaseDescription","valueMarkdown":"Not Screened, Referral, Assessed, Severe Malnutrition, No Diagnosis, Nutrition Care Plan"}],"modifierExtension":[{"url":"http://hl7.org/fhir/us/cqfmeasures/StructureDefinition/cqfm-isTestCase","valueBoolean":true}],"status":"complete","type":"individual","measure":"https://madie.cms.gov/Measure/CMS986FHIRMalnutritionScore","period":{"start":"2026-01-01","end":"2026-12-31"},"group":[{"id":"Group_1","population":[{"id":"InitialPopulation_1","code":{"coding":[{"system":"http://terminology.hl7.org/CodeSystem/measure-population","code":"initial-population","display":"Initial Population"}]},"count":1},{"id":"MeasurePopulation_1","code":{"coding":[{"system":"http://terminology.hl7.org/CodeSystem/measure-population","code":"measure-population","display":"Measure Population"}]},"count":1},{"id":"MeasurePopulationExclusion_1","code":{"coding":[{"system":"http://terminology.hl7.org/CodeSystem/measure-population","code":"measure-population-exclusion","display":"Measure Population Exclusion"}]},"count":0},{"id":"MeasureObservation_1_1","code":{"coding":[{"system":"http://terminology.hl7.org/CodeSystem/measure-population","code":"measure-population-observation","display":"Measure Population Observation"}]},"count":1}],"measureScore":{"value":0.0}},{"id":"Group_2","population":[{"id":"InitialPopulation_2","code":{"coding":[{"system":"http://terminology.hl7.org/CodeSystem/measure-population","code":"initial-population","display":"Initial Population"}]},"count":1},{"id":"MeasurePopulation_2","code":{"coding":[{"system":"http://terminology.hl7.org/CodeSystem/measure-population","code":"measure-population","display":"Measure Population"}]},"count":1},{"id":"MeasurePopulationExclusion_2","code":{"coding":[{"system":"http://terminology.hl7.org/CodeSystem/measure-population","code":"measure-population-exclusion","display":"Measure Population Exclusion"}]},"count":0},{"id":"MeasureObservation_2_1","code":{"coding":[{"system":"http://terminology.hl7.org/CodeSystem/measure-population","code":"measure-population-observation","display":"Measure Population Observation"}]},"count":1}],"measureScore":{"value":0.0}},{"id":"Group_3","population":[{"id":"InitialPopulation_3","code":{"coding":[{"system":"http://terminology.hl7.org/CodeSystem/measure-population","code":"initial-population","display":"Initial Population"}]},"count":1},{"id":"MeasurePopulation_3","code":{"coding":[{"system":"http://terminology.hl7.org/CodeSystem/measure-population","code":"measure-population","display":"Measure Population"}]},"count":1},{"id":"MeasurePopulationExclusion_3","code":{"coding":[{"system":"http://terminology.hl7.org/CodeSystem/measure-population","code":"measure-population-exclusion","display":"Measure Population Exclusion"}]},"count":0},{"id":"MeasureObservation_3_1","code":{"coding":[{"system":"http://terminology.hl7.org/CodeSystem/measure-population","code":"measure-population-observation","display":"Measure Population Observation"}]},"count":0}],"measureScore":{"value":0.0}},{"id":"Group_4","population":[{"id":"InitialPopulation_4","code":{"coding":[{"system":"http://terminology.hl7.org/CodeSystem/measure-population","code":"initial-population","display":"Initial Population"}]},"count":1},{"id":"MeasurePopulation_4","code":{"coding":[{"system":"http://terminology.hl7.org/CodeSystem/measure-population","code":"measure-population","display":"Measure Population"}]},"count":1},{"id":"MeasurePopulationExclusion_4","code":{"coding":[{"system":"http://terminology.hl7.org/CodeSystem/measure-population","code":"measure-population-exclusion","display":"Measure Population Exclusion"}]},"count":0},{"id":"MeasureObservation_4_1","code":{"coding":[{"system":"http://terminology.hl7.org/CodeSystem/measure-population","code":"measure-population-observation","display":"Measure Population Observation"}]},"count":1}],"measureScore":{"value":0.0}},{"id":"Group_5","population":[{"id":"InitialPopulation_5","code":{"coding":[{"system":"http://terminology.hl7.org/CodeSystem/measure-population","code":"initial-population","display":"Initial Population"}]},"count":1},{"id":"MeasurePopulation_5","code":{"coding":[{"system":"http://terminology.hl7.org/CodeSystem/measure-population","code":"measure-population","display":"Measure Population"}]},"count":1},{"id":"MeasurePopulationExclusion_5","code":{"coding":[{"system":"http://terminology.hl7.org/CodeSystem/measure-population","code":"measure-population-exclusion","display":"Measure Population Exclusion"}]},"count":0},{"id":"MeasureObservation_5_1","code":{"coding":[{"system":"http://terminology.hl7.org/CodeSystem/measure-population","code":"measure-population-observation","display":"Measure Population Observation"}]},"count":3}],"measureScore":{"value":0.0}},{"id":"Group_6","population":[{"id":"InitialPopulation_6","code":{"coding":[{"system":"http://terminology.hl7.org/CodeSystem/measure-population","code":"initial-population","display":"Initial Population"}]},"count":1},{"id":"MeasurePopulation_6","code":{"coding":[{"system":"http://terminology.hl7.org/CodeSystem/measure-population","code":"measure-population","display":"Measure Population"}]},"count":1},{"id":"MeasurePopulationExclusion_6","code":{"coding":[{"system":"http://terminology.hl7.org/CodeSystem/measure-population","code":"measure-population-exclusion","display":"Measure Population Exclusion"}]},"count":0},{"id":"MeasureObservation_6_1","code":{"coding":[{"system":"http://terminology.hl7.org/CodeSystem/measure-population","code":"measure-population-observation","display":"Measure Population Observation"}]},"count":75}],"measureScore":{"value":0.0}}],"evaluatedResource":[{"reference":"Patient/3c8279f4-42ee-45a4-aaac-61cf53a121a2"},{"reference":"Encounter/32058e81-e256-4518-8ee3-d7229105d938"},{"reference":"Observation/6eca131b-0244-4fc7-8834-fe885d33ca0e"},{"reference":"Procedure/e2e9f976-4237-4bc5-9165-b7aeb8c10179"},{"reference":"Procedure/d421439e-4bf1-47b4-b12d-505c9d790057"},{"reference":"Coverage/3b7065a4-3c68-4edb-9dca-cf75bd338143"},{"reference":"Organization/7afd4d71-7dd0-4425-b224-936749803592"}]},"request":{"method":"PUT","url":"MeasureReport/c2b5c6f9-f3ba-4af8-9b5b-20a65990c179"}},{"fullUrl":"Bundle/NoscreRefAsseModNodxCp","resource":{"resourceType":"Bundle","id":"NoscreRefAsseModNodxCp","type":"transaction","entry":[{"fullUrl":"https://madie.cms.gov/Patient/3c8279f4-42ee-45a4-aaac-61cf53a121a2","resource":{"resourceType":"Patient","id":"3c8279f4-42ee-45a4-aaac-61cf53a121a2","meta":{"profile":["http://hl7.org/fhir/us/qicore/StructureDefinition/qicore-patient"]},"extension":[{"url":"http://hl7.org/fhir/us/core/StructureDefinition/us-core-race","extension":[{"url":"ombCategory","valueCoding":{"system":"urn:oid:2.16.840.1.113883.6.238","code":"1002-5","display":"American Indian or Alaska Native","userSelected":true}},{"url":"text","valueString":"American Indian or Alaska Native"}]},{"url":"http://hl7.org/fhir/us/core/StructureDefinition/us-core-ethnicity","extension":[{"url":"ombCategory","valueCoding":{"system":"urn:oid:2.16.840.1.113883.6.238","code":"2135-2","display":"Hispanic or Latino","userSelected":true}},{"url":"text","valueString":"Hispanic or Latino"}]},{"url":"http://hl7.org/fhir/us/core/StructureDefinition/us-core-sex","valueCode":"248153007"}],"identifier":[{"type":{"coding":[{"system":"http://terminology.hl7.org/CodeSystem/v2-0203","code":"MR"}]},"system":"https://madie.cms.gov/","value":"NoscreRefAsseModNodxCp"}],"active":true,"name":[{"use":"usual","text":"NoscreRefAsseModNodxCp","family":"MSROBSPass4","given":["NoscreRefAsseModNodxCp"]}],"gender":"male","birthDate":"1951-05-25","address":[{"text":"NoscreRefAsseModNodxCp, Screened Not at risk Assessed Severely Malnourished Diagnosed Care Plan, ID=NoscreRefAsseModNodxCp, DOB: 25 May 1951"}]},"request":{"method":"PUT","url":"Patient/3c8279f4-42ee-45a4-aaac-61cf53a121a2"}},{"fullUrl":"https://madie.cms.gov/Encounter/32058e81-e256-4518-8ee3-d7229105d938","resource":{"resourceType":"Encounter","id":"32058e81-e256-4518-8ee3-d7229105d938","meta":{"profile":["http://hl7.org/fhir/us/qicore/StructureDefinition/qicore-encounter"]},"status":"finished","class":{"system":"http://terminology.hl7.org/CodeSystem/v3-ActCode","code":"IMP","display":"inpatient encounter"},"type":[{"coding":[{"system":"http://snomed.info/sct","code":"8715000"}]}],"subject":{"reference":"Patient/3c8279f4-42ee-45a4-aaac-61cf53a121a2"},"period":{"start":"2026-05-01T08:00:00.000+00:00","end":"2026-05-10T08:15:00.000+00:00"}},"request":{"method":"PUT","url":"Encounter/32058e81-e256-4518-8ee3-d7229105d938"}},{"fullUrl":"https://madie.cms.gov/Observation/6eca131b-0244-4fc7-8834-fe885d33ca0e","resource":{"resourceType":"Observation","id":"6eca131b-0244-4fc7-8834-fe885d33ca0e","meta":{"profile":["http://hl7.org/fhir/us/qicore/StructureDefinition/qicore-observation-screening-assessment"]},"status":"final","category":[{"coding":[{"system":"http://terminology.hl7.org/CodeSystem/observation-category","code":"survey","display":"Survey"}]}],"code":{"coding":[{"system":"http://loinc.org","code":"75285-7","display":"Comparative nutrition assessment standards panel","userSelected":true}]},"subject":{"reference":"Patient/3c8279f4-42ee-45a4-aaac-61cf53a121a2"},"effectiveDateTime":"2026-05-01T10:00:00.000+00:00","valueCodeableConcept":{"coding":[{"system":"http://snomed.info/sct","code":"288517002","display":"Wasting disease (disorder)","userSelected":true}]}},"request":{"method":"PUT","url":"Observation/6eca131b-0244-4fc7-8834-fe885d33ca0e"}},{"fullUrl":"https://madie.cms.gov/Procedure/e2e9f976-4237-4bc5-9165-b7aeb8c10179","resource":{"resourceType":"Procedure","id":"e2e9f976-4237-4bc5-9165-b7aeb8c10179","meta":{"profile":["http://hl7.org/fhir/us/qicore/StructureDefinition/qicore-procedure"]},"extension":[{"url":"http://hl7.org/fhir/us/qicore/StructureDefinition/qicore-recorded","valueDateTime":"2026-05-01T11:30:00.000+00:00"}],"status":"completed","code":{"coding":[{"system":"http://snomed.info/sct","code":"306354000","display":"Referral to hospital-based dietitian (procedure)"}],"text":"Referral to hospital-based dietitian (procedure)"},"subject":{"reference":"Patient/3c8279f4-42ee-45a4-aaac-61cf53a121a2"},"encounter":{"reference":"Encounter/NoscreRefAsseModNodxCpMSROBSPass4"},"performedPeriod":{"start":"2026-05-01T11:30:00.000+00:00","end":"2026-05-07T08:15:00.000+00:00"}},"request":{"method":"PUT","url":"Procedure/e2e9f976-4237-4bc5-9165-b7aeb8c10179"}},{"fullUrl":"https://madie.cms.gov/Procedure/d421439e-4bf1-47b4-b12d-505c9d790057","resource":{"resourceType":"Procedure","id":"d421439e-4bf1-47b4-b12d-505c9d790057","meta":{"profile":["http://hl7.org/fhir/us/qicore/StructureDefinition/qicore-procedure"]},"extension":[{"url":"http://hl7.org/fhir/us/qicore/StructureDefinition/qicore-recorded","valueDateTime":"2026-02-02T11:30:00.000+00:00"}],"status":"completed","code":{"coding":[{"system":"http://snomed.info/sct","code":"386372009","display":"Nutrition management"}],"text":"Nutrition management (regime/therapy)"},"subject":{"reference":"Patient/3c8279f4-42ee-45a4-aaac-61cf53a121a2"},"encounter":{"reference":"Encounter/NoscreRefAsseModNodxCpMSROBSPass4"},"performedPeriod":{"start":"2026-05-01T11:30:00.000+00:00","end":"2026-05-07T08:15:00.000+00:00"}},"request":{"method":"PUT","url":"Procedure/d421439e-4bf1-47b4-b12d-505c9d790057"}},{"fullUrl":"https://madie.cms.gov/Coverage/3b7065a4-3c68-4edb-9dca-cf75bd338143","resource":{"resourceType":"Coverage","id":"3b7065a4-3c68-4edb-9dca-cf75bd338143","meta":{"profile":["http://hl7.org/fhir/us/qicore/StructureDefinition/qicore-coverage"]},"status":"active","type":{"coding":[{"system":"https://nahdo.org/sopt","version":"9.2","code":"11","display":"Medicare Managed Care (Includes Medicare Advantage Plans)"}]},"subscriberId":"97531","beneficiary":{"reference":"Patient/3c8279f4-42ee-45a4-aaac-61cf53a121a2"},"dependent":"0","relationship":{"coding":[{"system":"http://terminology.hl7.org/CodeSystem/subscriber-relationship","code":"self"}]},"period":{"start":"2026-10-01T00:00:00.000+00:00"},"payor":[{"reference":"Organization/7afd4d71-7dd0-4425-b224-936749803592"}]},"request":{"method":"PUT","url":"Coverage/3b7065a4-3c68-4edb-9dca-cf75bd338143"}},{"fullUrl":"https://madie.cms.gov/Organization/7afd4d71-7dd0-4425-b224-936749803592","resource":{"resourceType":"Organization","id":"7afd4d71-7dd0-4425-b224-936749803592","meta":{"profile":["http://hl7.org/fhir/us/qicore/StructureDefinition/qicore-organization"]},"identifier":[{"use":"temp","system":"urn:oid:2.16.840.1.113883.4.4","value":"21-3259825"}],"active":true,"type":[{"coding":[{"system":"http://terminology.hl7.org/CodeSystem/organization-type","code":"pay","display":"Payer"}]}],"name":"Blue Cross Blue Shield of Texas","telecom":[{"system":"phone","value":"(+1) 972-766-6900"}],"address":[{"use":"billing","type":"postal","line":["P.O. Box 660044"],"city":"Dallas","state":"TX","postalCode":"75266-0044","country":"USA"}]},"request":{"method":"PUT","url":"Organization/7afd4d71-7dd0-4425-b224-936749803592"}},{"fullUrl":"https://madie.cms.gov/MeasureReport/c2b5c6f9-f3ba-4af8-9b5b-20a65990c179","resource":{"resourceType":"MeasureReport","id":"c2b5c6f9-f3ba-4af8-9b5b-20a65990c179","meta":{"profile":["http://hl7.org/fhir/us/cqfmeasures/StructureDefinition/test-case-cqfm"]},"contained":[{"resourceType":"Parameters","id":"4b216094-9daf-45fb-9998-80726f75bb86-parameters","parameter":[{"name":"subject","valueString":"3c8279f4-42ee-45a4-aaac-61cf53a121a2"}]}],"extension":[{"url":"http://hl7.org/fhir/StructureDefinition/cqf-inputParameters","valueReference":{"reference":"#4b216094-9daf-45fb-9998-80726f75bb86-parameters"}},{"url":"http://hl7.org/fhir/us/cqfmeasures/StructureDefinition/cqfm-testCaseDescription","valueMarkdown":"Not Screened, Referral, Assessed, Severe Malnutrition, No Diagnosis, Nutrition Care Plan"}],"modifierExtension":[{"url":"http://hl7.org/fhir/us/cqfmeasures/StructureDefinition/cqfm-isTestCase","valueBoolean":true}],"status":"complete","type":"individual","measure":"https://madie.cms.gov/Measure/CMS986FHIRMalnutritionScore","period":{"start":"2026-01-01","end":"2026-12-31"},"group":[{"id":"Group_1","population":[{"id":"InitialPopulation_1","code":{"coding":[{"system":"http://terminology.hl7.org/CodeSystem/measure-population","code":"initial-population","display":"Initial Population"}]},"count":1},{"id":"MeasurePopulation_1","code":{"coding":[{"system":"http://terminology.hl7.org/CodeSystem/measure-population","code":"measure-population","display":"Measure Population"}]},"count":1},{"id":"MeasurePopulationExclusion_1","code":{"coding":[{"system":"http://terminology.hl7.org/CodeSystem/measure-population","code":"measure-population-exclusion","display":"Measure Population Exclusion"}]},"count":0},{"id":"MeasureObservation_1_1","code":{"coding":[{"system":"http://terminology.hl7.org/CodeSystem/measure-population","code":"measure-population-observation","display":"Measure Population Observation"}]},"count":1}],"measureScore":{"value":0.0}},{"id":"Group_2","population":[{"id":"InitialPopulation_2","code":{"coding":[{"system":"http://terminology.hl7.org/CodeSystem/measure-population","code":"initial-population","display":"Initial Population"}]},"count":1},{"id":"MeasurePopulation_2","code":{"coding":[{"system":"http://terminology.hl7.org/CodeSystem/measure-population","code":"measure-population","display":"Measure Population"}]},"count":1},{"id":"MeasurePopulationExclusion_2","code":{"coding":[{"system":"http://terminology.hl7.org/CodeSystem/measure-population","code":"measure-population-exclusion","display":"Measure Population Exclusion"}]},"count":0},{"id":"MeasureObservation_2_1","code":{"coding":[{"system":"http://terminology.hl7.org/CodeSystem/measure-population","code":"measure-population-observation","display":"Measure Population Observation"}]},"count":1}],"measureScore":{"value":0.0}},{"id":"Group_3","population":[{"id":"InitialPopulation_3","code":{"coding":[{"system":"http://terminology.hl7.org/CodeSystem/measure-population","code":"initial-population","display":"Initial Population"}]},"count":1},{"id":"MeasurePopulation_3","code":{"coding":[{"system":"http://terminology.hl7.org/CodeSystem/measure-population","code":"measure-population","display":"Measure Population"}]},"count":1},{"id":"MeasurePopulationExclusion_3","code":{"coding":[{"system":"http://terminology.hl7.org/CodeSystem/measure-population","code":"measure-population-exclusion","display":"Measure Population Exclusion"}]},"count":0},{"id":"MeasureObservation_3_1","code":{"coding":[{"system":"http://terminology.hl7.org/CodeSystem/measure-population","code":"measure-population-observation","display":"Measure Population Observation"}]},"count":0}],"measureScore":{"value":0.0}},{"id":"Group_4","population":[{"id":"InitialPopulation_4","code":{"coding":[{"system":"http://terminology.hl7.org/CodeSystem/measure-population","code":"initial-population","display":"Initial Population"}]},"count":1},{"id":"MeasurePopulation_4","code":{"coding":[{"system":"http://terminology.hl7.org/CodeSystem/measure-population","code":"measure-population","display":"Measure Population"}]},"count":1},{"id":"MeasurePopulationExclusion_4","code":{"coding":[{"system":"http://terminology.hl7.org/CodeSystem/measure-population","code":"measure-population-exclusion","display":"Measure Population Exclusion"}]},"count":0},{"id":"MeasureObservation_4_1","code":{"coding":[{"system":"http://terminology.hl7.org/CodeSystem/measure-population","code":"measure-population-observation","display":"Measure Population Observation"}]},"count":1}],"measureScore":{"value":0.0}},{"id":"Group_5","population":[{"id":"InitialPopulation_5","code":{"coding":[{"system":"http://terminology.hl7.org/CodeSystem/measure-population","code":"initial-population","display":"Initial Population"}]},"count":1},{"id":"MeasurePopulation_5","code":{"coding":[{"system":"http://terminology.hl7.org/CodeSystem/measure-population","code":"measure-population","display":"Measure Population"}]},"count":1},{"id":"MeasurePopulationExclusion_5","code":{"coding":[{"system":"http://terminology.hl7.org/CodeSystem/measure-population","code":"measure-population-exclusion","display":"Measure Population Exclusion"}]},"count":0},{"id":"MeasureObservation_5_1","code":{"coding":[{"system":"http://terminology.hl7.org/CodeSystem/measure-population","code":"measure-population-observation","display":"Measure Population Observation"}]},"count":3}],"measureScore":{"value":0.0}},{"id":"Group_6","population":[{"id":"InitialPopulation_6","code":{"coding":[{"system":"http://terminology.hl7.org/CodeSystem/measure-population","code":"initial-population","display":"Initial Population"}]},"count":1},{"id":"MeasurePopulation_6","code":{"coding":[{"system":"http://terminology.hl7.org/CodeSystem/measure-population","code":"measure-population","display":"Measure Population"}]},"count":1},{"id":"MeasurePopulationExclusion_6","code":{"coding":[{"system":"http://terminology.hl7.org/CodeSystem/measure-population","code":"measure-population-exclusion","display":"Measure Population Exclusion"}]},"count":0},{"id":"MeasureObservation_6_1","code":{"coding":[{"system":"http://terminology.hl7.org/CodeSystem/measure-population","code":"measure-population-observation","display":"Measure Population Observation"}]},"count":75}],"measureScore":{"value":0.0}}],"evaluatedResource":[{"reference":"Patient/3c8279f4-42ee-45a4-aaac-61cf53a121a2"},{"reference":"Encounter/32058e81-e256-4518-8ee3-d7229105d938"},{"reference":"Observation/6eca131b-0244-4fc7-8834-fe885d33ca0e"},{"reference":"Procedure/e2e9f976-4237-4bc5-9165-b7aeb8c10179"},{"reference":"Procedure/d421439e-4bf1-47b4-b12d-505c9d790057"},{"reference":"Coverage/3b7065a4-3c68-4edb-9dca-cf75bd338143"},{"reference":"Organization/7afd4d71-7dd0-4425-b224-936749803592"}]},"request":{"method":"PUT","url":"MeasureReport/c2b5c6f9-f3ba-4af8-9b5b-20a65990c179"}}]},"request":{"method":"PUT","url":"Bundle/NoscreRefAsseModNodxCp"}},{"fullUrl":"Encounter/32058e81-e256-4518-8ee3-d7229105d938","resource":{"resourceType":"Encounter","id":"32058e81-e256-4518-8ee3-d7229105d938","meta":{"profile":["http://hl7.org/fhir/us/qicore/StructureDefinition/qicore-encounter"]},"status":"finished","class":{"system":"http://terminology.hl7.org/CodeSystem/v3-ActCode","code":"IMP","display":"inpatient encounter"},"type":[{"coding":[{"system":"http://snomed.info/sct","code":"8715000"}]}],"subject":{"reference":"Patient/3c8279f4-42ee-45a4-aaac-61cf53a121a2"},"period":{"start":"2026-05-01T08:00:00.000+00:00","end":"2026-05-10T08:15:00.000+00:00"}},"request":{"method":"PUT","url":"Encounter/32058e81-e256-4518-8ee3-d7229105d938"}},{"fullUrl":"Patient/3c8279f4-42ee-45a4-aaac-61cf53a121a2","resource":{"resourceType":"Patient","id":"3c8279f4-42ee-45a4-aaac-61cf53a121a2","meta":{"profile":["http://hl7.org/fhir/us/qicore/StructureDefinition/qicore-patient"]},"extension":[{"url":"http://hl7.org/fhir/us/core/StructureDefinition/us-core-race","extension":[{"url":"ombCategory","valueCoding":{"system":"urn:oid:2.16.840.1.113883.6.238","code":"1002-5","display":"American Indian or Alaska Native","userSelected":true}},{"url":"text","valueString":"American Indian or Alaska Native"}]},{"url":"http://hl7.org/fhir/us/core/StructureDefinition/us-core-ethnicity","extension":[{"url":"ombCategory","valueCoding":{"system":"urn:oid:2.16.840.1.113883.6.238","code":"2135-2","display":"Hispanic or Latino","userSelected":true}},{"url":"text","valueString":"Hispanic or Latino"}]},{"url":"http://hl7.org/fhir/us/core/StructureDefinition/us-core-sex","valueCode":"248153007"}],"identifier":[{"type":{"coding":[{"system":"http://terminology.hl7.org/CodeSystem/v2-0203","code":"MR"}]},"system":"https://madie.cms.gov/","value":"NoscreRefAsseModNodxCp"}],"active":true,"name":[{"use":"usual","text":"NoscreRefAsseModNodxCp","family":"MSROBSPass4","given":["NoscreRefAsseModNodxCp"]}],"gender":"male","birthDate":"1951-05-25","address":[{"text":"NoscreRefAsseModNodxCp, Screened Not at risk Assessed Severely Malnourished Diagnosed Care Plan, ID=NoscreRefAsseModNodxCp, DOB: 25 May 1951"}]},"request":{"method":"PUT","url":"Patient/3c8279f4-42ee-45a4-aaac-61cf53a121a2"}},{"fullUrl":"Coverage/3b7065a4-3c68-4edb-9dca-cf75bd338143","resource":{"resourceType":"Coverage","id":"3b7065a4-3c68-4edb-9dca-cf75bd338143","meta":{"profile":["http://hl7.org/fhir/us/qicore/StructureDefinition/qicore-coverage"]},"status":"active","type":{"coding":[{"system":"https://nahdo.org/sopt","version":"9.2","code":"11","display":"Medicare Managed Care (Includes Medicare Advantage Plans)"}]},"subscriberId":"97531","beneficiary":{"reference":"Patient/3c8279f4-42ee-45a4-aaac-61cf53a121a2"},"dependent":"0","relationship":{"coding":[{"system":"http://terminology.hl7.org/CodeSystem/subscriber-relationship","code":"self"}]},"period":{"start":"2026-10-01T00:00:00.000+00:00"},"payor":[{"reference":"Organization/7afd4d71-7dd0-4425-b224-936749803592"}]},"request":{"method":"PUT","url":"Coverage/3b7065a4-3c68-4edb-9dca-cf75bd338143"}},{"fullUrl":"Observation/6eca131b-0244-4fc7-8834-fe885d33ca0e","resource":{"resourceType":"Observation","id":"6eca131b-0244-4fc7-8834-fe885d33ca0e","meta":{"profile":["http://hl7.org/fhir/us/qicore/StructureDefinition/qicore-observation-screening-assessment"]},"status":"final","category":[{"coding":[{"system":"http://terminology.hl7.org/CodeSystem/observation-category","code":"survey","display":"Survey"}]}],"code":{"coding":[{"system":"http://loinc.org","code":"75285-7","display":"Comparative nutrition assessment standards panel","userSelected":true}]},"subject":{"reference":"Patient/3c8279f4-42ee-45a4-aaac-61cf53a121a2"},"effectiveDateTime":"2026-05-01T10:00:00.000+00:00","valueCodeableConcept":{"coding":[{"system":"http://snomed.info/sct","code":"288517002","display":"Wasting disease (disorder)","userSelected":true}]}},"request":{"method":"PUT","url":"Observation/6eca131b-0244-4fc7-8834-fe885d33ca0e"}}]}