{"resourceType":"Bundle","id":"tests-c1a50cef-42e4-4473-8aa4-704e9743b1ca-bundle","type":"transaction","entry":[{"fullUrl":"Condition/cedbe15e-fe09-42fb-8e5e-7f17d8920ab0","resource":{"resourceType":"Condition","id":"cedbe15e-fe09-42fb-8e5e-7f17d8920ab0","meta":{"profile":["http://hl7.org/fhir/us/qicore/StructureDefinition/qicore-condition-encounter-diagnosis"]},"clinicalStatus":{"coding":[{"system":"http://terminology.hl7.org/CodeSystem/condition-clinical","code":"active","display":"Active","userSelected":true}]},"verificationStatus":{"coding":[{"system":"http://terminology.hl7.org/CodeSystem/condition-ver-status","code":"confirmed","display":"Confirmed","userSelected":true}]},"category":[{"coding":[{"system":"http://terminology.hl7.org/CodeSystem/condition-category","code":"encounter-diagnosis","display":"Encounter Diagnosis","userSelected":true}]}],"code":{"coding":[{"system":"http://snomed.info/sct","code":"723917005","display":"Dangerously low body weight co-occurrent and due to anorexia nervosa of restricting type (disorder)","userSelected":true}]},"subject":{"reference":"Patient/c1a50cef-42e4-4473-8aa4-704e9743b1ca"},"onsetPeriod":{"start":"2026-02-01T08:00:00.000+00:00"},"recordedDate":"2026-02-01T11:00:00.000+00:00"},"request":{"method":"PUT","url":"Condition/cedbe15e-fe09-42fb-8e5e-7f17d8920ab0"}},{"fullUrl":"Organization/a02e98ee-a8be-4bf6-a68f-6cd0d74053f0","resource":{"resourceType":"Organization","id":"a02e98ee-a8be-4bf6-a68f-6cd0d74053f0","meta":{"profile":["http://hl7.org/fhir/us/qicore/StructureDefinition/qicore-organization"]},"identifier":[{"use":"temp","system":"urn:oid:2.16.840.1.113883.4.4","value":"21-3259825"}],"active":true,"type":[{"coding":[{"system":"http://terminology.hl7.org/CodeSystem/organization-type","code":"pay","display":"Payer"}]}],"name":"Blue Cross Blue Shield of Texas","telecom":[{"system":"phone","value":"(+1) 972-766-6900"}],"address":[{"use":"billing","type":"postal","line":["P.O. Box 660044"],"city":"Dallas","state":"TX","postalCode":"75266-0044","country":"USA"}]},"request":{"method":"PUT","url":"Organization/a02e98ee-a8be-4bf6-a68f-6cd0d74053f0"}},{"fullUrl":"Patient/c1a50cef-42e4-4473-8aa4-704e9743b1ca","resource":{"resourceType":"Patient","id":"c1a50cef-42e4-4473-8aa4-704e9743b1ca","meta":{"profile":["http://hl7.org/fhir/us/qicore/StructureDefinition/qicore-patient"]},"extension":[{"url":"http://hl7.org/fhir/us/core/StructureDefinition/us-core-race","extension":[{"url":"ombCategory","valueCoding":{"system":"urn:oid:2.16.840.1.113883.6.238","code":"2106-3","display":"White","userSelected":true}},{"url":"text","valueString":"White"}]},{"url":"http://hl7.org/fhir/us/core/StructureDefinition/us-core-ethnicity","extension":[{"url":"ombCategory","valueCoding":{"system":"urn:oid:2.16.840.1.113883.6.238","code":"2186-5","display":"Not Hispanic or Latino","userSelected":true}},{"url":"text","valueString":"Not Hispanic or Latino"}]},{"url":"http://hl7.org/fhir/us/core/StructureDefinition/us-core-sex","valueCode":"248153007"}],"identifier":[{"type":{"coding":[{"system":"http://terminology.hl7.org/CodeSystem/v2-0203","code":"MR"}]},"system":"https://madie.cms.gov/","value":"ScreAtriNorefNoasseDxCp"}],"active":true,"name":[{"use":"usual","text":"ScreAtriNorefNoasseDxCp","family":"MSROBSPass2","given":["ScreAtriNorefNoasseDxCp"]}],"gender":"male","birthDate":"1958-02-01","address":[{"text":"ScreAtriNorefNoasseDxCp, Screened Not at risk No referral No Assessment Diagnosed Care Plan, ID=ScreAtriNorefNoasseDxCp, DOB: 01 Feb 1958"}]},"request":{"method":"PUT","url":"Patient/c1a50cef-42e4-4473-8aa4-704e9743b1ca"}},{"fullUrl":"Procedure/cf970c36-8448-40d2-8025-94360e5a6e37","resource":{"resourceType":"Procedure","id":"cf970c36-8448-40d2-8025-94360e5a6e37","meta":{"profile":["http://hl7.org/fhir/us/qicore/StructureDefinition/qicore-procedure"]},"extension":[{"url":"http://hl7.org/fhir/us/qicore/StructureDefinition/qicore-recorded","valueDateTime":"2026-02-02T11:30:00.000+00:00"}],"status":"completed","code":{"coding":[{"system":"http://snomed.info/sct","code":"413315001","display":"Nutrition / feeding management (regime/therapy)"}],"text":"Nutrition/feeding management (regime/therapy)"},"subject":{"reference":"Patient/c1a50cef-42e4-4473-8aa4-704e9743b1ca"},"encounter":{"reference":"Encounter/ScreAtriNorefNoasseDxCpMSROBSPass2"},"performedPeriod":{"start":"2026-02-01T11:30:00.000+00:00","end":"2026-02-07T08:15:00.000+00:00"}},"request":{"method":"PUT","url":"Procedure/cf970c36-8448-40d2-8025-94360e5a6e37"}},{"fullUrl":"Bundle/ScreAtriNorefNoasseDxCp","resource":{"resourceType":"Bundle","id":"ScreAtriNorefNoasseDxCp","type":"transaction","entry":[{"fullUrl":"https://madie.cms.gov/Patient/c1a50cef-42e4-4473-8aa4-704e9743b1ca","resource":{"resourceType":"Patient","id":"c1a50cef-42e4-4473-8aa4-704e9743b1ca","meta":{"profile":["http://hl7.org/fhir/us/qicore/StructureDefinition/qicore-patient"]},"extension":[{"url":"http://hl7.org/fhir/us/core/StructureDefinition/us-core-race","extension":[{"url":"ombCategory","valueCoding":{"system":"urn:oid:2.16.840.1.113883.6.238","code":"2106-3","display":"White","userSelected":true}},{"url":"text","valueString":"White"}]},{"url":"http://hl7.org/fhir/us/core/StructureDefinition/us-core-ethnicity","extension":[{"url":"ombCategory","valueCoding":{"system":"urn:oid:2.16.840.1.113883.6.238","code":"2186-5","display":"Not Hispanic or Latino","userSelected":true}},{"url":"text","valueString":"Not Hispanic or Latino"}]},{"url":"http://hl7.org/fhir/us/core/StructureDefinition/us-core-sex","valueCode":"248153007"}],"identifier":[{"type":{"coding":[{"system":"http://terminology.hl7.org/CodeSystem/v2-0203","code":"MR"}]},"system":"https://madie.cms.gov/","value":"ScreAtriNorefNoasseDxCp"}],"active":true,"name":[{"use":"usual","text":"ScreAtriNorefNoasseDxCp","family":"MSROBSPass2","given":["ScreAtriNorefNoasseDxCp"]}],"gender":"male","birthDate":"1958-02-01","address":[{"text":"ScreAtriNorefNoasseDxCp, Screened Not at risk No referral No Assessment Diagnosed Care Plan, ID=ScreAtriNorefNoasseDxCp, DOB: 01 Feb 1958"}]},"request":{"method":"PUT","url":"Patient/c1a50cef-42e4-4473-8aa4-704e9743b1ca"}},{"fullUrl":"https://madie.cms.gov/Encounter/4430d590-20de-4acf-9b21-1fbcebf60d25","resource":{"resourceType":"Encounter","id":"4430d590-20de-4acf-9b21-1fbcebf60d25","meta":{"profile":["http://hl7.org/fhir/us/qicore/StructureDefinition/qicore-encounter"]},"status":"finished","class":{"system":"http://terminology.hl7.org/CodeSystem/v3-ActCode","code":"IMP","display":"inpatient encounter"},"type":[{"coding":[{"system":"http://snomed.info/sct","code":"183452005"}]}],"subject":{"reference":"Patient/c1a50cef-42e4-4473-8aa4-704e9743b1ca"},"period":{"start":"2026-02-01T08:00:00.000+00:00","end":"2026-02-07T08:15:00.000+00:00"}},"request":{"method":"PUT","url":"Encounter/4430d590-20de-4acf-9b21-1fbcebf60d25"}},{"fullUrl":"https://madie.cms.gov/Condition/cedbe15e-fe09-42fb-8e5e-7f17d8920ab0","resource":{"resourceType":"Condition","id":"cedbe15e-fe09-42fb-8e5e-7f17d8920ab0","meta":{"profile":["http://hl7.org/fhir/us/qicore/StructureDefinition/qicore-condition-encounter-diagnosis"]},"clinicalStatus":{"coding":[{"system":"http://terminology.hl7.org/CodeSystem/condition-clinical","code":"active","display":"Active","userSelected":true}]},"verificationStatus":{"coding":[{"system":"http://terminology.hl7.org/CodeSystem/condition-ver-status","code":"confirmed","display":"Confirmed","userSelected":true}]},"category":[{"coding":[{"system":"http://terminology.hl7.org/CodeSystem/condition-category","code":"encounter-diagnosis","display":"Encounter Diagnosis","userSelected":true}]}],"code":{"coding":[{"system":"http://snomed.info/sct","code":"723917005","display":"Dangerously low body weight co-occurrent and due to anorexia nervosa of restricting type (disorder)","userSelected":true}]},"subject":{"reference":"Patient/c1a50cef-42e4-4473-8aa4-704e9743b1ca"},"onsetPeriod":{"start":"2026-02-01T08:00:00.000+00:00"},"recordedDate":"2026-02-01T11:00:00.000+00:00"},"request":{"method":"PUT","url":"Condition/cedbe15e-fe09-42fb-8e5e-7f17d8920ab0"}},{"fullUrl":"https://madie.cms.gov/Observation/60638769-922a-4d4d-8cd5-01e5909d64ad","resource":{"resourceType":"Observation","id":"60638769-922a-4d4d-8cd5-01e5909d64ad","meta":{"profile":["http://hl7.org/fhir/us/qicore/StructureDefinition/qicore-observation-screening-assessment"]},"status":"final","category":[{"coding":[{"system":"http://terminology.hl7.org/CodeSystem/observation-category","code":"survey","display":"Survey"}]}],"code":{"coding":[{"system":"http://loinc.org","code":"98972-3","display":"Final screening NRS_2002","userSelected":true}]},"subject":{"reference":"Patient/c1a50cef-42e4-4473-8aa4-704e9743b1ca"},"effectiveDateTime":"2026-02-01T09:00:00.000+00:00","valueCodeableConcept":{"coding":[{"system":"http://snomed.info/sct","code":"700361001","display":"Predicted inadequate nutrient intake (finding)","userSelected":true}]}},"request":{"method":"PUT","url":"Observation/60638769-922a-4d4d-8cd5-01e5909d64ad"}},{"fullUrl":"https://madie.cms.gov/Procedure/cf970c36-8448-40d2-8025-94360e5a6e37","resource":{"resourceType":"Procedure","id":"cf970c36-8448-40d2-8025-94360e5a6e37","meta":{"profile":["http://hl7.org/fhir/us/qicore/StructureDefinition/qicore-procedure"]},"extension":[{"url":"http://hl7.org/fhir/us/qicore/StructureDefinition/qicore-recorded","valueDateTime":"2026-02-02T11:30:00.000+00:00"}],"status":"completed","code":{"coding":[{"system":"http://snomed.info/sct","code":"413315001","display":"Nutrition / feeding management (regime/therapy)"}],"text":"Nutrition/feeding management (regime/therapy)"},"subject":{"reference":"Patient/c1a50cef-42e4-4473-8aa4-704e9743b1ca"},"encounter":{"reference":"Encounter/ScreAtriNorefNoasseDxCpMSROBSPass2"},"performedPeriod":{"start":"2026-02-01T11:30:00.000+00:00","end":"2026-02-07T08:15:00.000+00:00"}},"request":{"method":"PUT","url":"Procedure/cf970c36-8448-40d2-8025-94360e5a6e37"}},{"fullUrl":"https://madie.cms.gov/Coverage/8346b999-5272-4cbb-a7d5-d6f37b06e679","resource":{"resourceType":"Coverage","id":"8346b999-5272-4cbb-a7d5-d6f37b06e679","meta":{"profile":["http://hl7.org/fhir/us/qicore/StructureDefinition/qicore-coverage"]},"status":"active","type":{"coding":[{"system":"https://nahdo.org/sopt","version":"9.2","code":"11","display":"Medicare Managed Care (Includes Medicare Advantage Plans)"}]},"subscriberId":"97531","beneficiary":{"reference":"Patient/c1a50cef-42e4-4473-8aa4-704e9743b1ca"},"dependent":"0","relationship":{"coding":[{"system":"http://terminology.hl7.org/CodeSystem/subscriber-relationship","code":"self"}]},"period":{"start":"2025-10-01T00:00:00.000+00:00"},"payor":[{"reference":"Organization/a02e98ee-a8be-4bf6-a68f-6cd0d74053f0"}]},"request":{"method":"PUT","url":"Coverage/8346b999-5272-4cbb-a7d5-d6f37b06e679"}},{"fullUrl":"https://madie.cms.gov/Organization/a02e98ee-a8be-4bf6-a68f-6cd0d74053f0","resource":{"resourceType":"Organization","id":"a02e98ee-a8be-4bf6-a68f-6cd0d74053f0","meta":{"profile":["http://hl7.org/fhir/us/qicore/StructureDefinition/qicore-organization"]},"identifier":[{"use":"temp","system":"urn:oid:2.16.840.1.113883.4.4","value":"21-3259825"}],"active":true,"type":[{"coding":[{"system":"http://terminology.hl7.org/CodeSystem/organization-type","code":"pay","display":"Payer"}]}],"name":"Blue Cross Blue Shield of Texas","telecom":[{"system":"phone","value":"(+1) 972-766-6900"}],"address":[{"use":"billing","type":"postal","line":["P.O. Box 660044"],"city":"Dallas","state":"TX","postalCode":"75266-0044","country":"USA"}]},"request":{"method":"PUT","url":"Organization/a02e98ee-a8be-4bf6-a68f-6cd0d74053f0"}},{"fullUrl":"https://madie.cms.gov/MeasureReport/e99c8fff-7305-43e5-908e-fb9de4735af7","resource":{"resourceType":"MeasureReport","id":"e99c8fff-7305-43e5-908e-fb9de4735af7","meta":{"profile":["http://hl7.org/fhir/us/cqfmeasures/StructureDefinition/test-case-cqfm"]},"contained":[{"resourceType":"Parameters","id":"ab82b42b-fcc7-4600-b4c0-d693ce5b6fcc-parameters","parameter":[{"name":"subject","valueString":"c1a50cef-42e4-4473-8aa4-704e9743b1ca"}]}],"extension":[{"url":"http://hl7.org/fhir/StructureDefinition/cqf-inputParameters","valueReference":{"reference":"#ab82b42b-fcc7-4600-b4c0-d693ce5b6fcc-parameters"}},{"url":"http://hl7.org/fhir/us/cqfmeasures/StructureDefinition/cqfm-testCaseDescription","valueMarkdown":"Screened, At Risk, No Referral, Not assessed, Diagnosis, Nutrition Care Plan"}],"modifierExtension":[{"url":"http://hl7.org/fhir/us/cqfmeasures/StructureDefinition/cqfm-isTestCase","valueBoolean":true}],"status":"complete","type":"individual","measure":"https://madie.cms.gov/Measure/CMS986FHIRMalnutritionScore","period":{"start":"2026-01-01","end":"2026-12-31"},"group":[{"id":"Group_1","population":[{"id":"InitialPopulation_1","code":{"coding":[{"system":"http://terminology.hl7.org/CodeSystem/measure-population","code":"initial-population","display":"Initial Population"}]},"count":1},{"id":"MeasurePopulation_1","code":{"coding":[{"system":"http://terminology.hl7.org/CodeSystem/measure-population","code":"measure-population","display":"Measure Population"}]},"count":1},{"id":"MeasurePopulationExclusion_1","code":{"coding":[{"system":"http://terminology.hl7.org/CodeSystem/measure-population","code":"measure-population-exclusion","display":"Measure Population Exclusion"}]},"count":0},{"id":"MeasureObservation_1_1","code":{"coding":[{"system":"http://terminology.hl7.org/CodeSystem/measure-population","code":"measure-population-observation","display":"Measure Population Observation"}]},"count":1}],"measureScore":{"value":0.0}},{"id":"Group_2","population":[{"id":"InitialPopulation_2","code":{"coding":[{"system":"http://terminology.hl7.org/CodeSystem/measure-population","code":"initial-population","display":"Initial Population"}]},"count":1},{"id":"MeasurePopulation_2","code":{"coding":[{"system":"http://terminology.hl7.org/CodeSystem/measure-population","code":"measure-population","display":"Measure Population"}]},"count":1},{"id":"MeasurePopulationExclusion_2","code":{"coding":[{"system":"http://terminology.hl7.org/CodeSystem/measure-population","code":"measure-population-exclusion","display":"Measure Population Exclusion"}]},"count":0},{"id":"MeasureObservation_2_1","code":{"coding":[{"system":"http://terminology.hl7.org/CodeSystem/measure-population","code":"measure-population-observation","display":"Measure Population Observation"}]},"count":0}],"measureScore":{"value":0.0}},{"id":"Group_3","population":[{"id":"InitialPopulation_3","code":{"coding":[{"system":"http://terminology.hl7.org/CodeSystem/measure-population","code":"initial-population","display":"Initial Population"}]},"count":1},{"id":"MeasurePopulation_3","code":{"coding":[{"system":"http://terminology.hl7.org/CodeSystem/measure-population","code":"measure-population","display":"Measure Population"}]},"count":1},{"id":"MeasurePopulationExclusion_3","code":{"coding":[{"system":"http://terminology.hl7.org/CodeSystem/measure-population","code":"measure-population-exclusion","display":"Measure Population Exclusion"}]},"count":0},{"id":"MeasureObservation_3_1","code":{"coding":[{"system":"http://terminology.hl7.org/CodeSystem/measure-population","code":"measure-population-observation","display":"Measure Population Observation"}]},"count":0}],"measureScore":{"value":0.0}},{"id":"Group_4","population":[{"id":"InitialPopulation_4","code":{"coding":[{"system":"http://terminology.hl7.org/CodeSystem/measure-population","code":"initial-population","display":"Initial Population"}]},"count":1},{"id":"MeasurePopulation_4","code":{"coding":[{"system":"http://terminology.hl7.org/CodeSystem/measure-population","code":"measure-population","display":"Measure Population"}]},"count":1},{"id":"MeasurePopulationExclusion_4","code":{"coding":[{"system":"http://terminology.hl7.org/CodeSystem/measure-population","code":"measure-population-exclusion","display":"Measure Population Exclusion"}]},"count":0},{"id":"MeasureObservation_4_1","code":{"coding":[{"system":"http://terminology.hl7.org/CodeSystem/measure-population","code":"measure-population-observation","display":"Measure Population Observation"}]},"count":0}],"measureScore":{"value":0.0}},{"id":"Group_5","population":[{"id":"InitialPopulation_5","code":{"coding":[{"system":"http://terminology.hl7.org/CodeSystem/measure-population","code":"initial-population","display":"Initial Population"}]},"count":1},{"id":"MeasurePopulation_5","code":{"coding":[{"system":"http://terminology.hl7.org/CodeSystem/measure-population","code":"measure-population","display":"Measure Population"}]},"count":1},{"id":"MeasurePopulationExclusion_5","code":{"coding":[{"system":"http://terminology.hl7.org/CodeSystem/measure-population","code":"measure-population-exclusion","display":"Measure Population Exclusion"}]},"count":0},{"id":"MeasureObservation_5_1","code":{"coding":[{"system":"http://terminology.hl7.org/CodeSystem/measure-population","code":"measure-population-observation","display":"Measure Population Observation"}]},"count":1}],"measureScore":{"value":0.0}},{"id":"Group_6","population":[{"id":"InitialPopulation_6","code":{"coding":[{"system":"http://terminology.hl7.org/CodeSystem/measure-population","code":"initial-population","display":"Initial Population"}]},"count":1},{"id":"MeasurePopulation_6","code":{"coding":[{"system":"http://terminology.hl7.org/CodeSystem/measure-population","code":"measure-population","display":"Measure Population"}]},"count":1},{"id":"MeasurePopulationExclusion_6","code":{"coding":[{"system":"http://terminology.hl7.org/CodeSystem/measure-population","code":"measure-population-exclusion","display":"Measure Population Exclusion"}]},"count":0},{"id":"MeasureObservation_6_1","code":{"coding":[{"system":"http://terminology.hl7.org/CodeSystem/measure-population","code":"measure-population-observation","display":"Measure Population Observation"}]},"count":50}],"measureScore":{"value":0.0}}],"evaluatedResource":[{"reference":"Patient/c1a50cef-42e4-4473-8aa4-704e9743b1ca"},{"reference":"Encounter/4430d590-20de-4acf-9b21-1fbcebf60d25"},{"reference":"Condition/cedbe15e-fe09-42fb-8e5e-7f17d8920ab0"},{"reference":"Observation/60638769-922a-4d4d-8cd5-01e5909d64ad"},{"reference":"Procedure/cf970c36-8448-40d2-8025-94360e5a6e37"},{"reference":"Coverage/8346b999-5272-4cbb-a7d5-d6f37b06e679"},{"reference":"Organization/a02e98ee-a8be-4bf6-a68f-6cd0d74053f0"}]},"request":{"method":"PUT","url":"MeasureReport/e99c8fff-7305-43e5-908e-fb9de4735af7"}}]},"request":{"method":"PUT","url":"Bundle/ScreAtriNorefNoasseDxCp"}},{"fullUrl":"Coverage/8346b999-5272-4cbb-a7d5-d6f37b06e679","resource":{"resourceType":"Coverage","id":"8346b999-5272-4cbb-a7d5-d6f37b06e679","meta":{"profile":["http://hl7.org/fhir/us/qicore/StructureDefinition/qicore-coverage"]},"status":"active","type":{"coding":[{"system":"https://nahdo.org/sopt","version":"9.2","code":"11","display":"Medicare Managed Care (Includes Medicare Advantage Plans)"}]},"subscriberId":"97531","beneficiary":{"reference":"Patient/c1a50cef-42e4-4473-8aa4-704e9743b1ca"},"dependent":"0","relationship":{"coding":[{"system":"http://terminology.hl7.org/CodeSystem/subscriber-relationship","code":"self"}]},"period":{"start":"2025-10-01T00:00:00.000+00:00"},"payor":[{"reference":"Organization/a02e98ee-a8be-4bf6-a68f-6cd0d74053f0"}]},"request":{"method":"PUT","url":"Coverage/8346b999-5272-4cbb-a7d5-d6f37b06e679"}},{"fullUrl":"MeasureReport/e99c8fff-7305-43e5-908e-fb9de4735af7","resource":{"resourceType":"MeasureReport","id":"e99c8fff-7305-43e5-908e-fb9de4735af7","meta":{"profile":["http://hl7.org/fhir/us/cqfmeasures/StructureDefinition/test-case-cqfm"]},"contained":[{"resourceType":"Parameters","id":"ab82b42b-fcc7-4600-b4c0-d693ce5b6fcc-parameters","parameter":[{"name":"subject","valueString":"c1a50cef-42e4-4473-8aa4-704e9743b1ca"}]}],"extension":[{"url":"http://hl7.org/fhir/StructureDefinition/cqf-inputParameters","valueReference":{"reference":"#ab82b42b-fcc7-4600-b4c0-d693ce5b6fcc-parameters"}},{"url":"http://hl7.org/fhir/us/cqfmeasures/StructureDefinition/cqfm-testCaseDescription","valueMarkdown":"Screened, At Risk, No Referral, Not assessed, Diagnosis, Nutrition Care Plan"}],"modifierExtension":[{"url":"http://hl7.org/fhir/us/cqfmeasures/StructureDefinition/cqfm-isTestCase","valueBoolean":true}],"status":"complete","type":"individual","measure":"https://madie.cms.gov/Measure/CMS986FHIRMalnutritionScore","period":{"start":"2026-01-01","end":"2026-12-31"},"group":[{"id":"Group_1","population":[{"id":"InitialPopulation_1","code":{"coding":[{"system":"http://terminology.hl7.org/CodeSystem/measure-population","code":"initial-population","display":"Initial Population"}]},"count":1},{"id":"MeasurePopulation_1","code":{"coding":[{"system":"http://terminology.hl7.org/CodeSystem/measure-population","code":"measure-population","display":"Measure Population"}]},"count":1},{"id":"MeasurePopulationExclusion_1","code":{"coding":[{"system":"http://terminology.hl7.org/CodeSystem/measure-population","code":"measure-population-exclusion","display":"Measure Population Exclusion"}]},"count":0},{"id":"MeasureObservation_1_1","code":{"coding":[{"system":"http://terminology.hl7.org/CodeSystem/measure-population","code":"measure-population-observation","display":"Measure Population Observation"}]},"count":1}],"measureScore":{"value":0.0}},{"id":"Group_2","population":[{"id":"InitialPopulation_2","code":{"coding":[{"system":"http://terminology.hl7.org/CodeSystem/measure-population","code":"initial-population","display":"Initial Population"}]},"count":1},{"id":"MeasurePopulation_2","code":{"coding":[{"system":"http://terminology.hl7.org/CodeSystem/measure-population","code":"measure-population","display":"Measure Population"}]},"count":1},{"id":"MeasurePopulationExclusion_2","code":{"coding":[{"system":"http://terminology.hl7.org/CodeSystem/measure-population","code":"measure-population-exclusion","display":"Measure Population Exclusion"}]},"count":0},{"id":"MeasureObservation_2_1","code":{"coding":[{"system":"http://terminology.hl7.org/CodeSystem/measure-population","code":"measure-population-observation","display":"Measure Population Observation"}]},"count":0}],"measureScore":{"value":0.0}},{"id":"Group_3","population":[{"id":"InitialPopulation_3","code":{"coding":[{"system":"http://terminology.hl7.org/CodeSystem/measure-population","code":"initial-population","display":"Initial Population"}]},"count":1},{"id":"MeasurePopulation_3","code":{"coding":[{"system":"http://terminology.hl7.org/CodeSystem/measure-population","code":"measure-population","display":"Measure Population"}]},"count":1},{"id":"MeasurePopulationExclusion_3","code":{"coding":[{"system":"http://terminology.hl7.org/CodeSystem/measure-population","code":"measure-population-exclusion","display":"Measure Population Exclusion"}]},"count":0},{"id":"MeasureObservation_3_1","code":{"coding":[{"system":"http://terminology.hl7.org/CodeSystem/measure-population","code":"measure-population-observation","display":"Measure Population Observation"}]},"count":0}],"measureScore":{"value":0.0}},{"id":"Group_4","population":[{"id":"InitialPopulation_4","code":{"coding":[{"system":"http://terminology.hl7.org/CodeSystem/measure-population","code":"initial-population","display":"Initial Population"}]},"count":1},{"id":"MeasurePopulation_4","code":{"coding":[{"system":"http://terminology.hl7.org/CodeSystem/measure-population","code":"measure-population","display":"Measure Population"}]},"count":1},{"id":"MeasurePopulationExclusion_4","code":{"coding":[{"system":"http://terminology.hl7.org/CodeSystem/measure-population","code":"measure-population-exclusion","display":"Measure Population Exclusion"}]},"count":0},{"id":"MeasureObservation_4_1","code":{"coding":[{"system":"http://terminology.hl7.org/CodeSystem/measure-population","code":"measure-population-observation","display":"Measure Population Observation"}]},"count":0}],"measureScore":{"value":0.0}},{"id":"Group_5","population":[{"id":"InitialPopulation_5","code":{"coding":[{"system":"http://terminology.hl7.org/CodeSystem/measure-population","code":"initial-population","display":"Initial Population"}]},"count":1},{"id":"MeasurePopulation_5","code":{"coding":[{"system":"http://terminology.hl7.org/CodeSystem/measure-population","code":"measure-population","display":"Measure Population"}]},"count":1},{"id":"MeasurePopulationExclusion_5","code":{"coding":[{"system":"http://terminology.hl7.org/CodeSystem/measure-population","code":"measure-population-exclusion","display":"Measure Population Exclusion"}]},"count":0},{"id":"MeasureObservation_5_1","code":{"coding":[{"system":"http://terminology.hl7.org/CodeSystem/measure-population","code":"measure-population-observation","display":"Measure Population Observation"}]},"count":1}],"measureScore":{"value":0.0}},{"id":"Group_6","population":[{"id":"InitialPopulation_6","code":{"coding":[{"system":"http://terminology.hl7.org/CodeSystem/measure-population","code":"initial-population","display":"Initial Population"}]},"count":1},{"id":"MeasurePopulation_6","code":{"coding":[{"system":"http://terminology.hl7.org/CodeSystem/measure-population","code":"measure-population","display":"Measure Population"}]},"count":1},{"id":"MeasurePopulationExclusion_6","code":{"coding":[{"system":"http://terminology.hl7.org/CodeSystem/measure-population","code":"measure-population-exclusion","display":"Measure Population Exclusion"}]},"count":0},{"id":"MeasureObservation_6_1","code":{"coding":[{"system":"http://terminology.hl7.org/CodeSystem/measure-population","code":"measure-population-observation","display":"Measure Population Observation"}]},"count":50}],"measureScore":{"value":0.0}}],"evaluatedResource":[{"reference":"Patient/c1a50cef-42e4-4473-8aa4-704e9743b1ca"},{"reference":"Encounter/4430d590-20de-4acf-9b21-1fbcebf60d25"},{"reference":"Condition/cedbe15e-fe09-42fb-8e5e-7f17d8920ab0"},{"reference":"Observation/60638769-922a-4d4d-8cd5-01e5909d64ad"},{"reference":"Procedure/cf970c36-8448-40d2-8025-94360e5a6e37"},{"reference":"Coverage/8346b999-5272-4cbb-a7d5-d6f37b06e679"},{"reference":"Organization/a02e98ee-a8be-4bf6-a68f-6cd0d74053f0"}]},"request":{"method":"PUT","url":"MeasureReport/e99c8fff-7305-43e5-908e-fb9de4735af7"}},{"fullUrl":"Observation/60638769-922a-4d4d-8cd5-01e5909d64ad","resource":{"resourceType":"Observation","id":"60638769-922a-4d4d-8cd5-01e5909d64ad","meta":{"profile":["http://hl7.org/fhir/us/qicore/StructureDefinition/qicore-observation-screening-assessment"]},"status":"final","category":[{"coding":[{"system":"http://terminology.hl7.org/CodeSystem/observation-category","code":"survey","display":"Survey"}]}],"code":{"coding":[{"system":"http://loinc.org","code":"98972-3","display":"Final screening NRS_2002","userSelected":true}]},"subject":{"reference":"Patient/c1a50cef-42e4-4473-8aa4-704e9743b1ca"},"effectiveDateTime":"2026-02-01T09:00:00.000+00:00","valueCodeableConcept":{"coding":[{"system":"http://snomed.info/sct","code":"700361001","display":"Predicted inadequate nutrient intake (finding)","userSelected":true}]}},"request":{"method":"PUT","url":"Observation/60638769-922a-4d4d-8cd5-01e5909d64ad"}},{"fullUrl":"Encounter/4430d590-20de-4acf-9b21-1fbcebf60d25","resource":{"resourceType":"Encounter","id":"4430d590-20de-4acf-9b21-1fbcebf60d25","meta":{"profile":["http://hl7.org/fhir/us/qicore/StructureDefinition/qicore-encounter"]},"status":"finished","class":{"system":"http://terminology.hl7.org/CodeSystem/v3-ActCode","code":"IMP","display":"inpatient encounter"},"type":[{"coding":[{"system":"http://snomed.info/sct","code":"183452005"}]}],"subject":{"reference":"Patient/c1a50cef-42e4-4473-8aa4-704e9743b1ca"},"period":{"start":"2026-02-01T08:00:00.000+00:00","end":"2026-02-07T08:15:00.000+00:00"}},"request":{"method":"PUT","url":"Encounter/4430d590-20de-4acf-9b21-1fbcebf60d25"}}]}