{"resourceType":"Bundle","id":"tests-a4f53b12-e0e3-4faf-8e66-6ce8193a6477-bundle","type":"transaction","entry":[{"fullUrl":"Bundle/HospiceExclu3","resource":{"resourceType":"Bundle","id":"HospiceExclu3","type":"transaction","entry":[{"fullUrl":"https://madie.cms.gov/Patient/a4f53b12-e0e3-4faf-8e66-6ce8193a6477","resource":{"resourceType":"Patient","id":"a4f53b12-e0e3-4faf-8e66-6ce8193a6477","meta":{"profile":["http://hl7.org/fhir/us/qicore/StructureDefinition/qicore-patient"]},"extension":[{"url":"http://hl7.org/fhir/us/core/StructureDefinition/us-core-race","extension":[{"url":"ombCategory","valueCoding":{"system":"urn:oid:2.16.840.1.113883.6.238","code":"2054-5","display":"Black or African American","userSelected":true}},{"url":"text","valueString":"Black"}]},{"url":"http://hl7.org/fhir/us/core/StructureDefinition/us-core-ethnicity","extension":[{"url":"ombCategory","valueCoding":{"system":"urn:oid:2.16.840.1.113883.6.238","code":"2135-2","display":"Hispanic or Latino","userSelected":true}},{"url":"text","valueString":"Hispanic or Latino"}]},{"url":"http://hl7.org/fhir/us/core/StructureDefinition/us-core-sex","valueCode":"248152002"}],"identifier":[{"type":{"coding":[{"system":"http://terminology.hl7.org/CodeSystem/v2-0203","code":"MR"}]},"system":"https://madie.cms.gov/","value":"HospiceExclu3"}],"active":true,"name":[{"use":"usual","text":"HospiceExclu3","family":"IPPFAIL","given":["HospiceExclu3"]}],"gender":"female","birthDate":"1985-01-01","address":[{"text":"HospiceExclu3, Hospice Status, ID=HospiceExclu3, DOB: 01 Jan 1985"}]},"request":{"method":"PUT","url":"Patient/a4f53b12-e0e3-4faf-8e66-6ce8193a6477"}},{"fullUrl":"https://madie.cms.gov/Encounter/af26c3c8-ebee-45cd-a599-77eb418908c5","resource":{"resourceType":"Encounter","id":"af26c3c8-ebee-45cd-a599-77eb418908c5","meta":{"profile":["http://hl7.org/fhir/us/qicore/StructureDefinition/qicore-encounter"]},"status":"finished","class":{"system":"http://terminology.hl7.org/CodeSystem/v3-ActCode","code":"IMP","display":"inpatient encounter"},"type":[{"coding":[{"system":"http://snomed.info/sct","code":"183452005"}]}],"subject":{"reference":"Patient/a4f53b12-e0e3-4faf-8e66-6ce8193a6477"},"period":{"start":"2026-02-02T08:00:00.000+00:00","end":"2026-02-22T08:15:00.000+00:00"}},"request":{"method":"PUT","url":"Encounter/af26c3c8-ebee-45cd-a599-77eb418908c5"}},{"fullUrl":"https://madie.cms.gov/ServiceRequest/8f66bb8b-a9ba-48bf-b8eb-f54aacb7ccb0","resource":{"resourceType":"ServiceRequest","id":"8f66bb8b-a9ba-48bf-b8eb-f54aacb7ccb0","meta":{"profile":["http://hl7.org/fhir/us/qicore/StructureDefinition/qicore-servicerequest"]},"status":"completed","intent":"order","priority":"routine","code":{"coding":[{"system":"http://snomed.info/sct","code":"385763009","display":"Hospice care (regime/therapy)"}]},"subject":{"reference":"Patient/a4f53b12-e0e3-4faf-8e66-6ce8193a6477"},"authoredOn":"2026-02-04T00:00:00.000+00:00","performerType":{"coding":[{"system":"http://snomed.info/sct","code":"405279007","display":"Attending physician (occupation)"}]}},"request":{"method":"PUT","url":"ServiceRequest/8f66bb8b-a9ba-48bf-b8eb-f54aacb7ccb0"}},{"fullUrl":"https://madie.cms.gov/MeasureReport/dc2190c1-8ea7-45a7-bfb9-cd3eaf355161","resource":{"resourceType":"MeasureReport","id":"dc2190c1-8ea7-45a7-bfb9-cd3eaf355161","meta":{"profile":["http://hl7.org/fhir/us/cqfmeasures/StructureDefinition/test-case-cqfm"]},"contained":[{"resourceType":"Parameters","id":"9ba6593c-c6cb-4b0d-9bbb-c58aa8983833-parameters","parameter":[{"name":"subject","valueString":"a4f53b12-e0e3-4faf-8e66-6ce8193a6477"}]}],"extension":[{"url":"http://hl7.org/fhir/StructureDefinition/cqf-inputParameters","valueReference":{"reference":"#9ba6593c-c6cb-4b0d-9bbb-c58aa8983833-parameters"}},{"url":"http://hl7.org/fhir/us/cqfmeasures/StructureDefinition/cqfm-testCaseDescription","valueMarkdown":"Hospice status serviceRequest"}],"modifierExtension":[{"url":"http://hl7.org/fhir/us/cqfmeasures/StructureDefinition/cqfm-isTestCase","valueBoolean":true}],"status":"complete","type":"individual","measure":"https://madie.cms.gov/Measure/CMS986FHIRMalnutritionScore","period":{"start":"2026-01-01","end":"2026-12-31"},"group":[{"id":"Group_1","population":[{"id":"InitialPopulation_1","code":{"coding":[{"system":"http://terminology.hl7.org/CodeSystem/measure-population","code":"initial-population","display":"Initial Population"}]},"count":1},{"id":"MeasurePopulation_1","code":{"coding":[{"system":"http://terminology.hl7.org/CodeSystem/measure-population","code":"measure-population","display":"Measure Population"}]},"count":1},{"id":"MeasurePopulationExclusion_1","code":{"coding":[{"system":"http://terminology.hl7.org/CodeSystem/measure-population","code":"measure-population-exclusion","display":"Measure Population Exclusion"}]},"count":1}],"measureScore":{"value":0.0}},{"id":"Group_2","population":[{"id":"InitialPopulation_2","code":{"coding":[{"system":"http://terminology.hl7.org/CodeSystem/measure-population","code":"initial-population","display":"Initial Population"}]},"count":1},{"id":"MeasurePopulation_2","code":{"coding":[{"system":"http://terminology.hl7.org/CodeSystem/measure-population","code":"measure-population","display":"Measure Population"}]},"count":1},{"id":"MeasurePopulationExclusion_2","code":{"coding":[{"system":"http://terminology.hl7.org/CodeSystem/measure-population","code":"measure-population-exclusion","display":"Measure Population Exclusion"}]},"count":1}],"measureScore":{"value":0.0}},{"id":"Group_3","population":[{"id":"InitialPopulation_3","code":{"coding":[{"system":"http://terminology.hl7.org/CodeSystem/measure-population","code":"initial-population","display":"Initial Population"}]},"count":1},{"id":"MeasurePopulation_3","code":{"coding":[{"system":"http://terminology.hl7.org/CodeSystem/measure-population","code":"measure-population","display":"Measure Population"}]},"count":1},{"id":"MeasurePopulationExclusion_3","code":{"coding":[{"system":"http://terminology.hl7.org/CodeSystem/measure-population","code":"measure-population-exclusion","display":"Measure Population Exclusion"}]},"count":1}],"measureScore":{"value":0.0}},{"id":"Group_4","population":[{"id":"InitialPopulation_4","code":{"coding":[{"system":"http://terminology.hl7.org/CodeSystem/measure-population","code":"initial-population","display":"Initial Population"}]},"count":1},{"id":"MeasurePopulation_4","code":{"coding":[{"system":"http://terminology.hl7.org/CodeSystem/measure-population","code":"measure-population","display":"Measure Population"}]},"count":1},{"id":"MeasurePopulationExclusion_4","code":{"coding":[{"system":"http://terminology.hl7.org/CodeSystem/measure-population","code":"measure-population-exclusion","display":"Measure Population Exclusion"}]},"count":1}],"measureScore":{"value":0.0}},{"id":"Group_5","population":[{"id":"InitialPopulation_5","code":{"coding":[{"system":"http://terminology.hl7.org/CodeSystem/measure-population","code":"initial-population","display":"Initial Population"}]},"count":1},{"id":"MeasurePopulation_5","code":{"coding":[{"system":"http://terminology.hl7.org/CodeSystem/measure-population","code":"measure-population","display":"Measure Population"}]},"count":1},{"id":"MeasurePopulationExclusion_5","code":{"coding":[{"system":"http://terminology.hl7.org/CodeSystem/measure-population","code":"measure-population-exclusion","display":"Measure Population Exclusion"}]},"count":1}],"measureScore":{"value":0.0}},{"id":"Group_6","population":[{"id":"InitialPopulation_6","code":{"coding":[{"system":"http://terminology.hl7.org/CodeSystem/measure-population","code":"initial-population","display":"Initial Population"}]},"count":1},{"id":"MeasurePopulation_6","code":{"coding":[{"system":"http://terminology.hl7.org/CodeSystem/measure-population","code":"measure-population","display":"Measure Population"}]},"count":1},{"id":"MeasurePopulationExclusion_6","code":{"coding":[{"system":"http://terminology.hl7.org/CodeSystem/measure-population","code":"measure-population-exclusion","display":"Measure Population Exclusion"}]},"count":1}],"measureScore":{"value":0.0}}],"evaluatedResource":[{"reference":"Patient/a4f53b12-e0e3-4faf-8e66-6ce8193a6477"},{"reference":"Encounter/af26c3c8-ebee-45cd-a599-77eb418908c5"},{"reference":"ServiceRequest/8f66bb8b-a9ba-48bf-b8eb-f54aacb7ccb0"}]},"request":{"method":"PUT","url":"MeasureReport/dc2190c1-8ea7-45a7-bfb9-cd3eaf355161"}}]},"request":{"method":"PUT","url":"Bundle/HospiceExclu3"}},{"fullUrl":"Patient/a4f53b12-e0e3-4faf-8e66-6ce8193a6477","resource":{"resourceType":"Patient","id":"a4f53b12-e0e3-4faf-8e66-6ce8193a6477","meta":{"profile":["http://hl7.org/fhir/us/qicore/StructureDefinition/qicore-patient"]},"extension":[{"url":"http://hl7.org/fhir/us/core/StructureDefinition/us-core-race","extension":[{"url":"ombCategory","valueCoding":{"system":"urn:oid:2.16.840.1.113883.6.238","code":"2054-5","display":"Black or African American","userSelected":true}},{"url":"text","valueString":"Black"}]},{"url":"http://hl7.org/fhir/us/core/StructureDefinition/us-core-ethnicity","extension":[{"url":"ombCategory","valueCoding":{"system":"urn:oid:2.16.840.1.113883.6.238","code":"2135-2","display":"Hispanic or Latino","userSelected":true}},{"url":"text","valueString":"Hispanic or Latino"}]},{"url":"http://hl7.org/fhir/us/core/StructureDefinition/us-core-sex","valueCode":"248152002"}],"identifier":[{"type":{"coding":[{"system":"http://terminology.hl7.org/CodeSystem/v2-0203","code":"MR"}]},"system":"https://madie.cms.gov/","value":"HospiceExclu3"}],"active":true,"name":[{"use":"usual","text":"HospiceExclu3","family":"IPPFAIL","given":["HospiceExclu3"]}],"gender":"female","birthDate":"1985-01-01","address":[{"text":"HospiceExclu3, Hospice Status, ID=HospiceExclu3, DOB: 01 Jan 1985"}]},"request":{"method":"PUT","url":"Patient/a4f53b12-e0e3-4faf-8e66-6ce8193a6477"}},{"fullUrl":"ServiceRequest/8f66bb8b-a9ba-48bf-b8eb-f54aacb7ccb0","resource":{"resourceType":"ServiceRequest","id":"8f66bb8b-a9ba-48bf-b8eb-f54aacb7ccb0","meta":{"profile":["http://hl7.org/fhir/us/qicore/StructureDefinition/qicore-servicerequest"]},"status":"completed","intent":"order","priority":"routine","code":{"coding":[{"system":"http://snomed.info/sct","code":"385763009","display":"Hospice care (regime/therapy)"}]},"subject":{"reference":"Patient/a4f53b12-e0e3-4faf-8e66-6ce8193a6477"},"authoredOn":"2026-02-04T00:00:00.000+00:00","performerType":{"coding":[{"system":"http://snomed.info/sct","code":"405279007","display":"Attending physician (occupation)"}]}},"request":{"method":"PUT","url":"ServiceRequest/8f66bb8b-a9ba-48bf-b8eb-f54aacb7ccb0"}},{"fullUrl":"Encounter/af26c3c8-ebee-45cd-a599-77eb418908c5","resource":{"resourceType":"Encounter","id":"af26c3c8-ebee-45cd-a599-77eb418908c5","meta":{"profile":["http://hl7.org/fhir/us/qicore/StructureDefinition/qicore-encounter"]},"status":"finished","class":{"system":"http://terminology.hl7.org/CodeSystem/v3-ActCode","code":"IMP","display":"inpatient encounter"},"type":[{"coding":[{"system":"http://snomed.info/sct","code":"183452005"}]}],"subject":{"reference":"Patient/a4f53b12-e0e3-4faf-8e66-6ce8193a6477"},"period":{"start":"2026-02-02T08:00:00.000+00:00","end":"2026-02-22T08:15:00.000+00:00"}},"request":{"method":"PUT","url":"Encounter/af26c3c8-ebee-45cd-a599-77eb418908c5"}},{"fullUrl":"MeasureReport/dc2190c1-8ea7-45a7-bfb9-cd3eaf355161","resource":{"resourceType":"MeasureReport","id":"dc2190c1-8ea7-45a7-bfb9-cd3eaf355161","meta":{"profile":["http://hl7.org/fhir/us/cqfmeasures/StructureDefinition/test-case-cqfm"]},"contained":[{"resourceType":"Parameters","id":"9ba6593c-c6cb-4b0d-9bbb-c58aa8983833-parameters","parameter":[{"name":"subject","valueString":"a4f53b12-e0e3-4faf-8e66-6ce8193a6477"}]}],"extension":[{"url":"http://hl7.org/fhir/StructureDefinition/cqf-inputParameters","valueReference":{"reference":"#9ba6593c-c6cb-4b0d-9bbb-c58aa8983833-parameters"}},{"url":"http://hl7.org/fhir/us/cqfmeasures/StructureDefinition/cqfm-testCaseDescription","valueMarkdown":"Hospice status serviceRequest"}],"modifierExtension":[{"url":"http://hl7.org/fhir/us/cqfmeasures/StructureDefinition/cqfm-isTestCase","valueBoolean":true}],"status":"complete","type":"individual","measure":"https://madie.cms.gov/Measure/CMS986FHIRMalnutritionScore","period":{"start":"2026-01-01","end":"2026-12-31"},"group":[{"id":"Group_1","population":[{"id":"InitialPopulation_1","code":{"coding":[{"system":"http://terminology.hl7.org/CodeSystem/measure-population","code":"initial-population","display":"Initial Population"}]},"count":1},{"id":"MeasurePopulation_1","code":{"coding":[{"system":"http://terminology.hl7.org/CodeSystem/measure-population","code":"measure-population","display":"Measure Population"}]},"count":1},{"id":"MeasurePopulationExclusion_1","code":{"coding":[{"system":"http://terminology.hl7.org/CodeSystem/measure-population","code":"measure-population-exclusion","display":"Measure Population Exclusion"}]},"count":1}],"measureScore":{"value":0.0}},{"id":"Group_2","population":[{"id":"InitialPopulation_2","code":{"coding":[{"system":"http://terminology.hl7.org/CodeSystem/measure-population","code":"initial-population","display":"Initial Population"}]},"count":1},{"id":"MeasurePopulation_2","code":{"coding":[{"system":"http://terminology.hl7.org/CodeSystem/measure-population","code":"measure-population","display":"Measure Population"}]},"count":1},{"id":"MeasurePopulationExclusion_2","code":{"coding":[{"system":"http://terminology.hl7.org/CodeSystem/measure-population","code":"measure-population-exclusion","display":"Measure Population Exclusion"}]},"count":1}],"measureScore":{"value":0.0}},{"id":"Group_3","population":[{"id":"InitialPopulation_3","code":{"coding":[{"system":"http://terminology.hl7.org/CodeSystem/measure-population","code":"initial-population","display":"Initial Population"}]},"count":1},{"id":"MeasurePopulation_3","code":{"coding":[{"system":"http://terminology.hl7.org/CodeSystem/measure-population","code":"measure-population","display":"Measure Population"}]},"count":1},{"id":"MeasurePopulationExclusion_3","code":{"coding":[{"system":"http://terminology.hl7.org/CodeSystem/measure-population","code":"measure-population-exclusion","display":"Measure Population Exclusion"}]},"count":1}],"measureScore":{"value":0.0}},{"id":"Group_4","population":[{"id":"InitialPopulation_4","code":{"coding":[{"system":"http://terminology.hl7.org/CodeSystem/measure-population","code":"initial-population","display":"Initial Population"}]},"count":1},{"id":"MeasurePopulation_4","code":{"coding":[{"system":"http://terminology.hl7.org/CodeSystem/measure-population","code":"measure-population","display":"Measure Population"}]},"count":1},{"id":"MeasurePopulationExclusion_4","code":{"coding":[{"system":"http://terminology.hl7.org/CodeSystem/measure-population","code":"measure-population-exclusion","display":"Measure Population Exclusion"}]},"count":1}],"measureScore":{"value":0.0}},{"id":"Group_5","population":[{"id":"InitialPopulation_5","code":{"coding":[{"system":"http://terminology.hl7.org/CodeSystem/measure-population","code":"initial-population","display":"Initial Population"}]},"count":1},{"id":"MeasurePopulation_5","code":{"coding":[{"system":"http://terminology.hl7.org/CodeSystem/measure-population","code":"measure-population","display":"Measure Population"}]},"count":1},{"id":"MeasurePopulationExclusion_5","code":{"coding":[{"system":"http://terminology.hl7.org/CodeSystem/measure-population","code":"measure-population-exclusion","display":"Measure Population Exclusion"}]},"count":1}],"measureScore":{"value":0.0}},{"id":"Group_6","population":[{"id":"InitialPopulation_6","code":{"coding":[{"system":"http://terminology.hl7.org/CodeSystem/measure-population","code":"initial-population","display":"Initial Population"}]},"count":1},{"id":"MeasurePopulation_6","code":{"coding":[{"system":"http://terminology.hl7.org/CodeSystem/measure-population","code":"measure-population","display":"Measure Population"}]},"count":1},{"id":"MeasurePopulationExclusion_6","code":{"coding":[{"system":"http://terminology.hl7.org/CodeSystem/measure-population","code":"measure-population-exclusion","display":"Measure Population Exclusion"}]},"count":1}],"measureScore":{"value":0.0}}],"evaluatedResource":[{"reference":"Patient/a4f53b12-e0e3-4faf-8e66-6ce8193a6477"},{"reference":"Encounter/af26c3c8-ebee-45cd-a599-77eb418908c5"},{"reference":"ServiceRequest/8f66bb8b-a9ba-48bf-b8eb-f54aacb7ccb0"}]},"request":{"method":"PUT","url":"MeasureReport/dc2190c1-8ea7-45a7-bfb9-cd3eaf355161"}}]}