{"resourceType":"Bundle","id":"tests-78a3078e-68a7-4715-9490-60eaf10111a4-bundle","type":"transaction","entry":[{"fullUrl":"Organization/47a3da5e-af32-40fb-a03c-99f4baebf6c5","resource":{"resourceType":"Organization","id":"47a3da5e-af32-40fb-a03c-99f4baebf6c5","meta":{"profile":["http://hl7.org/fhir/us/qicore/StructureDefinition/qicore-organization"]},"identifier":[{"use":"temp","system":"urn:oid:2.16.840.1.113883.4.4","value":"21-3259825"}],"active":true,"type":[{"coding":[{"system":"http://terminology.hl7.org/CodeSystem/organization-type","code":"pay","display":"Payer"}]}],"name":"Blue Cross Blue Shield of Texas","telecom":[{"system":"phone","value":"(+1) 972-766-6900"}],"address":[{"use":"billing","type":"postal","line":["P.O. Box 660044"],"city":"Dallas","state":"TX","postalCode":"75266-0044","country":"USA"}]},"request":{"method":"PUT","url":"Organization/47a3da5e-af32-40fb-a03c-99f4baebf6c5"}},{"fullUrl":"Encounter/3e975427-3bc9-44f1-bf0b-e7db28eb512b","resource":{"resourceType":"Encounter","id":"3e975427-3bc9-44f1-bf0b-e7db28eb512b","meta":{"profile":["http://hl7.org/fhir/us/qicore/StructureDefinition/qicore-encounter"]},"status":"finished","class":{"system":"http://terminology.hl7.org/CodeSystem/v3-ActCode","code":"OBSENC","display":"observation encounter","userSelected":true},"type":[{"coding":[{"system":"http://snomed.info/sct","code":"448951000124107","display":"Admission to observation unit (procedure)"}]}],"subject":{"reference":"Patient/78a3078e-68a7-4715-9490-60eaf10111a4"},"period":{"start":"2026-01-30T08:00:00.000+00:00","end":"2026-02-01T08:00:00.000+00:00"}},"request":{"method":"PUT","url":"Encounter/3e975427-3bc9-44f1-bf0b-e7db28eb512b"}},{"fullUrl":"Bundle/AllMOsinOBS","resource":{"resourceType":"Bundle","id":"AllMOsinOBS","type":"transaction","entry":[{"fullUrl":"https://madie.cms.gov/Patient/78a3078e-68a7-4715-9490-60eaf10111a4","resource":{"resourceType":"Patient","id":"78a3078e-68a7-4715-9490-60eaf10111a4","meta":{"profile":["http://hl7.org/fhir/us/qicore/StructureDefinition/qicore-patient"]},"text":{"status":"generated","div":"<div xmlns=\"http://www.w3.org/1999/xhtml\"><div class=\"hapiHeaderText\">AllMOsinOBS, , <b> </b></div><table class=\"hapiPropertyTable\"><tbody><tr><td>Identifier</td><td>AllMOsinOBS</td></tr><tr><td>Date of birth</td><td><span>01 Jan 1939</span></td></tr></tbody></table></div>"},"extension":[{"url":"http://hl7.org/fhir/us/core/StructureDefinition/us-core-race","extension":[{"url":"ombCategory","valueCoding":{"system":"urn:oid:2.16.840.1.113883.6.238","code":"2106-3","display":"White","userSelected":true}},{"url":"text","valueString":"White"}]},{"url":"http://hl7.org/fhir/us/core/StructureDefinition/us-core-sex","valueCode":"248153007"},{"url":"http://hl7.org/fhir/us/core/StructureDefinition/us-core-ethnicity","extension":[{"url":"ombCategory","valueCoding":{"system":"urn:oid:2.16.840.1.113883.6.238","code":"2186-5","display":"Not Hispanic or Latino","userSelected":true}},{"url":"text","valueString":"Not Hispanic or Latino"}]}],"identifier":[{"type":{"coding":[{"system":"http://terminology.hl7.org/CodeSystem/v2-0203","code":"MR"}]},"system":"https://madie.cms.gov/","value":"AllMOsinOBS"}],"active":true,"name":[{"use":"usual","text":"AllMOsinOBS","family":"MSROBSPass4","given":["AllMOsinOBS"]}],"gender":"male","birthDate":"1939-01-01","address":[{"text":"AllMOsinOBS, Screened Not at risk Assessed Severely Malnourished Diagnosed Care Plan, ID=AllMOsinOBS, DOB: 01 Jan 1939"}]},"request":{"method":"PUT","url":"Patient/78a3078e-68a7-4715-9490-60eaf10111a4"}},{"fullUrl":"https://madie.cms.gov/Encounter/3f7ec544-b0b0-4e70-b0e5-cfcf3841fea7","resource":{"resourceType":"Encounter","id":"3f7ec544-b0b0-4e70-b0e5-cfcf3841fea7","meta":{"profile":["http://hl7.org/fhir/us/qicore/StructureDefinition/qicore-encounter"]},"status":"finished","class":{"system":"http://terminology.hl7.org/CodeSystem/v3-ActCode","code":"IMP","display":"inpatient encounter","userSelected":true},"type":[{"coding":[{"system":"http://snomed.info/sct","code":"32485007"}]}],"subject":{"reference":"Patient/78a3078e-68a7-4715-9490-60eaf10111a4"},"period":{"start":"2026-02-01T08:00:00.000+00:00","end":"2026-02-03T02:00:00.000+00:00"}},"request":{"method":"PUT","url":"Encounter/3f7ec544-b0b0-4e70-b0e5-cfcf3841fea7"}},{"fullUrl":"https://madie.cms.gov/Encounter/3e975427-3bc9-44f1-bf0b-e7db28eb512b","resource":{"resourceType":"Encounter","id":"3e975427-3bc9-44f1-bf0b-e7db28eb512b","meta":{"profile":["http://hl7.org/fhir/us/qicore/StructureDefinition/qicore-encounter"]},"status":"finished","class":{"system":"http://terminology.hl7.org/CodeSystem/v3-ActCode","code":"OBSENC","display":"observation encounter","userSelected":true},"type":[{"coding":[{"system":"http://snomed.info/sct","code":"448951000124107","display":"Admission to observation unit (procedure)"}]}],"subject":{"reference":"Patient/78a3078e-68a7-4715-9490-60eaf10111a4"},"period":{"start":"2026-01-30T08:00:00.000+00:00","end":"2026-02-01T08:00:00.000+00:00"}},"request":{"method":"PUT","url":"Encounter/3e975427-3bc9-44f1-bf0b-e7db28eb512b"}},{"fullUrl":"https://madie.cms.gov/Condition/38ac29ec-224b-4bcd-807b-2f69d3a2677a","resource":{"resourceType":"Condition","id":"38ac29ec-224b-4bcd-807b-2f69d3a2677a","meta":{"profile":["http://hl7.org/fhir/us/qicore/StructureDefinition/qicore-condition-encounter-diagnosis"]},"clinicalStatus":{"coding":[{"system":"http://terminology.hl7.org/CodeSystem/condition-clinical","code":"active","display":"Active","userSelected":true}]},"verificationStatus":{"coding":[{"system":"http://terminology.hl7.org/CodeSystem/condition-ver-status","code":"confirmed","display":"Confirmed","userSelected":true}]},"category":[{"coding":[{"system":"http://terminology.hl7.org/CodeSystem/condition-category","code":"encounter-diagnosis","display":"Encounter Diagnosis","userSelected":true}]}],"code":{"coding":[{"system":"http://snomed.info/sct","code":"722959000","display":"Anorexia nervosa co-occurrent with dangerously low body weight (disorder)","userSelected":true}]},"subject":{"reference":"Patient/78a3078e-68a7-4715-9490-60eaf10111a4"},"onsetPeriod":{"start":"2026-01-30T08:00:00.000+00:00"},"recordedDate":"2026-01-30T11:00:00.000+00:00"},"request":{"method":"PUT","url":"Condition/38ac29ec-224b-4bcd-807b-2f69d3a2677a"}},{"fullUrl":"https://madie.cms.gov/Observation/0ee591ab-f152-434e-ba68-748a3e531b3e","resource":{"resourceType":"Observation","id":"0ee591ab-f152-434e-ba68-748a3e531b3e","meta":{"profile":["http://hl7.org/fhir/us/qicore/StructureDefinition/qicore-observation-screening-assessment"]},"status":"final","category":[{"coding":[{"system":"http://terminology.hl7.org/CodeSystem/observation-category","code":"survey","display":"Survey"}],"text":"Survey"}],"code":{"coding":[{"system":"http://loinc.org","code":"98967-3","display":"Nutritional Risk Screening 2002 panel","userSelected":true}]},"subject":{"reference":"Patient/78a3078e-68a7-4715-9490-60eaf10111a4"},"effectiveDateTime":"2026-01-31T09:00:00.000+00:00","valueCodeableConcept":{"coding":[{"system":"http://snomed.info/sct","code":"129689002","display":"At increased risk for nutritional problem (finding)","userSelected":true}]}},"request":{"method":"PUT","url":"Observation/0ee591ab-f152-434e-ba68-748a3e531b3e"}},{"fullUrl":"https://madie.cms.gov/Observation/8b84db53-c726-444e-92d5-d14ac89cc3f6","resource":{"resourceType":"Observation","id":"8b84db53-c726-444e-92d5-d14ac89cc3f6","meta":{"profile":["http://hl7.org/fhir/us/qicore/StructureDefinition/qicore-observation-screening-assessment"]},"status":"final","category":[{"coding":[{"system":"http://terminology.hl7.org/CodeSystem/observation-category","code":"survey","display":"Survey"}]}],"code":{"coding":[{"system":"http://loinc.org","code":"101819-1","display":"Nutritional assessment for malnutrition status","userSelected":true}]},"subject":{"reference":"Patient/78a3078e-68a7-4715-9490-60eaf10111a4"},"effectiveDateTime":"2026-01-31T08:00:00.000+00:00","valueCodeableConcept":{"coding":[{"system":"http://snomed.info/sct","code":"788876001","display":"Cachexia due to malignant neoplastic disease (finding)","userSelected":true}]}},"request":{"method":"PUT","url":"Observation/8b84db53-c726-444e-92d5-d14ac89cc3f6"}},{"fullUrl":"https://madie.cms.gov/Procedure/a4a2bb76-c72c-40c7-a8ae-f85165e57b9e","resource":{"resourceType":"Procedure","id":"a4a2bb76-c72c-40c7-a8ae-f85165e57b9e","meta":{"profile":["http://hl7.org/fhir/us/qicore/StructureDefinition/qicore-procedure"]},"extension":[{"url":"http://hl7.org/fhir/us/qicore/StructureDefinition/qicore-recorded","valueDateTime":"2026-01-31T08:00:00.000+00:00"}],"status":"completed","code":{"coding":[{"system":"http://snomed.info/sct","code":"445101000124100","display":"Collaborating in nutrition therapy (procedure)"}],"text":"Collaborating in nutrition therapy (procedure)"},"subject":{"reference":"Patient/78a3078e-68a7-4715-9490-60eaf10111a4"},"encounter":{"reference":"Encounter/AllMOsinOBSMSROBSPass4"},"performedPeriod":{"start":"2026-01-31T08:00:00.000+00:00","end":"2026-01-31T08:15:00.000+00:00"}},"request":{"method":"PUT","url":"Procedure/a4a2bb76-c72c-40c7-a8ae-f85165e57b9e"}},{"fullUrl":"https://madie.cms.gov/Coverage/0ffe1140-1c3e-48a3-877a-0328e56434cd","resource":{"resourceType":"Coverage","id":"0ffe1140-1c3e-48a3-877a-0328e56434cd","meta":{"profile":["http://hl7.org/fhir/us/qicore/StructureDefinition/qicore-coverage"]},"status":"active","type":{"coding":[{"system":"https://nahdo.org/sopt","version":"9.2","code":"11","display":"Medicare Managed Care (Includes Medicare Advantage Plans)"}]},"subscriberId":"AB9876","beneficiary":{"reference":"Patient/78a3078e-68a7-4715-9490-60eaf10111a4"},"relationship":{"coding":[{"system":"http://terminology.hl7.org/CodeSystem/subscriber-relationship","code":"self"}]},"period":{"start":"2024-10-01T00:00:00.000+00:00"},"payor":[{"reference":"Organization/47a3da5e-af32-40fb-a03c-99f4baebf6c5"}]},"request":{"method":"PUT","url":"Coverage/0ffe1140-1c3e-48a3-877a-0328e56434cd"}},{"fullUrl":"https://madie.cms.gov/Organization/47a3da5e-af32-40fb-a03c-99f4baebf6c5","resource":{"resourceType":"Organization","id":"47a3da5e-af32-40fb-a03c-99f4baebf6c5","meta":{"profile":["http://hl7.org/fhir/us/qicore/StructureDefinition/qicore-organization"]},"identifier":[{"use":"temp","system":"urn:oid:2.16.840.1.113883.4.4","value":"21-3259825"}],"active":true,"type":[{"coding":[{"system":"http://terminology.hl7.org/CodeSystem/organization-type","code":"pay","display":"Payer"}]}],"name":"Blue Cross Blue Shield of Texas","telecom":[{"system":"phone","value":"(+1) 972-766-6900"}],"address":[{"use":"billing","type":"postal","line":["P.O. Box 660044"],"city":"Dallas","state":"TX","postalCode":"75266-0044","country":"USA"}]},"request":{"method":"PUT","url":"Organization/47a3da5e-af32-40fb-a03c-99f4baebf6c5"}},{"fullUrl":"https://madie.cms.gov/MeasureReport/e50d7bc9-d4f7-483a-853b-9f421b0ea03d","resource":{"resourceType":"MeasureReport","id":"e50d7bc9-d4f7-483a-853b-9f421b0ea03d","meta":{"profile":["http://hl7.org/fhir/us/cqfmeasures/StructureDefinition/test-case-cqfm"]},"contained":[{"resourceType":"Parameters","id":"d3f6c72c-bd80-4dc7-aaaa-120f0ba0503b-parameters","parameter":[{"name":"subject","valueString":"78a3078e-68a7-4715-9490-60eaf10111a4"}]}],"extension":[{"url":"http://hl7.org/fhir/StructureDefinition/cqf-inputParameters","valueReference":{"reference":"#d3f6c72c-bd80-4dc7-aaaa-120f0ba0503b-parameters"}},{"url":"http://hl7.org/fhir/us/cqfmeasures/StructureDefinition/cqfm-testCaseDescription","valueMarkdown":"All MOs occur in Obs: Screened, At Risk, No Referral, Assessed, Severe Malnutrition, Diagnosis, Nutrition Care Plan\n"}],"modifierExtension":[{"url":"http://hl7.org/fhir/us/cqfmeasures/StructureDefinition/cqfm-isTestCase","valueBoolean":true}],"status":"complete","type":"individual","measure":"https://madie.cms.gov/Measure/CMS986FHIRMalnutritionScore","period":{"start":"2026-01-01","end":"2026-12-31"},"group":[{"id":"Group_1","population":[{"id":"InitialPopulation_1","code":{"coding":[{"system":"http://terminology.hl7.org/CodeSystem/measure-population","code":"initial-population","display":"Initial Population"}]},"count":1},{"id":"MeasurePopulation_1","code":{"coding":[{"system":"http://terminology.hl7.org/CodeSystem/measure-population","code":"measure-population","display":"Measure Population"}]},"count":1},{"id":"MeasurePopulationExclusion_1","code":{"coding":[{"system":"http://terminology.hl7.org/CodeSystem/measure-population","code":"measure-population-exclusion","display":"Measure Population Exclusion"}]},"count":0},{"id":"MeasureObservation_1_1","code":{"coding":[{"system":"http://terminology.hl7.org/CodeSystem/measure-population","code":"measure-population-observation","display":"Measure Population Observation"}]},"count":1}],"measureScore":{"value":0.0}},{"id":"Group_2","population":[{"id":"InitialPopulation_2","code":{"coding":[{"system":"http://terminology.hl7.org/CodeSystem/measure-population","code":"initial-population","display":"Initial Population"}]},"count":1},{"id":"MeasurePopulation_2","code":{"coding":[{"system":"http://terminology.hl7.org/CodeSystem/measure-population","code":"measure-population","display":"Measure Population"}]},"count":1},{"id":"MeasurePopulationExclusion_2","code":{"coding":[{"system":"http://terminology.hl7.org/CodeSystem/measure-population","code":"measure-population-exclusion","display":"Measure Population Exclusion"}]},"count":0},{"id":"MeasureObservation_2_1","code":{"coding":[{"system":"http://terminology.hl7.org/CodeSystem/measure-population","code":"measure-population-observation","display":"Measure Population Observation"}]},"count":1}],"measureScore":{"value":0.0}},{"id":"Group_3","population":[{"id":"InitialPopulation_3","code":{"coding":[{"system":"http://terminology.hl7.org/CodeSystem/measure-population","code":"initial-population","display":"Initial Population"}]},"count":1},{"id":"MeasurePopulation_3","code":{"coding":[{"system":"http://terminology.hl7.org/CodeSystem/measure-population","code":"measure-population","display":"Measure Population"}]},"count":1},{"id":"MeasurePopulationExclusion_3","code":{"coding":[{"system":"http://terminology.hl7.org/CodeSystem/measure-population","code":"measure-population-exclusion","display":"Measure Population Exclusion"}]},"count":0},{"id":"MeasureObservation_3_1","code":{"coding":[{"system":"http://terminology.hl7.org/CodeSystem/measure-population","code":"measure-population-observation","display":"Measure Population Observation"}]},"count":1}],"measureScore":{"value":0.0}},{"id":"Group_4","population":[{"id":"InitialPopulation_4","code":{"coding":[{"system":"http://terminology.hl7.org/CodeSystem/measure-population","code":"initial-population","display":"Initial Population"}]},"count":1},{"id":"MeasurePopulation_4","code":{"coding":[{"system":"http://terminology.hl7.org/CodeSystem/measure-population","code":"measure-population","display":"Measure Population"}]},"count":1},{"id":"MeasurePopulationExclusion_4","code":{"coding":[{"system":"http://terminology.hl7.org/CodeSystem/measure-population","code":"measure-population-exclusion","display":"Measure Population Exclusion"}]},"count":0},{"id":"MeasureObservation_4_1","code":{"coding":[{"system":"http://terminology.hl7.org/CodeSystem/measure-population","code":"measure-population-observation","display":"Measure Population Observation"}]},"count":1}],"measureScore":{"value":0.0}},{"id":"Group_5","population":[{"id":"InitialPopulation_5","code":{"coding":[{"system":"http://terminology.hl7.org/CodeSystem/measure-population","code":"initial-population","display":"Initial Population"}]},"count":1},{"id":"MeasurePopulation_5","code":{"coding":[{"system":"http://terminology.hl7.org/CodeSystem/measure-population","code":"measure-population","display":"Measure Population"}]},"count":1},{"id":"MeasurePopulationExclusion_5","code":{"coding":[{"system":"http://terminology.hl7.org/CodeSystem/measure-population","code":"measure-population-exclusion","display":"Measure Population Exclusion"}]},"count":0},{"id":"MeasureObservation_5_1","code":{"coding":[{"system":"http://terminology.hl7.org/CodeSystem/measure-population","code":"measure-population-observation","display":"Measure Population Observation"}]},"count":4}],"measureScore":{"value":0.0}},{"id":"Group_6","population":[{"id":"InitialPopulation_6","code":{"coding":[{"system":"http://terminology.hl7.org/CodeSystem/measure-population","code":"initial-population","display":"Initial Population"}]},"count":1},{"id":"MeasurePopulation_6","code":{"coding":[{"system":"http://terminology.hl7.org/CodeSystem/measure-population","code":"measure-population","display":"Measure Population"}]},"count":1},{"id":"MeasurePopulationExclusion_6","code":{"coding":[{"system":"http://terminology.hl7.org/CodeSystem/measure-population","code":"measure-population-exclusion","display":"Measure Population Exclusion"}]},"count":0},{"id":"MeasureObservation_6_1","code":{"coding":[{"system":"http://terminology.hl7.org/CodeSystem/measure-population","code":"measure-population-observation","display":"Measure Population Observation"}]},"count":100}],"measureScore":{"value":0.0}}],"evaluatedResource":[{"reference":"Patient/78a3078e-68a7-4715-9490-60eaf10111a4"},{"reference":"Encounter/3f7ec544-b0b0-4e70-b0e5-cfcf3841fea7"},{"reference":"Encounter/3e975427-3bc9-44f1-bf0b-e7db28eb512b"},{"reference":"Condition/38ac29ec-224b-4bcd-807b-2f69d3a2677a"},{"reference":"Observation/0ee591ab-f152-434e-ba68-748a3e531b3e"},{"reference":"Observation/8b84db53-c726-444e-92d5-d14ac89cc3f6"},{"reference":"Procedure/a4a2bb76-c72c-40c7-a8ae-f85165e57b9e"},{"reference":"Coverage/0ffe1140-1c3e-48a3-877a-0328e56434cd"},{"reference":"Organization/47a3da5e-af32-40fb-a03c-99f4baebf6c5"}]},"request":{"method":"PUT","url":"MeasureReport/e50d7bc9-d4f7-483a-853b-9f421b0ea03d"}}]},"request":{"method":"PUT","url":"Bundle/AllMOsinOBS"}},{"fullUrl":"Patient/78a3078e-68a7-4715-9490-60eaf10111a4","resource":{"resourceType":"Patient","id":"78a3078e-68a7-4715-9490-60eaf10111a4","meta":{"profile":["http://hl7.org/fhir/us/qicore/StructureDefinition/qicore-patient"]},"text":{"status":"generated","div":"<div xmlns=\"http://www.w3.org/1999/xhtml\"><div class=\"hapiHeaderText\">AllMOsinOBS, , <b> </b></div><table class=\"hapiPropertyTable\"><tbody><tr><td>Identifier</td><td>AllMOsinOBS</td></tr><tr><td>Date of birth</td><td><span>01 Jan 1939</span></td></tr></tbody></table></div>"},"extension":[{"url":"http://hl7.org/fhir/us/core/StructureDefinition/us-core-race","extension":[{"url":"ombCategory","valueCoding":{"system":"urn:oid:2.16.840.1.113883.6.238","code":"2106-3","display":"White","userSelected":true}},{"url":"text","valueString":"White"}]},{"url":"http://hl7.org/fhir/us/core/StructureDefinition/us-core-sex","valueCode":"248153007"},{"url":"http://hl7.org/fhir/us/core/StructureDefinition/us-core-ethnicity","extension":[{"url":"ombCategory","valueCoding":{"system":"urn:oid:2.16.840.1.113883.6.238","code":"2186-5","display":"Not Hispanic or Latino","userSelected":true}},{"url":"text","valueString":"Not Hispanic or Latino"}]}],"identifier":[{"type":{"coding":[{"system":"http://terminology.hl7.org/CodeSystem/v2-0203","code":"MR"}]},"system":"https://madie.cms.gov/","value":"AllMOsinOBS"}],"active":true,"name":[{"use":"usual","text":"AllMOsinOBS","family":"MSROBSPass4","given":["AllMOsinOBS"]}],"gender":"male","birthDate":"1939-01-01","address":[{"text":"AllMOsinOBS, Screened Not at risk Assessed Severely Malnourished Diagnosed Care Plan, ID=AllMOsinOBS, DOB: 01 Jan 1939"}]},"request":{"method":"PUT","url":"Patient/78a3078e-68a7-4715-9490-60eaf10111a4"}},{"fullUrl":"Observation/0ee591ab-f152-434e-ba68-748a3e531b3e","resource":{"resourceType":"Observation","id":"0ee591ab-f152-434e-ba68-748a3e531b3e","meta":{"profile":["http://hl7.org/fhir/us/qicore/StructureDefinition/qicore-observation-screening-assessment"]},"status":"final","category":[{"coding":[{"system":"http://terminology.hl7.org/CodeSystem/observation-category","code":"survey","display":"Survey"}],"text":"Survey"}],"code":{"coding":[{"system":"http://loinc.org","code":"98967-3","display":"Nutritional Risk Screening 2002 panel","userSelected":true}]},"subject":{"reference":"Patient/78a3078e-68a7-4715-9490-60eaf10111a4"},"effectiveDateTime":"2026-01-31T09:00:00.000+00:00","valueCodeableConcept":{"coding":[{"system":"http://snomed.info/sct","code":"129689002","display":"At increased risk for nutritional problem (finding)","userSelected":true}]}},"request":{"method":"PUT","url":"Observation/0ee591ab-f152-434e-ba68-748a3e531b3e"}},{"fullUrl":"Encounter/3f7ec544-b0b0-4e70-b0e5-cfcf3841fea7","resource":{"resourceType":"Encounter","id":"3f7ec544-b0b0-4e70-b0e5-cfcf3841fea7","meta":{"profile":["http://hl7.org/fhir/us/qicore/StructureDefinition/qicore-encounter"]},"status":"finished","class":{"system":"http://terminology.hl7.org/CodeSystem/v3-ActCode","code":"IMP","display":"inpatient encounter","userSelected":true},"type":[{"coding":[{"system":"http://snomed.info/sct","code":"32485007"}]}],"subject":{"reference":"Patient/78a3078e-68a7-4715-9490-60eaf10111a4"},"period":{"start":"2026-02-01T08:00:00.000+00:00","end":"2026-02-03T02:00:00.000+00:00"}},"request":{"method":"PUT","url":"Encounter/3f7ec544-b0b0-4e70-b0e5-cfcf3841fea7"}},{"fullUrl":"Procedure/a4a2bb76-c72c-40c7-a8ae-f85165e57b9e","resource":{"resourceType":"Procedure","id":"a4a2bb76-c72c-40c7-a8ae-f85165e57b9e","meta":{"profile":["http://hl7.org/fhir/us/qicore/StructureDefinition/qicore-procedure"]},"extension":[{"url":"http://hl7.org/fhir/us/qicore/StructureDefinition/qicore-recorded","valueDateTime":"2026-01-31T08:00:00.000+00:00"}],"status":"completed","code":{"coding":[{"system":"http://snomed.info/sct","code":"445101000124100","display":"Collaborating in nutrition therapy (procedure)"}],"text":"Collaborating in nutrition therapy (procedure)"},"subject":{"reference":"Patient/78a3078e-68a7-4715-9490-60eaf10111a4"},"encounter":{"reference":"Encounter/AllMOsinOBSMSROBSPass4"},"performedPeriod":{"start":"2026-01-31T08:00:00.000+00:00","end":"2026-01-31T08:15:00.000+00:00"}},"request":{"method":"PUT","url":"Procedure/a4a2bb76-c72c-40c7-a8ae-f85165e57b9e"}},{"fullUrl":"Observation/8b84db53-c726-444e-92d5-d14ac89cc3f6","resource":{"resourceType":"Observation","id":"8b84db53-c726-444e-92d5-d14ac89cc3f6","meta":{"profile":["http://hl7.org/fhir/us/qicore/StructureDefinition/qicore-observation-screening-assessment"]},"status":"final","category":[{"coding":[{"system":"http://terminology.hl7.org/CodeSystem/observation-category","code":"survey","display":"Survey"}]}],"code":{"coding":[{"system":"http://loinc.org","code":"101819-1","display":"Nutritional assessment for malnutrition status","userSelected":true}]},"subject":{"reference":"Patient/78a3078e-68a7-4715-9490-60eaf10111a4"},"effectiveDateTime":"2026-01-31T08:00:00.000+00:00","valueCodeableConcept":{"coding":[{"system":"http://snomed.info/sct","code":"788876001","display":"Cachexia due to malignant neoplastic disease (finding)","userSelected":true}]}},"request":{"method":"PUT","url":"Observation/8b84db53-c726-444e-92d5-d14ac89cc3f6"}},{"fullUrl":"Coverage/0ffe1140-1c3e-48a3-877a-0328e56434cd","resource":{"resourceType":"Coverage","id":"0ffe1140-1c3e-48a3-877a-0328e56434cd","meta":{"profile":["http://hl7.org/fhir/us/qicore/StructureDefinition/qicore-coverage"]},"status":"active","type":{"coding":[{"system":"https://nahdo.org/sopt","version":"9.2","code":"11","display":"Medicare Managed Care (Includes Medicare Advantage Plans)"}]},"subscriberId":"AB9876","beneficiary":{"reference":"Patient/78a3078e-68a7-4715-9490-60eaf10111a4"},"relationship":{"coding":[{"system":"http://terminology.hl7.org/CodeSystem/subscriber-relationship","code":"self"}]},"period":{"start":"2024-10-01T00:00:00.000+00:00"},"payor":[{"reference":"Organization/47a3da5e-af32-40fb-a03c-99f4baebf6c5"}]},"request":{"method":"PUT","url":"Coverage/0ffe1140-1c3e-48a3-877a-0328e56434cd"}},{"fullUrl":"Condition/38ac29ec-224b-4bcd-807b-2f69d3a2677a","resource":{"resourceType":"Condition","id":"38ac29ec-224b-4bcd-807b-2f69d3a2677a","meta":{"profile":["http://hl7.org/fhir/us/qicore/StructureDefinition/qicore-condition-encounter-diagnosis"]},"clinicalStatus":{"coding":[{"system":"http://terminology.hl7.org/CodeSystem/condition-clinical","code":"active","display":"Active","userSelected":true}]},"verificationStatus":{"coding":[{"system":"http://terminology.hl7.org/CodeSystem/condition-ver-status","code":"confirmed","display":"Confirmed","userSelected":true}]},"category":[{"coding":[{"system":"http://terminology.hl7.org/CodeSystem/condition-category","code":"encounter-diagnosis","display":"Encounter Diagnosis","userSelected":true}]}],"code":{"coding":[{"system":"http://snomed.info/sct","code":"722959000","display":"Anorexia nervosa co-occurrent with dangerously low body weight (disorder)","userSelected":true}]},"subject":{"reference":"Patient/78a3078e-68a7-4715-9490-60eaf10111a4"},"onsetPeriod":{"start":"2026-01-30T08:00:00.000+00:00"},"recordedDate":"2026-01-30T11:00:00.000+00:00"},"request":{"method":"PUT","url":"Condition/38ac29ec-224b-4bcd-807b-2f69d3a2677a"}},{"fullUrl":"MeasureReport/e50d7bc9-d4f7-483a-853b-9f421b0ea03d","resource":{"resourceType":"MeasureReport","id":"e50d7bc9-d4f7-483a-853b-9f421b0ea03d","meta":{"profile":["http://hl7.org/fhir/us/cqfmeasures/StructureDefinition/test-case-cqfm"]},"contained":[{"resourceType":"Parameters","id":"d3f6c72c-bd80-4dc7-aaaa-120f0ba0503b-parameters","parameter":[{"name":"subject","valueString":"78a3078e-68a7-4715-9490-60eaf10111a4"}]}],"extension":[{"url":"http://hl7.org/fhir/StructureDefinition/cqf-inputParameters","valueReference":{"reference":"#d3f6c72c-bd80-4dc7-aaaa-120f0ba0503b-parameters"}},{"url":"http://hl7.org/fhir/us/cqfmeasures/StructureDefinition/cqfm-testCaseDescription","valueMarkdown":"All MOs occur in Obs: Screened, At Risk, No Referral, Assessed, Severe Malnutrition, Diagnosis, Nutrition Care Plan\n"}],"modifierExtension":[{"url":"http://hl7.org/fhir/us/cqfmeasures/StructureDefinition/cqfm-isTestCase","valueBoolean":true}],"status":"complete","type":"individual","measure":"https://madie.cms.gov/Measure/CMS986FHIRMalnutritionScore","period":{"start":"2026-01-01","end":"2026-12-31"},"group":[{"id":"Group_1","population":[{"id":"InitialPopulation_1","code":{"coding":[{"system":"http://terminology.hl7.org/CodeSystem/measure-population","code":"initial-population","display":"Initial Population"}]},"count":1},{"id":"MeasurePopulation_1","code":{"coding":[{"system":"http://terminology.hl7.org/CodeSystem/measure-population","code":"measure-population","display":"Measure Population"}]},"count":1},{"id":"MeasurePopulationExclusion_1","code":{"coding":[{"system":"http://terminology.hl7.org/CodeSystem/measure-population","code":"measure-population-exclusion","display":"Measure Population Exclusion"}]},"count":0},{"id":"MeasureObservation_1_1","code":{"coding":[{"system":"http://terminology.hl7.org/CodeSystem/measure-population","code":"measure-population-observation","display":"Measure Population Observation"}]},"count":1}],"measureScore":{"value":0.0}},{"id":"Group_2","population":[{"id":"InitialPopulation_2","code":{"coding":[{"system":"http://terminology.hl7.org/CodeSystem/measure-population","code":"initial-population","display":"Initial Population"}]},"count":1},{"id":"MeasurePopulation_2","code":{"coding":[{"system":"http://terminology.hl7.org/CodeSystem/measure-population","code":"measure-population","display":"Measure Population"}]},"count":1},{"id":"MeasurePopulationExclusion_2","code":{"coding":[{"system":"http://terminology.hl7.org/CodeSystem/measure-population","code":"measure-population-exclusion","display":"Measure Population Exclusion"}]},"count":0},{"id":"MeasureObservation_2_1","code":{"coding":[{"system":"http://terminology.hl7.org/CodeSystem/measure-population","code":"measure-population-observation","display":"Measure Population Observation"}]},"count":1}],"measureScore":{"value":0.0}},{"id":"Group_3","population":[{"id":"InitialPopulation_3","code":{"coding":[{"system":"http://terminology.hl7.org/CodeSystem/measure-population","code":"initial-population","display":"Initial Population"}]},"count":1},{"id":"MeasurePopulation_3","code":{"coding":[{"system":"http://terminology.hl7.org/CodeSystem/measure-population","code":"measure-population","display":"Measure Population"}]},"count":1},{"id":"MeasurePopulationExclusion_3","code":{"coding":[{"system":"http://terminology.hl7.org/CodeSystem/measure-population","code":"measure-population-exclusion","display":"Measure Population Exclusion"}]},"count":0},{"id":"MeasureObservation_3_1","code":{"coding":[{"system":"http://terminology.hl7.org/CodeSystem/measure-population","code":"measure-population-observation","display":"Measure Population Observation"}]},"count":1}],"measureScore":{"value":0.0}},{"id":"Group_4","population":[{"id":"InitialPopulation_4","code":{"coding":[{"system":"http://terminology.hl7.org/CodeSystem/measure-population","code":"initial-population","display":"Initial Population"}]},"count":1},{"id":"MeasurePopulation_4","code":{"coding":[{"system":"http://terminology.hl7.org/CodeSystem/measure-population","code":"measure-population","display":"Measure Population"}]},"count":1},{"id":"MeasurePopulationExclusion_4","code":{"coding":[{"system":"http://terminology.hl7.org/CodeSystem/measure-population","code":"measure-population-exclusion","display":"Measure Population Exclusion"}]},"count":0},{"id":"MeasureObservation_4_1","code":{"coding":[{"system":"http://terminology.hl7.org/CodeSystem/measure-population","code":"measure-population-observation","display":"Measure Population Observation"}]},"count":1}],"measureScore":{"value":0.0}},{"id":"Group_5","population":[{"id":"InitialPopulation_5","code":{"coding":[{"system":"http://terminology.hl7.org/CodeSystem/measure-population","code":"initial-population","display":"Initial Population"}]},"count":1},{"id":"MeasurePopulation_5","code":{"coding":[{"system":"http://terminology.hl7.org/CodeSystem/measure-population","code":"measure-population","display":"Measure Population"}]},"count":1},{"id":"MeasurePopulationExclusion_5","code":{"coding":[{"system":"http://terminology.hl7.org/CodeSystem/measure-population","code":"measure-population-exclusion","display":"Measure Population Exclusion"}]},"count":0},{"id":"MeasureObservation_5_1","code":{"coding":[{"system":"http://terminology.hl7.org/CodeSystem/measure-population","code":"measure-population-observation","display":"Measure Population Observation"}]},"count":4}],"measureScore":{"value":0.0}},{"id":"Group_6","population":[{"id":"InitialPopulation_6","code":{"coding":[{"system":"http://terminology.hl7.org/CodeSystem/measure-population","code":"initial-population","display":"Initial Population"}]},"count":1},{"id":"MeasurePopulation_6","code":{"coding":[{"system":"http://terminology.hl7.org/CodeSystem/measure-population","code":"measure-population","display":"Measure Population"}]},"count":1},{"id":"MeasurePopulationExclusion_6","code":{"coding":[{"system":"http://terminology.hl7.org/CodeSystem/measure-population","code":"measure-population-exclusion","display":"Measure Population Exclusion"}]},"count":0},{"id":"MeasureObservation_6_1","code":{"coding":[{"system":"http://terminology.hl7.org/CodeSystem/measure-population","code":"measure-population-observation","display":"Measure Population Observation"}]},"count":100}],"measureScore":{"value":0.0}}],"evaluatedResource":[{"reference":"Patient/78a3078e-68a7-4715-9490-60eaf10111a4"},{"reference":"Encounter/3f7ec544-b0b0-4e70-b0e5-cfcf3841fea7"},{"reference":"Encounter/3e975427-3bc9-44f1-bf0b-e7db28eb512b"},{"reference":"Condition/38ac29ec-224b-4bcd-807b-2f69d3a2677a"},{"reference":"Observation/0ee591ab-f152-434e-ba68-748a3e531b3e"},{"reference":"Observation/8b84db53-c726-444e-92d5-d14ac89cc3f6"},{"reference":"Procedure/a4a2bb76-c72c-40c7-a8ae-f85165e57b9e"},{"reference":"Coverage/0ffe1140-1c3e-48a3-877a-0328e56434cd"},{"reference":"Organization/47a3da5e-af32-40fb-a03c-99f4baebf6c5"}]},"request":{"method":"PUT","url":"MeasureReport/e50d7bc9-d4f7-483a-853b-9f421b0ea03d"}}]}