{"resourceType":"Bundle","id":"tests-bfafadeb-a030-4255-8ee8-207cfed9b7cc-bundle","type":"transaction","entry":[{"fullUrl":"MeasureReport/14ddace0-0d51-4250-99d0-3bcc8d7a7b19","resource":{"resourceType":"MeasureReport","id":"14ddace0-0d51-4250-99d0-3bcc8d7a7b19","meta":{"profile":["http://hl7.org/fhir/us/cqfmeasures/StructureDefinition/test-case-cqfm"]},"contained":[{"resourceType":"Parameters","id":"ea067080-e30f-4e7e-a707-90b043f6b2e8-parameters","parameter":[{"name":"subject","valueString":"bfafadeb-a030-4255-8ee8-207cfed9b7cc"}]}],"extension":[{"url":"http://hl7.org/fhir/StructureDefinition/cqf-inputParameters","valueReference":{"reference":"#ea067080-e30f-4e7e-a707-90b043f6b2e8-parameters"}},{"url":"http://hl7.org/fhir/us/cqfmeasures/StructureDefinition/cqfm-testCaseDescription","valueMarkdown":"Hospice Discharge Disposition"}],"modifierExtension":[{"url":"http://hl7.org/fhir/us/cqfmeasures/StructureDefinition/cqfm-isTestCase","valueBoolean":true}],"status":"complete","type":"individual","measure":"https://madie.cms.gov/Measure/CMS986FHIRMalnutritionScore","period":{"start":"2026-01-01","end":"2026-12-31"},"group":[{"id":"Group_1","population":[{"id":"InitialPopulation_1","code":{"coding":[{"system":"http://terminology.hl7.org/CodeSystem/measure-population","code":"initial-population","display":"Initial Population"}]},"count":1},{"id":"MeasurePopulation_1","code":{"coding":[{"system":"http://terminology.hl7.org/CodeSystem/measure-population","code":"measure-population","display":"Measure Population"}]},"count":1},{"id":"MeasurePopulationExclusion_1","code":{"coding":[{"system":"http://terminology.hl7.org/CodeSystem/measure-population","code":"measure-population-exclusion","display":"Measure Population Exclusion"}]},"count":1}],"measureScore":{"value":0.0}},{"id":"Group_2","population":[{"id":"InitialPopulation_2","code":{"coding":[{"system":"http://terminology.hl7.org/CodeSystem/measure-population","code":"initial-population","display":"Initial Population"}]},"count":1},{"id":"MeasurePopulation_2","code":{"coding":[{"system":"http://terminology.hl7.org/CodeSystem/measure-population","code":"measure-population","display":"Measure Population"}]},"count":1},{"id":"MeasurePopulationExclusion_2","code":{"coding":[{"system":"http://terminology.hl7.org/CodeSystem/measure-population","code":"measure-population-exclusion","display":"Measure Population Exclusion"}]},"count":1}],"measureScore":{"value":0.0}},{"id":"Group_3","population":[{"id":"InitialPopulation_3","code":{"coding":[{"system":"http://terminology.hl7.org/CodeSystem/measure-population","code":"initial-population","display":"Initial Population"}]},"count":1},{"id":"MeasurePopulation_3","code":{"coding":[{"system":"http://terminology.hl7.org/CodeSystem/measure-population","code":"measure-population","display":"Measure Population"}]},"count":1},{"id":"MeasurePopulationExclusion_3","code":{"coding":[{"system":"http://terminology.hl7.org/CodeSystem/measure-population","code":"measure-population-exclusion","display":"Measure Population Exclusion"}]},"count":1}],"measureScore":{"value":0.0}},{"id":"Group_4","population":[{"id":"InitialPopulation_4","code":{"coding":[{"system":"http://terminology.hl7.org/CodeSystem/measure-population","code":"initial-population","display":"Initial Population"}]},"count":1},{"id":"MeasurePopulation_4","code":{"coding":[{"system":"http://terminology.hl7.org/CodeSystem/measure-population","code":"measure-population","display":"Measure Population"}]},"count":1},{"id":"MeasurePopulationExclusion_4","code":{"coding":[{"system":"http://terminology.hl7.org/CodeSystem/measure-population","code":"measure-population-exclusion","display":"Measure Population Exclusion"}]},"count":1}],"measureScore":{"value":0.0}},{"id":"Group_5","population":[{"id":"InitialPopulation_5","code":{"coding":[{"system":"http://terminology.hl7.org/CodeSystem/measure-population","code":"initial-population","display":"Initial Population"}]},"count":1},{"id":"MeasurePopulation_5","code":{"coding":[{"system":"http://terminology.hl7.org/CodeSystem/measure-population","code":"measure-population","display":"Measure Population"}]},"count":1},{"id":"MeasurePopulationExclusion_5","code":{"coding":[{"system":"http://terminology.hl7.org/CodeSystem/measure-population","code":"measure-population-exclusion","display":"Measure Population Exclusion"}]},"count":1}],"measureScore":{"value":0.0}},{"id":"Group_6","population":[{"id":"InitialPopulation_6","code":{"coding":[{"system":"http://terminology.hl7.org/CodeSystem/measure-population","code":"initial-population","display":"Initial Population"}]},"count":1},{"id":"MeasurePopulation_6","code":{"coding":[{"system":"http://terminology.hl7.org/CodeSystem/measure-population","code":"measure-population","display":"Measure Population"}]},"count":1},{"id":"MeasurePopulationExclusion_6","code":{"coding":[{"system":"http://terminology.hl7.org/CodeSystem/measure-population","code":"measure-population-exclusion","display":"Measure Population Exclusion"}]},"count":1}],"measureScore":{"value":0.0}}],"evaluatedResource":[{"reference":"Patient/bfafadeb-a030-4255-8ee8-207cfed9b7cc"},{"reference":"Encounter/133d55cf-a3e4-4cc8-a525-91a3a97c780e"}]},"request":{"method":"PUT","url":"MeasureReport/14ddace0-0d51-4250-99d0-3bcc8d7a7b19"}},{"fullUrl":"Encounter/133d55cf-a3e4-4cc8-a525-91a3a97c780e","resource":{"resourceType":"Encounter","id":"133d55cf-a3e4-4cc8-a525-91a3a97c780e","meta":{"profile":["http://hl7.org/fhir/us/qicore/StructureDefinition/qicore-encounter"]},"status":"finished","class":{"system":"http://terminology.hl7.org/CodeSystem/v3-ActCode","code":"IMP","display":"inpatient encounter","userSelected":true},"type":[{"coding":[{"system":"http://snomed.info/sct","code":"32485007","display":"Hospital admission (procedure)","userSelected":true}]}],"subject":{"reference":"Patient/bfafadeb-a030-4255-8ee8-207cfed9b7cc"},"period":{"start":"2026-05-01T08:00:00.000+00:00","end":"2026-05-10T08:00:00.000+00:00"},"hospitalization":{"dischargeDisposition":{"coding":[{"system":"http://snomed.info/sct","code":"183919006","display":"Urgent admission to hospice (procedure)","userSelected":true}]}}},"request":{"method":"PUT","url":"Encounter/133d55cf-a3e4-4cc8-a525-91a3a97c780e"}},{"fullUrl":"Patient/bfafadeb-a030-4255-8ee8-207cfed9b7cc","resource":{"resourceType":"Patient","id":"bfafadeb-a030-4255-8ee8-207cfed9b7cc","meta":{"profile":["http://hl7.org/fhir/us/qicore/StructureDefinition/qicore-patient"]},"extension":[{"url":"http://hl7.org/fhir/us/core/StructureDefinition/us-core-race","extension":[{"url":"ombCategory","valueCoding":{"system":"urn:oid:2.16.840.1.113883.6.238","code":"2106-3","display":"White","userSelected":true}},{"url":"text","valueString":"White"}]},{"url":"http://hl7.org/fhir/us/core/StructureDefinition/us-core-ethnicity","extension":[{"url":"ombCategory","valueCoding":{"system":"urn:oid:2.16.840.1.113883.6.238","code":"2186-5","display":"Not Hispanic or Latino","userSelected":true}},{"url":"text","valueString":"Hispanic or Latino"}]},{"url":"http://hl7.org/fhir/us/core/StructureDefinition/us-core-sex","valueCode":"248152002"}],"identifier":[{"type":{"coding":[{"system":"http://terminology.hl7.org/CodeSystem/v2-0203","code":"MR"}]},"system":"https://madie.cms.gov/","value":"HospiceDischarge"}],"active":true,"name":[{"use":"usual","text":"HospiceDischarge","family":"DENEXPass","given":["HospiceDischarge"]}],"gender":"female","birthDate":"1955-05-05","address":[{"text":"HospiceDischarge, Discharged to Hospice, ID=HospiceDischarge, DOB: 01 May 1955"}]},"request":{"method":"PUT","url":"Patient/bfafadeb-a030-4255-8ee8-207cfed9b7cc"}},{"fullUrl":"Bundle/HospiceDischarge","resource":{"resourceType":"Bundle","id":"HospiceDischarge","type":"transaction","entry":[{"fullUrl":"https://madie.cms.gov/Patient/bfafadeb-a030-4255-8ee8-207cfed9b7cc","resource":{"resourceType":"Patient","id":"bfafadeb-a030-4255-8ee8-207cfed9b7cc","meta":{"profile":["http://hl7.org/fhir/us/qicore/StructureDefinition/qicore-patient"]},"extension":[{"url":"http://hl7.org/fhir/us/core/StructureDefinition/us-core-race","extension":[{"url":"ombCategory","valueCoding":{"system":"urn:oid:2.16.840.1.113883.6.238","code":"2106-3","display":"White","userSelected":true}},{"url":"text","valueString":"White"}]},{"url":"http://hl7.org/fhir/us/core/StructureDefinition/us-core-ethnicity","extension":[{"url":"ombCategory","valueCoding":{"system":"urn:oid:2.16.840.1.113883.6.238","code":"2186-5","display":"Not Hispanic or Latino","userSelected":true}},{"url":"text","valueString":"Hispanic or Latino"}]},{"url":"http://hl7.org/fhir/us/core/StructureDefinition/us-core-sex","valueCode":"248152002"}],"identifier":[{"type":{"coding":[{"system":"http://terminology.hl7.org/CodeSystem/v2-0203","code":"MR"}]},"system":"https://madie.cms.gov/","value":"HospiceDischarge"}],"active":true,"name":[{"use":"usual","text":"HospiceDischarge","family":"DENEXPass","given":["HospiceDischarge"]}],"gender":"female","birthDate":"1955-05-05","address":[{"text":"HospiceDischarge, Discharged to Hospice, ID=HospiceDischarge, DOB: 01 May 1955"}]},"request":{"method":"PUT","url":"Patient/bfafadeb-a030-4255-8ee8-207cfed9b7cc"}},{"fullUrl":"https://madie.cms.gov/Encounter/133d55cf-a3e4-4cc8-a525-91a3a97c780e","resource":{"resourceType":"Encounter","id":"133d55cf-a3e4-4cc8-a525-91a3a97c780e","meta":{"profile":["http://hl7.org/fhir/us/qicore/StructureDefinition/qicore-encounter"]},"status":"finished","class":{"system":"http://terminology.hl7.org/CodeSystem/v3-ActCode","code":"IMP","display":"inpatient encounter","userSelected":true},"type":[{"coding":[{"system":"http://snomed.info/sct","code":"32485007","display":"Hospital admission (procedure)","userSelected":true}]}],"subject":{"reference":"Patient/bfafadeb-a030-4255-8ee8-207cfed9b7cc"},"period":{"start":"2026-05-01T08:00:00.000+00:00","end":"2026-05-10T08:00:00.000+00:00"},"hospitalization":{"dischargeDisposition":{"coding":[{"system":"http://snomed.info/sct","code":"183919006","display":"Urgent admission to hospice (procedure)","userSelected":true}]}}},"request":{"method":"PUT","url":"Encounter/133d55cf-a3e4-4cc8-a525-91a3a97c780e"}},{"fullUrl":"https://madie.cms.gov/MeasureReport/14ddace0-0d51-4250-99d0-3bcc8d7a7b19","resource":{"resourceType":"MeasureReport","id":"14ddace0-0d51-4250-99d0-3bcc8d7a7b19","meta":{"profile":["http://hl7.org/fhir/us/cqfmeasures/StructureDefinition/test-case-cqfm"]},"contained":[{"resourceType":"Parameters","id":"ea067080-e30f-4e7e-a707-90b043f6b2e8-parameters","parameter":[{"name":"subject","valueString":"bfafadeb-a030-4255-8ee8-207cfed9b7cc"}]}],"extension":[{"url":"http://hl7.org/fhir/StructureDefinition/cqf-inputParameters","valueReference":{"reference":"#ea067080-e30f-4e7e-a707-90b043f6b2e8-parameters"}},{"url":"http://hl7.org/fhir/us/cqfmeasures/StructureDefinition/cqfm-testCaseDescription","valueMarkdown":"Hospice Discharge Disposition"}],"modifierExtension":[{"url":"http://hl7.org/fhir/us/cqfmeasures/StructureDefinition/cqfm-isTestCase","valueBoolean":true}],"status":"complete","type":"individual","measure":"https://madie.cms.gov/Measure/CMS986FHIRMalnutritionScore","period":{"start":"2026-01-01","end":"2026-12-31"},"group":[{"id":"Group_1","population":[{"id":"InitialPopulation_1","code":{"coding":[{"system":"http://terminology.hl7.org/CodeSystem/measure-population","code":"initial-population","display":"Initial Population"}]},"count":1},{"id":"MeasurePopulation_1","code":{"coding":[{"system":"http://terminology.hl7.org/CodeSystem/measure-population","code":"measure-population","display":"Measure Population"}]},"count":1},{"id":"MeasurePopulationExclusion_1","code":{"coding":[{"system":"http://terminology.hl7.org/CodeSystem/measure-population","code":"measure-population-exclusion","display":"Measure Population Exclusion"}]},"count":1}],"measureScore":{"value":0.0}},{"id":"Group_2","population":[{"id":"InitialPopulation_2","code":{"coding":[{"system":"http://terminology.hl7.org/CodeSystem/measure-population","code":"initial-population","display":"Initial Population"}]},"count":1},{"id":"MeasurePopulation_2","code":{"coding":[{"system":"http://terminology.hl7.org/CodeSystem/measure-population","code":"measure-population","display":"Measure Population"}]},"count":1},{"id":"MeasurePopulationExclusion_2","code":{"coding":[{"system":"http://terminology.hl7.org/CodeSystem/measure-population","code":"measure-population-exclusion","display":"Measure Population Exclusion"}]},"count":1}],"measureScore":{"value":0.0}},{"id":"Group_3","population":[{"id":"InitialPopulation_3","code":{"coding":[{"system":"http://terminology.hl7.org/CodeSystem/measure-population","code":"initial-population","display":"Initial Population"}]},"count":1},{"id":"MeasurePopulation_3","code":{"coding":[{"system":"http://terminology.hl7.org/CodeSystem/measure-population","code":"measure-population","display":"Measure Population"}]},"count":1},{"id":"MeasurePopulationExclusion_3","code":{"coding":[{"system":"http://terminology.hl7.org/CodeSystem/measure-population","code":"measure-population-exclusion","display":"Measure Population Exclusion"}]},"count":1}],"measureScore":{"value":0.0}},{"id":"Group_4","population":[{"id":"InitialPopulation_4","code":{"coding":[{"system":"http://terminology.hl7.org/CodeSystem/measure-population","code":"initial-population","display":"Initial Population"}]},"count":1},{"id":"MeasurePopulation_4","code":{"coding":[{"system":"http://terminology.hl7.org/CodeSystem/measure-population","code":"measure-population","display":"Measure Population"}]},"count":1},{"id":"MeasurePopulationExclusion_4","code":{"coding":[{"system":"http://terminology.hl7.org/CodeSystem/measure-population","code":"measure-population-exclusion","display":"Measure Population Exclusion"}]},"count":1}],"measureScore":{"value":0.0}},{"id":"Group_5","population":[{"id":"InitialPopulation_5","code":{"coding":[{"system":"http://terminology.hl7.org/CodeSystem/measure-population","code":"initial-population","display":"Initial Population"}]},"count":1},{"id":"MeasurePopulation_5","code":{"coding":[{"system":"http://terminology.hl7.org/CodeSystem/measure-population","code":"measure-population","display":"Measure Population"}]},"count":1},{"id":"MeasurePopulationExclusion_5","code":{"coding":[{"system":"http://terminology.hl7.org/CodeSystem/measure-population","code":"measure-population-exclusion","display":"Measure Population Exclusion"}]},"count":1}],"measureScore":{"value":0.0}},{"id":"Group_6","population":[{"id":"InitialPopulation_6","code":{"coding":[{"system":"http://terminology.hl7.org/CodeSystem/measure-population","code":"initial-population","display":"Initial Population"}]},"count":1},{"id":"MeasurePopulation_6","code":{"coding":[{"system":"http://terminology.hl7.org/CodeSystem/measure-population","code":"measure-population","display":"Measure Population"}]},"count":1},{"id":"MeasurePopulationExclusion_6","code":{"coding":[{"system":"http://terminology.hl7.org/CodeSystem/measure-population","code":"measure-population-exclusion","display":"Measure Population Exclusion"}]},"count":1}],"measureScore":{"value":0.0}}],"evaluatedResource":[{"reference":"Patient/bfafadeb-a030-4255-8ee8-207cfed9b7cc"},{"reference":"Encounter/133d55cf-a3e4-4cc8-a525-91a3a97c780e"}]},"request":{"method":"PUT","url":"MeasureReport/14ddace0-0d51-4250-99d0-3bcc8d7a7b19"}}]},"request":{"method":"PUT","url":"Bundle/HospiceDischarge"}}]}