{"resourceType":"Bundle","id":"tests-250b2590-8b2a-4fc0-a725-227d9bb7556b-bundle","type":"transaction","entry":[{"fullUrl":"Organization/e37bcb52-d81e-4333-9a84-b3ae26d21bfc","resource":{"resourceType":"Organization","id":"e37bcb52-d81e-4333-9a84-b3ae26d21bfc","meta":{"profile":["http://hl7.org/fhir/us/qicore/StructureDefinition/qicore-organization"]},"identifier":[{"use":"temp","system":"urn:oid:2.16.840.1.113883.4.4","value":"21-3259825"}],"active":true,"type":[{"coding":[{"system":"http://terminology.hl7.org/CodeSystem/organization-type","code":"pay","display":"Payer"}]}],"name":"Blue Cross Blue Shield of Texas","telecom":[{"system":"phone","value":"(+1) 972-766-6900"}],"address":[{"use":"billing","type":"postal","line":["P.O. Box 660044"],"city":"Dallas","state":"TX","postalCode":"75266-0044","country":"USA"}]},"request":{"method":"PUT","url":"Organization/e37bcb52-d81e-4333-9a84-b3ae26d21bfc"}},{"fullUrl":"Procedure/28172cc4-e536-452f-880b-060cddbaf842","resource":{"resourceType":"Procedure","id":"28172cc4-e536-452f-880b-060cddbaf842","meta":{"profile":["http://hl7.org/fhir/us/qicore/StructureDefinition/qicore-procedure"]},"extension":[{"url":"http://hl7.org/fhir/us/qicore/StructureDefinition/qicore-recorded","valueDateTime":"2025-02-02T11:30:00.000+00:00"}],"status":"completed","code":{"coding":[{"system":"http://snomed.info/sct","code":"410172000","display":"Nutrition care management (procedure)"}],"text":"Nutrition care management (procedure)"},"subject":{"reference":"Patient/250b2590-8b2a-4fc0-a725-227d9bb7556b"},"encounter":{"reference":"Encounter/NoscreRefAsseNotmNodxCpMSROBSPass2"},"performedPeriod":{"start":"2026-02-01T11:30:00.000+00:00","end":"2026-02-07T08:15:00.000+00:00"}},"request":{"method":"PUT","url":"Procedure/28172cc4-e536-452f-880b-060cddbaf842"}},{"fullUrl":"Coverage/c94b6a76-ece8-4ba8-aed1-7e1ce2ea4515","resource":{"resourceType":"Coverage","id":"c94b6a76-ece8-4ba8-aed1-7e1ce2ea4515","meta":{"profile":["http://hl7.org/fhir/us/qicore/StructureDefinition/qicore-coverage"]},"status":"active","type":{"coding":[{"system":"https://nahdo.org/sopt","version":"9.2","code":"11","display":"Medicare Managed Care (Includes Medicare Advantage Plans)"}]},"subscriberId":"97531","beneficiary":{"reference":"Patient/250b2590-8b2a-4fc0-a725-227d9bb7556b"},"dependent":"0","relationship":{"coding":[{"system":"http://terminology.hl7.org/CodeSystem/subscriber-relationship","code":"self"}]},"period":{"start":"2025-10-01T00:00:00.000+00:00"},"payor":[{"reference":"Organization/e37bcb52-d81e-4333-9a84-b3ae26d21bfc"}]},"request":{"method":"PUT","url":"Coverage/c94b6a76-ece8-4ba8-aed1-7e1ce2ea4515"}},{"fullUrl":"MeasureReport/a730aec0-14e2-45f2-972b-1b4dec3a1f6c","resource":{"resourceType":"MeasureReport","id":"a730aec0-14e2-45f2-972b-1b4dec3a1f6c","meta":{"profile":["http://hl7.org/fhir/us/cqfmeasures/StructureDefinition/test-case-cqfm"]},"contained":[{"resourceType":"Parameters","id":"21d24c4e-3e1c-4fd4-8cd8-4e4ecc76c1c1-parameters","parameter":[{"name":"subject","valueString":"250b2590-8b2a-4fc0-a725-227d9bb7556b"}]}],"extension":[{"url":"http://hl7.org/fhir/StructureDefinition/cqf-inputParameters","valueReference":{"reference":"#21d24c4e-3e1c-4fd4-8cd8-4e4ecc76c1c1-parameters"}},{"url":"http://hl7.org/fhir/us/cqfmeasures/StructureDefinition/cqfm-testCaseDescription","valueMarkdown":"Not Screened, Referral, Assessed, Not/Mildly Malnourished, No Diagnosis, Nutrition Care Plan"}],"modifierExtension":[{"url":"http://hl7.org/fhir/us/cqfmeasures/StructureDefinition/cqfm-isTestCase","valueBoolean":true}],"status":"complete","type":"individual","measure":"https://madie.cms.gov/Measure/CMS986FHIRMalnutritionScore","period":{"start":"2026-01-01","end":"2026-12-31"},"group":[{"id":"Group_1","population":[{"id":"InitialPopulation_1","code":{"coding":[{"system":"http://terminology.hl7.org/CodeSystem/measure-population","code":"initial-population","display":"Initial Population"}]},"count":1},{"id":"MeasurePopulation_1","code":{"coding":[{"system":"http://terminology.hl7.org/CodeSystem/measure-population","code":"measure-population","display":"Measure Population"}]},"count":1},{"id":"MeasurePopulationExclusion_1","code":{"coding":[{"system":"http://terminology.hl7.org/CodeSystem/measure-population","code":"measure-population-exclusion","display":"Measure Population Exclusion"}]},"count":0},{"id":"MeasureObservation_1_1","code":{"coding":[{"system":"http://terminology.hl7.org/CodeSystem/measure-population","code":"measure-population-observation","display":"Measure Population Observation"}]},"count":1}],"measureScore":{"value":0.0}},{"id":"Group_2","population":[{"id":"InitialPopulation_2","code":{"coding":[{"system":"http://terminology.hl7.org/CodeSystem/measure-population","code":"initial-population","display":"Initial Population"}]},"count":1},{"id":"MeasurePopulation_2","code":{"coding":[{"system":"http://terminology.hl7.org/CodeSystem/measure-population","code":"measure-population","display":"Measure Population"}]},"count":1},{"id":"MeasurePopulationExclusion_2","code":{"coding":[{"system":"http://terminology.hl7.org/CodeSystem/measure-population","code":"measure-population-exclusion","display":"Measure Population Exclusion"}]},"count":0},{"id":"MeasureObservation_2_1","code":{"coding":[{"system":"http://terminology.hl7.org/CodeSystem/measure-population","code":"measure-population-observation","display":"Measure Population Observation"}]},"count":1}],"measureScore":{"value":0.0}},{"id":"Group_3","population":[{"id":"InitialPopulation_3","code":{"coding":[{"system":"http://terminology.hl7.org/CodeSystem/measure-population","code":"initial-population","display":"Initial Population"}]},"count":1},{"id":"MeasurePopulation_3","code":{"coding":[{"system":"http://terminology.hl7.org/CodeSystem/measure-population","code":"measure-population","display":"Measure Population"}]},"count":1},{"id":"MeasurePopulationExclusion_3","code":{"coding":[{"system":"http://terminology.hl7.org/CodeSystem/measure-population","code":"measure-population-exclusion","display":"Measure Population Exclusion"}]},"count":0},{"id":"MeasureObservation_3_1","code":{"coding":[{"system":"http://terminology.hl7.org/CodeSystem/measure-population","code":"measure-population-observation","display":"Measure Population Observation"}]},"count":0}],"measureScore":{"value":0.0}},{"id":"Group_4","population":[{"id":"InitialPopulation_4","code":{"coding":[{"system":"http://terminology.hl7.org/CodeSystem/measure-population","code":"initial-population","display":"Initial Population"}]},"count":1},{"id":"MeasurePopulation_4","code":{"coding":[{"system":"http://terminology.hl7.org/CodeSystem/measure-population","code":"measure-population","display":"Measure Population"}]},"count":1},{"id":"MeasurePopulationExclusion_4","code":{"coding":[{"system":"http://terminology.hl7.org/CodeSystem/measure-population","code":"measure-population-exclusion","display":"Measure Population Exclusion"}]},"count":0},{"id":"MeasureObservation_4_1","code":{"coding":[{"system":"http://terminology.hl7.org/CodeSystem/measure-population","code":"measure-population-observation","display":"Measure Population Observation"}]},"count":0}],"measureScore":{"value":0.0}},{"id":"Group_5","population":[{"id":"InitialPopulation_5","code":{"coding":[{"system":"http://terminology.hl7.org/CodeSystem/measure-population","code":"initial-population","display":"Initial Population"}]},"count":1},{"id":"MeasurePopulation_5","code":{"coding":[{"system":"http://terminology.hl7.org/CodeSystem/measure-population","code":"measure-population","display":"Measure Population"}]},"count":1},{"id":"MeasurePopulationExclusion_5","code":{"coding":[{"system":"http://terminology.hl7.org/CodeSystem/measure-population","code":"measure-population-exclusion","display":"Measure Population Exclusion"}]},"count":0},{"id":"MeasureObservation_5_1","code":{"coding":[{"system":"http://terminology.hl7.org/CodeSystem/measure-population","code":"measure-population-observation","display":"Measure Population Observation"}]},"count":2}],"measureScore":{"value":0.0}},{"id":"Group_6","population":[{"id":"InitialPopulation_6","code":{"coding":[{"system":"http://terminology.hl7.org/CodeSystem/measure-population","code":"initial-population","display":"Initial Population"}]},"count":1},{"id":"MeasurePopulation_6","code":{"coding":[{"system":"http://terminology.hl7.org/CodeSystem/measure-population","code":"measure-population","display":"Measure Population"}]},"count":1},{"id":"MeasurePopulationExclusion_6","code":{"coding":[{"system":"http://terminology.hl7.org/CodeSystem/measure-population","code":"measure-population-exclusion","display":"Measure Population Exclusion"}]},"count":0},{"id":"MeasureObservation_6_1","code":{"coding":[{"system":"http://terminology.hl7.org/CodeSystem/measure-population","code":"measure-population-observation","display":"Measure Population Observation"}]},"count":100}],"measureScore":{"value":0.0}}],"evaluatedResource":[{"reference":"Patient/250b2590-8b2a-4fc0-a725-227d9bb7556b"},{"reference":"Encounter/fc4fdc1c-3d31-41e2-8f1e-58ec38315382"},{"reference":"Observation/21230753-412c-437f-a545-ac4cbb1dc2cc"},{"reference":"Procedure/aead5cb1-d60b-4c02-aa3d-7d97a6c61b87"},{"reference":"Procedure/28172cc4-e536-452f-880b-060cddbaf842"},{"reference":"Coverage/c94b6a76-ece8-4ba8-aed1-7e1ce2ea4515"},{"reference":"Organization/e37bcb52-d81e-4333-9a84-b3ae26d21bfc"}]},"request":{"method":"PUT","url":"MeasureReport/a730aec0-14e2-45f2-972b-1b4dec3a1f6c"}},{"fullUrl":"Procedure/aead5cb1-d60b-4c02-aa3d-7d97a6c61b87","resource":{"resourceType":"Procedure","id":"aead5cb1-d60b-4c02-aa3d-7d97a6c61b87","meta":{"profile":["http://hl7.org/fhir/us/qicore/StructureDefinition/qicore-procedure"]},"extension":[{"url":"http://hl7.org/fhir/us/qicore/StructureDefinition/qicore-recorded","valueDateTime":"2025-02-02T11:30:00.000+00:00"}],"status":"completed","code":{"coding":[{"system":"http://snomed.info/sct","code":"306354000","display":"Referral to hospital-based dietitian (procedure)"}],"text":"Referral to hospital-based dietitian (procedure)"},"subject":{"reference":"Patient/250b2590-8b2a-4fc0-a725-227d9bb7556b"},"encounter":{"reference":"Encounter/NoscreRefAsseNotmNodxCpMSROBSPass2"},"performedPeriod":{"start":"2026-02-02T11:30:00.000+00:00","end":"2026-02-07T08:15:00.000+00:00"}},"request":{"method":"PUT","url":"Procedure/aead5cb1-d60b-4c02-aa3d-7d97a6c61b87"}},{"fullUrl":"Patient/250b2590-8b2a-4fc0-a725-227d9bb7556b","resource":{"resourceType":"Patient","id":"250b2590-8b2a-4fc0-a725-227d9bb7556b","meta":{"profile":["http://hl7.org/fhir/us/qicore/StructureDefinition/qicore-patient"]},"extension":[{"url":"http://hl7.org/fhir/us/core/StructureDefinition/us-core-race","extension":[{"url":"ombCategory","valueCoding":{"system":"urn:oid:2.16.840.1.113883.6.238","code":"2106-3","display":"White","userSelected":true}},{"url":"text","valueString":"White"}]},{"url":"http://hl7.org/fhir/us/core/StructureDefinition/us-core-ethnicity","extension":[{"url":"ombCategory","valueCoding":{"system":"urn:oid:2.16.840.1.113883.6.238","code":"2186-5","display":"Not Hispanic or Latino","userSelected":true}},{"url":"text","valueString":"Not Hispanic or Latino"}]},{"url":"http://hl7.org/fhir/us/core/StructureDefinition/us-core-sex","valueCode":"248153007"}],"identifier":[{"type":{"coding":[{"system":"http://terminology.hl7.org/CodeSystem/v2-0203","code":"MR"}]},"system":"https://madie.cms.gov/","value":"NoscreRefAsseNotmNodxCp"}],"active":true,"name":[{"use":"usual","text":"NoscreRefAsseNotmNodxCp","family":"MSROBSPass2","given":["NoscreRefAsseNotmNodxCp"]}],"gender":"male","birthDate":"1956-01-01","address":[{"text":"NoscreRefAsseNotmNodxCp, Screened Not at risk Assessed Severely Malnourished Diagnosed Care Plan, ID=NoscreRefAsseNotmNodxCp, DOB: 01 Jan 1956"}]},"request":{"method":"PUT","url":"Patient/250b2590-8b2a-4fc0-a725-227d9bb7556b"}},{"fullUrl":"Encounter/fc4fdc1c-3d31-41e2-8f1e-58ec38315382","resource":{"resourceType":"Encounter","id":"fc4fdc1c-3d31-41e2-8f1e-58ec38315382","meta":{"profile":["http://hl7.org/fhir/us/qicore/StructureDefinition/qicore-encounter"]},"status":"finished","class":{"system":"http://terminology.hl7.org/CodeSystem/v3-ActCode","code":"IMP","display":"inpatient encounter"},"type":[{"coding":[{"system":"http://snomed.info/sct","code":"183452005"}]}],"subject":{"reference":"Patient/250b2590-8b2a-4fc0-a725-227d9bb7556b"},"period":{"start":"2026-02-01T08:00:00.000+00:00","end":"2026-02-07T08:15:00.000+00:00"}},"request":{"method":"PUT","url":"Encounter/fc4fdc1c-3d31-41e2-8f1e-58ec38315382"}},{"fullUrl":"Observation/21230753-412c-437f-a545-ac4cbb1dc2cc","resource":{"resourceType":"Observation","id":"21230753-412c-437f-a545-ac4cbb1dc2cc","meta":{"profile":["http://hl7.org/fhir/us/qicore/StructureDefinition/qicore-observation-screening-assessment"]},"status":"final","category":[{"coding":[{"system":"http://terminology.hl7.org/CodeSystem/observation-category","code":"survey","display":"Survey"}]}],"code":{"coding":[{"system":"http://loinc.org","code":"75304-6","display":"Nutrition status observation panel","userSelected":true}]},"subject":{"reference":"Patient/250b2590-8b2a-4fc0-a725-227d9bb7556b"},"effectiveDateTime":"2026-02-01T10:00:00.000+00:00","valueCodeableConcept":{"coding":[{"system":"http://loinc.org","code":"LA33703-2","display":"Mildly malnourished","userSelected":true}]}},"request":{"method":"PUT","url":"Observation/21230753-412c-437f-a545-ac4cbb1dc2cc"}},{"fullUrl":"Bundle/NoscreRefAsseNotmNodxCp","resource":{"resourceType":"Bundle","id":"NoscreRefAsseNotmNodxCp","type":"transaction","entry":[{"fullUrl":"https://madie.cms.gov/Patient/250b2590-8b2a-4fc0-a725-227d9bb7556b","resource":{"resourceType":"Patient","id":"250b2590-8b2a-4fc0-a725-227d9bb7556b","meta":{"profile":["http://hl7.org/fhir/us/qicore/StructureDefinition/qicore-patient"]},"extension":[{"url":"http://hl7.org/fhir/us/core/StructureDefinition/us-core-race","extension":[{"url":"ombCategory","valueCoding":{"system":"urn:oid:2.16.840.1.113883.6.238","code":"2106-3","display":"White","userSelected":true}},{"url":"text","valueString":"White"}]},{"url":"http://hl7.org/fhir/us/core/StructureDefinition/us-core-ethnicity","extension":[{"url":"ombCategory","valueCoding":{"system":"urn:oid:2.16.840.1.113883.6.238","code":"2186-5","display":"Not Hispanic or Latino","userSelected":true}},{"url":"text","valueString":"Not Hispanic or Latino"}]},{"url":"http://hl7.org/fhir/us/core/StructureDefinition/us-core-sex","valueCode":"248153007"}],"identifier":[{"type":{"coding":[{"system":"http://terminology.hl7.org/CodeSystem/v2-0203","code":"MR"}]},"system":"https://madie.cms.gov/","value":"NoscreRefAsseNotmNodxCp"}],"active":true,"name":[{"use":"usual","text":"NoscreRefAsseNotmNodxCp","family":"MSROBSPass2","given":["NoscreRefAsseNotmNodxCp"]}],"gender":"male","birthDate":"1956-01-01","address":[{"text":"NoscreRefAsseNotmNodxCp, Screened Not at risk Assessed Severely Malnourished Diagnosed Care Plan, ID=NoscreRefAsseNotmNodxCp, DOB: 01 Jan 1956"}]},"request":{"method":"PUT","url":"Patient/250b2590-8b2a-4fc0-a725-227d9bb7556b"}},{"fullUrl":"https://madie.cms.gov/Encounter/fc4fdc1c-3d31-41e2-8f1e-58ec38315382","resource":{"resourceType":"Encounter","id":"fc4fdc1c-3d31-41e2-8f1e-58ec38315382","meta":{"profile":["http://hl7.org/fhir/us/qicore/StructureDefinition/qicore-encounter"]},"status":"finished","class":{"system":"http://terminology.hl7.org/CodeSystem/v3-ActCode","code":"IMP","display":"inpatient encounter"},"type":[{"coding":[{"system":"http://snomed.info/sct","code":"183452005"}]}],"subject":{"reference":"Patient/250b2590-8b2a-4fc0-a725-227d9bb7556b"},"period":{"start":"2026-02-01T08:00:00.000+00:00","end":"2026-02-07T08:15:00.000+00:00"}},"request":{"method":"PUT","url":"Encounter/fc4fdc1c-3d31-41e2-8f1e-58ec38315382"}},{"fullUrl":"https://madie.cms.gov/Observation/21230753-412c-437f-a545-ac4cbb1dc2cc","resource":{"resourceType":"Observation","id":"21230753-412c-437f-a545-ac4cbb1dc2cc","meta":{"profile":["http://hl7.org/fhir/us/qicore/StructureDefinition/qicore-observation-screening-assessment"]},"status":"final","category":[{"coding":[{"system":"http://terminology.hl7.org/CodeSystem/observation-category","code":"survey","display":"Survey"}]}],"code":{"coding":[{"system":"http://loinc.org","code":"75304-6","display":"Nutrition status observation panel","userSelected":true}]},"subject":{"reference":"Patient/250b2590-8b2a-4fc0-a725-227d9bb7556b"},"effectiveDateTime":"2026-02-01T10:00:00.000+00:00","valueCodeableConcept":{"coding":[{"system":"http://loinc.org","code":"LA33703-2","display":"Mildly malnourished","userSelected":true}]}},"request":{"method":"PUT","url":"Observation/21230753-412c-437f-a545-ac4cbb1dc2cc"}},{"fullUrl":"https://madie.cms.gov/Procedure/aead5cb1-d60b-4c02-aa3d-7d97a6c61b87","resource":{"resourceType":"Procedure","id":"aead5cb1-d60b-4c02-aa3d-7d97a6c61b87","meta":{"profile":["http://hl7.org/fhir/us/qicore/StructureDefinition/qicore-procedure"]},"extension":[{"url":"http://hl7.org/fhir/us/qicore/StructureDefinition/qicore-recorded","valueDateTime":"2025-02-02T11:30:00.000+00:00"}],"status":"completed","code":{"coding":[{"system":"http://snomed.info/sct","code":"306354000","display":"Referral to hospital-based dietitian (procedure)"}],"text":"Referral to hospital-based dietitian (procedure)"},"subject":{"reference":"Patient/250b2590-8b2a-4fc0-a725-227d9bb7556b"},"encounter":{"reference":"Encounter/NoscreRefAsseNotmNodxCpMSROBSPass2"},"performedPeriod":{"start":"2026-02-02T11:30:00.000+00:00","end":"2026-02-07T08:15:00.000+00:00"}},"request":{"method":"PUT","url":"Procedure/aead5cb1-d60b-4c02-aa3d-7d97a6c61b87"}},{"fullUrl":"https://madie.cms.gov/Procedure/28172cc4-e536-452f-880b-060cddbaf842","resource":{"resourceType":"Procedure","id":"28172cc4-e536-452f-880b-060cddbaf842","meta":{"profile":["http://hl7.org/fhir/us/qicore/StructureDefinition/qicore-procedure"]},"extension":[{"url":"http://hl7.org/fhir/us/qicore/StructureDefinition/qicore-recorded","valueDateTime":"2025-02-02T11:30:00.000+00:00"}],"status":"completed","code":{"coding":[{"system":"http://snomed.info/sct","code":"410172000","display":"Nutrition care management (procedure)"}],"text":"Nutrition care management (procedure)"},"subject":{"reference":"Patient/250b2590-8b2a-4fc0-a725-227d9bb7556b"},"encounter":{"reference":"Encounter/NoscreRefAsseNotmNodxCpMSROBSPass2"},"performedPeriod":{"start":"2026-02-01T11:30:00.000+00:00","end":"2026-02-07T08:15:00.000+00:00"}},"request":{"method":"PUT","url":"Procedure/28172cc4-e536-452f-880b-060cddbaf842"}},{"fullUrl":"https://madie.cms.gov/Coverage/c94b6a76-ece8-4ba8-aed1-7e1ce2ea4515","resource":{"resourceType":"Coverage","id":"c94b6a76-ece8-4ba8-aed1-7e1ce2ea4515","meta":{"profile":["http://hl7.org/fhir/us/qicore/StructureDefinition/qicore-coverage"]},"status":"active","type":{"coding":[{"system":"https://nahdo.org/sopt","version":"9.2","code":"11","display":"Medicare Managed Care (Includes Medicare Advantage Plans)"}]},"subscriberId":"97531","beneficiary":{"reference":"Patient/250b2590-8b2a-4fc0-a725-227d9bb7556b"},"dependent":"0","relationship":{"coding":[{"system":"http://terminology.hl7.org/CodeSystem/subscriber-relationship","code":"self"}]},"period":{"start":"2025-10-01T00:00:00.000+00:00"},"payor":[{"reference":"Organization/e37bcb52-d81e-4333-9a84-b3ae26d21bfc"}]},"request":{"method":"PUT","url":"Coverage/c94b6a76-ece8-4ba8-aed1-7e1ce2ea4515"}},{"fullUrl":"https://madie.cms.gov/Organization/e37bcb52-d81e-4333-9a84-b3ae26d21bfc","resource":{"resourceType":"Organization","id":"e37bcb52-d81e-4333-9a84-b3ae26d21bfc","meta":{"profile":["http://hl7.org/fhir/us/qicore/StructureDefinition/qicore-organization"]},"identifier":[{"use":"temp","system":"urn:oid:2.16.840.1.113883.4.4","value":"21-3259825"}],"active":true,"type":[{"coding":[{"system":"http://terminology.hl7.org/CodeSystem/organization-type","code":"pay","display":"Payer"}]}],"name":"Blue Cross Blue Shield of Texas","telecom":[{"system":"phone","value":"(+1) 972-766-6900"}],"address":[{"use":"billing","type":"postal","line":["P.O. Box 660044"],"city":"Dallas","state":"TX","postalCode":"75266-0044","country":"USA"}]},"request":{"method":"PUT","url":"Organization/e37bcb52-d81e-4333-9a84-b3ae26d21bfc"}},{"fullUrl":"https://madie.cms.gov/MeasureReport/a730aec0-14e2-45f2-972b-1b4dec3a1f6c","resource":{"resourceType":"MeasureReport","id":"a730aec0-14e2-45f2-972b-1b4dec3a1f6c","meta":{"profile":["http://hl7.org/fhir/us/cqfmeasures/StructureDefinition/test-case-cqfm"]},"contained":[{"resourceType":"Parameters","id":"21d24c4e-3e1c-4fd4-8cd8-4e4ecc76c1c1-parameters","parameter":[{"name":"subject","valueString":"250b2590-8b2a-4fc0-a725-227d9bb7556b"}]}],"extension":[{"url":"http://hl7.org/fhir/StructureDefinition/cqf-inputParameters","valueReference":{"reference":"#21d24c4e-3e1c-4fd4-8cd8-4e4ecc76c1c1-parameters"}},{"url":"http://hl7.org/fhir/us/cqfmeasures/StructureDefinition/cqfm-testCaseDescription","valueMarkdown":"Not Screened, Referral, Assessed, Not/Mildly Malnourished, No Diagnosis, Nutrition Care Plan"}],"modifierExtension":[{"url":"http://hl7.org/fhir/us/cqfmeasures/StructureDefinition/cqfm-isTestCase","valueBoolean":true}],"status":"complete","type":"individual","measure":"https://madie.cms.gov/Measure/CMS986FHIRMalnutritionScore","period":{"start":"2026-01-01","end":"2026-12-31"},"group":[{"id":"Group_1","population":[{"id":"InitialPopulation_1","code":{"coding":[{"system":"http://terminology.hl7.org/CodeSystem/measure-population","code":"initial-population","display":"Initial Population"}]},"count":1},{"id":"MeasurePopulation_1","code":{"coding":[{"system":"http://terminology.hl7.org/CodeSystem/measure-population","code":"measure-population","display":"Measure Population"}]},"count":1},{"id":"MeasurePopulationExclusion_1","code":{"coding":[{"system":"http://terminology.hl7.org/CodeSystem/measure-population","code":"measure-population-exclusion","display":"Measure Population Exclusion"}]},"count":0},{"id":"MeasureObservation_1_1","code":{"coding":[{"system":"http://terminology.hl7.org/CodeSystem/measure-population","code":"measure-population-observation","display":"Measure Population Observation"}]},"count":1}],"measureScore":{"value":0.0}},{"id":"Group_2","population":[{"id":"InitialPopulation_2","code":{"coding":[{"system":"http://terminology.hl7.org/CodeSystem/measure-population","code":"initial-population","display":"Initial Population"}]},"count":1},{"id":"MeasurePopulation_2","code":{"coding":[{"system":"http://terminology.hl7.org/CodeSystem/measure-population","code":"measure-population","display":"Measure Population"}]},"count":1},{"id":"MeasurePopulationExclusion_2","code":{"coding":[{"system":"http://terminology.hl7.org/CodeSystem/measure-population","code":"measure-population-exclusion","display":"Measure Population Exclusion"}]},"count":0},{"id":"MeasureObservation_2_1","code":{"coding":[{"system":"http://terminology.hl7.org/CodeSystem/measure-population","code":"measure-population-observation","display":"Measure Population Observation"}]},"count":1}],"measureScore":{"value":0.0}},{"id":"Group_3","population":[{"id":"InitialPopulation_3","code":{"coding":[{"system":"http://terminology.hl7.org/CodeSystem/measure-population","code":"initial-population","display":"Initial Population"}]},"count":1},{"id":"MeasurePopulation_3","code":{"coding":[{"system":"http://terminology.hl7.org/CodeSystem/measure-population","code":"measure-population","display":"Measure Population"}]},"count":1},{"id":"MeasurePopulationExclusion_3","code":{"coding":[{"system":"http://terminology.hl7.org/CodeSystem/measure-population","code":"measure-population-exclusion","display":"Measure Population Exclusion"}]},"count":0},{"id":"MeasureObservation_3_1","code":{"coding":[{"system":"http://terminology.hl7.org/CodeSystem/measure-population","code":"measure-population-observation","display":"Measure Population Observation"}]},"count":0}],"measureScore":{"value":0.0}},{"id":"Group_4","population":[{"id":"InitialPopulation_4","code":{"coding":[{"system":"http://terminology.hl7.org/CodeSystem/measure-population","code":"initial-population","display":"Initial Population"}]},"count":1},{"id":"MeasurePopulation_4","code":{"coding":[{"system":"http://terminology.hl7.org/CodeSystem/measure-population","code":"measure-population","display":"Measure Population"}]},"count":1},{"id":"MeasurePopulationExclusion_4","code":{"coding":[{"system":"http://terminology.hl7.org/CodeSystem/measure-population","code":"measure-population-exclusion","display":"Measure Population Exclusion"}]},"count":0},{"id":"MeasureObservation_4_1","code":{"coding":[{"system":"http://terminology.hl7.org/CodeSystem/measure-population","code":"measure-population-observation","display":"Measure Population Observation"}]},"count":0}],"measureScore":{"value":0.0}},{"id":"Group_5","population":[{"id":"InitialPopulation_5","code":{"coding":[{"system":"http://terminology.hl7.org/CodeSystem/measure-population","code":"initial-population","display":"Initial Population"}]},"count":1},{"id":"MeasurePopulation_5","code":{"coding":[{"system":"http://terminology.hl7.org/CodeSystem/measure-population","code":"measure-population","display":"Measure Population"}]},"count":1},{"id":"MeasurePopulationExclusion_5","code":{"coding":[{"system":"http://terminology.hl7.org/CodeSystem/measure-population","code":"measure-population-exclusion","display":"Measure Population Exclusion"}]},"count":0},{"id":"MeasureObservation_5_1","code":{"coding":[{"system":"http://terminology.hl7.org/CodeSystem/measure-population","code":"measure-population-observation","display":"Measure Population Observation"}]},"count":2}],"measureScore":{"value":0.0}},{"id":"Group_6","population":[{"id":"InitialPopulation_6","code":{"coding":[{"system":"http://terminology.hl7.org/CodeSystem/measure-population","code":"initial-population","display":"Initial Population"}]},"count":1},{"id":"MeasurePopulation_6","code":{"coding":[{"system":"http://terminology.hl7.org/CodeSystem/measure-population","code":"measure-population","display":"Measure Population"}]},"count":1},{"id":"MeasurePopulationExclusion_6","code":{"coding":[{"system":"http://terminology.hl7.org/CodeSystem/measure-population","code":"measure-population-exclusion","display":"Measure Population Exclusion"}]},"count":0},{"id":"MeasureObservation_6_1","code":{"coding":[{"system":"http://terminology.hl7.org/CodeSystem/measure-population","code":"measure-population-observation","display":"Measure Population Observation"}]},"count":100}],"measureScore":{"value":0.0}}],"evaluatedResource":[{"reference":"Patient/250b2590-8b2a-4fc0-a725-227d9bb7556b"},{"reference":"Encounter/fc4fdc1c-3d31-41e2-8f1e-58ec38315382"},{"reference":"Observation/21230753-412c-437f-a545-ac4cbb1dc2cc"},{"reference":"Procedure/aead5cb1-d60b-4c02-aa3d-7d97a6c61b87"},{"reference":"Procedure/28172cc4-e536-452f-880b-060cddbaf842"},{"reference":"Coverage/c94b6a76-ece8-4ba8-aed1-7e1ce2ea4515"},{"reference":"Organization/e37bcb52-d81e-4333-9a84-b3ae26d21bfc"}]},"request":{"method":"PUT","url":"MeasureReport/a730aec0-14e2-45f2-972b-1b4dec3a1f6c"}}]},"request":{"method":"PUT","url":"Bundle/NoscreRefAsseNotmNodxCp"}}]}