{"resourceType":"Bundle","id":"tests-9fe3ca47-1605-4187-93a0-be6618160cc7-bundle","type":"transaction","entry":[{"fullUrl":"Encounter/bc4fd230-59f3-42bc-b26c-2a1c01daa291","resource":{"resourceType":"Encounter","id":"bc4fd230-59f3-42bc-b26c-2a1c01daa291","meta":{"profile":["http://hl7.org/fhir/us/qicore/StructureDefinition/qicore-encounter"]},"status":"finished","class":{"system":"http://terminology.hl7.org/CodeSystem/v3-ActCode","code":"IMP","display":"inpatient encounter"},"type":[{"coding":[{"system":"http://snomed.info/sct","code":"183452005"}]}],"subject":{"reference":"Patient/9fe3ca47-1605-4187-93a0-be6618160cc7"},"period":{"start":"2026-01-16T08:00:00Z","end":"2026-01-19T08:15:00Z"}},"request":{"method":"PUT","url":"Encounter/bc4fd230-59f3-42bc-b26c-2a1c01daa291"}},{"fullUrl":"Patient/9fe3ca47-1605-4187-93a0-be6618160cc7","resource":{"resourceType":"Patient","id":"9fe3ca47-1605-4187-93a0-be6618160cc7","meta":{"profile":["http://hl7.org/fhir/us/qicore/StructureDefinition/qicore-patient"]},"extension":[{"url":"http://hl7.org/fhir/us/core/StructureDefinition/us-core-race","extension":[{"url":"ombCategory","valueCoding":{"system":"urn:oid:2.16.840.1.113883.6.238","code":"2054-5","display":"Black or African American","userSelected":true}},{"url":"text","valueString":"Black or African American"}]},{"url":"http://hl7.org/fhir/us/core/StructureDefinition/us-core-ethnicity","extension":[{"url":"ombCategory","valueCoding":{"system":"urn:oid:2.16.840.1.113883.6.238","code":"2186-5","display":"Not Hispanic or Latino","userSelected":true}},{"url":"text","valueString":"Not Hispanic or Latino"}]},{"url":"http://hl7.org/fhir/us/core/StructureDefinition/us-core-sex","valueCode":"248153007"}],"identifier":[{"type":{"coding":[{"system":"http://terminology.hl7.org/CodeSystem/v2-0203","code":"MR"}]},"system":"https://madie.cms.gov/","value":"ScreNotatriRefAsseNORESULT"}],"active":true,"name":[{"use":"usual","text":"ScreNotatriRefAsseNORESULT","family":"MSROBSPass4","given":["ScreNotatriRefAsseNORESULT"]}],"gender":"male","birthDate":"1954-03-24","address":[{"text":"ScreNotatriRefAsseNORESULT, Screened Not at risk Assessed Severely Malnourished Diagnosed Care Plan, ID=ScreNotatriRefAsseNotmDxCp, DOB: 24 Mar 1954"}]},"request":{"method":"PUT","url":"Patient/9fe3ca47-1605-4187-93a0-be6618160cc7"}},{"fullUrl":"Observation/35d5fa7a-449c-4e56-bdb7-62c1ebd9ec1a","resource":{"resourceType":"Observation","id":"35d5fa7a-449c-4e56-bdb7-62c1ebd9ec1a","meta":{"profile":["http://hl7.org/fhir/us/qicore/StructureDefinition/qicore-observation-screening-assessment"]},"status":"final","category":[{"coding":[{"system":"http://terminology.hl7.org/CodeSystem/observation-category","code":"survey","display":"Survey"}]}],"code":{"coding":[{"system":"http://loinc.org","code":"101807-6","display":"Malnutrition risk screen results indicator","userSelected":true}]},"subject":{"reference":"Patient/9fe3ca47-1605-4187-93a0-be6618160cc7"},"effectiveDateTime":"2026-01-18T09:00:00Z","valueCodeableConcept":{"coding":[{"system":"http://loinc.org","code":"LA33699-2","display":"Not at risk for malnutrition","userSelected":true}]}},"request":{"method":"PUT","url":"Observation/35d5fa7a-449c-4e56-bdb7-62c1ebd9ec1a"}},{"fullUrl":"Observation/3cbceeed-2ca7-49a1-bd40-1129cb52f6d7","resource":{"resourceType":"Observation","id":"3cbceeed-2ca7-49a1-bd40-1129cb52f6d7","meta":{"profile":["http://hl7.org/fhir/us/qicore/StructureDefinition/qicore-observation-screening-assessment"]},"status":"final","category":[{"coding":[{"system":"http://terminology.hl7.org/CodeSystem/observation-category","code":"survey","display":"Survey"}]}],"code":{"coding":[{"system":"http://loinc.org","code":"101819-1","display":"Nutritional assessment for malnutrition status","userSelected":true}]},"subject":{"reference":"Patient/9fe3ca47-1605-4187-93a0-be6618160cc7"},"effectiveDateTime":"2026-01-18T10:00:00Z","dataAbsentReason":{"coding":[{"code":"unknown"}]}},"request":{"method":"PUT","url":"Observation/3cbceeed-2ca7-49a1-bd40-1129cb52f6d7"}},{"fullUrl":"MeasureReport/41cbdfd2-0eec-46cf-a663-3174387d1fb4","resource":{"resourceType":"MeasureReport","id":"41cbdfd2-0eec-46cf-a663-3174387d1fb4","meta":{"profile":["http://hl7.org/fhir/us/cqfmeasures/StructureDefinition/test-case-cqfm"]},"contained":[{"resourceType":"Parameters","id":"818f18f5-d2eb-4848-80cf-41e667e20daf-parameters","parameter":[{"name":"subject","valueString":"9fe3ca47-1605-4187-93a0-be6618160cc7"}]}],"extension":[{"url":"http://hl7.org/fhir/StructureDefinition/cqf-inputParameters","valueReference":{"reference":"#818f18f5-d2eb-4848-80cf-41e667e20daf-parameters"}},{"url":"http://hl7.org/fhir/us/cqfmeasures/StructureDefinition/cqfm-testCaseDescription","valueMarkdown":"Screened, Not at Risk, Referral, Assessed, No Assessment Result\n\n"}],"modifierExtension":[{"url":"http://hl7.org/fhir/us/cqfmeasures/StructureDefinition/cqfm-isTestCase","valueBoolean":true}],"status":"complete","type":"individual","measure":"https://madie.cms.gov/Measure/CMS986FHIRMalnutritionScore","period":{"start":"2026-01-01","end":"2026-12-31"},"group":[{"id":"Group_1","population":[{"id":"InitialPopulation_1","code":{"coding":[{"system":"http://terminology.hl7.org/CodeSystem/measure-population","code":"initial-population","display":"Initial Population"}]},"count":1},{"id":"MeasurePopulation_1","code":{"coding":[{"system":"http://terminology.hl7.org/CodeSystem/measure-population","code":"measure-population","display":"Measure Population"}]},"count":1},{"id":"MeasurePopulationExclusion_1","code":{"coding":[{"system":"http://terminology.hl7.org/CodeSystem/measure-population","code":"measure-population-exclusion","display":"Measure Population Exclusion"}]},"count":0},{"id":"MeasureObservation_1_1","code":{"coding":[{"system":"http://terminology.hl7.org/CodeSystem/measure-population","code":"measure-population-observation","display":"Measure Population Observation"}]},"count":1}],"measureScore":{"value":0.0}},{"id":"Group_2","population":[{"id":"InitialPopulation_2","code":{"coding":[{"system":"http://terminology.hl7.org/CodeSystem/measure-population","code":"initial-population","display":"Initial Population"}]},"count":1},{"id":"MeasurePopulation_2","code":{"coding":[{"system":"http://terminology.hl7.org/CodeSystem/measure-population","code":"measure-population","display":"Measure Population"}]},"count":1},{"id":"MeasurePopulationExclusion_2","code":{"coding":[{"system":"http://terminology.hl7.org/CodeSystem/measure-population","code":"measure-population-exclusion","display":"Measure Population Exclusion"}]},"count":0},{"id":"MeasureObservation_2_1","code":{"coding":[{"system":"http://terminology.hl7.org/CodeSystem/measure-population","code":"measure-population-observation","display":"Measure Population Observation"}]},"count":0}],"measureScore":{"value":0.0}},{"id":"Group_3","population":[{"id":"InitialPopulation_3","code":{"coding":[{"system":"http://terminology.hl7.org/CodeSystem/measure-population","code":"initial-population","display":"Initial Population"}]},"count":1},{"id":"MeasurePopulation_3","code":{"coding":[{"system":"http://terminology.hl7.org/CodeSystem/measure-population","code":"measure-population","display":"Measure Population"}]},"count":1},{"id":"MeasurePopulationExclusion_3","code":{"coding":[{"system":"http://terminology.hl7.org/CodeSystem/measure-population","code":"measure-population-exclusion","display":"Measure Population Exclusion"}]},"count":0},{"id":"MeasureObservation_3_1","code":{"coding":[{"system":"http://terminology.hl7.org/CodeSystem/measure-population","code":"measure-population-observation","display":"Measure Population Observation"}]},"count":0}],"measureScore":{"value":0.0}},{"id":"Group_4","population":[{"id":"InitialPopulation_4","code":{"coding":[{"system":"http://terminology.hl7.org/CodeSystem/measure-population","code":"initial-population","display":"Initial Population"}]},"count":1},{"id":"MeasurePopulation_4","code":{"coding":[{"system":"http://terminology.hl7.org/CodeSystem/measure-population","code":"measure-population","display":"Measure Population"}]},"count":1},{"id":"MeasurePopulationExclusion_4","code":{"coding":[{"system":"http://terminology.hl7.org/CodeSystem/measure-population","code":"measure-population-exclusion","display":"Measure Population Exclusion"}]},"count":0},{"id":"MeasureObservation_4_1","code":{"coding":[{"system":"http://terminology.hl7.org/CodeSystem/measure-population","code":"measure-population-observation","display":"Measure Population Observation"}]},"count":0}],"measureScore":{"value":0.0}},{"id":"Group_5","population":[{"id":"InitialPopulation_5","code":{"coding":[{"system":"http://terminology.hl7.org/CodeSystem/measure-population","code":"initial-population","display":"Initial Population"}]},"count":1},{"id":"MeasurePopulation_5","code":{"coding":[{"system":"http://terminology.hl7.org/CodeSystem/measure-population","code":"measure-population","display":"Measure Population"}]},"count":1},{"id":"MeasurePopulationExclusion_5","code":{"coding":[{"system":"http://terminology.hl7.org/CodeSystem/measure-population","code":"measure-population-exclusion","display":"Measure Population Exclusion"}]},"count":0},{"id":"MeasureObservation_5_1","code":{"coding":[{"system":"http://terminology.hl7.org/CodeSystem/measure-population","code":"measure-population-observation","display":"Measure Population Observation"}]},"count":1}],"measureScore":{"value":0.0}},{"id":"Group_6","population":[{"id":"InitialPopulation_6","code":{"coding":[{"system":"http://terminology.hl7.org/CodeSystem/measure-population","code":"initial-population","display":"Initial Population"}]},"count":1},{"id":"MeasurePopulation_6","code":{"coding":[{"system":"http://terminology.hl7.org/CodeSystem/measure-population","code":"measure-population","display":"Measure Population"}]},"count":1},{"id":"MeasurePopulationExclusion_6","code":{"coding":[{"system":"http://terminology.hl7.org/CodeSystem/measure-population","code":"measure-population-exclusion","display":"Measure Population Exclusion"}]},"count":0},{"id":"MeasureObservation_6_1","code":{"coding":[{"system":"http://terminology.hl7.org/CodeSystem/measure-population","code":"measure-population-observation","display":"Measure Population Observation"}]},"count":50}],"measureScore":{"value":0.0}}],"evaluatedResource":[{"reference":"Patient/9fe3ca47-1605-4187-93a0-be6618160cc7"},{"reference":"Encounter/bc4fd230-59f3-42bc-b26c-2a1c01daa291"},{"reference":"Observation/35d5fa7a-449c-4e56-bdb7-62c1ebd9ec1a"},{"reference":"Observation/3cbceeed-2ca7-49a1-bd40-1129cb52f6d7"},{"reference":"ServiceRequest/3e47c2a4-e094-4c44-9101-c83637ebe4cd"},{"reference":"Coverage/a528eefd-592f-4da8-ac44-8806b98a0f30"},{"reference":"Organization/0022f404-ef92-4ab6-98ba-a2a44f17702e"}]},"request":{"method":"PUT","url":"MeasureReport/41cbdfd2-0eec-46cf-a663-3174387d1fb4"}},{"fullUrl":"ServiceRequest/3e47c2a4-e094-4c44-9101-c83637ebe4cd","resource":{"resourceType":"ServiceRequest","id":"3e47c2a4-e094-4c44-9101-c83637ebe4cd","meta":{"profile":["http://hl7.org/fhir/us/qicore/StructureDefinition/qicore-servicerequest"]},"status":"completed","intent":"order","code":{"coding":[{"system":"http://snomed.info/sct","code":"306354000","display":"Referral to hospital-based dietitian (procedure)"}]},"subject":{"reference":"Patient/9fe3ca47-1605-4187-93a0-be6618160cc7"},"encounter":{"reference":"Encounter/ScreNotatriRefAsseNORESULTMSROBSPass4"},"authoredOn":"2026-01-16T11:30:00Z"},"request":{"method":"PUT","url":"ServiceRequest/3e47c2a4-e094-4c44-9101-c83637ebe4cd"}},{"fullUrl":"Organization/0022f404-ef92-4ab6-98ba-a2a44f17702e","resource":{"resourceType":"Organization","id":"0022f404-ef92-4ab6-98ba-a2a44f17702e","meta":{"profile":["http://hl7.org/fhir/us/qicore/StructureDefinition/qicore-organization"]},"identifier":[{"use":"temp","system":"urn:oid:2.16.840.1.113883.4.4","value":"21-3259825"}],"active":true,"type":[{"coding":[{"system":"http://terminology.hl7.org/CodeSystem/organization-type","code":"pay","display":"Payer"}]}],"name":"Blue Cross Blue Shield of Texas","telecom":[{"system":"phone","value":"(+1) 972-766-6900"}],"address":[{"use":"billing","type":"postal","line":["P.O. Box 660044"],"city":"Dallas","state":"TX","postalCode":"75266-0044","country":"USA"}]},"request":{"method":"PUT","url":"Organization/0022f404-ef92-4ab6-98ba-a2a44f17702e"}},{"fullUrl":"Coverage/a528eefd-592f-4da8-ac44-8806b98a0f30","resource":{"resourceType":"Coverage","id":"a528eefd-592f-4da8-ac44-8806b98a0f30","meta":{"profile":["http://hl7.org/fhir/us/qicore/StructureDefinition/qicore-coverage"]},"status":"active","type":{"coding":[{"system":"https://nahdo.org/sopt","version":"9.2","code":"11","display":"Medicare Managed Care (Includes Medicare Advantage Plans)"}]},"subscriberId":"97531","beneficiary":{"reference":"Patient/9fe3ca47-1605-4187-93a0-be6618160cc7"},"dependent":"0","relationship":{"coding":[{"system":"http://terminology.hl7.org/CodeSystem/subscriber-relationship","code":"self"}]},"period":{"start":"2024-10-01T00:00:00Z"},"payor":[{"reference":"Organization/0022f404-ef92-4ab6-98ba-a2a44f17702e"}]},"request":{"method":"PUT","url":"Coverage/a528eefd-592f-4da8-ac44-8806b98a0f30"}},{"fullUrl":"Bundle/ScreNotatriRefAsseNORESULT","resource":{"resourceType":"Bundle","id":"ScreNotatriRefAsseNORESULT","type":"transaction","entry":[{"fullUrl":"https://madie.cms.gov/Patient/9fe3ca47-1605-4187-93a0-be6618160cc7","resource":{"resourceType":"Patient","id":"9fe3ca47-1605-4187-93a0-be6618160cc7","meta":{"profile":["http://hl7.org/fhir/us/qicore/StructureDefinition/qicore-patient"]},"extension":[{"url":"http://hl7.org/fhir/us/core/StructureDefinition/us-core-race","extension":[{"url":"ombCategory","valueCoding":{"system":"urn:oid:2.16.840.1.113883.6.238","code":"2054-5","display":"Black or African American","userSelected":true}},{"url":"text","valueString":"Black or African American"}]},{"url":"http://hl7.org/fhir/us/core/StructureDefinition/us-core-ethnicity","extension":[{"url":"ombCategory","valueCoding":{"system":"urn:oid:2.16.840.1.113883.6.238","code":"2186-5","display":"Not Hispanic or Latino","userSelected":true}},{"url":"text","valueString":"Not Hispanic or Latino"}]},{"url":"http://hl7.org/fhir/us/core/StructureDefinition/us-core-sex","valueCode":"248153007"}],"identifier":[{"type":{"coding":[{"system":"http://terminology.hl7.org/CodeSystem/v2-0203","code":"MR"}]},"system":"https://madie.cms.gov/","value":"ScreNotatriRefAsseNORESULT"}],"active":true,"name":[{"use":"usual","text":"ScreNotatriRefAsseNORESULT","family":"MSROBSPass4","given":["ScreNotatriRefAsseNORESULT"]}],"gender":"male","birthDate":"1954-03-24","address":[{"text":"ScreNotatriRefAsseNORESULT, Screened Not at risk Assessed Severely Malnourished Diagnosed Care Plan, ID=ScreNotatriRefAsseNotmDxCp, DOB: 24 Mar 1954"}]},"request":{"method":"PUT","url":"Patient/9fe3ca47-1605-4187-93a0-be6618160cc7"}},{"fullUrl":"https://madie.cms.gov/Encounter/bc4fd230-59f3-42bc-b26c-2a1c01daa291","resource":{"resourceType":"Encounter","id":"bc4fd230-59f3-42bc-b26c-2a1c01daa291","meta":{"profile":["http://hl7.org/fhir/us/qicore/StructureDefinition/qicore-encounter"]},"status":"finished","class":{"system":"http://terminology.hl7.org/CodeSystem/v3-ActCode","code":"IMP","display":"inpatient encounter"},"type":[{"coding":[{"system":"http://snomed.info/sct","code":"183452005"}]}],"subject":{"reference":"Patient/9fe3ca47-1605-4187-93a0-be6618160cc7"},"period":{"start":"2026-01-16T08:00:00Z","end":"2026-01-19T08:15:00Z"}},"request":{"method":"PUT","url":"Encounter/bc4fd230-59f3-42bc-b26c-2a1c01daa291"}},{"fullUrl":"https://madie.cms.gov/Observation/35d5fa7a-449c-4e56-bdb7-62c1ebd9ec1a","resource":{"resourceType":"Observation","id":"35d5fa7a-449c-4e56-bdb7-62c1ebd9ec1a","meta":{"profile":["http://hl7.org/fhir/us/qicore/StructureDefinition/qicore-observation-screening-assessment"]},"status":"final","category":[{"coding":[{"system":"http://terminology.hl7.org/CodeSystem/observation-category","code":"survey","display":"Survey"}]}],"code":{"coding":[{"system":"http://loinc.org","code":"101807-6","display":"Malnutrition risk screen results indicator","userSelected":true}]},"subject":{"reference":"Patient/9fe3ca47-1605-4187-93a0-be6618160cc7"},"effectiveDateTime":"2026-01-18T09:00:00Z","valueCodeableConcept":{"coding":[{"system":"http://loinc.org","code":"LA33699-2","display":"Not at risk for malnutrition","userSelected":true}]}},"request":{"method":"PUT","url":"Observation/35d5fa7a-449c-4e56-bdb7-62c1ebd9ec1a"}},{"fullUrl":"https://madie.cms.gov/Observation/3cbceeed-2ca7-49a1-bd40-1129cb52f6d7","resource":{"resourceType":"Observation","id":"3cbceeed-2ca7-49a1-bd40-1129cb52f6d7","meta":{"profile":["http://hl7.org/fhir/us/qicore/StructureDefinition/qicore-observation-screening-assessment"]},"status":"final","category":[{"coding":[{"system":"http://terminology.hl7.org/CodeSystem/observation-category","code":"survey","display":"Survey"}]}],"code":{"coding":[{"system":"http://loinc.org","code":"101819-1","display":"Nutritional assessment for malnutrition status","userSelected":true}]},"subject":{"reference":"Patient/9fe3ca47-1605-4187-93a0-be6618160cc7"},"effectiveDateTime":"2026-01-18T10:00:00Z","dataAbsentReason":{"coding":[{"code":"unknown"}]}},"request":{"method":"PUT","url":"Observation/3cbceeed-2ca7-49a1-bd40-1129cb52f6d7"}},{"fullUrl":"https://madie.cms.gov/ServiceRequest/3e47c2a4-e094-4c44-9101-c83637ebe4cd","resource":{"resourceType":"ServiceRequest","id":"3e47c2a4-e094-4c44-9101-c83637ebe4cd","meta":{"profile":["http://hl7.org/fhir/us/qicore/StructureDefinition/qicore-servicerequest"]},"status":"completed","intent":"order","code":{"coding":[{"system":"http://snomed.info/sct","code":"306354000","display":"Referral to hospital-based dietitian (procedure)"}]},"subject":{"reference":"Patient/9fe3ca47-1605-4187-93a0-be6618160cc7"},"encounter":{"reference":"Encounter/ScreNotatriRefAsseNORESULTMSROBSPass4"},"authoredOn":"2026-01-16T11:30:00Z"},"request":{"method":"PUT","url":"ServiceRequest/3e47c2a4-e094-4c44-9101-c83637ebe4cd"}},{"fullUrl":"https://madie.cms.gov/Coverage/a528eefd-592f-4da8-ac44-8806b98a0f30","resource":{"resourceType":"Coverage","id":"a528eefd-592f-4da8-ac44-8806b98a0f30","meta":{"profile":["http://hl7.org/fhir/us/qicore/StructureDefinition/qicore-coverage"]},"status":"active","type":{"coding":[{"system":"https://nahdo.org/sopt","version":"9.2","code":"11","display":"Medicare Managed Care (Includes Medicare Advantage Plans)"}]},"subscriberId":"97531","beneficiary":{"reference":"Patient/9fe3ca47-1605-4187-93a0-be6618160cc7"},"dependent":"0","relationship":{"coding":[{"system":"http://terminology.hl7.org/CodeSystem/subscriber-relationship","code":"self"}]},"period":{"start":"2024-10-01T00:00:00Z"},"payor":[{"reference":"Organization/0022f404-ef92-4ab6-98ba-a2a44f17702e"}]},"request":{"method":"PUT","url":"Coverage/a528eefd-592f-4da8-ac44-8806b98a0f30"}},{"fullUrl":"https://madie.cms.gov/Organization/0022f404-ef92-4ab6-98ba-a2a44f17702e","resource":{"resourceType":"Organization","id":"0022f404-ef92-4ab6-98ba-a2a44f17702e","meta":{"profile":["http://hl7.org/fhir/us/qicore/StructureDefinition/qicore-organization"]},"identifier":[{"use":"temp","system":"urn:oid:2.16.840.1.113883.4.4","value":"21-3259825"}],"active":true,"type":[{"coding":[{"system":"http://terminology.hl7.org/CodeSystem/organization-type","code":"pay","display":"Payer"}]}],"name":"Blue Cross Blue Shield of Texas","telecom":[{"system":"phone","value":"(+1) 972-766-6900"}],"address":[{"use":"billing","type":"postal","line":["P.O. Box 660044"],"city":"Dallas","state":"TX","postalCode":"75266-0044","country":"USA"}]},"request":{"method":"PUT","url":"Organization/0022f404-ef92-4ab6-98ba-a2a44f17702e"}},{"fullUrl":"https://madie.cms.gov/MeasureReport/41cbdfd2-0eec-46cf-a663-3174387d1fb4","resource":{"resourceType":"MeasureReport","id":"41cbdfd2-0eec-46cf-a663-3174387d1fb4","meta":{"profile":["http://hl7.org/fhir/us/cqfmeasures/StructureDefinition/test-case-cqfm"]},"contained":[{"resourceType":"Parameters","id":"818f18f5-d2eb-4848-80cf-41e667e20daf-parameters","parameter":[{"name":"subject","valueString":"9fe3ca47-1605-4187-93a0-be6618160cc7"}]}],"extension":[{"url":"http://hl7.org/fhir/StructureDefinition/cqf-inputParameters","valueReference":{"reference":"#818f18f5-d2eb-4848-80cf-41e667e20daf-parameters"}},{"url":"http://hl7.org/fhir/us/cqfmeasures/StructureDefinition/cqfm-testCaseDescription","valueMarkdown":"Screened, Not at Risk, Referral, Assessed, No Assessment Result\n\n"}],"modifierExtension":[{"url":"http://hl7.org/fhir/us/cqfmeasures/StructureDefinition/cqfm-isTestCase","valueBoolean":true}],"status":"complete","type":"individual","measure":"https://madie.cms.gov/Measure/CMS986FHIRMalnutritionScore","period":{"start":"2026-01-01","end":"2026-12-31"},"group":[{"id":"Group_1","population":[{"id":"InitialPopulation_1","code":{"coding":[{"system":"http://terminology.hl7.org/CodeSystem/measure-population","code":"initial-population","display":"Initial Population"}]},"count":1},{"id":"MeasurePopulation_1","code":{"coding":[{"system":"http://terminology.hl7.org/CodeSystem/measure-population","code":"measure-population","display":"Measure Population"}]},"count":1},{"id":"MeasurePopulationExclusion_1","code":{"coding":[{"system":"http://terminology.hl7.org/CodeSystem/measure-population","code":"measure-population-exclusion","display":"Measure Population Exclusion"}]},"count":0},{"id":"MeasureObservation_1_1","code":{"coding":[{"system":"http://terminology.hl7.org/CodeSystem/measure-population","code":"measure-population-observation","display":"Measure Population Observation"}]},"count":1}],"measureScore":{"value":0.0}},{"id":"Group_2","population":[{"id":"InitialPopulation_2","code":{"coding":[{"system":"http://terminology.hl7.org/CodeSystem/measure-population","code":"initial-population","display":"Initial Population"}]},"count":1},{"id":"MeasurePopulation_2","code":{"coding":[{"system":"http://terminology.hl7.org/CodeSystem/measure-population","code":"measure-population","display":"Measure Population"}]},"count":1},{"id":"MeasurePopulationExclusion_2","code":{"coding":[{"system":"http://terminology.hl7.org/CodeSystem/measure-population","code":"measure-population-exclusion","display":"Measure Population Exclusion"}]},"count":0},{"id":"MeasureObservation_2_1","code":{"coding":[{"system":"http://terminology.hl7.org/CodeSystem/measure-population","code":"measure-population-observation","display":"Measure Population Observation"}]},"count":0}],"measureScore":{"value":0.0}},{"id":"Group_3","population":[{"id":"InitialPopulation_3","code":{"coding":[{"system":"http://terminology.hl7.org/CodeSystem/measure-population","code":"initial-population","display":"Initial Population"}]},"count":1},{"id":"MeasurePopulation_3","code":{"coding":[{"system":"http://terminology.hl7.org/CodeSystem/measure-population","code":"measure-population","display":"Measure Population"}]},"count":1},{"id":"MeasurePopulationExclusion_3","code":{"coding":[{"system":"http://terminology.hl7.org/CodeSystem/measure-population","code":"measure-population-exclusion","display":"Measure Population Exclusion"}]},"count":0},{"id":"MeasureObservation_3_1","code":{"coding":[{"system":"http://terminology.hl7.org/CodeSystem/measure-population","code":"measure-population-observation","display":"Measure Population Observation"}]},"count":0}],"measureScore":{"value":0.0}},{"id":"Group_4","population":[{"id":"InitialPopulation_4","code":{"coding":[{"system":"http://terminology.hl7.org/CodeSystem/measure-population","code":"initial-population","display":"Initial Population"}]},"count":1},{"id":"MeasurePopulation_4","code":{"coding":[{"system":"http://terminology.hl7.org/CodeSystem/measure-population","code":"measure-population","display":"Measure Population"}]},"count":1},{"id":"MeasurePopulationExclusion_4","code":{"coding":[{"system":"http://terminology.hl7.org/CodeSystem/measure-population","code":"measure-population-exclusion","display":"Measure Population Exclusion"}]},"count":0},{"id":"MeasureObservation_4_1","code":{"coding":[{"system":"http://terminology.hl7.org/CodeSystem/measure-population","code":"measure-population-observation","display":"Measure Population Observation"}]},"count":0}],"measureScore":{"value":0.0}},{"id":"Group_5","population":[{"id":"InitialPopulation_5","code":{"coding":[{"system":"http://terminology.hl7.org/CodeSystem/measure-population","code":"initial-population","display":"Initial Population"}]},"count":1},{"id":"MeasurePopulation_5","code":{"coding":[{"system":"http://terminology.hl7.org/CodeSystem/measure-population","code":"measure-population","display":"Measure Population"}]},"count":1},{"id":"MeasurePopulationExclusion_5","code":{"coding":[{"system":"http://terminology.hl7.org/CodeSystem/measure-population","code":"measure-population-exclusion","display":"Measure Population Exclusion"}]},"count":0},{"id":"MeasureObservation_5_1","code":{"coding":[{"system":"http://terminology.hl7.org/CodeSystem/measure-population","code":"measure-population-observation","display":"Measure Population Observation"}]},"count":1}],"measureScore":{"value":0.0}},{"id":"Group_6","population":[{"id":"InitialPopulation_6","code":{"coding":[{"system":"http://terminology.hl7.org/CodeSystem/measure-population","code":"initial-population","display":"Initial Population"}]},"count":1},{"id":"MeasurePopulation_6","code":{"coding":[{"system":"http://terminology.hl7.org/CodeSystem/measure-population","code":"measure-population","display":"Measure Population"}]},"count":1},{"id":"MeasurePopulationExclusion_6","code":{"coding":[{"system":"http://terminology.hl7.org/CodeSystem/measure-population","code":"measure-population-exclusion","display":"Measure Population Exclusion"}]},"count":0},{"id":"MeasureObservation_6_1","code":{"coding":[{"system":"http://terminology.hl7.org/CodeSystem/measure-population","code":"measure-population-observation","display":"Measure Population Observation"}]},"count":50}],"measureScore":{"value":0.0}}],"evaluatedResource":[{"reference":"Patient/9fe3ca47-1605-4187-93a0-be6618160cc7"},{"reference":"Encounter/bc4fd230-59f3-42bc-b26c-2a1c01daa291"},{"reference":"Observation/35d5fa7a-449c-4e56-bdb7-62c1ebd9ec1a"},{"reference":"Observation/3cbceeed-2ca7-49a1-bd40-1129cb52f6d7"},{"reference":"ServiceRequest/3e47c2a4-e094-4c44-9101-c83637ebe4cd"},{"reference":"Coverage/a528eefd-592f-4da8-ac44-8806b98a0f30"},{"reference":"Organization/0022f404-ef92-4ab6-98ba-a2a44f17702e"}]},"request":{"method":"PUT","url":"MeasureReport/41cbdfd2-0eec-46cf-a663-3174387d1fb4"}}]},"request":{"method":"PUT","url":"Bundle/ScreNotatriRefAsseNORESULT"}}]}