{"resourceType":"Bundle","id":"tests-8269bfc3-071c-40e9-b523-07f615752097-bundle","type":"transaction","entry":[{"fullUrl":"Observation/578f2b91-d1ec-4e90-be85-b5c8eeb4ed54","resource":{"resourceType":"Observation","id":"578f2b91-d1ec-4e90-be85-b5c8eeb4ed54","meta":{"profile":["http://hl7.org/fhir/us/qicore/StructureDefinition/qicore-observation-screening-assessment"]},"status":"final","category":[{"coding":[{"system":"http://terminology.hl7.org/CodeSystem/observation-category","code":"survey","display":"Survey"}]}],"code":{"coding":[{"system":"http://loinc.org","code":"98967-3","display":"Nutritional Risk Screening 2002 panel","userSelected":true}]},"subject":{"reference":"Patient/8269bfc3-071c-40e9-b523-07f615752097"},"effectiveDateTime":"2026-07-01T09:00:00.000+00:00","valueCodeableConcept":{"coding":[{"system":"http://snomed.info/sct","code":"704361005","display":"At increased risk of deficient food intake (finding)","userSelected":true}]}},"request":{"method":"PUT","url":"Observation/578f2b91-d1ec-4e90-be85-b5c8eeb4ed54"}},{"fullUrl":"Bundle/ScreAtriRefAsseModDxNocp","resource":{"resourceType":"Bundle","id":"ScreAtriRefAsseModDxNocp","type":"transaction","entry":[{"fullUrl":"https://madie.cms.gov/Patient/8269bfc3-071c-40e9-b523-07f615752097","resource":{"resourceType":"Patient","id":"8269bfc3-071c-40e9-b523-07f615752097","meta":{"profile":["http://hl7.org/fhir/us/qicore/StructureDefinition/qicore-patient"]},"extension":[{"url":"http://hl7.org/fhir/us/core/StructureDefinition/us-core-race","extension":[{"url":"ombCategory","valueCoding":{"system":"urn:oid:2.16.840.1.113883.6.238","code":"2054-5","display":"Black or African American","userSelected":true}},{"url":"text","valueString":"Black or African American"}]},{"url":"http://hl7.org/fhir/us/core/StructureDefinition/us-core-ethnicity","extension":[{"url":"ombCategory","valueCoding":{"system":"urn:oid:2.16.840.1.113883.6.238","code":"2186-5","display":"Not Hispanic or Latino","userSelected":true}},{"url":"text","valueString":"Not Hispanic or Latino"}]},{"url":"http://hl7.org/fhir/us/core/StructureDefinition/us-core-sex","valueCode":"248152002"}],"identifier":[{"type":{"coding":[{"system":"http://terminology.hl7.org/CodeSystem/v2-0203","code":"MR"}]},"system":"https://madie.cms.gov/","value":"ScreAtriRefAsseModDxNocp"}],"active":true,"name":[{"use":"usual","text":"ScreAtriRefAsseModDxNocp","family":"MSROBSPass4","given":["ScreAtriRefAsseModDxNocp"]}],"gender":"female","birthDate":"1953-01-01","address":[{"text":"ScreAtriRefAsseModDxNocp, Screened Not at risk Assessed Severely Malnourished Diagnosed Care Plan, ID=ScreAtriRefAsseModDxNocp, DOB: 01 Jan 1953"}]},"request":{"method":"PUT","url":"Patient/8269bfc3-071c-40e9-b523-07f615752097"}},{"fullUrl":"https://madie.cms.gov/Encounter/c4a3c5e0-0887-44e0-90c3-f59bd1f96bd6","resource":{"resourceType":"Encounter","id":"c4a3c5e0-0887-44e0-90c3-f59bd1f96bd6","meta":{"profile":["http://hl7.org/fhir/us/qicore/StructureDefinition/qicore-encounter"]},"status":"finished","class":{"system":"http://terminology.hl7.org/CodeSystem/v3-ActCode","code":"IMP","display":"inpatient encounter"},"type":[{"coding":[{"system":"http://snomed.info/sct","code":"32485007"}]}],"subject":{"reference":"Patient/8269bfc3-071c-40e9-b523-07f615752097"},"period":{"start":"2026-07-01T08:00:00.000+00:00","end":"2026-07-11T08:15:00.000+00:00"},"reasonReference":[{"reference":"Condition/d019a823-f576-4bc4-9a6f-837dc7f306e5"}]},"request":{"method":"PUT","url":"Encounter/c4a3c5e0-0887-44e0-90c3-f59bd1f96bd6"}},{"fullUrl":"https://madie.cms.gov/Condition/d019a823-f576-4bc4-9a6f-837dc7f306e5","resource":{"resourceType":"Condition","id":"d019a823-f576-4bc4-9a6f-837dc7f306e5","meta":{"profile":["http://hl7.org/fhir/us/qicore/StructureDefinition/qicore-condition-encounter-diagnosis"]},"clinicalStatus":{"coding":[{"system":"http://terminology.hl7.org/CodeSystem/condition-clinical","code":"active","display":"Active","userSelected":true}]},"verificationStatus":{"coding":[{"system":"http://terminology.hl7.org/CodeSystem/condition-ver-status","code":"confirmed","display":"Confirmed","userSelected":true}]},"category":[{"coding":[{"system":"http://terminology.hl7.org/CodeSystem/condition-category","code":"encounter-diagnosis","display":"Encounter Diagnosis","userSelected":true}]}],"code":{"coding":[{"system":"http://snomed.info/sct","code":"441971000124107","display":"Chronic disease-related malnutrition","userSelected":true}]},"subject":{"reference":"Patient/8269bfc3-071c-40e9-b523-07f615752097"},"onsetPeriod":{"start":"2026-07-01T08:00:00.000+00:00"},"recordedDate":"2026-07-01T11:00:00.000+00:00"},"request":{"method":"PUT","url":"Condition/d019a823-f576-4bc4-9a6f-837dc7f306e5"}},{"fullUrl":"https://madie.cms.gov/Observation/578f2b91-d1ec-4e90-be85-b5c8eeb4ed54","resource":{"resourceType":"Observation","id":"578f2b91-d1ec-4e90-be85-b5c8eeb4ed54","meta":{"profile":["http://hl7.org/fhir/us/qicore/StructureDefinition/qicore-observation-screening-assessment"]},"status":"final","category":[{"coding":[{"system":"http://terminology.hl7.org/CodeSystem/observation-category","code":"survey","display":"Survey"}]}],"code":{"coding":[{"system":"http://loinc.org","code":"98967-3","display":"Nutritional Risk Screening 2002 panel","userSelected":true}]},"subject":{"reference":"Patient/8269bfc3-071c-40e9-b523-07f615752097"},"effectiveDateTime":"2026-07-01T09:00:00.000+00:00","valueCodeableConcept":{"coding":[{"system":"http://snomed.info/sct","code":"704361005","display":"At increased risk of deficient food intake (finding)","userSelected":true}]}},"request":{"method":"PUT","url":"Observation/578f2b91-d1ec-4e90-be85-b5c8eeb4ed54"}},{"fullUrl":"https://madie.cms.gov/Observation/b2f8735d-5dff-40c1-9f01-752fe5875aba","resource":{"resourceType":"Observation","id":"b2f8735d-5dff-40c1-9f01-752fe5875aba","meta":{"profile":["http://hl7.org/fhir/us/qicore/StructureDefinition/qicore-observation-screening-assessment"]},"status":"final","category":[{"coding":[{"system":"http://terminology.hl7.org/CodeSystem/observation-category","code":"survey","display":"Survey"}]}],"code":{"coding":[{"system":"http://loinc.org","code":"75285-7","display":"Comparative nutrition assessment standards panel","userSelected":true}]},"subject":{"reference":"Patient/8269bfc3-071c-40e9-b523-07f615752097"},"effectiveDateTime":"2026-07-01T10:00:00.000+00:00","valueCodeableConcept":{"coding":[{"system":"http://snomed.info/sct","code":"441961000124100","display":"Acute disease or injury-related malnutrition (disorder)","userSelected":true}]}},"request":{"method":"PUT","url":"Observation/b2f8735d-5dff-40c1-9f01-752fe5875aba"}},{"fullUrl":"https://madie.cms.gov/Procedure/b9d7a419-8d6f-4074-b03b-e217d2567475","resource":{"resourceType":"Procedure","id":"b9d7a419-8d6f-4074-b03b-e217d2567475","meta":{"profile":["http://hl7.org/fhir/us/qicore/StructureDefinition/qicore-procedure"]},"extension":[{"url":"http://hl7.org/fhir/us/qicore/StructureDefinition/qicore-recorded","valueDateTime":"2026-07-01T11:30:00.000+00:00"}],"status":"completed","code":{"coding":[{"system":"http://snomed.info/sct","code":"306165000","display":"Referral to hospital-based dietetics service (procedure)"}],"text":"Referral to hospital-based dietetics service (procedure)"},"subject":{"reference":"Patient/8269bfc3-071c-40e9-b523-07f615752097"},"encounter":{"reference":"Encounter/ScreAtriRefAsseModDxNocpMSROBSPass4"},"performedPeriod":{"start":"2026-07-01T11:30:00.000+00:00","end":"2026-07-07T08:15:00.000+00:00"}},"request":{"method":"PUT","url":"Procedure/b9d7a419-8d6f-4074-b03b-e217d2567475"}},{"fullUrl":"https://madie.cms.gov/Coverage/98308db2-15c9-4d40-9e7d-f487807f8f5a","resource":{"resourceType":"Coverage","id":"98308db2-15c9-4d40-9e7d-f487807f8f5a","meta":{"profile":["http://hl7.org/fhir/us/qicore/StructureDefinition/qicore-coverage"]},"status":"active","type":{"coding":[{"system":"https://nahdo.org/sopt","version":"9.2","code":"11","display":"Medicare Managed Care (Includes Medicare Advantage Plans)"}]},"subscriberId":"97531","beneficiary":{"reference":"Patient/8269bfc3-071c-40e9-b523-07f615752097"},"dependent":"0","relationship":{"coding":[{"system":"http://terminology.hl7.org/CodeSystem/subscriber-relationship","code":"self"}]},"period":{"start":"2026-10-01T00:00:00.000+00:00"},"payor":[{"reference":"Organization/b918ab15-1879-475c-a2ef-40c5eb2596fc"}]},"request":{"method":"PUT","url":"Coverage/98308db2-15c9-4d40-9e7d-f487807f8f5a"}},{"fullUrl":"https://madie.cms.gov/Organization/b918ab15-1879-475c-a2ef-40c5eb2596fc","resource":{"resourceType":"Organization","id":"b918ab15-1879-475c-a2ef-40c5eb2596fc","meta":{"profile":["http://hl7.org/fhir/us/qicore/StructureDefinition/qicore-organization"]},"identifier":[{"use":"temp","system":"urn:oid:2.16.840.1.113883.4.4","value":"21-3259825"}],"active":true,"type":[{"coding":[{"system":"http://terminology.hl7.org/CodeSystem/organization-type","code":"pay","display":"Payer"}]}],"name":"Blue Cross Blue Shield of Texas","telecom":[{"system":"phone","value":"(+1) 972-766-6900"}],"address":[{"use":"billing","type":"postal","line":["P.O. Box 660044"],"city":"Dallas","state":"TX","postalCode":"75266-0044","country":"USA"}]},"request":{"method":"PUT","url":"Organization/b918ab15-1879-475c-a2ef-40c5eb2596fc"}},{"fullUrl":"https://madie.cms.gov/MeasureReport/50e85f29-00be-46ef-9562-27af6a63de62","resource":{"resourceType":"MeasureReport","id":"50e85f29-00be-46ef-9562-27af6a63de62","meta":{"profile":["http://hl7.org/fhir/us/cqfmeasures/StructureDefinition/test-case-cqfm"]},"contained":[{"resourceType":"Parameters","id":"11b05e3c-92a2-4e1c-ab15-c3f55c890642-parameters","parameter":[{"name":"subject","valueString":"8269bfc3-071c-40e9-b523-07f615752097"}]}],"extension":[{"url":"http://hl7.org/fhir/StructureDefinition/cqf-inputParameters","valueReference":{"reference":"#11b05e3c-92a2-4e1c-ab15-c3f55c890642-parameters"}},{"url":"http://hl7.org/fhir/us/cqfmeasures/StructureDefinition/cqfm-testCaseDescription","valueMarkdown":"Screened, At Risk, Referral, Assessed, Moderate Malnutrition, Diagnosis, No Nutrition Care Plan"}],"modifierExtension":[{"url":"http://hl7.org/fhir/us/cqfmeasures/StructureDefinition/cqfm-isTestCase","valueBoolean":true}],"status":"complete","type":"individual","measure":"https://madie.cms.gov/Measure/CMS986FHIRMalnutritionScore","period":{"start":"2026-01-01","end":"2026-12-31"},"group":[{"id":"Group_1","population":[{"id":"InitialPopulation_1","code":{"coding":[{"system":"http://terminology.hl7.org/CodeSystem/measure-population","code":"initial-population","display":"Initial Population"}]},"count":1},{"id":"MeasurePopulation_1","code":{"coding":[{"system":"http://terminology.hl7.org/CodeSystem/measure-population","code":"measure-population","display":"Measure Population"}]},"count":1},{"id":"MeasurePopulationExclusion_1","code":{"coding":[{"system":"http://terminology.hl7.org/CodeSystem/measure-population","code":"measure-population-exclusion","display":"Measure Population Exclusion"}]},"count":0},{"id":"MeasureObservation_1_1","code":{"coding":[{"system":"http://terminology.hl7.org/CodeSystem/measure-population","code":"measure-population-observation","display":"Measure Population Observation"}]},"count":1}],"measureScore":{"value":0.0}},{"id":"Group_2","population":[{"id":"InitialPopulation_2","code":{"coding":[{"system":"http://terminology.hl7.org/CodeSystem/measure-population","code":"initial-population","display":"Initial Population"}]},"count":1},{"id":"MeasurePopulation_2","code":{"coding":[{"system":"http://terminology.hl7.org/CodeSystem/measure-population","code":"measure-population","display":"Measure Population"}]},"count":1},{"id":"MeasurePopulationExclusion_2","code":{"coding":[{"system":"http://terminology.hl7.org/CodeSystem/measure-population","code":"measure-population-exclusion","display":"Measure Population Exclusion"}]},"count":0},{"id":"MeasureObservation_2_1","code":{"coding":[{"system":"http://terminology.hl7.org/CodeSystem/measure-population","code":"measure-population-observation","display":"Measure Population Observation"}]},"count":1}],"measureScore":{"value":0.0}},{"id":"Group_3","population":[{"id":"InitialPopulation_3","code":{"coding":[{"system":"http://terminology.hl7.org/CodeSystem/measure-population","code":"initial-population","display":"Initial Population"}]},"count":1},{"id":"MeasurePopulation_3","code":{"coding":[{"system":"http://terminology.hl7.org/CodeSystem/measure-population","code":"measure-population","display":"Measure Population"}]},"count":1},{"id":"MeasurePopulationExclusion_3","code":{"coding":[{"system":"http://terminology.hl7.org/CodeSystem/measure-population","code":"measure-population-exclusion","display":"Measure Population Exclusion"}]},"count":0},{"id":"MeasureObservation_3_1","code":{"coding":[{"system":"http://terminology.hl7.org/CodeSystem/measure-population","code":"measure-population-observation","display":"Measure Population Observation"}]},"count":1}],"measureScore":{"value":0.0}},{"id":"Group_4","population":[{"id":"InitialPopulation_4","code":{"coding":[{"system":"http://terminology.hl7.org/CodeSystem/measure-population","code":"initial-population","display":"Initial Population"}]},"count":1},{"id":"MeasurePopulation_4","code":{"coding":[{"system":"http://terminology.hl7.org/CodeSystem/measure-population","code":"measure-population","display":"Measure Population"}]},"count":1},{"id":"MeasurePopulationExclusion_4","code":{"coding":[{"system":"http://terminology.hl7.org/CodeSystem/measure-population","code":"measure-population-exclusion","display":"Measure Population Exclusion"}]},"count":0},{"id":"MeasureObservation_4_1","code":{"coding":[{"system":"http://terminology.hl7.org/CodeSystem/measure-population","code":"measure-population-observation","display":"Measure Population Observation"}]},"count":0}],"measureScore":{"value":0.0}},{"id":"Group_5","population":[{"id":"InitialPopulation_5","code":{"coding":[{"system":"http://terminology.hl7.org/CodeSystem/measure-population","code":"initial-population","display":"Initial Population"}]},"count":1},{"id":"MeasurePopulation_5","code":{"coding":[{"system":"http://terminology.hl7.org/CodeSystem/measure-population","code":"measure-population","display":"Measure Population"}]},"count":1},{"id":"MeasurePopulationExclusion_5","code":{"coding":[{"system":"http://terminology.hl7.org/CodeSystem/measure-population","code":"measure-population-exclusion","display":"Measure Population Exclusion"}]},"count":0},{"id":"MeasureObservation_5_1","code":{"coding":[{"system":"http://terminology.hl7.org/CodeSystem/measure-population","code":"measure-population-observation","display":"Measure Population Observation"}]},"count":3}],"measureScore":{"value":0.0}},{"id":"Group_6","population":[{"id":"InitialPopulation_6","code":{"coding":[{"system":"http://terminology.hl7.org/CodeSystem/measure-population","code":"initial-population","display":"Initial Population"}]},"count":1},{"id":"MeasurePopulation_6","code":{"coding":[{"system":"http://terminology.hl7.org/CodeSystem/measure-population","code":"measure-population","display":"Measure Population"}]},"count":1},{"id":"MeasurePopulationExclusion_6","code":{"coding":[{"system":"http://terminology.hl7.org/CodeSystem/measure-population","code":"measure-population-exclusion","display":"Measure Population Exclusion"}]},"count":0},{"id":"MeasureObservation_6_1","code":{"coding":[{"system":"http://terminology.hl7.org/CodeSystem/measure-population","code":"measure-population-observation","display":"Measure Population Observation"}]},"count":75}],"measureScore":{"value":0.0}}],"evaluatedResource":[{"reference":"Patient/8269bfc3-071c-40e9-b523-07f615752097"},{"reference":"Encounter/c4a3c5e0-0887-44e0-90c3-f59bd1f96bd6"},{"reference":"Condition/d019a823-f576-4bc4-9a6f-837dc7f306e5"},{"reference":"Observation/578f2b91-d1ec-4e90-be85-b5c8eeb4ed54"},{"reference":"Observation/b2f8735d-5dff-40c1-9f01-752fe5875aba"},{"reference":"Procedure/b9d7a419-8d6f-4074-b03b-e217d2567475"},{"reference":"Coverage/98308db2-15c9-4d40-9e7d-f487807f8f5a"},{"reference":"Organization/b918ab15-1879-475c-a2ef-40c5eb2596fc"}]},"request":{"method":"PUT","url":"MeasureReport/50e85f29-00be-46ef-9562-27af6a63de62"}}]},"request":{"method":"PUT","url":"Bundle/ScreAtriRefAsseModDxNocp"}},{"fullUrl":"MeasureReport/50e85f29-00be-46ef-9562-27af6a63de62","resource":{"resourceType":"MeasureReport","id":"50e85f29-00be-46ef-9562-27af6a63de62","meta":{"profile":["http://hl7.org/fhir/us/cqfmeasures/StructureDefinition/test-case-cqfm"]},"contained":[{"resourceType":"Parameters","id":"11b05e3c-92a2-4e1c-ab15-c3f55c890642-parameters","parameter":[{"name":"subject","valueString":"8269bfc3-071c-40e9-b523-07f615752097"}]}],"extension":[{"url":"http://hl7.org/fhir/StructureDefinition/cqf-inputParameters","valueReference":{"reference":"#11b05e3c-92a2-4e1c-ab15-c3f55c890642-parameters"}},{"url":"http://hl7.org/fhir/us/cqfmeasures/StructureDefinition/cqfm-testCaseDescription","valueMarkdown":"Screened, At Risk, Referral, Assessed, Moderate Malnutrition, Diagnosis, No Nutrition Care Plan"}],"modifierExtension":[{"url":"http://hl7.org/fhir/us/cqfmeasures/StructureDefinition/cqfm-isTestCase","valueBoolean":true}],"status":"complete","type":"individual","measure":"https://madie.cms.gov/Measure/CMS986FHIRMalnutritionScore","period":{"start":"2026-01-01","end":"2026-12-31"},"group":[{"id":"Group_1","population":[{"id":"InitialPopulation_1","code":{"coding":[{"system":"http://terminology.hl7.org/CodeSystem/measure-population","code":"initial-population","display":"Initial Population"}]},"count":1},{"id":"MeasurePopulation_1","code":{"coding":[{"system":"http://terminology.hl7.org/CodeSystem/measure-population","code":"measure-population","display":"Measure Population"}]},"count":1},{"id":"MeasurePopulationExclusion_1","code":{"coding":[{"system":"http://terminology.hl7.org/CodeSystem/measure-population","code":"measure-population-exclusion","display":"Measure Population Exclusion"}]},"count":0},{"id":"MeasureObservation_1_1","code":{"coding":[{"system":"http://terminology.hl7.org/CodeSystem/measure-population","code":"measure-population-observation","display":"Measure Population Observation"}]},"count":1}],"measureScore":{"value":0.0}},{"id":"Group_2","population":[{"id":"InitialPopulation_2","code":{"coding":[{"system":"http://terminology.hl7.org/CodeSystem/measure-population","code":"initial-population","display":"Initial Population"}]},"count":1},{"id":"MeasurePopulation_2","code":{"coding":[{"system":"http://terminology.hl7.org/CodeSystem/measure-population","code":"measure-population","display":"Measure Population"}]},"count":1},{"id":"MeasurePopulationExclusion_2","code":{"coding":[{"system":"http://terminology.hl7.org/CodeSystem/measure-population","code":"measure-population-exclusion","display":"Measure Population Exclusion"}]},"count":0},{"id":"MeasureObservation_2_1","code":{"coding":[{"system":"http://terminology.hl7.org/CodeSystem/measure-population","code":"measure-population-observation","display":"Measure Population Observation"}]},"count":1}],"measureScore":{"value":0.0}},{"id":"Group_3","population":[{"id":"InitialPopulation_3","code":{"coding":[{"system":"http://terminology.hl7.org/CodeSystem/measure-population","code":"initial-population","display":"Initial Population"}]},"count":1},{"id":"MeasurePopulation_3","code":{"coding":[{"system":"http://terminology.hl7.org/CodeSystem/measure-population","code":"measure-population","display":"Measure Population"}]},"count":1},{"id":"MeasurePopulationExclusion_3","code":{"coding":[{"system":"http://terminology.hl7.org/CodeSystem/measure-population","code":"measure-population-exclusion","display":"Measure Population Exclusion"}]},"count":0},{"id":"MeasureObservation_3_1","code":{"coding":[{"system":"http://terminology.hl7.org/CodeSystem/measure-population","code":"measure-population-observation","display":"Measure Population Observation"}]},"count":1}],"measureScore":{"value":0.0}},{"id":"Group_4","population":[{"id":"InitialPopulation_4","code":{"coding":[{"system":"http://terminology.hl7.org/CodeSystem/measure-population","code":"initial-population","display":"Initial Population"}]},"count":1},{"id":"MeasurePopulation_4","code":{"coding":[{"system":"http://terminology.hl7.org/CodeSystem/measure-population","code":"measure-population","display":"Measure Population"}]},"count":1},{"id":"MeasurePopulationExclusion_4","code":{"coding":[{"system":"http://terminology.hl7.org/CodeSystem/measure-population","code":"measure-population-exclusion","display":"Measure Population Exclusion"}]},"count":0},{"id":"MeasureObservation_4_1","code":{"coding":[{"system":"http://terminology.hl7.org/CodeSystem/measure-population","code":"measure-population-observation","display":"Measure Population Observation"}]},"count":0}],"measureScore":{"value":0.0}},{"id":"Group_5","population":[{"id":"InitialPopulation_5","code":{"coding":[{"system":"http://terminology.hl7.org/CodeSystem/measure-population","code":"initial-population","display":"Initial Population"}]},"count":1},{"id":"MeasurePopulation_5","code":{"coding":[{"system":"http://terminology.hl7.org/CodeSystem/measure-population","code":"measure-population","display":"Measure Population"}]},"count":1},{"id":"MeasurePopulationExclusion_5","code":{"coding":[{"system":"http://terminology.hl7.org/CodeSystem/measure-population","code":"measure-population-exclusion","display":"Measure Population Exclusion"}]},"count":0},{"id":"MeasureObservation_5_1","code":{"coding":[{"system":"http://terminology.hl7.org/CodeSystem/measure-population","code":"measure-population-observation","display":"Measure Population Observation"}]},"count":3}],"measureScore":{"value":0.0}},{"id":"Group_6","population":[{"id":"InitialPopulation_6","code":{"coding":[{"system":"http://terminology.hl7.org/CodeSystem/measure-population","code":"initial-population","display":"Initial Population"}]},"count":1},{"id":"MeasurePopulation_6","code":{"coding":[{"system":"http://terminology.hl7.org/CodeSystem/measure-population","code":"measure-population","display":"Measure Population"}]},"count":1},{"id":"MeasurePopulationExclusion_6","code":{"coding":[{"system":"http://terminology.hl7.org/CodeSystem/measure-population","code":"measure-population-exclusion","display":"Measure Population Exclusion"}]},"count":0},{"id":"MeasureObservation_6_1","code":{"coding":[{"system":"http://terminology.hl7.org/CodeSystem/measure-population","code":"measure-population-observation","display":"Measure Population Observation"}]},"count":75}],"measureScore":{"value":0.0}}],"evaluatedResource":[{"reference":"Patient/8269bfc3-071c-40e9-b523-07f615752097"},{"reference":"Encounter/c4a3c5e0-0887-44e0-90c3-f59bd1f96bd6"},{"reference":"Condition/d019a823-f576-4bc4-9a6f-837dc7f306e5"},{"reference":"Observation/578f2b91-d1ec-4e90-be85-b5c8eeb4ed54"},{"reference":"Observation/b2f8735d-5dff-40c1-9f01-752fe5875aba"},{"reference":"Procedure/b9d7a419-8d6f-4074-b03b-e217d2567475"},{"reference":"Coverage/98308db2-15c9-4d40-9e7d-f487807f8f5a"},{"reference":"Organization/b918ab15-1879-475c-a2ef-40c5eb2596fc"}]},"request":{"method":"PUT","url":"MeasureReport/50e85f29-00be-46ef-9562-27af6a63de62"}},{"fullUrl":"Organization/b918ab15-1879-475c-a2ef-40c5eb2596fc","resource":{"resourceType":"Organization","id":"b918ab15-1879-475c-a2ef-40c5eb2596fc","meta":{"profile":["http://hl7.org/fhir/us/qicore/StructureDefinition/qicore-organization"]},"identifier":[{"use":"temp","system":"urn:oid:2.16.840.1.113883.4.4","value":"21-3259825"}],"active":true,"type":[{"coding":[{"system":"http://terminology.hl7.org/CodeSystem/organization-type","code":"pay","display":"Payer"}]}],"name":"Blue Cross Blue Shield of Texas","telecom":[{"system":"phone","value":"(+1) 972-766-6900"}],"address":[{"use":"billing","type":"postal","line":["P.O. Box 660044"],"city":"Dallas","state":"TX","postalCode":"75266-0044","country":"USA"}]},"request":{"method":"PUT","url":"Organization/b918ab15-1879-475c-a2ef-40c5eb2596fc"}},{"fullUrl":"Procedure/b9d7a419-8d6f-4074-b03b-e217d2567475","resource":{"resourceType":"Procedure","id":"b9d7a419-8d6f-4074-b03b-e217d2567475","meta":{"profile":["http://hl7.org/fhir/us/qicore/StructureDefinition/qicore-procedure"]},"extension":[{"url":"http://hl7.org/fhir/us/qicore/StructureDefinition/qicore-recorded","valueDateTime":"2026-07-01T11:30:00.000+00:00"}],"status":"completed","code":{"coding":[{"system":"http://snomed.info/sct","code":"306165000","display":"Referral to hospital-based dietetics service (procedure)"}],"text":"Referral to hospital-based dietetics service (procedure)"},"subject":{"reference":"Patient/8269bfc3-071c-40e9-b523-07f615752097"},"encounter":{"reference":"Encounter/ScreAtriRefAsseModDxNocpMSROBSPass4"},"performedPeriod":{"start":"2026-07-01T11:30:00.000+00:00","end":"2026-07-07T08:15:00.000+00:00"}},"request":{"method":"PUT","url":"Procedure/b9d7a419-8d6f-4074-b03b-e217d2567475"}},{"fullUrl":"Patient/8269bfc3-071c-40e9-b523-07f615752097","resource":{"resourceType":"Patient","id":"8269bfc3-071c-40e9-b523-07f615752097","meta":{"profile":["http://hl7.org/fhir/us/qicore/StructureDefinition/qicore-patient"]},"extension":[{"url":"http://hl7.org/fhir/us/core/StructureDefinition/us-core-race","extension":[{"url":"ombCategory","valueCoding":{"system":"urn:oid:2.16.840.1.113883.6.238","code":"2054-5","display":"Black or African American","userSelected":true}},{"url":"text","valueString":"Black or African American"}]},{"url":"http://hl7.org/fhir/us/core/StructureDefinition/us-core-ethnicity","extension":[{"url":"ombCategory","valueCoding":{"system":"urn:oid:2.16.840.1.113883.6.238","code":"2186-5","display":"Not Hispanic or Latino","userSelected":true}},{"url":"text","valueString":"Not Hispanic or Latino"}]},{"url":"http://hl7.org/fhir/us/core/StructureDefinition/us-core-sex","valueCode":"248152002"}],"identifier":[{"type":{"coding":[{"system":"http://terminology.hl7.org/CodeSystem/v2-0203","code":"MR"}]},"system":"https://madie.cms.gov/","value":"ScreAtriRefAsseModDxNocp"}],"active":true,"name":[{"use":"usual","text":"ScreAtriRefAsseModDxNocp","family":"MSROBSPass4","given":["ScreAtriRefAsseModDxNocp"]}],"gender":"female","birthDate":"1953-01-01","address":[{"text":"ScreAtriRefAsseModDxNocp, Screened Not at risk Assessed Severely Malnourished Diagnosed Care Plan, ID=ScreAtriRefAsseModDxNocp, DOB: 01 Jan 1953"}]},"request":{"method":"PUT","url":"Patient/8269bfc3-071c-40e9-b523-07f615752097"}},{"fullUrl":"Coverage/98308db2-15c9-4d40-9e7d-f487807f8f5a","resource":{"resourceType":"Coverage","id":"98308db2-15c9-4d40-9e7d-f487807f8f5a","meta":{"profile":["http://hl7.org/fhir/us/qicore/StructureDefinition/qicore-coverage"]},"status":"active","type":{"coding":[{"system":"https://nahdo.org/sopt","version":"9.2","code":"11","display":"Medicare Managed Care (Includes Medicare Advantage Plans)"}]},"subscriberId":"97531","beneficiary":{"reference":"Patient/8269bfc3-071c-40e9-b523-07f615752097"},"dependent":"0","relationship":{"coding":[{"system":"http://terminology.hl7.org/CodeSystem/subscriber-relationship","code":"self"}]},"period":{"start":"2026-10-01T00:00:00.000+00:00"},"payor":[{"reference":"Organization/b918ab15-1879-475c-a2ef-40c5eb2596fc"}]},"request":{"method":"PUT","url":"Coverage/98308db2-15c9-4d40-9e7d-f487807f8f5a"}},{"fullUrl":"Encounter/c4a3c5e0-0887-44e0-90c3-f59bd1f96bd6","resource":{"resourceType":"Encounter","id":"c4a3c5e0-0887-44e0-90c3-f59bd1f96bd6","meta":{"profile":["http://hl7.org/fhir/us/qicore/StructureDefinition/qicore-encounter"]},"status":"finished","class":{"system":"http://terminology.hl7.org/CodeSystem/v3-ActCode","code":"IMP","display":"inpatient encounter"},"type":[{"coding":[{"system":"http://snomed.info/sct","code":"32485007"}]}],"subject":{"reference":"Patient/8269bfc3-071c-40e9-b523-07f615752097"},"period":{"start":"2026-07-01T08:00:00.000+00:00","end":"2026-07-11T08:15:00.000+00:00"},"reasonReference":[{"reference":"Condition/d019a823-f576-4bc4-9a6f-837dc7f306e5"}]},"request":{"method":"PUT","url":"Encounter/c4a3c5e0-0887-44e0-90c3-f59bd1f96bd6"}},{"fullUrl":"Condition/d019a823-f576-4bc4-9a6f-837dc7f306e5","resource":{"resourceType":"Condition","id":"d019a823-f576-4bc4-9a6f-837dc7f306e5","meta":{"profile":["http://hl7.org/fhir/us/qicore/StructureDefinition/qicore-condition-encounter-diagnosis"]},"clinicalStatus":{"coding":[{"system":"http://terminology.hl7.org/CodeSystem/condition-clinical","code":"active","display":"Active","userSelected":true}]},"verificationStatus":{"coding":[{"system":"http://terminology.hl7.org/CodeSystem/condition-ver-status","code":"confirmed","display":"Confirmed","userSelected":true}]},"category":[{"coding":[{"system":"http://terminology.hl7.org/CodeSystem/condition-category","code":"encounter-diagnosis","display":"Encounter Diagnosis","userSelected":true}]}],"code":{"coding":[{"system":"http://snomed.info/sct","code":"441971000124107","display":"Chronic disease-related malnutrition","userSelected":true}]},"subject":{"reference":"Patient/8269bfc3-071c-40e9-b523-07f615752097"},"onsetPeriod":{"start":"2026-07-01T08:00:00.000+00:00"},"recordedDate":"2026-07-01T11:00:00.000+00:00"},"request":{"method":"PUT","url":"Condition/d019a823-f576-4bc4-9a6f-837dc7f306e5"}},{"fullUrl":"Observation/b2f8735d-5dff-40c1-9f01-752fe5875aba","resource":{"resourceType":"Observation","id":"b2f8735d-5dff-40c1-9f01-752fe5875aba","meta":{"profile":["http://hl7.org/fhir/us/qicore/StructureDefinition/qicore-observation-screening-assessment"]},"status":"final","category":[{"coding":[{"system":"http://terminology.hl7.org/CodeSystem/observation-category","code":"survey","display":"Survey"}]}],"code":{"coding":[{"system":"http://loinc.org","code":"75285-7","display":"Comparative nutrition assessment standards panel","userSelected":true}]},"subject":{"reference":"Patient/8269bfc3-071c-40e9-b523-07f615752097"},"effectiveDateTime":"2026-07-01T10:00:00.000+00:00","valueCodeableConcept":{"coding":[{"system":"http://snomed.info/sct","code":"441961000124100","display":"Acute disease or injury-related malnutrition (disorder)","userSelected":true}]}},"request":{"method":"PUT","url":"Observation/b2f8735d-5dff-40c1-9f01-752fe5875aba"}}]}