{"resourceType":"Bundle","id":"tests-e87069c9-7889-4954-858f-33d6ad24cd7a-bundle","type":"transaction","entry":[{"fullUrl":"Observation/a1a775ad-b6ad-4a68-bcdf-ec86cc4d05b7","resource":{"resourceType":"Observation","id":"a1a775ad-b6ad-4a68-bcdf-ec86cc4d05b7","meta":{"profile":["http://hl7.org/fhir/us/qicore/StructureDefinition/qicore-observation-screening-assessment"]},"status":"final","category":[{"coding":[{"system":"http://terminology.hl7.org/CodeSystem/observation-category","code":"survey","display":"Survey"}]}],"code":{"coding":[{"system":"http://loinc.org","code":"98967-3","display":"Nutritional Risk Screening 2002 panel","userSelected":true}]},"subject":{"reference":"Patient/e87069c9-7889-4954-858f-33d6ad24cd7a"},"effectiveDateTime":"2026-10-01T09:00:00.000+00:00","valueCodeableConcept":{"coding":[{"system":"http://loinc.org","code":"LA33699-2","display":"Not at risk for malnutrition","userSelected":true}]}},"request":{"method":"PUT","url":"Observation/a1a775ad-b6ad-4a68-bcdf-ec86cc4d05b7"}},{"fullUrl":"Observation/58297f86-6f0c-4c6c-a775-967922eb27fc","resource":{"resourceType":"Observation","id":"58297f86-6f0c-4c6c-a775-967922eb27fc","meta":{"profile":["http://hl7.org/fhir/us/qicore/StructureDefinition/qicore-observation-screening-assessment"]},"status":"final","category":[{"coding":[{"system":"http://terminology.hl7.org/CodeSystem/observation-category","code":"survey","display":"Survey"}]}],"code":{"coding":[{"system":"http://loinc.org","code":"75282-4","display":"Nutrition assessment panel","userSelected":true}]},"subject":{"reference":"Patient/e87069c9-7889-4954-858f-33d6ad24cd7a"},"effectiveDateTime":"2026-08-01T10:00:00.000+00:00","valueCodeableConcept":{"coding":[{"system":"http://snomed.info/sct","code":"102636009","display":"Chronic nutritional deficiency (finding)","userSelected":true}]}},"request":{"method":"PUT","url":"Observation/58297f86-6f0c-4c6c-a775-967922eb27fc"}},{"fullUrl":"Encounter/f90c40a6-9993-478c-ad93-ec21668b4352","resource":{"resourceType":"Encounter","id":"f90c40a6-9993-478c-ad93-ec21668b4352","meta":{"profile":["http://hl7.org/fhir/us/qicore/StructureDefinition/qicore-encounter"]},"status":"finished","class":{"system":"http://terminology.hl7.org/CodeSystem/v3-ActCode","code":"IMP","display":"inpatient encounter"},"type":[{"coding":[{"system":"http://snomed.info/sct","code":"183452005"}]}],"subject":{"reference":"Patient/e87069c9-7889-4954-858f-33d6ad24cd7a"},"period":{"start":"2026-08-01T08:00:00.000+00:00","end":"2026-08-07T08:15:00.000+00:00"}},"request":{"method":"PUT","url":"Encounter/f90c40a6-9993-478c-ad93-ec21668b4352"}},{"fullUrl":"Procedure/4e34a4b1-1604-409e-8b95-5efd6c62df7d","resource":{"resourceType":"Procedure","id":"4e34a4b1-1604-409e-8b95-5efd6c62df7d","meta":{"profile":["http://hl7.org/fhir/us/qicore/StructureDefinition/qicore-procedure"]},"extension":[{"url":"http://hl7.org/fhir/us/qicore/StructureDefinition/qicore-recorded","valueDateTime":"2025-10-02T11:30:00.000+00:00"}],"status":"completed","code":{"coding":[{"system":"http://snomed.info/sct","code":"410175003","display":"Dietary regime management (procedure)"}],"text":"Dietary regime management (procedure"},"subject":{"reference":"Patient/e87069c9-7889-4954-858f-33d6ad24cd7a"},"encounter":{"reference":"Encounter/2EncounterBothNotAtriskMSROBSPass4"},"performedPeriod":{"start":"2026-10-01T11:30:00.000+00:00","end":"2026-10-07T08:15:00.000+00:00"}},"request":{"method":"PUT","url":"Procedure/4e34a4b1-1604-409e-8b95-5efd6c62df7d"}},{"fullUrl":"Condition/a8b83a8d-4586-4953-a193-6e2a74214f16","resource":{"resourceType":"Condition","id":"a8b83a8d-4586-4953-a193-6e2a74214f16","meta":{"profile":["http://hl7.org/fhir/us/qicore/StructureDefinition/qicore-condition-encounter-diagnosis"]},"clinicalStatus":{"coding":[{"system":"http://terminology.hl7.org/CodeSystem/condition-clinical","code":"active","display":"Active","userSelected":true}]},"verificationStatus":{"coding":[{"system":"http://terminology.hl7.org/CodeSystem/condition-ver-status","code":"confirmed","display":"Confirmed","userSelected":true}]},"category":[{"coding":[{"system":"http://terminology.hl7.org/CodeSystem/condition-category","code":"encounter-diagnosis","display":"Encounter Diagnosis","userSelected":true}]}],"code":{"coding":[{"system":"http://snomed.info/sct","code":"190606006","display":"Moderate protein energy malnutrition (disorder)","userSelected":true}]},"subject":{"reference":"Patient/e87069c9-7889-4954-858f-33d6ad24cd7a"},"onsetPeriod":{"start":"2026-08-01T08:00:00.000+00:00"},"recordedDate":"2026-08-01T11:00:00.000+00:00"},"request":{"method":"PUT","url":"Condition/a8b83a8d-4586-4953-a193-6e2a74214f16"}},{"fullUrl":"Encounter/8af603dd-fa39-490b-98e4-6ed5266ef481","resource":{"resourceType":"Encounter","id":"8af603dd-fa39-490b-98e4-6ed5266ef481","meta":{"profile":["http://hl7.org/fhir/us/qicore/StructureDefinition/qicore-encounter"]},"status":"finished","class":{"system":"http://terminology.hl7.org/CodeSystem/v3-ActCode","code":"IMP","display":"inpatient encounter"},"type":[{"coding":[{"system":"http://snomed.info/sct","code":"183452005"}]}],"subject":{"reference":"Patient/e87069c9-7889-4954-858f-33d6ad24cd7a"},"period":{"start":"2026-10-01T08:00:00.000+00:00","end":"2026-10-07T08:15:00.000+00:00"}},"request":{"method":"PUT","url":"Encounter/8af603dd-fa39-490b-98e4-6ed5266ef481"}},{"fullUrl":"Patient/e87069c9-7889-4954-858f-33d6ad24cd7a","resource":{"resourceType":"Patient","id":"e87069c9-7889-4954-858f-33d6ad24cd7a","meta":{"profile":["http://hl7.org/fhir/us/qicore/StructureDefinition/qicore-patient"]},"extension":[{"url":"http://hl7.org/fhir/us/core/StructureDefinition/us-core-race","extension":[{"url":"ombCategory","valueCoding":{"system":"urn:oid:2.16.840.1.113883.6.238","code":"2106-3","display":"White","userSelected":true}},{"url":"text","valueString":"White"}]},{"url":"http://hl7.org/fhir/us/core/StructureDefinition/us-core-ethnicity","extension":[{"url":"ombCategory","valueCoding":{"system":"urn:oid:2.16.840.1.113883.6.238","code":"2186-5","display":"Not Hispanic or Latino","userSelected":true}},{"url":"text","valueString":"Not Hispanic or Latino"}]},{"url":"http://hl7.org/fhir/us/core/StructureDefinition/us-core-sex","valueCode":"248153007"}],"identifier":[{"type":{"coding":[{"system":"http://terminology.hl7.org/CodeSystem/v2-0203","code":"MR"}]},"system":"https://madie.cms.gov/","value":"2EncounterBothNotAtrisk"}],"active":true,"name":[{"use":"usual","text":"2EncounterBothNotAtrisk","family":"MSROBSPass1","given":["2EncounterBothNotAtrisk"]}],"gender":"male","birthDate":"1954-01-01","address":[{"text":"2EncounterBothNotAtrisk, Screened at risk then not at risk, ID=2EncounterBothNotAtrisk, DOB: 01 Jan 1954"}]},"request":{"method":"PUT","url":"Patient/e87069c9-7889-4954-858f-33d6ad24cd7a"}},{"fullUrl":"Procedure/3de8b5c0-bbb2-4acd-a2c0-08a4167a56d5","resource":{"resourceType":"Procedure","id":"3de8b5c0-bbb2-4acd-a2c0-08a4167a56d5","meta":{"profile":["http://hl7.org/fhir/us/qicore/StructureDefinition/qicore-procedure"]},"extension":[{"url":"http://hl7.org/fhir/us/qicore/StructureDefinition/qicore-recorded","valueDateTime":"2026-08-02T11:30:00.000+00:00"}],"status":"completed","code":{"coding":[{"system":"http://snomed.info/sct","code":"413315001","display":"Nutrition / feeding management (regime/therapy)"}],"text":"Nutrition / feeding management (regime/therapy)"},"subject":{"reference":"Patient/e87069c9-7889-4954-858f-33d6ad24cd7a"},"encounter":{"reference":"Encounter/2EncounterBothNotAtriskMSROBSPass4"},"performedPeriod":{"start":"2026-08-01T11:30:00.000+00:00","end":"2026-08-07T08:15:00.000+00:00"}},"request":{"method":"PUT","url":"Procedure/3de8b5c0-bbb2-4acd-a2c0-08a4167a56d5"}},{"fullUrl":"MeasureReport/4e4cad68-06fa-4704-aa26-552eec594547","resource":{"resourceType":"MeasureReport","id":"4e4cad68-06fa-4704-aa26-552eec594547","meta":{"profile":["http://hl7.org/fhir/us/cqfmeasures/StructureDefinition/test-case-cqfm"]},"contained":[{"resourceType":"Parameters","id":"05600234-d3e5-41e1-a0fb-b008db1abdc0-parameters","parameter":[{"name":"subject","valueString":"e87069c9-7889-4954-858f-33d6ad24cd7a"}]}],"extension":[{"url":"http://hl7.org/fhir/StructureDefinition/cqf-inputParameters","valueReference":{"reference":"#05600234-d3e5-41e1-a0fb-b008db1abdc0-parameters"}},{"url":"http://hl7.org/fhir/us/cqfmeasures/StructureDefinition/cqfm-testCaseDescription","valueMarkdown":"2 encounters both screens not at risk, no referral"}],"modifierExtension":[{"url":"http://hl7.org/fhir/us/cqfmeasures/StructureDefinition/cqfm-isTestCase","valueBoolean":true}],"status":"complete","type":"individual","measure":"https://madie.cms.gov/Measure/CMS986FHIRMalnutritionScore","period":{"start":"2026-01-01","end":"2026-12-31"},"group":[{"id":"Group_1","population":[{"id":"InitialPopulation_1","code":{"coding":[{"system":"http://terminology.hl7.org/CodeSystem/measure-population","code":"initial-population","display":"Initial Population"}]},"count":2},{"id":"MeasurePopulation_1","code":{"coding":[{"system":"http://terminology.hl7.org/CodeSystem/measure-population","code":"measure-population","display":"Measure Population"}]},"count":2},{"id":"MeasurePopulationExclusion_1","code":{"coding":[{"system":"http://terminology.hl7.org/CodeSystem/measure-population","code":"measure-population-exclusion","display":"Measure Population Exclusion"}]},"count":0},{"id":"MeasureObservation_1_1","code":{"coding":[{"system":"http://terminology.hl7.org/CodeSystem/measure-population","code":"measure-population-observation","display":"Measure Population Observation"}]},"count":1},{"id":"MeasureObservation_1_2","code":{"coding":[{"system":"http://terminology.hl7.org/CodeSystem/measure-population","code":"measure-population-observation","display":"Measure Population Observation"}]},"count":1}],"measureScore":{"value":0.0}},{"id":"Group_2","population":[{"id":"InitialPopulation_2","code":{"coding":[{"system":"http://terminology.hl7.org/CodeSystem/measure-population","code":"initial-population","display":"Initial Population"}]},"count":2},{"id":"MeasurePopulation_2","code":{"coding":[{"system":"http://terminology.hl7.org/CodeSystem/measure-population","code":"measure-population","display":"Measure Population"}]},"count":2},{"id":"MeasurePopulationExclusion_2","code":{"coding":[{"system":"http://terminology.hl7.org/CodeSystem/measure-population","code":"measure-population-exclusion","display":"Measure Population Exclusion"}]},"count":0},{"id":"MeasureObservation_2_1","code":{"coding":[{"system":"http://terminology.hl7.org/CodeSystem/measure-population","code":"measure-population-observation","display":"Measure Population Observation"}]},"count":0},{"id":"MeasureObservation_2_2","code":{"coding":[{"system":"http://terminology.hl7.org/CodeSystem/measure-population","code":"measure-population-observation","display":"Measure Population Observation"}]},"count":0}],"measureScore":{"value":0.0}},{"id":"Group_3","population":[{"id":"InitialPopulation_3","code":{"coding":[{"system":"http://terminology.hl7.org/CodeSystem/measure-population","code":"initial-population","display":"Initial Population"}]},"count":2},{"id":"MeasurePopulation_3","code":{"coding":[{"system":"http://terminology.hl7.org/CodeSystem/measure-population","code":"measure-population","display":"Measure Population"}]},"count":2},{"id":"MeasurePopulationExclusion_3","code":{"coding":[{"system":"http://terminology.hl7.org/CodeSystem/measure-population","code":"measure-population-exclusion","display":"Measure Population Exclusion"}]},"count":0},{"id":"MeasureObservation_3_1","code":{"coding":[{"system":"http://terminology.hl7.org/CodeSystem/measure-population","code":"measure-population-observation","display":"Measure Population Observation"}]},"count":0},{"id":"MeasureObservation_3_2","code":{"coding":[{"system":"http://terminology.hl7.org/CodeSystem/measure-population","code":"measure-population-observation","display":"Measure Population Observation"}]},"count":0}],"measureScore":{"value":0.0}},{"id":"Group_4","population":[{"id":"InitialPopulation_4","code":{"coding":[{"system":"http://terminology.hl7.org/CodeSystem/measure-population","code":"initial-population","display":"Initial Population"}]},"count":2},{"id":"MeasurePopulation_4","code":{"coding":[{"system":"http://terminology.hl7.org/CodeSystem/measure-population","code":"measure-population","display":"Measure Population"}]},"count":2},{"id":"MeasurePopulationExclusion_4","code":{"coding":[{"system":"http://terminology.hl7.org/CodeSystem/measure-population","code":"measure-population-exclusion","display":"Measure Population Exclusion"}]},"count":0},{"id":"MeasureObservation_4_1","code":{"coding":[{"system":"http://terminology.hl7.org/CodeSystem/measure-population","code":"measure-population-observation","display":"Measure Population Observation"}]},"count":0},{"id":"MeasureObservation_4_2","code":{"coding":[{"system":"http://terminology.hl7.org/CodeSystem/measure-population","code":"measure-population-observation","display":"Measure Population Observation"}]},"count":0}],"measureScore":{"value":0.0}},{"id":"Group_5","population":[{"id":"InitialPopulation_5","code":{"coding":[{"system":"http://terminology.hl7.org/CodeSystem/measure-population","code":"initial-population","display":"Initial Population"}]},"count":2},{"id":"MeasurePopulation_5","code":{"coding":[{"system":"http://terminology.hl7.org/CodeSystem/measure-population","code":"measure-population","display":"Measure Population"}]},"count":2},{"id":"MeasurePopulationExclusion_5","code":{"coding":[{"system":"http://terminology.hl7.org/CodeSystem/measure-population","code":"measure-population-exclusion","display":"Measure Population Exclusion"}]},"count":0},{"id":"MeasureObservation_5_1","code":{"coding":[{"system":"http://terminology.hl7.org/CodeSystem/measure-population","code":"measure-population-observation","display":"Measure Population Observation"}]},"count":1},{"id":"MeasureObservation_5_2","code":{"coding":[{"system":"http://terminology.hl7.org/CodeSystem/measure-population","code":"measure-population-observation","display":"Measure Population Observation"}]},"count":1}],"measureScore":{"value":0.0}},{"id":"Group_6","population":[{"id":"InitialPopulation_6","code":{"coding":[{"system":"http://terminology.hl7.org/CodeSystem/measure-population","code":"initial-population","display":"Initial Population"}]},"count":2},{"id":"MeasurePopulation_6","code":{"coding":[{"system":"http://terminology.hl7.org/CodeSystem/measure-population","code":"measure-population","display":"Measure Population"}]},"count":2},{"id":"MeasurePopulationExclusion_6","code":{"coding":[{"system":"http://terminology.hl7.org/CodeSystem/measure-population","code":"measure-population-exclusion","display":"Measure Population Exclusion"}]},"count":0},{"id":"MeasureObservation_6_1","code":{"coding":[{"system":"http://terminology.hl7.org/CodeSystem/measure-population","code":"measure-population-observation","display":"Measure Population Observation"}]},"count":100},{"id":"MeasureObservation_6_2","code":{"coding":[{"system":"http://terminology.hl7.org/CodeSystem/measure-population","code":"measure-population-observation","display":"Measure Population Observation"}]},"count":100}],"measureScore":{"value":0.0}}],"evaluatedResource":[{"reference":"Patient/e87069c9-7889-4954-858f-33d6ad24cd7a"},{"reference":"Encounter/8af603dd-fa39-490b-98e4-6ed5266ef481"},{"reference":"Condition/4c0e164f-28ab-4e86-a2c1-7452b1f2b450"},{"reference":"Observation/a1a775ad-b6ad-4a68-bcdf-ec86cc4d05b7"},{"reference":"Observation/d2c86a79-e213-4d7e-b2de-540f271946e9"},{"reference":"Procedure/4e34a4b1-1604-409e-8b95-5efd6c62df7d"},{"reference":"Coverage/d9537a04-dcbf-440a-b2df-24e54d3ed04e"},{"reference":"Encounter/f90c40a6-9993-478c-ad93-ec21668b4352"},{"reference":"Condition/a8b83a8d-4586-4953-a193-6e2a74214f16"},{"reference":"Observation/58297f86-6f0c-4c6c-a775-967922eb27fc"},{"reference":"Observation/a1ceebec-8ec3-4382-96da-a56cfc2e46be"},{"reference":"Procedure/3de8b5c0-bbb2-4acd-a2c0-08a4167a56d5"},{"reference":"Coverage/d1476977-e531-4407-ae6f-b41b382b956f"},{"reference":"Organization/0dfe0bce-3d32-449f-b789-6ad9dcf7b150"}]},"request":{"method":"PUT","url":"MeasureReport/4e4cad68-06fa-4704-aa26-552eec594547"}},{"fullUrl":"Bundle/2EncounterBothNotAtrisk","resource":{"resourceType":"Bundle","id":"2EncounterBothNotAtrisk","type":"transaction","entry":[{"fullUrl":"https://madie.cms.gov/Patient/e87069c9-7889-4954-858f-33d6ad24cd7a","resource":{"resourceType":"Patient","id":"e87069c9-7889-4954-858f-33d6ad24cd7a","meta":{"profile":["http://hl7.org/fhir/us/qicore/StructureDefinition/qicore-patient"]},"extension":[{"url":"http://hl7.org/fhir/us/core/StructureDefinition/us-core-race","extension":[{"url":"ombCategory","valueCoding":{"system":"urn:oid:2.16.840.1.113883.6.238","code":"2106-3","display":"White","userSelected":true}},{"url":"text","valueString":"White"}]},{"url":"http://hl7.org/fhir/us/core/StructureDefinition/us-core-ethnicity","extension":[{"url":"ombCategory","valueCoding":{"system":"urn:oid:2.16.840.1.113883.6.238","code":"2186-5","display":"Not Hispanic or Latino","userSelected":true}},{"url":"text","valueString":"Not Hispanic or Latino"}]},{"url":"http://hl7.org/fhir/us/core/StructureDefinition/us-core-sex","valueCode":"248153007"}],"identifier":[{"type":{"coding":[{"system":"http://terminology.hl7.org/CodeSystem/v2-0203","code":"MR"}]},"system":"https://madie.cms.gov/","value":"2EncounterBothNotAtrisk"}],"active":true,"name":[{"use":"usual","text":"2EncounterBothNotAtrisk","family":"MSROBSPass1","given":["2EncounterBothNotAtrisk"]}],"gender":"male","birthDate":"1954-01-01","address":[{"text":"2EncounterBothNotAtrisk, Screened at risk then not at risk, ID=2EncounterBothNotAtrisk, DOB: 01 Jan 1954"}]},"request":{"method":"PUT","url":"Patient/e87069c9-7889-4954-858f-33d6ad24cd7a"}},{"fullUrl":"https://madie.cms.gov/Encounter/8af603dd-fa39-490b-98e4-6ed5266ef481","resource":{"resourceType":"Encounter","id":"8af603dd-fa39-490b-98e4-6ed5266ef481","meta":{"profile":["http://hl7.org/fhir/us/qicore/StructureDefinition/qicore-encounter"]},"status":"finished","class":{"system":"http://terminology.hl7.org/CodeSystem/v3-ActCode","code":"IMP","display":"inpatient encounter"},"type":[{"coding":[{"system":"http://snomed.info/sct","code":"183452005"}]}],"subject":{"reference":"Patient/e87069c9-7889-4954-858f-33d6ad24cd7a"},"period":{"start":"2026-10-01T08:00:00.000+00:00","end":"2026-10-07T08:15:00.000+00:00"}},"request":{"method":"PUT","url":"Encounter/8af603dd-fa39-490b-98e4-6ed5266ef481"}},{"fullUrl":"https://madie.cms.gov/Condition/4c0e164f-28ab-4e86-a2c1-7452b1f2b450","resource":{"resourceType":"Condition","id":"4c0e164f-28ab-4e86-a2c1-7452b1f2b450","meta":{"profile":["http://hl7.org/fhir/us/qicore/StructureDefinition/qicore-condition-encounter-diagnosis"]},"clinicalStatus":{"coding":[{"system":"http://terminology.hl7.org/CodeSystem/condition-clinical","code":"active","display":"Active","userSelected":true}]},"verificationStatus":{"coding":[{"system":"http://terminology.hl7.org/CodeSystem/condition-ver-status","code":"confirmed","display":"Confirmed","userSelected":true}]},"category":[{"coding":[{"system":"http://terminology.hl7.org/CodeSystem/condition-category","code":"encounter-diagnosis","display":"Encounter Diagnosis","userSelected":true}]}],"code":{"coding":[{"system":"http://hl7.org/fhir/sid/icd-10-cm","code":"O25.2","display":"Malnutrition in childbirth","userSelected":true}]},"subject":{"reference":"Patient/e87069c9-7889-4954-858f-33d6ad24cd7a"},"onsetPeriod":{"start":"2026-10-01T08:00:00.000+00:00"},"recordedDate":"2026-10-01T11:00:00.000+00:00"},"request":{"method":"PUT","url":"Condition/4c0e164f-28ab-4e86-a2c1-7452b1f2b450"}},{"fullUrl":"https://madie.cms.gov/Observation/a1a775ad-b6ad-4a68-bcdf-ec86cc4d05b7","resource":{"resourceType":"Observation","id":"a1a775ad-b6ad-4a68-bcdf-ec86cc4d05b7","meta":{"profile":["http://hl7.org/fhir/us/qicore/StructureDefinition/qicore-observation-screening-assessment"]},"status":"final","category":[{"coding":[{"system":"http://terminology.hl7.org/CodeSystem/observation-category","code":"survey","display":"Survey"}]}],"code":{"coding":[{"system":"http://loinc.org","code":"98967-3","display":"Nutritional Risk Screening 2002 panel","userSelected":true}]},"subject":{"reference":"Patient/e87069c9-7889-4954-858f-33d6ad24cd7a"},"effectiveDateTime":"2026-10-01T09:00:00.000+00:00","valueCodeableConcept":{"coding":[{"system":"http://loinc.org","code":"LA33699-2","display":"Not at risk for malnutrition","userSelected":true}]}},"request":{"method":"PUT","url":"Observation/a1a775ad-b6ad-4a68-bcdf-ec86cc4d05b7"}},{"fullUrl":"https://madie.cms.gov/Observation/d2c86a79-e213-4d7e-b2de-540f271946e9","resource":{"resourceType":"Observation","id":"d2c86a79-e213-4d7e-b2de-540f271946e9","meta":{"profile":["http://hl7.org/fhir/us/qicore/StructureDefinition/qicore-observation-screening-assessment"]},"status":"final","category":[{"coding":[{"system":"http://terminology.hl7.org/CodeSystem/observation-category","code":"survey","display":"Survey"}]}],"code":{"coding":[{"system":"http://loinc.org","code":"75282-4","display":"Nutrition assessment panel","userSelected":true}]},"subject":{"reference":"Patient/e87069c9-7889-4954-858f-33d6ad24cd7a"},"effectiveDateTime":"2026-10-01T10:00:00.000+00:00","valueCodeableConcept":{"coding":[{"system":"http://snomed.info/sct","code":"102636009","display":"Chronic nutritional deficiency (finding)","userSelected":true}]}},"request":{"method":"PUT","url":"Observation/d2c86a79-e213-4d7e-b2de-540f271946e9"}},{"fullUrl":"https://madie.cms.gov/Procedure/4e34a4b1-1604-409e-8b95-5efd6c62df7d","resource":{"resourceType":"Procedure","id":"4e34a4b1-1604-409e-8b95-5efd6c62df7d","meta":{"profile":["http://hl7.org/fhir/us/qicore/StructureDefinition/qicore-procedure"]},"extension":[{"url":"http://hl7.org/fhir/us/qicore/StructureDefinition/qicore-recorded","valueDateTime":"2025-10-02T11:30:00.000+00:00"}],"status":"completed","code":{"coding":[{"system":"http://snomed.info/sct","code":"410175003","display":"Dietary regime management (procedure)"}],"text":"Dietary regime management (procedure"},"subject":{"reference":"Patient/e87069c9-7889-4954-858f-33d6ad24cd7a"},"encounter":{"reference":"Encounter/2EncounterBothNotAtriskMSROBSPass4"},"performedPeriod":{"start":"2026-10-01T11:30:00.000+00:00","end":"2026-10-07T08:15:00.000+00:00"}},"request":{"method":"PUT","url":"Procedure/4e34a4b1-1604-409e-8b95-5efd6c62df7d"}},{"fullUrl":"https://madie.cms.gov/Coverage/d9537a04-dcbf-440a-b2df-24e54d3ed04e","resource":{"resourceType":"Coverage","id":"d9537a04-dcbf-440a-b2df-24e54d3ed04e","meta":{"profile":["http://hl7.org/fhir/us/qicore/StructureDefinition/qicore-coverage"]},"status":"active","type":{"coding":[{"system":"https://nahdo.org/sopt","version":"9.2","code":"11","display":"Medicare Managed Care (Includes Medicare Advantage Plans)"}]},"subscriberId":"97531","beneficiary":{"reference":"Patient/e87069c9-7889-4954-858f-33d6ad24cd7a"},"dependent":"0","relationship":{"coding":[{"system":"http://terminology.hl7.org/CodeSystem/subscriber-relationship","code":"self"}]},"period":{"start":"2024-10-01T00:00:00.000+00:00"},"payor":[{"reference":"Organization/0dfe0bce-3d32-449f-b789-6ad9dcf7b150"}]},"request":{"method":"PUT","url":"Coverage/d9537a04-dcbf-440a-b2df-24e54d3ed04e"}},{"fullUrl":"https://madie.cms.gov/Encounter/f90c40a6-9993-478c-ad93-ec21668b4352","resource":{"resourceType":"Encounter","id":"f90c40a6-9993-478c-ad93-ec21668b4352","meta":{"profile":["http://hl7.org/fhir/us/qicore/StructureDefinition/qicore-encounter"]},"status":"finished","class":{"system":"http://terminology.hl7.org/CodeSystem/v3-ActCode","code":"IMP","display":"inpatient encounter"},"type":[{"coding":[{"system":"http://snomed.info/sct","code":"183452005"}]}],"subject":{"reference":"Patient/e87069c9-7889-4954-858f-33d6ad24cd7a"},"period":{"start":"2026-08-01T08:00:00.000+00:00","end":"2026-08-07T08:15:00.000+00:00"}},"request":{"method":"PUT","url":"Encounter/f90c40a6-9993-478c-ad93-ec21668b4352"}},{"fullUrl":"https://madie.cms.gov/Condition/a8b83a8d-4586-4953-a193-6e2a74214f16","resource":{"resourceType":"Condition","id":"a8b83a8d-4586-4953-a193-6e2a74214f16","meta":{"profile":["http://hl7.org/fhir/us/qicore/StructureDefinition/qicore-condition-encounter-diagnosis"]},"clinicalStatus":{"coding":[{"system":"http://terminology.hl7.org/CodeSystem/condition-clinical","code":"active","display":"Active","userSelected":true}]},"verificationStatus":{"coding":[{"system":"http://terminology.hl7.org/CodeSystem/condition-ver-status","code":"confirmed","display":"Confirmed","userSelected":true}]},"category":[{"coding":[{"system":"http://terminology.hl7.org/CodeSystem/condition-category","code":"encounter-diagnosis","display":"Encounter Diagnosis","userSelected":true}]}],"code":{"coding":[{"system":"http://snomed.info/sct","code":"190606006","display":"Moderate protein energy malnutrition (disorder)","userSelected":true}]},"subject":{"reference":"Patient/e87069c9-7889-4954-858f-33d6ad24cd7a"},"onsetPeriod":{"start":"2026-08-01T08:00:00.000+00:00"},"recordedDate":"2026-08-01T11:00:00.000+00:00"},"request":{"method":"PUT","url":"Condition/a8b83a8d-4586-4953-a193-6e2a74214f16"}},{"fullUrl":"https://madie.cms.gov/Observation/58297f86-6f0c-4c6c-a775-967922eb27fc","resource":{"resourceType":"Observation","id":"58297f86-6f0c-4c6c-a775-967922eb27fc","meta":{"profile":["http://hl7.org/fhir/us/qicore/StructureDefinition/qicore-observation-screening-assessment"]},"status":"final","category":[{"coding":[{"system":"http://terminology.hl7.org/CodeSystem/observation-category","code":"survey","display":"Survey"}]}],"code":{"coding":[{"system":"http://loinc.org","code":"75282-4","display":"Nutrition assessment panel","userSelected":true}]},"subject":{"reference":"Patient/e87069c9-7889-4954-858f-33d6ad24cd7a"},"effectiveDateTime":"2026-08-01T10:00:00.000+00:00","valueCodeableConcept":{"coding":[{"system":"http://snomed.info/sct","code":"102636009","display":"Chronic nutritional deficiency (finding)","userSelected":true}]}},"request":{"method":"PUT","url":"Observation/58297f86-6f0c-4c6c-a775-967922eb27fc"}},{"fullUrl":"https://madie.cms.gov/Observation/a1ceebec-8ec3-4382-96da-a56cfc2e46be","resource":{"resourceType":"Observation","id":"a1ceebec-8ec3-4382-96da-a56cfc2e46be","meta":{"profile":["http://hl7.org/fhir/us/qicore/StructureDefinition/qicore-observation-screening-assessment"]},"status":"final","category":[{"coding":[{"system":"http://terminology.hl7.org/CodeSystem/observation-category","code":"survey","display":"Survey"}]}],"code":{"coding":[{"system":"http://loinc.org","code":"98968-1","display":"Initial screening NRS_2002","userSelected":true}]},"subject":{"reference":"Patient/e87069c9-7889-4954-858f-33d6ad24cd7a"},"effectiveDateTime":"2026-08-01T09:00:00.000+00:00","valueCodeableConcept":{"coding":[{"system":"http://loinc.org","code":"LA33699-2","display":"Not at risk for malnutrition","userSelected":true}]}},"request":{"method":"PUT","url":"Observation/a1ceebec-8ec3-4382-96da-a56cfc2e46be"}},{"fullUrl":"https://madie.cms.gov/Procedure/3de8b5c0-bbb2-4acd-a2c0-08a4167a56d5","resource":{"resourceType":"Procedure","id":"3de8b5c0-bbb2-4acd-a2c0-08a4167a56d5","meta":{"profile":["http://hl7.org/fhir/us/qicore/StructureDefinition/qicore-procedure"]},"extension":[{"url":"http://hl7.org/fhir/us/qicore/StructureDefinition/qicore-recorded","valueDateTime":"2026-08-02T11:30:00.000+00:00"}],"status":"completed","code":{"coding":[{"system":"http://snomed.info/sct","code":"413315001","display":"Nutrition / feeding management (regime/therapy)"}],"text":"Nutrition / feeding management (regime/therapy)"},"subject":{"reference":"Patient/e87069c9-7889-4954-858f-33d6ad24cd7a"},"encounter":{"reference":"Encounter/2EncounterBothNotAtriskMSROBSPass4"},"performedPeriod":{"start":"2026-08-01T11:30:00.000+00:00","end":"2026-08-07T08:15:00.000+00:00"}},"request":{"method":"PUT","url":"Procedure/3de8b5c0-bbb2-4acd-a2c0-08a4167a56d5"}},{"fullUrl":"https://madie.cms.gov/Coverage/d1476977-e531-4407-ae6f-b41b382b956f","resource":{"resourceType":"Coverage","id":"d1476977-e531-4407-ae6f-b41b382b956f","meta":{"profile":["http://hl7.org/fhir/us/qicore/StructureDefinition/qicore-coverage"]},"status":"active","type":{"coding":[{"system":"https://nahdo.org/sopt","version":"9.2","code":"11","display":"Medicare Managed Care (Includes Medicare Advantage Plans)"}]},"subscriberId":"97531","beneficiary":{"reference":"Patient/e87069c9-7889-4954-858f-33d6ad24cd7a"},"dependent":"0","relationship":{"coding":[{"system":"http://terminology.hl7.org/CodeSystem/subscriber-relationship","code":"self"}]},"period":{"start":"2024-10-01T00:00:00.000+00:00"},"payor":[{"reference":"Organization/0dfe0bce-3d32-449f-b789-6ad9dcf7b150"}]},"request":{"method":"PUT","url":"Coverage/d1476977-e531-4407-ae6f-b41b382b956f"}},{"fullUrl":"https://madie.cms.gov/Organization/0dfe0bce-3d32-449f-b789-6ad9dcf7b150","resource":{"resourceType":"Organization","id":"0dfe0bce-3d32-449f-b789-6ad9dcf7b150","meta":{"profile":["http://hl7.org/fhir/us/qicore/StructureDefinition/qicore-organization"]},"identifier":[{"use":"temp","system":"urn:oid:2.16.840.1.113883.4.4","value":"21-3259825"}],"active":true,"type":[{"coding":[{"system":"http://terminology.hl7.org/CodeSystem/organization-type","code":"pay","display":"Payer"}]}],"name":"Blue Cross Blue Shield of Texas","telecom":[{"system":"phone","value":"(+1) 972-766-6900"}],"address":[{"use":"billing","type":"postal","line":["P.O. Box 660044"],"city":"Dallas","state":"TX","postalCode":"75266-0044","country":"USA"}]},"request":{"method":"PUT","url":"Organization/0dfe0bce-3d32-449f-b789-6ad9dcf7b150"}},{"fullUrl":"https://madie.cms.gov/MeasureReport/4e4cad68-06fa-4704-aa26-552eec594547","resource":{"resourceType":"MeasureReport","id":"4e4cad68-06fa-4704-aa26-552eec594547","meta":{"profile":["http://hl7.org/fhir/us/cqfmeasures/StructureDefinition/test-case-cqfm"]},"contained":[{"resourceType":"Parameters","id":"05600234-d3e5-41e1-a0fb-b008db1abdc0-parameters","parameter":[{"name":"subject","valueString":"e87069c9-7889-4954-858f-33d6ad24cd7a"}]}],"extension":[{"url":"http://hl7.org/fhir/StructureDefinition/cqf-inputParameters","valueReference":{"reference":"#05600234-d3e5-41e1-a0fb-b008db1abdc0-parameters"}},{"url":"http://hl7.org/fhir/us/cqfmeasures/StructureDefinition/cqfm-testCaseDescription","valueMarkdown":"2 encounters both screens not at risk, no referral"}],"modifierExtension":[{"url":"http://hl7.org/fhir/us/cqfmeasures/StructureDefinition/cqfm-isTestCase","valueBoolean":true}],"status":"complete","type":"individual","measure":"https://madie.cms.gov/Measure/CMS986FHIRMalnutritionScore","period":{"start":"2026-01-01","end":"2026-12-31"},"group":[{"id":"Group_1","population":[{"id":"InitialPopulation_1","code":{"coding":[{"system":"http://terminology.hl7.org/CodeSystem/measure-population","code":"initial-population","display":"Initial Population"}]},"count":2},{"id":"MeasurePopulation_1","code":{"coding":[{"system":"http://terminology.hl7.org/CodeSystem/measure-population","code":"measure-population","display":"Measure Population"}]},"count":2},{"id":"MeasurePopulationExclusion_1","code":{"coding":[{"system":"http://terminology.hl7.org/CodeSystem/measure-population","code":"measure-population-exclusion","display":"Measure Population Exclusion"}]},"count":0},{"id":"MeasureObservation_1_1","code":{"coding":[{"system":"http://terminology.hl7.org/CodeSystem/measure-population","code":"measure-population-observation","display":"Measure Population Observation"}]},"count":1},{"id":"MeasureObservation_1_2","code":{"coding":[{"system":"http://terminology.hl7.org/CodeSystem/measure-population","code":"measure-population-observation","display":"Measure Population Observation"}]},"count":1}],"measureScore":{"value":0.0}},{"id":"Group_2","population":[{"id":"InitialPopulation_2","code":{"coding":[{"system":"http://terminology.hl7.org/CodeSystem/measure-population","code":"initial-population","display":"Initial Population"}]},"count":2},{"id":"MeasurePopulation_2","code":{"coding":[{"system":"http://terminology.hl7.org/CodeSystem/measure-population","code":"measure-population","display":"Measure Population"}]},"count":2},{"id":"MeasurePopulationExclusion_2","code":{"coding":[{"system":"http://terminology.hl7.org/CodeSystem/measure-population","code":"measure-population-exclusion","display":"Measure Population Exclusion"}]},"count":0},{"id":"MeasureObservation_2_1","code":{"coding":[{"system":"http://terminology.hl7.org/CodeSystem/measure-population","code":"measure-population-observation","display":"Measure Population Observation"}]},"count":0},{"id":"MeasureObservation_2_2","code":{"coding":[{"system":"http://terminology.hl7.org/CodeSystem/measure-population","code":"measure-population-observation","display":"Measure Population Observation"}]},"count":0}],"measureScore":{"value":0.0}},{"id":"Group_3","population":[{"id":"InitialPopulation_3","code":{"coding":[{"system":"http://terminology.hl7.org/CodeSystem/measure-population","code":"initial-population","display":"Initial Population"}]},"count":2},{"id":"MeasurePopulation_3","code":{"coding":[{"system":"http://terminology.hl7.org/CodeSystem/measure-population","code":"measure-population","display":"Measure Population"}]},"count":2},{"id":"MeasurePopulationExclusion_3","code":{"coding":[{"system":"http://terminology.hl7.org/CodeSystem/measure-population","code":"measure-population-exclusion","display":"Measure Population Exclusion"}]},"count":0},{"id":"MeasureObservation_3_1","code":{"coding":[{"system":"http://terminology.hl7.org/CodeSystem/measure-population","code":"measure-population-observation","display":"Measure Population Observation"}]},"count":0},{"id":"MeasureObservation_3_2","code":{"coding":[{"system":"http://terminology.hl7.org/CodeSystem/measure-population","code":"measure-population-observation","display":"Measure Population Observation"}]},"count":0}],"measureScore":{"value":0.0}},{"id":"Group_4","population":[{"id":"InitialPopulation_4","code":{"coding":[{"system":"http://terminology.hl7.org/CodeSystem/measure-population","code":"initial-population","display":"Initial Population"}]},"count":2},{"id":"MeasurePopulation_4","code":{"coding":[{"system":"http://terminology.hl7.org/CodeSystem/measure-population","code":"measure-population","display":"Measure Population"}]},"count":2},{"id":"MeasurePopulationExclusion_4","code":{"coding":[{"system":"http://terminology.hl7.org/CodeSystem/measure-population","code":"measure-population-exclusion","display":"Measure Population Exclusion"}]},"count":0},{"id":"MeasureObservation_4_1","code":{"coding":[{"system":"http://terminology.hl7.org/CodeSystem/measure-population","code":"measure-population-observation","display":"Measure Population Observation"}]},"count":0},{"id":"MeasureObservation_4_2","code":{"coding":[{"system":"http://terminology.hl7.org/CodeSystem/measure-population","code":"measure-population-observation","display":"Measure Population Observation"}]},"count":0}],"measureScore":{"value":0.0}},{"id":"Group_5","population":[{"id":"InitialPopulation_5","code":{"coding":[{"system":"http://terminology.hl7.org/CodeSystem/measure-population","code":"initial-population","display":"Initial Population"}]},"count":2},{"id":"MeasurePopulation_5","code":{"coding":[{"system":"http://terminology.hl7.org/CodeSystem/measure-population","code":"measure-population","display":"Measure Population"}]},"count":2},{"id":"MeasurePopulationExclusion_5","code":{"coding":[{"system":"http://terminology.hl7.org/CodeSystem/measure-population","code":"measure-population-exclusion","display":"Measure Population Exclusion"}]},"count":0},{"id":"MeasureObservation_5_1","code":{"coding":[{"system":"http://terminology.hl7.org/CodeSystem/measure-population","code":"measure-population-observation","display":"Measure Population Observation"}]},"count":1},{"id":"MeasureObservation_5_2","code":{"coding":[{"system":"http://terminology.hl7.org/CodeSystem/measure-population","code":"measure-population-observation","display":"Measure Population Observation"}]},"count":1}],"measureScore":{"value":0.0}},{"id":"Group_6","population":[{"id":"InitialPopulation_6","code":{"coding":[{"system":"http://terminology.hl7.org/CodeSystem/measure-population","code":"initial-population","display":"Initial Population"}]},"count":2},{"id":"MeasurePopulation_6","code":{"coding":[{"system":"http://terminology.hl7.org/CodeSystem/measure-population","code":"measure-population","display":"Measure Population"}]},"count":2},{"id":"MeasurePopulationExclusion_6","code":{"coding":[{"system":"http://terminology.hl7.org/CodeSystem/measure-population","code":"measure-population-exclusion","display":"Measure Population Exclusion"}]},"count":0},{"id":"MeasureObservation_6_1","code":{"coding":[{"system":"http://terminology.hl7.org/CodeSystem/measure-population","code":"measure-population-observation","display":"Measure Population Observation"}]},"count":100},{"id":"MeasureObservation_6_2","code":{"coding":[{"system":"http://terminology.hl7.org/CodeSystem/measure-population","code":"measure-population-observation","display":"Measure Population Observation"}]},"count":100}],"measureScore":{"value":0.0}}],"evaluatedResource":[{"reference":"Patient/e87069c9-7889-4954-858f-33d6ad24cd7a"},{"reference":"Encounter/8af603dd-fa39-490b-98e4-6ed5266ef481"},{"reference":"Condition/4c0e164f-28ab-4e86-a2c1-7452b1f2b450"},{"reference":"Observation/a1a775ad-b6ad-4a68-bcdf-ec86cc4d05b7"},{"reference":"Observation/d2c86a79-e213-4d7e-b2de-540f271946e9"},{"reference":"Procedure/4e34a4b1-1604-409e-8b95-5efd6c62df7d"},{"reference":"Coverage/d9537a04-dcbf-440a-b2df-24e54d3ed04e"},{"reference":"Encounter/f90c40a6-9993-478c-ad93-ec21668b4352"},{"reference":"Condition/a8b83a8d-4586-4953-a193-6e2a74214f16"},{"reference":"Observation/58297f86-6f0c-4c6c-a775-967922eb27fc"},{"reference":"Observation/a1ceebec-8ec3-4382-96da-a56cfc2e46be"},{"reference":"Procedure/3de8b5c0-bbb2-4acd-a2c0-08a4167a56d5"},{"reference":"Coverage/d1476977-e531-4407-ae6f-b41b382b956f"},{"reference":"Organization/0dfe0bce-3d32-449f-b789-6ad9dcf7b150"}]},"request":{"method":"PUT","url":"MeasureReport/4e4cad68-06fa-4704-aa26-552eec594547"}}]},"request":{"method":"PUT","url":"Bundle/2EncounterBothNotAtrisk"}},{"fullUrl":"Condition/4c0e164f-28ab-4e86-a2c1-7452b1f2b450","resource":{"resourceType":"Condition","id":"4c0e164f-28ab-4e86-a2c1-7452b1f2b450","meta":{"profile":["http://hl7.org/fhir/us/qicore/StructureDefinition/qicore-condition-encounter-diagnosis"]},"clinicalStatus":{"coding":[{"system":"http://terminology.hl7.org/CodeSystem/condition-clinical","code":"active","display":"Active","userSelected":true}]},"verificationStatus":{"coding":[{"system":"http://terminology.hl7.org/CodeSystem/condition-ver-status","code":"confirmed","display":"Confirmed","userSelected":true}]},"category":[{"coding":[{"system":"http://terminology.hl7.org/CodeSystem/condition-category","code":"encounter-diagnosis","display":"Encounter Diagnosis","userSelected":true}]}],"code":{"coding":[{"system":"http://hl7.org/fhir/sid/icd-10-cm","code":"O25.2","display":"Malnutrition in childbirth","userSelected":true}]},"subject":{"reference":"Patient/e87069c9-7889-4954-858f-33d6ad24cd7a"},"onsetPeriod":{"start":"2026-10-01T08:00:00.000+00:00"},"recordedDate":"2026-10-01T11:00:00.000+00:00"},"request":{"method":"PUT","url":"Condition/4c0e164f-28ab-4e86-a2c1-7452b1f2b450"}},{"fullUrl":"Observation/d2c86a79-e213-4d7e-b2de-540f271946e9","resource":{"resourceType":"Observation","id":"d2c86a79-e213-4d7e-b2de-540f271946e9","meta":{"profile":["http://hl7.org/fhir/us/qicore/StructureDefinition/qicore-observation-screening-assessment"]},"status":"final","category":[{"coding":[{"system":"http://terminology.hl7.org/CodeSystem/observation-category","code":"survey","display":"Survey"}]}],"code":{"coding":[{"system":"http://loinc.org","code":"75282-4","display":"Nutrition assessment panel","userSelected":true}]},"subject":{"reference":"Patient/e87069c9-7889-4954-858f-33d6ad24cd7a"},"effectiveDateTime":"2026-10-01T10:00:00.000+00:00","valueCodeableConcept":{"coding":[{"system":"http://snomed.info/sct","code":"102636009","display":"Chronic nutritional deficiency (finding)","userSelected":true}]}},"request":{"method":"PUT","url":"Observation/d2c86a79-e213-4d7e-b2de-540f271946e9"}},{"fullUrl":"Organization/0dfe0bce-3d32-449f-b789-6ad9dcf7b150","resource":{"resourceType":"Organization","id":"0dfe0bce-3d32-449f-b789-6ad9dcf7b150","meta":{"profile":["http://hl7.org/fhir/us/qicore/StructureDefinition/qicore-organization"]},"identifier":[{"use":"temp","system":"urn:oid:2.16.840.1.113883.4.4","value":"21-3259825"}],"active":true,"type":[{"coding":[{"system":"http://terminology.hl7.org/CodeSystem/organization-type","code":"pay","display":"Payer"}]}],"name":"Blue Cross Blue Shield of Texas","telecom":[{"system":"phone","value":"(+1) 972-766-6900"}],"address":[{"use":"billing","type":"postal","line":["P.O. Box 660044"],"city":"Dallas","state":"TX","postalCode":"75266-0044","country":"USA"}]},"request":{"method":"PUT","url":"Organization/0dfe0bce-3d32-449f-b789-6ad9dcf7b150"}},{"fullUrl":"Coverage/d1476977-e531-4407-ae6f-b41b382b956f","resource":{"resourceType":"Coverage","id":"d1476977-e531-4407-ae6f-b41b382b956f","meta":{"profile":["http://hl7.org/fhir/us/qicore/StructureDefinition/qicore-coverage"]},"status":"active","type":{"coding":[{"system":"https://nahdo.org/sopt","version":"9.2","code":"11","display":"Medicare Managed Care (Includes Medicare Advantage Plans)"}]},"subscriberId":"97531","beneficiary":{"reference":"Patient/e87069c9-7889-4954-858f-33d6ad24cd7a"},"dependent":"0","relationship":{"coding":[{"system":"http://terminology.hl7.org/CodeSystem/subscriber-relationship","code":"self"}]},"period":{"start":"2024-10-01T00:00:00.000+00:00"},"payor":[{"reference":"Organization/0dfe0bce-3d32-449f-b789-6ad9dcf7b150"}]},"request":{"method":"PUT","url":"Coverage/d1476977-e531-4407-ae6f-b41b382b956f"}},{"fullUrl":"Observation/a1ceebec-8ec3-4382-96da-a56cfc2e46be","resource":{"resourceType":"Observation","id":"a1ceebec-8ec3-4382-96da-a56cfc2e46be","meta":{"profile":["http://hl7.org/fhir/us/qicore/StructureDefinition/qicore-observation-screening-assessment"]},"status":"final","category":[{"coding":[{"system":"http://terminology.hl7.org/CodeSystem/observation-category","code":"survey","display":"Survey"}]}],"code":{"coding":[{"system":"http://loinc.org","code":"98968-1","display":"Initial screening NRS_2002","userSelected":true}]},"subject":{"reference":"Patient/e87069c9-7889-4954-858f-33d6ad24cd7a"},"effectiveDateTime":"2026-08-01T09:00:00.000+00:00","valueCodeableConcept":{"coding":[{"system":"http://loinc.org","code":"LA33699-2","display":"Not at risk for malnutrition","userSelected":true}]}},"request":{"method":"PUT","url":"Observation/a1ceebec-8ec3-4382-96da-a56cfc2e46be"}},{"fullUrl":"Coverage/d9537a04-dcbf-440a-b2df-24e54d3ed04e","resource":{"resourceType":"Coverage","id":"d9537a04-dcbf-440a-b2df-24e54d3ed04e","meta":{"profile":["http://hl7.org/fhir/us/qicore/StructureDefinition/qicore-coverage"]},"status":"active","type":{"coding":[{"system":"https://nahdo.org/sopt","version":"9.2","code":"11","display":"Medicare Managed Care (Includes Medicare Advantage Plans)"}]},"subscriberId":"97531","beneficiary":{"reference":"Patient/e87069c9-7889-4954-858f-33d6ad24cd7a"},"dependent":"0","relationship":{"coding":[{"system":"http://terminology.hl7.org/CodeSystem/subscriber-relationship","code":"self"}]},"period":{"start":"2024-10-01T00:00:00.000+00:00"},"payor":[{"reference":"Organization/0dfe0bce-3d32-449f-b789-6ad9dcf7b150"}]},"request":{"method":"PUT","url":"Coverage/d9537a04-dcbf-440a-b2df-24e54d3ed04e"}}]}