{"resourceType":"Bundle","id":"tests-62f63de5-1a53-44d4-a980-4406db339714-bundle","type":"transaction","entry":[{"fullUrl":"MeasureReport/4316023e-7679-4002-9658-c61235813fad","resource":{"resourceType":"MeasureReport","id":"4316023e-7679-4002-9658-c61235813fad","meta":{"profile":["http://hl7.org/fhir/us/cqfmeasures/StructureDefinition/test-case-cqfm"]},"contained":[{"resourceType":"Parameters","id":"04c8b818-f916-44ca-93f7-9e84e8626036-parameters","parameter":[{"name":"subject","valueString":"62f63de5-1a53-44d4-a980-4406db339714"}]}],"extension":[{"url":"http://hl7.org/fhir/StructureDefinition/cqf-inputParameters","valueReference":{"reference":"#04c8b818-f916-44ca-93f7-9e84e8626036-parameters"}},{"url":"http://hl7.org/fhir/us/cqfmeasures/StructureDefinition/cqfm-testCaseDescription","valueMarkdown":"Screened, Not at Risk, Referral, Assessed, Moderate Malnutrition, Diagnosis, Care Plan"}],"modifierExtension":[{"url":"http://hl7.org/fhir/us/cqfmeasures/StructureDefinition/cqfm-isTestCase","valueBoolean":true}],"status":"complete","type":"individual","measure":"https://madie.cms.gov/Measure/CMS986FHIRMalnutritionScore","period":{"start":"2026-01-01","end":"2026-12-31"},"group":[{"id":"Group_1","population":[{"id":"InitialPopulation_1","code":{"coding":[{"system":"http://terminology.hl7.org/CodeSystem/measure-population","code":"initial-population","display":"Initial Population"}]},"count":1},{"id":"MeasurePopulation_1","code":{"coding":[{"system":"http://terminology.hl7.org/CodeSystem/measure-population","code":"measure-population","display":"Measure Population"}]},"count":1},{"id":"MeasurePopulationExclusion_1","code":{"coding":[{"system":"http://terminology.hl7.org/CodeSystem/measure-population","code":"measure-population-exclusion","display":"Measure Population Exclusion"}]},"count":0},{"id":"MeasureObservation_1_1","code":{"coding":[{"system":"http://terminology.hl7.org/CodeSystem/measure-population","code":"measure-population-observation","display":"Measure Population Observation"}]},"count":1}],"measureScore":{"value":0.0}},{"id":"Group_2","population":[{"id":"InitialPopulation_2","code":{"coding":[{"system":"http://terminology.hl7.org/CodeSystem/measure-population","code":"initial-population","display":"Initial Population"}]},"count":1},{"id":"MeasurePopulation_2","code":{"coding":[{"system":"http://terminology.hl7.org/CodeSystem/measure-population","code":"measure-population","display":"Measure Population"}]},"count":1},{"id":"MeasurePopulationExclusion_2","code":{"coding":[{"system":"http://terminology.hl7.org/CodeSystem/measure-population","code":"measure-population-exclusion","display":"Measure Population Exclusion"}]},"count":0},{"id":"MeasureObservation_2_1","code":{"coding":[{"system":"http://terminology.hl7.org/CodeSystem/measure-population","code":"measure-population-observation","display":"Measure Population Observation"}]},"count":1}],"measureScore":{"value":0.0}},{"id":"Group_3","population":[{"id":"InitialPopulation_3","code":{"coding":[{"system":"http://terminology.hl7.org/CodeSystem/measure-population","code":"initial-population","display":"Initial Population"}]},"count":1},{"id":"MeasurePopulation_3","code":{"coding":[{"system":"http://terminology.hl7.org/CodeSystem/measure-population","code":"measure-population","display":"Measure Population"}]},"count":1},{"id":"MeasurePopulationExclusion_3","code":{"coding":[{"system":"http://terminology.hl7.org/CodeSystem/measure-population","code":"measure-population-exclusion","display":"Measure Population Exclusion"}]},"count":0},{"id":"MeasureObservation_3_1","code":{"coding":[{"system":"http://terminology.hl7.org/CodeSystem/measure-population","code":"measure-population-observation","display":"Measure Population Observation"}]},"count":1}],"measureScore":{"value":0.0}},{"id":"Group_4","population":[{"id":"InitialPopulation_4","code":{"coding":[{"system":"http://terminology.hl7.org/CodeSystem/measure-population","code":"initial-population","display":"Initial Population"}]},"count":1},{"id":"MeasurePopulation_4","code":{"coding":[{"system":"http://terminology.hl7.org/CodeSystem/measure-population","code":"measure-population","display":"Measure Population"}]},"count":1},{"id":"MeasurePopulationExclusion_4","code":{"coding":[{"system":"http://terminology.hl7.org/CodeSystem/measure-population","code":"measure-population-exclusion","display":"Measure Population Exclusion"}]},"count":0},{"id":"MeasureObservation_4_1","code":{"coding":[{"system":"http://terminology.hl7.org/CodeSystem/measure-population","code":"measure-population-observation","display":"Measure Population Observation"}]},"count":1}],"measureScore":{"value":0.0}},{"id":"Group_5","population":[{"id":"InitialPopulation_5","code":{"coding":[{"system":"http://terminology.hl7.org/CodeSystem/measure-population","code":"initial-population","display":"Initial Population"}]},"count":1},{"id":"MeasurePopulation_5","code":{"coding":[{"system":"http://terminology.hl7.org/CodeSystem/measure-population","code":"measure-population","display":"Measure Population"}]},"count":1},{"id":"MeasurePopulationExclusion_5","code":{"coding":[{"system":"http://terminology.hl7.org/CodeSystem/measure-population","code":"measure-population-exclusion","display":"Measure Population Exclusion"}]},"count":0},{"id":"MeasureObservation_5_1","code":{"coding":[{"system":"http://terminology.hl7.org/CodeSystem/measure-population","code":"measure-population-observation","display":"Measure Population Observation"}]},"count":4}],"measureScore":{"value":0.0}},{"id":"Group_6","population":[{"id":"InitialPopulation_6","code":{"coding":[{"system":"http://terminology.hl7.org/CodeSystem/measure-population","code":"initial-population","display":"Initial Population"}]},"count":1},{"id":"MeasurePopulation_6","code":{"coding":[{"system":"http://terminology.hl7.org/CodeSystem/measure-population","code":"measure-population","display":"Measure Population"}]},"count":1},{"id":"MeasurePopulationExclusion_6","code":{"coding":[{"system":"http://terminology.hl7.org/CodeSystem/measure-population","code":"measure-population-exclusion","display":"Measure Population Exclusion"}]},"count":0},{"id":"MeasureObservation_6_1","code":{"coding":[{"system":"http://terminology.hl7.org/CodeSystem/measure-population","code":"measure-population-observation","display":"Measure Population Observation"}]},"count":100}],"measureScore":{"value":0.0}}],"evaluatedResource":[{"reference":"Patient/62f63de5-1a53-44d4-a980-4406db339714"},{"reference":"Encounter/a2905b5e-1712-4968-81e2-2410537983f8"},{"reference":"Condition/b28aea85-bc9c-4339-81e9-f7a83fbd5b89"},{"reference":"Observation/b0eb28b9-770e-4f64-ab72-4ccdf1faa87c"},{"reference":"Observation/b5591761-8e53-4773-a6f5-e6dc2a2fcb8b"},{"reference":"Procedure/c4c0e7fb-da2a-4b33-b08a-3629d9cd7620"},{"reference":"Procedure/7d4f1a0b-b049-4534-a028-d558cb36ffd0"},{"reference":"Coverage/1565d93e-2f60-4684-99e9-c426ccaa8902"},{"reference":"Organization/e6d1764b-d607-4ca9-905f-206a79dc051e"}]},"request":{"method":"PUT","url":"MeasureReport/4316023e-7679-4002-9658-c61235813fad"}},{"fullUrl":"Encounter/a2905b5e-1712-4968-81e2-2410537983f8","resource":{"resourceType":"Encounter","id":"a2905b5e-1712-4968-81e2-2410537983f8","meta":{"profile":["http://hl7.org/fhir/us/qicore/StructureDefinition/qicore-encounter"]},"status":"finished","class":{"system":"http://terminology.hl7.org/CodeSystem/v3-ActCode","code":"IMP","display":"inpatient encounter"},"type":[{"coding":[{"system":"http://snomed.info/sct","code":"183452005"}]}],"subject":{"reference":"Patient/62f63de5-1a53-44d4-a980-4406db339714"},"period":{"start":"2026-02-01T08:00:00.000+00:00","end":"2026-02-07T08:15:00.000+00:00"},"reasonReference":[{"reference":"Condition/b28aea85-bc9c-4339-81e9-f7a83fbd5b89"}]},"request":{"method":"PUT","url":"Encounter/a2905b5e-1712-4968-81e2-2410537983f8"}},{"fullUrl":"Observation/b0eb28b9-770e-4f64-ab72-4ccdf1faa87c","resource":{"resourceType":"Observation","id":"b0eb28b9-770e-4f64-ab72-4ccdf1faa87c","meta":{"profile":["http://hl7.org/fhir/us/qicore/StructureDefinition/qicore-observation-screening-assessment"]},"status":"final","category":[{"coding":[{"system":"http://terminology.hl7.org/CodeSystem/observation-category","code":"survey","display":"Survey"}]}],"code":{"coding":[{"system":"http://loinc.org","code":"98968-1","display":"Initial screening NRS_2002","userSelected":true}]},"subject":{"reference":"Patient/62f63de5-1a53-44d4-a980-4406db339714"},"effectiveDateTime":"2026-02-01T09:00:00.000+00:00","valueCodeableConcept":{"coding":[{"system":"http://loinc.org","code":"LA33699-2","display":"Not at risk for malnutrition","userSelected":true}]}},"request":{"method":"PUT","url":"Observation/b0eb28b9-770e-4f64-ab72-4ccdf1faa87c"}},{"fullUrl":"Procedure/c4c0e7fb-da2a-4b33-b08a-3629d9cd7620","resource":{"resourceType":"Procedure","id":"c4c0e7fb-da2a-4b33-b08a-3629d9cd7620","meta":{"profile":["http://hl7.org/fhir/us/qicore/StructureDefinition/qicore-procedure"]},"extension":[{"url":"http://hl7.org/fhir/us/qicore/StructureDefinition/qicore-recorded","valueDateTime":"2026-02-01T11:30:00.000+00:00"}],"status":"completed","code":{"coding":[{"system":"http://snomed.info/sct","code":"306354000","display":"Referral to hospital-based dietitian (procedure)"}],"text":"Referral to hospital-based dietitian (procedure)"},"subject":{"reference":"Patient/62f63de5-1a53-44d4-a980-4406db339714"},"encounter":{"reference":"Encounter/ScreNotatriRefAsseModDxCpMSROBSPass4"},"performedPeriod":{"start":"2026-02-01T11:30:00.000+00:00","end":"2026-02-07T08:15:00.000+00:00"}},"request":{"method":"PUT","url":"Procedure/c4c0e7fb-da2a-4b33-b08a-3629d9cd7620"}},{"fullUrl":"Bundle/ScreNotatriRefAsseModDxCp","resource":{"resourceType":"Bundle","id":"ScreNotatriRefAsseModDxCp","type":"transaction","entry":[{"fullUrl":"https://madie.cms.gov/Patient/62f63de5-1a53-44d4-a980-4406db339714","resource":{"resourceType":"Patient","id":"62f63de5-1a53-44d4-a980-4406db339714","meta":{"profile":["http://hl7.org/fhir/us/qicore/StructureDefinition/qicore-patient"]},"extension":[{"url":"http://hl7.org/fhir/us/core/StructureDefinition/us-core-race","extension":[{"url":"ombCategory","valueCoding":{"system":"urn:oid:2.16.840.1.113883.6.238","code":"2106-3","display":"White","userSelected":true}},{"url":"text","valueString":"White"}]},{"url":"http://hl7.org/fhir/us/core/StructureDefinition/us-core-ethnicity","extension":[{"url":"ombCategory","valueCoding":{"system":"urn:oid:2.16.840.1.113883.6.238","code":"2186-5","display":"Not Hispanic or Latino","userSelected":true}},{"url":"text","valueString":"Not Hispanic or Latino"}]},{"url":"http://hl7.org/fhir/us/core/StructureDefinition/us-core-sex","valueCode":"248153007"}],"identifier":[{"type":{"coding":[{"system":"http://terminology.hl7.org/CodeSystem/v2-0203","code":"MR"}]},"system":"https://madie.cms.gov/","value":"ScreNotatriRefAsseModDxCp"}],"active":true,"name":[{"use":"usual","text":"ScreNotatriRefAsseModDxCp","family":"MSROBSPass4","given":["ScreNotatriRefAsseModDxCp"]}],"gender":"male","birthDate":"1949-01-01","address":[{"text":"ScreNotatriRefAsseModDxCp, Screened Not at risk Assessed Severely Malnourished Diagnosed Care Plan, ID=ScreNotatriRefAsseModDxCp, DOB: 01 Jan 1949"}]},"request":{"method":"PUT","url":"Patient/62f63de5-1a53-44d4-a980-4406db339714"}},{"fullUrl":"https://madie.cms.gov/Encounter/a2905b5e-1712-4968-81e2-2410537983f8","resource":{"resourceType":"Encounter","id":"a2905b5e-1712-4968-81e2-2410537983f8","meta":{"profile":["http://hl7.org/fhir/us/qicore/StructureDefinition/qicore-encounter"]},"status":"finished","class":{"system":"http://terminology.hl7.org/CodeSystem/v3-ActCode","code":"IMP","display":"inpatient encounter"},"type":[{"coding":[{"system":"http://snomed.info/sct","code":"183452005"}]}],"subject":{"reference":"Patient/62f63de5-1a53-44d4-a980-4406db339714"},"period":{"start":"2026-02-01T08:00:00.000+00:00","end":"2026-02-07T08:15:00.000+00:00"},"reasonReference":[{"reference":"Condition/b28aea85-bc9c-4339-81e9-f7a83fbd5b89"}]},"request":{"method":"PUT","url":"Encounter/a2905b5e-1712-4968-81e2-2410537983f8"}},{"fullUrl":"https://madie.cms.gov/Condition/b28aea85-bc9c-4339-81e9-f7a83fbd5b89","resource":{"resourceType":"Condition","id":"b28aea85-bc9c-4339-81e9-f7a83fbd5b89","meta":{"profile":["http://hl7.org/fhir/us/qicore/StructureDefinition/qicore-condition-encounter-diagnosis"]},"clinicalStatus":{"coding":[{"system":"http://terminology.hl7.org/CodeSystem/condition-clinical","code":"active","display":"Active","userSelected":true}]},"verificationStatus":{"coding":[{"system":"http://terminology.hl7.org/CodeSystem/condition-ver-status","code":"confirmed","display":"Confirmed","userSelected":true}]},"category":[{"coding":[{"system":"http://terminology.hl7.org/CodeSystem/condition-category","code":"encounter-diagnosis","display":"Encounter Diagnosis","userSelected":true}]}],"code":{"coding":[{"system":"http://snomed.info/sct","code":"129588001","display":"Adult failure to thrive syndrome (disorder)","userSelected":true}]},"subject":{"reference":"Patient/62f63de5-1a53-44d4-a980-4406db339714"},"onsetPeriod":{"start":"2026-02-01T08:00:00.000+00:00"},"recordedDate":"2026-02-01T11:00:00.000+00:00"},"request":{"method":"PUT","url":"Condition/b28aea85-bc9c-4339-81e9-f7a83fbd5b89"}},{"fullUrl":"https://madie.cms.gov/Observation/b0eb28b9-770e-4f64-ab72-4ccdf1faa87c","resource":{"resourceType":"Observation","id":"b0eb28b9-770e-4f64-ab72-4ccdf1faa87c","meta":{"profile":["http://hl7.org/fhir/us/qicore/StructureDefinition/qicore-observation-screening-assessment"]},"status":"final","category":[{"coding":[{"system":"http://terminology.hl7.org/CodeSystem/observation-category","code":"survey","display":"Survey"}]}],"code":{"coding":[{"system":"http://loinc.org","code":"98968-1","display":"Initial screening NRS_2002","userSelected":true}]},"subject":{"reference":"Patient/62f63de5-1a53-44d4-a980-4406db339714"},"effectiveDateTime":"2026-02-01T09:00:00.000+00:00","valueCodeableConcept":{"coding":[{"system":"http://loinc.org","code":"LA33699-2","display":"Not at risk for malnutrition","userSelected":true}]}},"request":{"method":"PUT","url":"Observation/b0eb28b9-770e-4f64-ab72-4ccdf1faa87c"}},{"fullUrl":"https://madie.cms.gov/Observation/b5591761-8e53-4773-a6f5-e6dc2a2fcb8b","resource":{"resourceType":"Observation","id":"b5591761-8e53-4773-a6f5-e6dc2a2fcb8b","meta":{"profile":["http://hl7.org/fhir/us/qicore/StructureDefinition/qicore-observation-screening-assessment"]},"status":"final","category":[{"coding":[{"system":"http://terminology.hl7.org/CodeSystem/observation-category","code":"survey","display":"Survey"}]}],"code":{"coding":[{"system":"http://loinc.org","code":"75285-7","display":"Comparative Nutrition assessment standards panel","userSelected":true}]},"subject":{"reference":"Patient/62f63de5-1a53-44d4-a980-4406db339714"},"effectiveDateTime":"2026-02-01T10:00:00.000+00:00","valueCodeableConcept":{"coding":[{"system":"http://snomed.info/sct","code":"281583001","display":"Nutritional wasting (disorder)","userSelected":true}]}},"request":{"method":"PUT","url":"Observation/b5591761-8e53-4773-a6f5-e6dc2a2fcb8b"}},{"fullUrl":"https://madie.cms.gov/Procedure/c4c0e7fb-da2a-4b33-b08a-3629d9cd7620","resource":{"resourceType":"Procedure","id":"c4c0e7fb-da2a-4b33-b08a-3629d9cd7620","meta":{"profile":["http://hl7.org/fhir/us/qicore/StructureDefinition/qicore-procedure"]},"extension":[{"url":"http://hl7.org/fhir/us/qicore/StructureDefinition/qicore-recorded","valueDateTime":"2026-02-01T11:30:00.000+00:00"}],"status":"completed","code":{"coding":[{"system":"http://snomed.info/sct","code":"306354000","display":"Referral to hospital-based dietitian (procedure)"}],"text":"Referral to hospital-based dietitian (procedure)"},"subject":{"reference":"Patient/62f63de5-1a53-44d4-a980-4406db339714"},"encounter":{"reference":"Encounter/ScreNotatriRefAsseModDxCpMSROBSPass4"},"performedPeriod":{"start":"2026-02-01T11:30:00.000+00:00","end":"2026-02-07T08:15:00.000+00:00"}},"request":{"method":"PUT","url":"Procedure/c4c0e7fb-da2a-4b33-b08a-3629d9cd7620"}},{"fullUrl":"https://madie.cms.gov/Procedure/7d4f1a0b-b049-4534-a028-d558cb36ffd0","resource":{"resourceType":"Procedure","id":"7d4f1a0b-b049-4534-a028-d558cb36ffd0","meta":{"profile":["http://hl7.org/fhir/us/qicore/StructureDefinition/qicore-procedure"]},"extension":[{"url":"http://hl7.org/fhir/us/qicore/StructureDefinition/qicore-recorded","valueDateTime":"2025-02-02T11:30:00.000+00:00"}],"status":"completed","code":{"coding":[{"system":"http://snomed.info/sct","code":"386372009","display":"Nutrition management"}],"text":"Nutrition management (regime/therapy)"},"subject":{"reference":"Patient/62f63de5-1a53-44d4-a980-4406db339714"},"encounter":{"reference":"Encounter/ScreNotatriRefAsseModDxCpMSROBSPass4"},"performedPeriod":{"start":"2026-02-01T11:30:00.000+00:00","end":"2026-02-07T08:15:00.000+00:00"}},"request":{"method":"PUT","url":"Procedure/7d4f1a0b-b049-4534-a028-d558cb36ffd0"}},{"fullUrl":"https://madie.cms.gov/Coverage/1565d93e-2f60-4684-99e9-c426ccaa8902","resource":{"resourceType":"Coverage","id":"1565d93e-2f60-4684-99e9-c426ccaa8902","meta":{"profile":["http://hl7.org/fhir/us/qicore/StructureDefinition/qicore-coverage"]},"status":"active","type":{"coding":[{"system":"https://nahdo.org/sopt","version":"9.2","code":"11","display":"Medicare Managed Care (Includes Medicare Advantage Plans)"}]},"subscriberId":"97531","beneficiary":{"reference":"Patient/62f63de5-1a53-44d4-a980-4406db339714"},"dependent":"0","relationship":{"coding":[{"system":"http://terminology.hl7.org/CodeSystem/subscriber-relationship","code":"self"}]},"period":{"start":"2025-10-01T00:00:00.000+00:00"},"payor":[{"reference":"Organization/e6d1764b-d607-4ca9-905f-206a79dc051e"}]},"request":{"method":"PUT","url":"Coverage/1565d93e-2f60-4684-99e9-c426ccaa8902"}},{"fullUrl":"https://madie.cms.gov/Organization/e6d1764b-d607-4ca9-905f-206a79dc051e","resource":{"resourceType":"Organization","id":"e6d1764b-d607-4ca9-905f-206a79dc051e","meta":{"profile":["http://hl7.org/fhir/us/qicore/StructureDefinition/qicore-organization"]},"identifier":[{"use":"temp","system":"urn:oid:2.16.840.1.113883.4.4","value":"21-3259825"}],"active":true,"type":[{"coding":[{"system":"http://terminology.hl7.org/CodeSystem/organization-type","code":"pay","display":"Payer"}]}],"name":"Blue Cross Blue Shield of Texas","telecom":[{"system":"phone","value":"(+1) 972-766-6900"}],"address":[{"use":"billing","type":"postal","line":["P.O. Box 660044"],"city":"Dallas","state":"TX","postalCode":"75266-0044","country":"USA"}]},"request":{"method":"PUT","url":"Organization/e6d1764b-d607-4ca9-905f-206a79dc051e"}},{"fullUrl":"https://madie.cms.gov/MeasureReport/4316023e-7679-4002-9658-c61235813fad","resource":{"resourceType":"MeasureReport","id":"4316023e-7679-4002-9658-c61235813fad","meta":{"profile":["http://hl7.org/fhir/us/cqfmeasures/StructureDefinition/test-case-cqfm"]},"contained":[{"resourceType":"Parameters","id":"04c8b818-f916-44ca-93f7-9e84e8626036-parameters","parameter":[{"name":"subject","valueString":"62f63de5-1a53-44d4-a980-4406db339714"}]}],"extension":[{"url":"http://hl7.org/fhir/StructureDefinition/cqf-inputParameters","valueReference":{"reference":"#04c8b818-f916-44ca-93f7-9e84e8626036-parameters"}},{"url":"http://hl7.org/fhir/us/cqfmeasures/StructureDefinition/cqfm-testCaseDescription","valueMarkdown":"Screened, Not at Risk, Referral, Assessed, Moderate Malnutrition, Diagnosis, Care Plan"}],"modifierExtension":[{"url":"http://hl7.org/fhir/us/cqfmeasures/StructureDefinition/cqfm-isTestCase","valueBoolean":true}],"status":"complete","type":"individual","measure":"https://madie.cms.gov/Measure/CMS986FHIRMalnutritionScore","period":{"start":"2026-01-01","end":"2026-12-31"},"group":[{"id":"Group_1","population":[{"id":"InitialPopulation_1","code":{"coding":[{"system":"http://terminology.hl7.org/CodeSystem/measure-population","code":"initial-population","display":"Initial Population"}]},"count":1},{"id":"MeasurePopulation_1","code":{"coding":[{"system":"http://terminology.hl7.org/CodeSystem/measure-population","code":"measure-population","display":"Measure Population"}]},"count":1},{"id":"MeasurePopulationExclusion_1","code":{"coding":[{"system":"http://terminology.hl7.org/CodeSystem/measure-population","code":"measure-population-exclusion","display":"Measure Population Exclusion"}]},"count":0},{"id":"MeasureObservation_1_1","code":{"coding":[{"system":"http://terminology.hl7.org/CodeSystem/measure-population","code":"measure-population-observation","display":"Measure Population Observation"}]},"count":1}],"measureScore":{"value":0.0}},{"id":"Group_2","population":[{"id":"InitialPopulation_2","code":{"coding":[{"system":"http://terminology.hl7.org/CodeSystem/measure-population","code":"initial-population","display":"Initial Population"}]},"count":1},{"id":"MeasurePopulation_2","code":{"coding":[{"system":"http://terminology.hl7.org/CodeSystem/measure-population","code":"measure-population","display":"Measure Population"}]},"count":1},{"id":"MeasurePopulationExclusion_2","code":{"coding":[{"system":"http://terminology.hl7.org/CodeSystem/measure-population","code":"measure-population-exclusion","display":"Measure Population Exclusion"}]},"count":0},{"id":"MeasureObservation_2_1","code":{"coding":[{"system":"http://terminology.hl7.org/CodeSystem/measure-population","code":"measure-population-observation","display":"Measure Population Observation"}]},"count":1}],"measureScore":{"value":0.0}},{"id":"Group_3","population":[{"id":"InitialPopulation_3","code":{"coding":[{"system":"http://terminology.hl7.org/CodeSystem/measure-population","code":"initial-population","display":"Initial Population"}]},"count":1},{"id":"MeasurePopulation_3","code":{"coding":[{"system":"http://terminology.hl7.org/CodeSystem/measure-population","code":"measure-population","display":"Measure Population"}]},"count":1},{"id":"MeasurePopulationExclusion_3","code":{"coding":[{"system":"http://terminology.hl7.org/CodeSystem/measure-population","code":"measure-population-exclusion","display":"Measure Population Exclusion"}]},"count":0},{"id":"MeasureObservation_3_1","code":{"coding":[{"system":"http://terminology.hl7.org/CodeSystem/measure-population","code":"measure-population-observation","display":"Measure Population Observation"}]},"count":1}],"measureScore":{"value":0.0}},{"id":"Group_4","population":[{"id":"InitialPopulation_4","code":{"coding":[{"system":"http://terminology.hl7.org/CodeSystem/measure-population","code":"initial-population","display":"Initial Population"}]},"count":1},{"id":"MeasurePopulation_4","code":{"coding":[{"system":"http://terminology.hl7.org/CodeSystem/measure-population","code":"measure-population","display":"Measure Population"}]},"count":1},{"id":"MeasurePopulationExclusion_4","code":{"coding":[{"system":"http://terminology.hl7.org/CodeSystem/measure-population","code":"measure-population-exclusion","display":"Measure Population Exclusion"}]},"count":0},{"id":"MeasureObservation_4_1","code":{"coding":[{"system":"http://terminology.hl7.org/CodeSystem/measure-population","code":"measure-population-observation","display":"Measure Population Observation"}]},"count":1}],"measureScore":{"value":0.0}},{"id":"Group_5","population":[{"id":"InitialPopulation_5","code":{"coding":[{"system":"http://terminology.hl7.org/CodeSystem/measure-population","code":"initial-population","display":"Initial Population"}]},"count":1},{"id":"MeasurePopulation_5","code":{"coding":[{"system":"http://terminology.hl7.org/CodeSystem/measure-population","code":"measure-population","display":"Measure Population"}]},"count":1},{"id":"MeasurePopulationExclusion_5","code":{"coding":[{"system":"http://terminology.hl7.org/CodeSystem/measure-population","code":"measure-population-exclusion","display":"Measure Population Exclusion"}]},"count":0},{"id":"MeasureObservation_5_1","code":{"coding":[{"system":"http://terminology.hl7.org/CodeSystem/measure-population","code":"measure-population-observation","display":"Measure Population Observation"}]},"count":4}],"measureScore":{"value":0.0}},{"id":"Group_6","population":[{"id":"InitialPopulation_6","code":{"coding":[{"system":"http://terminology.hl7.org/CodeSystem/measure-population","code":"initial-population","display":"Initial Population"}]},"count":1},{"id":"MeasurePopulation_6","code":{"coding":[{"system":"http://terminology.hl7.org/CodeSystem/measure-population","code":"measure-population","display":"Measure Population"}]},"count":1},{"id":"MeasurePopulationExclusion_6","code":{"coding":[{"system":"http://terminology.hl7.org/CodeSystem/measure-population","code":"measure-population-exclusion","display":"Measure Population Exclusion"}]},"count":0},{"id":"MeasureObservation_6_1","code":{"coding":[{"system":"http://terminology.hl7.org/CodeSystem/measure-population","code":"measure-population-observation","display":"Measure Population Observation"}]},"count":100}],"measureScore":{"value":0.0}}],"evaluatedResource":[{"reference":"Patient/62f63de5-1a53-44d4-a980-4406db339714"},{"reference":"Encounter/a2905b5e-1712-4968-81e2-2410537983f8"},{"reference":"Condition/b28aea85-bc9c-4339-81e9-f7a83fbd5b89"},{"reference":"Observation/b0eb28b9-770e-4f64-ab72-4ccdf1faa87c"},{"reference":"Observation/b5591761-8e53-4773-a6f5-e6dc2a2fcb8b"},{"reference":"Procedure/c4c0e7fb-da2a-4b33-b08a-3629d9cd7620"},{"reference":"Procedure/7d4f1a0b-b049-4534-a028-d558cb36ffd0"},{"reference":"Coverage/1565d93e-2f60-4684-99e9-c426ccaa8902"},{"reference":"Organization/e6d1764b-d607-4ca9-905f-206a79dc051e"}]},"request":{"method":"PUT","url":"MeasureReport/4316023e-7679-4002-9658-c61235813fad"}}]},"request":{"method":"PUT","url":"Bundle/ScreNotatriRefAsseModDxCp"}},{"fullUrl":"Patient/62f63de5-1a53-44d4-a980-4406db339714","resource":{"resourceType":"Patient","id":"62f63de5-1a53-44d4-a980-4406db339714","meta":{"profile":["http://hl7.org/fhir/us/qicore/StructureDefinition/qicore-patient"]},"extension":[{"url":"http://hl7.org/fhir/us/core/StructureDefinition/us-core-race","extension":[{"url":"ombCategory","valueCoding":{"system":"urn:oid:2.16.840.1.113883.6.238","code":"2106-3","display":"White","userSelected":true}},{"url":"text","valueString":"White"}]},{"url":"http://hl7.org/fhir/us/core/StructureDefinition/us-core-ethnicity","extension":[{"url":"ombCategory","valueCoding":{"system":"urn:oid:2.16.840.1.113883.6.238","code":"2186-5","display":"Not Hispanic or Latino","userSelected":true}},{"url":"text","valueString":"Not Hispanic or Latino"}]},{"url":"http://hl7.org/fhir/us/core/StructureDefinition/us-core-sex","valueCode":"248153007"}],"identifier":[{"type":{"coding":[{"system":"http://terminology.hl7.org/CodeSystem/v2-0203","code":"MR"}]},"system":"https://madie.cms.gov/","value":"ScreNotatriRefAsseModDxCp"}],"active":true,"name":[{"use":"usual","text":"ScreNotatriRefAsseModDxCp","family":"MSROBSPass4","given":["ScreNotatriRefAsseModDxCp"]}],"gender":"male","birthDate":"1949-01-01","address":[{"text":"ScreNotatriRefAsseModDxCp, Screened Not at risk Assessed Severely Malnourished Diagnosed Care Plan, ID=ScreNotatriRefAsseModDxCp, DOB: 01 Jan 1949"}]},"request":{"method":"PUT","url":"Patient/62f63de5-1a53-44d4-a980-4406db339714"}},{"fullUrl":"Observation/b5591761-8e53-4773-a6f5-e6dc2a2fcb8b","resource":{"resourceType":"Observation","id":"b5591761-8e53-4773-a6f5-e6dc2a2fcb8b","meta":{"profile":["http://hl7.org/fhir/us/qicore/StructureDefinition/qicore-observation-screening-assessment"]},"status":"final","category":[{"coding":[{"system":"http://terminology.hl7.org/CodeSystem/observation-category","code":"survey","display":"Survey"}]}],"code":{"coding":[{"system":"http://loinc.org","code":"75285-7","display":"Comparative Nutrition assessment standards panel","userSelected":true}]},"subject":{"reference":"Patient/62f63de5-1a53-44d4-a980-4406db339714"},"effectiveDateTime":"2026-02-01T10:00:00.000+00:00","valueCodeableConcept":{"coding":[{"system":"http://snomed.info/sct","code":"281583001","display":"Nutritional wasting (disorder)","userSelected":true}]}},"request":{"method":"PUT","url":"Observation/b5591761-8e53-4773-a6f5-e6dc2a2fcb8b"}},{"fullUrl":"Coverage/1565d93e-2f60-4684-99e9-c426ccaa8902","resource":{"resourceType":"Coverage","id":"1565d93e-2f60-4684-99e9-c426ccaa8902","meta":{"profile":["http://hl7.org/fhir/us/qicore/StructureDefinition/qicore-coverage"]},"status":"active","type":{"coding":[{"system":"https://nahdo.org/sopt","version":"9.2","code":"11","display":"Medicare Managed Care (Includes Medicare Advantage Plans)"}]},"subscriberId":"97531","beneficiary":{"reference":"Patient/62f63de5-1a53-44d4-a980-4406db339714"},"dependent":"0","relationship":{"coding":[{"system":"http://terminology.hl7.org/CodeSystem/subscriber-relationship","code":"self"}]},"period":{"start":"2025-10-01T00:00:00.000+00:00"},"payor":[{"reference":"Organization/e6d1764b-d607-4ca9-905f-206a79dc051e"}]},"request":{"method":"PUT","url":"Coverage/1565d93e-2f60-4684-99e9-c426ccaa8902"}},{"fullUrl":"Organization/e6d1764b-d607-4ca9-905f-206a79dc051e","resource":{"resourceType":"Organization","id":"e6d1764b-d607-4ca9-905f-206a79dc051e","meta":{"profile":["http://hl7.org/fhir/us/qicore/StructureDefinition/qicore-organization"]},"identifier":[{"use":"temp","system":"urn:oid:2.16.840.1.113883.4.4","value":"21-3259825"}],"active":true,"type":[{"coding":[{"system":"http://terminology.hl7.org/CodeSystem/organization-type","code":"pay","display":"Payer"}]}],"name":"Blue Cross Blue Shield of Texas","telecom":[{"system":"phone","value":"(+1) 972-766-6900"}],"address":[{"use":"billing","type":"postal","line":["P.O. Box 660044"],"city":"Dallas","state":"TX","postalCode":"75266-0044","country":"USA"}]},"request":{"method":"PUT","url":"Organization/e6d1764b-d607-4ca9-905f-206a79dc051e"}},{"fullUrl":"Condition/b28aea85-bc9c-4339-81e9-f7a83fbd5b89","resource":{"resourceType":"Condition","id":"b28aea85-bc9c-4339-81e9-f7a83fbd5b89","meta":{"profile":["http://hl7.org/fhir/us/qicore/StructureDefinition/qicore-condition-encounter-diagnosis"]},"clinicalStatus":{"coding":[{"system":"http://terminology.hl7.org/CodeSystem/condition-clinical","code":"active","display":"Active","userSelected":true}]},"verificationStatus":{"coding":[{"system":"http://terminology.hl7.org/CodeSystem/condition-ver-status","code":"confirmed","display":"Confirmed","userSelected":true}]},"category":[{"coding":[{"system":"http://terminology.hl7.org/CodeSystem/condition-category","code":"encounter-diagnosis","display":"Encounter Diagnosis","userSelected":true}]}],"code":{"coding":[{"system":"http://snomed.info/sct","code":"129588001","display":"Adult failure to thrive syndrome (disorder)","userSelected":true}]},"subject":{"reference":"Patient/62f63de5-1a53-44d4-a980-4406db339714"},"onsetPeriod":{"start":"2026-02-01T08:00:00.000+00:00"},"recordedDate":"2026-02-01T11:00:00.000+00:00"},"request":{"method":"PUT","url":"Condition/b28aea85-bc9c-4339-81e9-f7a83fbd5b89"}},{"fullUrl":"Procedure/7d4f1a0b-b049-4534-a028-d558cb36ffd0","resource":{"resourceType":"Procedure","id":"7d4f1a0b-b049-4534-a028-d558cb36ffd0","meta":{"profile":["http://hl7.org/fhir/us/qicore/StructureDefinition/qicore-procedure"]},"extension":[{"url":"http://hl7.org/fhir/us/qicore/StructureDefinition/qicore-recorded","valueDateTime":"2025-02-02T11:30:00.000+00:00"}],"status":"completed","code":{"coding":[{"system":"http://snomed.info/sct","code":"386372009","display":"Nutrition management"}],"text":"Nutrition management (regime/therapy)"},"subject":{"reference":"Patient/62f63de5-1a53-44d4-a980-4406db339714"},"encounter":{"reference":"Encounter/ScreNotatriRefAsseModDxCpMSROBSPass4"},"performedPeriod":{"start":"2026-02-01T11:30:00.000+00:00","end":"2026-02-07T08:15:00.000+00:00"}},"request":{"method":"PUT","url":"Procedure/7d4f1a0b-b049-4534-a028-d558cb36ffd0"}}]}