{"resourceType":"Bundle","id":"tests-0389dadc-9e16-4ccc-abe8-5d2b4a899319-bundle","type":"transaction","entry":[{"resource":{"resourceType":"Condition","id":"c080dff8-1155-46f0-9dcf-0a5e375e6f00","meta":{"profile":["http://hl7.org/fhir/us/qicore/StructureDefinition/qicore-condition-encounter-diagnosis"]},"clinicalStatus":{"coding":[{"system":"http://terminology.hl7.org/CodeSystem/condition-clinical","code":"active","display":"Active","userSelected":true}]},"verificationStatus":{"coding":[{"system":"http://terminology.hl7.org/CodeSystem/condition-ver-status","code":"confirmed","display":"Confirmed","userSelected":true}]},"category":[{"coding":[{"system":"http://terminology.hl7.org/CodeSystem/condition-category","code":"encounter-diagnosis","display":"Encounter Diagnosis","userSelected":true}]}],"code":{"coding":[{"system":"http://snomed.info/sct","code":"190606006","display":"Moderate protein energy malnutrition (disorder)","userSelected":true}]},"subject":{"reference":"Patient/0389dadc-9e16-4ccc-abe8-5d2b4a899319"},"onsetPeriod":{"start":"2026-08-01T08:00:00.000+00:00"},"recordedDate":"2026-08-01T11:00:00.000+00:00"},"request":{"method":"PUT","url":"Condition/c080dff8-1155-46f0-9dcf-0a5e375e6f00"}},{"resource":{"resourceType":"Observation","id":"7f77c2ae-cde6-47a1-a8b5-dd0384711df2","meta":{"profile":["http://hl7.org/fhir/us/qicore/StructureDefinition/qicore-observation-screening-assessment"]},"status":"final","category":[{"coding":[{"system":"http://terminology.hl7.org/CodeSystem/observation-category","code":"survey","display":"Survey"}]}],"code":{"coding":[{"system":"http://loinc.org","code":"75282-4","display":"Nutrition assessment panel","userSelected":true}]},"subject":{"reference":"Patient/0389dadc-9e16-4ccc-abe8-5d2b4a899319"},"effectiveDateTime":"2026-08-01T10:00:00.000+00:00","valueCodeableConcept":{"coding":[{"system":"http://snomed.info/sct","code":"102636009","display":"Chronic nutritional deficiency (finding)","userSelected":true}]}},"request":{"method":"PUT","url":"Observation/7f77c2ae-cde6-47a1-a8b5-dd0384711df2"}},{"resource":{"resourceType":"Procedure","id":"acc106b7-cf58-446d-a8ca-3e7806d9bba7","meta":{"profile":["http://hl7.org/fhir/us/qicore/StructureDefinition/qicore-procedure"]},"extension":[{"url":"http://hl7.org/fhir/us/qicore/StructureDefinition/qicore-recorded","valueDateTime":"2026-02-02T11:30:00.000+00:00"}],"status":"completed","code":{"coding":[{"system":"http://snomed.info/sct","code":"410175003","display":"Dietary regime management (procedure)"}],"text":"Dietary regime management (procedure)"},"subject":{"reference":"Patient/0389dadc-9e16-4ccc-abe8-5d2b4a899319"},"encounter":{"reference":"Encounter/2EncountersScreAtRiskThenRefMSROBSPass4"},"performedPeriod":{"start":"2026-08-01T11:30:00.000+00:00","end":"2026-08-07T08:15:00.000+00:00"}},"request":{"method":"PUT","url":"Procedure/acc106b7-cf58-446d-a8ca-3e7806d9bba7"}},{"resource":{"resourceType":"Encounter","id":"c8adce31-7580-48d6-b076-a2bdfd629b66","meta":{"profile":["http://hl7.org/fhir/us/qicore/StructureDefinition/qicore-encounter"]},"status":"finished","class":{"system":"http://terminology.hl7.org/CodeSystem/v3-ActCode","code":"IMP","display":"inpatient encounter"},"type":[{"coding":[{"system":"http://snomed.info/sct","code":"183452005"}]}],"subject":{"reference":"Patient/0389dadc-9e16-4ccc-abe8-5d2b4a899319"},"period":{"start":"2026-02-01T08:00:00.000+00:00","end":"2026-02-07T08:15:00.000+00:00"},"reasonReference":[{"reference":"Condition/0e1a5ef2-89b7-4586-84dd-ba09d7e5359c"}]},"request":{"method":"PUT","url":"Encounter/c8adce31-7580-48d6-b076-a2bdfd629b66"}},{"resource":{"resourceType":"Encounter","id":"f0d4a6a1-3382-4f8c-a601-f7bfe2395e77","meta":{"profile":["http://hl7.org/fhir/us/qicore/StructureDefinition/qicore-encounter"]},"status":"finished","class":{"system":"http://terminology.hl7.org/CodeSystem/v3-ActCode","code":"IMP","display":"inpatient encounter"},"type":[{"coding":[{"system":"http://snomed.info/sct","code":"183452005"}]}],"subject":{"reference":"Patient/0389dadc-9e16-4ccc-abe8-5d2b4a899319"},"period":{"start":"2026-08-01T08:00:00.000+00:00","end":"2026-08-07T08:15:00.000+00:00"},"reasonReference":[{"reference":"Condition/c080dff8-1155-46f0-9dcf-0a5e375e6f00"}]},"request":{"method":"PUT","url":"Encounter/f0d4a6a1-3382-4f8c-a601-f7bfe2395e77"}},{"resource":{"resourceType":"MeasureReport","id":"954df663-5a89-4611-a31e-6878e6aa83fc","meta":{"profile":["http://hl7.org/fhir/us/cqfmeasures/StructureDefinition/test-case-cqfm"]},"contained":[{"resourceType":"Parameters","id":"68b7e2ca-311b-44d5-9ff5-60777a0d5bd1-parameters","parameter":[{"name":"subject","valueString":"0389dadc-9e16-4ccc-abe8-5d2b4a899319"}]}],"extension":[{"url":"http://hl7.org/fhir/StructureDefinition/cqf-inputParameters","valueReference":{"reference":"#68b7e2ca-311b-44d5-9ff5-60777a0d5bd1-parameters"}},{"url":"http://hl7.org/fhir/us/cqfmeasures/StructureDefinition/cqfm-testCaseDescription","valueMarkdown":"2 encounters: 1-screen (at risk), assessment (mod), dx, care plan\n2-referral, assessment (mod), dx, care plan"}],"modifierExtension":[{"url":"http://hl7.org/fhir/us/cqfmeasures/StructureDefinition/cqfm-isTestCase","valueBoolean":true}],"status":"complete","type":"individual","measure":"https://madie.cms.gov/Measure/CMS986FHIRMalnutritionScore","period":{"start":"2026-01-01","end":"2026-12-31"},"group":[{"id":"Group_1","population":[{"id":"InitialPopulation_1","code":{"coding":[{"system":"http://terminology.hl7.org/CodeSystem/measure-population","code":"initial-population","display":"Initial Population"}]},"count":2},{"id":"MeasurePopulation_1","code":{"coding":[{"system":"http://terminology.hl7.org/CodeSystem/measure-population","code":"measure-population","display":"Measure Population"}]},"count":2},{"id":"MeasurePopulationExclusion_1","code":{"coding":[{"system":"http://terminology.hl7.org/CodeSystem/measure-population","code":"measure-population-exclusion","display":"Measure Population Exclusion"}]},"count":0},{"id":"MeasureObservation_1_1","code":{"coding":[{"system":"http://terminology.hl7.org/CodeSystem/measure-population","code":"measure-population-observation","display":"Measure Population Observation"}]},"count":1},{"id":"MeasureObservation_1_2","code":{"coding":[{"system":"http://terminology.hl7.org/CodeSystem/measure-population","code":"measure-population-observation","display":"Measure Population Observation"}]},"count":1}],"measureScore":{"value":0.0}},{"id":"Group_2","population":[{"id":"InitialPopulation_2","code":{"coding":[{"system":"http://terminology.hl7.org/CodeSystem/measure-population","code":"initial-population","display":"Initial Population"}]},"count":2},{"id":"MeasurePopulation_2","code":{"coding":[{"system":"http://terminology.hl7.org/CodeSystem/measure-population","code":"measure-population","display":"Measure Population"}]},"count":2},{"id":"MeasurePopulationExclusion_2","code":{"coding":[{"system":"http://terminology.hl7.org/CodeSystem/measure-population","code":"measure-population-exclusion","display":"Measure Population Exclusion"}]},"count":0},{"id":"MeasureObservation_2_1","code":{"coding":[{"system":"http://terminology.hl7.org/CodeSystem/measure-population","code":"measure-population-observation","display":"Measure Population Observation"}]},"count":1},{"id":"MeasureObservation_2_2","code":{"coding":[{"system":"http://terminology.hl7.org/CodeSystem/measure-population","code":"measure-population-observation","display":"Measure Population Observation"}]},"count":1}],"measureScore":{"value":0.0}},{"id":"Group_3","population":[{"id":"InitialPopulation_3","code":{"coding":[{"system":"http://terminology.hl7.org/CodeSystem/measure-population","code":"initial-population","display":"Initial Population"}]},"count":2},{"id":"MeasurePopulation_3","code":{"coding":[{"system":"http://terminology.hl7.org/CodeSystem/measure-population","code":"measure-population","display":"Measure Population"}]},"count":2},{"id":"MeasurePopulationExclusion_3","code":{"coding":[{"system":"http://terminology.hl7.org/CodeSystem/measure-population","code":"measure-population-exclusion","display":"Measure Population Exclusion"}]},"count":0},{"id":"MeasureObservation_3_1","code":{"coding":[{"system":"http://terminology.hl7.org/CodeSystem/measure-population","code":"measure-population-observation","display":"Measure Population Observation"}]},"count":1},{"id":"MeasureObservation_3_2","code":{"coding":[{"system":"http://terminology.hl7.org/CodeSystem/measure-population","code":"measure-population-observation","display":"Measure Population Observation"}]},"count":1}],"measureScore":{"value":0.0}},{"id":"Group_4","population":[{"id":"InitialPopulation_4","code":{"coding":[{"system":"http://terminology.hl7.org/CodeSystem/measure-population","code":"initial-population","display":"Initial Population"}]},"count":2},{"id":"MeasurePopulation_4","code":{"coding":[{"system":"http://terminology.hl7.org/CodeSystem/measure-population","code":"measure-population","display":"Measure Population"}]},"count":2},{"id":"MeasurePopulationExclusion_4","code":{"coding":[{"system":"http://terminology.hl7.org/CodeSystem/measure-population","code":"measure-population-exclusion","display":"Measure Population Exclusion"}]},"count":0},{"id":"MeasureObservation_4_1","code":{"coding":[{"system":"http://terminology.hl7.org/CodeSystem/measure-population","code":"measure-population-observation","display":"Measure Population Observation"}]},"count":1},{"id":"MeasureObservation_4_2","code":{"coding":[{"system":"http://terminology.hl7.org/CodeSystem/measure-population","code":"measure-population-observation","display":"Measure Population Observation"}]},"count":1}],"measureScore":{"value":0.0}},{"id":"Group_5","population":[{"id":"InitialPopulation_5","code":{"coding":[{"system":"http://terminology.hl7.org/CodeSystem/measure-population","code":"initial-population","display":"Initial Population"}]},"count":2},{"id":"MeasurePopulation_5","code":{"coding":[{"system":"http://terminology.hl7.org/CodeSystem/measure-population","code":"measure-population","display":"Measure Population"}]},"count":2},{"id":"MeasurePopulationExclusion_5","code":{"coding":[{"system":"http://terminology.hl7.org/CodeSystem/measure-population","code":"measure-population-exclusion","display":"Measure Population Exclusion"}]},"count":0},{"id":"MeasureObservation_5_1","code":{"coding":[{"system":"http://terminology.hl7.org/CodeSystem/measure-population","code":"measure-population-observation","display":"Measure Population Observation"}]},"count":4},{"id":"MeasureObservation_5_2","code":{"coding":[{"system":"http://terminology.hl7.org/CodeSystem/measure-population","code":"measure-population-observation","display":"Measure Population Observation"}]},"count":4}],"measureScore":{"value":0.0}},{"id":"Group_6","population":[{"id":"InitialPopulation_6","code":{"coding":[{"system":"http://terminology.hl7.org/CodeSystem/measure-population","code":"initial-population","display":"Initial Population"}]},"count":2},{"id":"MeasurePopulation_6","code":{"coding":[{"system":"http://terminology.hl7.org/CodeSystem/measure-population","code":"measure-population","display":"Measure Population"}]},"count":2},{"id":"MeasurePopulationExclusion_6","code":{"coding":[{"system":"http://terminology.hl7.org/CodeSystem/measure-population","code":"measure-population-exclusion","display":"Measure Population Exclusion"}]},"count":0},{"id":"MeasureObservation_6_1","code":{"coding":[{"system":"http://terminology.hl7.org/CodeSystem/measure-population","code":"measure-population-observation","display":"Measure Population Observation"}]},"count":100},{"id":"MeasureObservation_6_2","code":{"coding":[{"system":"http://terminology.hl7.org/CodeSystem/measure-population","code":"measure-population-observation","display":"Measure Population Observation"}]},"count":100}],"measureScore":{"value":0.0}}],"evaluatedResource":[{"reference":"Patient/0389dadc-9e16-4ccc-abe8-5d2b4a899319"},{"reference":"Encounter/c8adce31-7580-48d6-b076-a2bdfd629b66"},{"reference":"Condition/0e1a5ef2-89b7-4586-84dd-ba09d7e5359c"},{"reference":"Observation/9772321d-02af-4b6c-af71-158c640e65d2"},{"reference":"Observation/ed660d67-192e-4508-a2a3-86d239c1b5a0"},{"reference":"Procedure/513f8234-7009-4339-bccd-36c0ca4203e5"},{"reference":"Coverage/40228728-25df-4726-9947-7aa30c32b823"},{"reference":"Encounter/f0d4a6a1-3382-4f8c-a601-f7bfe2395e77"},{"reference":"Condition/c080dff8-1155-46f0-9dcf-0a5e375e6f00"},{"reference":"Observation/7f77c2ae-cde6-47a1-a8b5-dd0384711df2"},{"reference":"Procedure/2bda666a-5105-4f28-9999-202fd14c0bac"},{"reference":"Procedure/acc106b7-cf58-446d-a8ca-3e7806d9bba7"},{"reference":"Coverage/b0a353fa-a483-49ff-a3be-2c23a17ea086"},{"reference":"Organization/533179c5-4d14-4c42-b2cc-a4e37c9725fa"}]},"request":{"method":"PUT","url":"MeasureReport/954df663-5a89-4611-a31e-6878e6aa83fc"}},{"resource":{"resourceType":"Condition","id":"0e1a5ef2-89b7-4586-84dd-ba09d7e5359c","meta":{"profile":["http://hl7.org/fhir/us/qicore/StructureDefinition/qicore-condition-encounter-diagnosis"]},"clinicalStatus":{"coding":[{"system":"http://terminology.hl7.org/CodeSystem/condition-clinical","code":"active","display":"Active","userSelected":true}]},"verificationStatus":{"coding":[{"system":"http://terminology.hl7.org/CodeSystem/condition-ver-status","code":"confirmed","display":"Confirmed","userSelected":true}]},"category":[{"coding":[{"system":"http://terminology.hl7.org/CodeSystem/condition-category","code":"encounter-diagnosis","display":"Encounter Diagnosis","userSelected":true}]}],"code":{"coding":[{"system":"http://hl7.org/fhir/sid/icd-10-cm","code":"O25.2","display":"Malnutrition in childbirth","userSelected":true}]},"subject":{"reference":"Patient/0389dadc-9e16-4ccc-abe8-5d2b4a899319"},"onsetPeriod":{"start":"2026-02-01T08:00:00.000+00:00"},"recordedDate":"2026-02-01T11:00:00.000+00:00"},"request":{"method":"PUT","url":"Condition/0e1a5ef2-89b7-4586-84dd-ba09d7e5359c"}},{"resource":{"resourceType":"Coverage","id":"40228728-25df-4726-9947-7aa30c32b823","meta":{"profile":["http://hl7.org/fhir/us/qicore/StructureDefinition/qicore-coverage"]},"status":"active","type":{"coding":[{"system":"https://nahdo.org/sopt","version":"9.2","code":"11","display":"Medicare Managed Care (Includes Medicare Advantage Plans)"}]},"subscriberId":"97531","beneficiary":{"reference":"Patient/0389dadc-9e16-4ccc-abe8-5d2b4a899319"},"dependent":"0","relationship":{"coding":[{"system":"http://terminology.hl7.org/CodeSystem/subscriber-relationship","code":"self"}]},"period":{"start":"2024-10-01T00:00:00.000+00:00"},"payor":[{"reference":"Organization/533179c5-4d14-4c42-b2cc-a4e37c9725fa"}]},"request":{"method":"PUT","url":"Coverage/40228728-25df-4726-9947-7aa30c32b823"}},{"resource":{"resourceType":"Procedure","id":"513f8234-7009-4339-bccd-36c0ca4203e5","meta":{"profile":["http://hl7.org/fhir/us/qicore/StructureDefinition/qicore-procedure"]},"extension":[{"url":"http://hl7.org/fhir/us/qicore/StructureDefinition/qicore-recorded","valueDateTime":"2026-02-02T11:30:00.000+00:00"}],"status":"completed","code":{"coding":[{"system":"http://snomed.info/sct","code":"410175003","display":"Dietary regime management (procedure)"}],"text":"Dietary regime management (procedure)"},"subject":{"reference":"Patient/0389dadc-9e16-4ccc-abe8-5d2b4a899319"},"encounter":{"reference":"Encounter/2EncountersScreAtRiskThenRefMSROBSPass4"},"performedPeriod":{"start":"2026-02-01T11:30:00.000+00:00","end":"2026-02-07T08:15:00.000+00:00"}},"request":{"method":"PUT","url":"Procedure/513f8234-7009-4339-bccd-36c0ca4203e5"}},{"resource":{"resourceType":"Observation","id":"9772321d-02af-4b6c-af71-158c640e65d2","meta":{"profile":["http://hl7.org/fhir/us/qicore/StructureDefinition/qicore-observation-screening-assessment"]},"status":"final","category":[{"coding":[{"system":"http://terminology.hl7.org/CodeSystem/observation-category","code":"survey","display":"Survey"}]}],"code":{"coding":[{"system":"http://loinc.org","code":"98967-3","display":"Nutritional Risk Screening 2002 panel","userSelected":true}]},"subject":{"reference":"Patient/0389dadc-9e16-4ccc-abe8-5d2b4a899319"},"effectiveDateTime":"2026-02-01T09:00:00.000+00:00","valueCodeableConcept":{"coding":[{"system":"http://snomed.info/sct","code":"129689002","display":"At increased risk for nutritional problem (finding)","userSelected":true}]}},"request":{"method":"PUT","url":"Observation/9772321d-02af-4b6c-af71-158c640e65d2"}},{"resource":{"resourceType":"Coverage","id":"b0a353fa-a483-49ff-a3be-2c23a17ea086","meta":{"profile":["http://hl7.org/fhir/us/qicore/StructureDefinition/qicore-coverage"]},"status":"active","type":{"coding":[{"system":"https://nahdo.org/sopt","version":"9.2","code":"11","display":"Medicare Managed Care (Includes Medicare Advantage Plans)"}]},"subscriberId":"97531","beneficiary":{"reference":"Patient/0389dadc-9e16-4ccc-abe8-5d2b4a899319"},"dependent":"0","relationship":{"coding":[{"system":"http://terminology.hl7.org/CodeSystem/subscriber-relationship","code":"self"}]},"period":{"start":"2024-10-01T00:00:00.000+00:00"},"payor":[{"reference":"Organization/533179c5-4d14-4c42-b2cc-a4e37c9725fa"}]},"request":{"method":"PUT","url":"Coverage/b0a353fa-a483-49ff-a3be-2c23a17ea086"}},{"resource":{"resourceType":"Organization","id":"533179c5-4d14-4c42-b2cc-a4e37c9725fa","meta":{"profile":["http://hl7.org/fhir/us/qicore/StructureDefinition/qicore-organization"]},"identifier":[{"use":"temp","system":"urn:oid:2.16.840.1.113883.4.4","value":"21-3259825"}],"active":true,"type":[{"coding":[{"system":"http://terminology.hl7.org/CodeSystem/organization-type","code":"pay","display":"Payer"}]}],"name":"Blue Cross Blue Shield of Texas","telecom":[{"system":"phone","value":"(+1) 972-766-6900"}],"address":[{"use":"billing","type":"postal","line":["P.O. Box 660044"],"city":"Dallas","state":"TX","postalCode":"75266-0044","country":"USA"}]},"request":{"method":"PUT","url":"Organization/533179c5-4d14-4c42-b2cc-a4e37c9725fa"}},{"resource":{"resourceType":"Patient","id":"0389dadc-9e16-4ccc-abe8-5d2b4a899319","meta":{"profile":["http://hl7.org/fhir/us/qicore/StructureDefinition/qicore-patient"]},"extension":[{"url":"http://hl7.org/fhir/us/core/StructureDefinition/us-core-race","extension":[{"url":"ombCategory","valueCoding":{"system":"urn:oid:2.16.840.1.113883.6.238","code":"2106-3","display":"White","userSelected":true}},{"url":"text","valueString":"White"}]},{"url":"http://hl7.org/fhir/us/core/StructureDefinition/us-core-ethnicity","extension":[{"url":"ombCategory","valueCoding":{"system":"urn:oid:2.16.840.1.113883.6.238","code":"2186-5","display":"Not Hispanic or Latino","userSelected":true}},{"url":"text","valueString":"Not Hispanic or Latino"}]},{"url":"http://hl7.org/fhir/us/core/StructureDefinition/us-core-sex","valueCode":"248153007"}],"identifier":[{"type":{"coding":[{"system":"http://terminology.hl7.org/CodeSystem/v2-0203","code":"MR"}]},"system":"https://madie.cms.gov/","value":"2EncountersScreAtRiskThenRef"}],"active":true,"name":[{"use":"usual","text":"2EncountersScreAtRiskThenRef","family":"MSROBSPass4","given":["2EncountersScreAtRiskThenRefMSROBSPass4"]}],"gender":"male","birthDate":"1954-01-01","address":[{"text":"2EncountersScreAtRiskThenRef, Screened Not at risk Assessed Severely Malnourished Diagnosed Care Plan, ID=2EncountersScreAtRiskThenRef, DOB: 01 Jan 1954"}]},"request":{"method":"PUT","url":"Patient/0389dadc-9e16-4ccc-abe8-5d2b4a899319"}},{"resource":{"resourceType":"Observation","id":"ed660d67-192e-4508-a2a3-86d239c1b5a0","meta":{"profile":["http://hl7.org/fhir/us/qicore/StructureDefinition/qicore-observation-screening-assessment"]},"status":"final","category":[{"coding":[{"system":"http://terminology.hl7.org/CodeSystem/observation-category","code":"survey","display":"Survey"}]}],"code":{"coding":[{"system":"http://loinc.org","code":"75282-4","display":"Nutrition assessment panel","userSelected":true}]},"subject":{"reference":"Patient/0389dadc-9e16-4ccc-abe8-5d2b4a899319"},"effectiveDateTime":"2026-02-01T10:00:00.000+00:00","valueCodeableConcept":{"coding":[{"system":"http://snomed.info/sct","code":"102636009","display":"Chronic nutritional deficiency (finding)","userSelected":true}]}},"request":{"method":"PUT","url":"Observation/ed660d67-192e-4508-a2a3-86d239c1b5a0"}},{"resource":{"resourceType":"Bundle","id":"2EncountersScreAtRiskThenRef","type":"transaction","entry":[{"fullUrl":"https://madie.cms.gov/Patient/0389dadc-9e16-4ccc-abe8-5d2b4a899319","resource":{"resourceType":"Patient","id":"0389dadc-9e16-4ccc-abe8-5d2b4a899319","meta":{"profile":["http://hl7.org/fhir/us/qicore/StructureDefinition/qicore-patient"]},"extension":[{"url":"http://hl7.org/fhir/us/core/StructureDefinition/us-core-race","extension":[{"url":"ombCategory","valueCoding":{"system":"urn:oid:2.16.840.1.113883.6.238","code":"2106-3","display":"White","userSelected":true}},{"url":"text","valueString":"White"}]},{"url":"http://hl7.org/fhir/us/core/StructureDefinition/us-core-ethnicity","extension":[{"url":"ombCategory","valueCoding":{"system":"urn:oid:2.16.840.1.113883.6.238","code":"2186-5","display":"Not Hispanic or Latino","userSelected":true}},{"url":"text","valueString":"Not Hispanic or Latino"}]},{"url":"http://hl7.org/fhir/us/core/StructureDefinition/us-core-sex","valueCode":"248153007"}],"identifier":[{"type":{"coding":[{"system":"http://terminology.hl7.org/CodeSystem/v2-0203","code":"MR"}]},"system":"https://madie.cms.gov/","value":"2EncountersScreAtRiskThenRef"}],"active":true,"name":[{"use":"usual","text":"2EncountersScreAtRiskThenRef","family":"MSROBSPass4","given":["2EncountersScreAtRiskThenRefMSROBSPass4"]}],"gender":"male","birthDate":"1954-01-01","address":[{"text":"2EncountersScreAtRiskThenRef, Screened Not at risk Assessed Severely Malnourished Diagnosed Care Plan, ID=2EncountersScreAtRiskThenRef, DOB: 01 Jan 1954"}]},"request":{"method":"PUT","url":"Patient/0389dadc-9e16-4ccc-abe8-5d2b4a899319"}},{"fullUrl":"https://madie.cms.gov/Encounter/c8adce31-7580-48d6-b076-a2bdfd629b66","resource":{"resourceType":"Encounter","id":"c8adce31-7580-48d6-b076-a2bdfd629b66","meta":{"profile":["http://hl7.org/fhir/us/qicore/StructureDefinition/qicore-encounter"]},"status":"finished","class":{"system":"http://terminology.hl7.org/CodeSystem/v3-ActCode","code":"IMP","display":"inpatient encounter"},"type":[{"coding":[{"system":"http://snomed.info/sct","code":"183452005"}]}],"subject":{"reference":"Patient/0389dadc-9e16-4ccc-abe8-5d2b4a899319"},"period":{"start":"2026-02-01T08:00:00.000+00:00","end":"2026-02-07T08:15:00.000+00:00"},"reasonReference":[{"reference":"Condition/0e1a5ef2-89b7-4586-84dd-ba09d7e5359c"}]},"request":{"method":"PUT","url":"Encounter/c8adce31-7580-48d6-b076-a2bdfd629b66"}},{"fullUrl":"https://madie.cms.gov/Condition/0e1a5ef2-89b7-4586-84dd-ba09d7e5359c","resource":{"resourceType":"Condition","id":"0e1a5ef2-89b7-4586-84dd-ba09d7e5359c","meta":{"profile":["http://hl7.org/fhir/us/qicore/StructureDefinition/qicore-condition-encounter-diagnosis"]},"clinicalStatus":{"coding":[{"system":"http://terminology.hl7.org/CodeSystem/condition-clinical","code":"active","display":"Active","userSelected":true}]},"verificationStatus":{"coding":[{"system":"http://terminology.hl7.org/CodeSystem/condition-ver-status","code":"confirmed","display":"Confirmed","userSelected":true}]},"category":[{"coding":[{"system":"http://terminology.hl7.org/CodeSystem/condition-category","code":"encounter-diagnosis","display":"Encounter Diagnosis","userSelected":true}]}],"code":{"coding":[{"system":"http://hl7.org/fhir/sid/icd-10-cm","code":"O25.2","display":"Malnutrition in childbirth","userSelected":true}]},"subject":{"reference":"Patient/0389dadc-9e16-4ccc-abe8-5d2b4a899319"},"onsetPeriod":{"start":"2026-02-01T08:00:00.000+00:00"},"recordedDate":"2026-02-01T11:00:00.000+00:00"},"request":{"method":"PUT","url":"Condition/0e1a5ef2-89b7-4586-84dd-ba09d7e5359c"}},{"fullUrl":"https://madie.cms.gov/Observation/9772321d-02af-4b6c-af71-158c640e65d2","resource":{"resourceType":"Observation","id":"9772321d-02af-4b6c-af71-158c640e65d2","meta":{"profile":["http://hl7.org/fhir/us/qicore/StructureDefinition/qicore-observation-screening-assessment"]},"status":"final","category":[{"coding":[{"system":"http://terminology.hl7.org/CodeSystem/observation-category","code":"survey","display":"Survey"}]}],"code":{"coding":[{"system":"http://loinc.org","code":"98967-3","display":"Nutritional Risk Screening 2002 panel","userSelected":true}]},"subject":{"reference":"Patient/0389dadc-9e16-4ccc-abe8-5d2b4a899319"},"effectiveDateTime":"2026-02-01T09:00:00.000+00:00","valueCodeableConcept":{"coding":[{"system":"http://snomed.info/sct","code":"129689002","display":"At increased risk for nutritional problem (finding)","userSelected":true}]}},"request":{"method":"PUT","url":"Observation/9772321d-02af-4b6c-af71-158c640e65d2"}},{"fullUrl":"https://madie.cms.gov/Observation/ed660d67-192e-4508-a2a3-86d239c1b5a0","resource":{"resourceType":"Observation","id":"ed660d67-192e-4508-a2a3-86d239c1b5a0","meta":{"profile":["http://hl7.org/fhir/us/qicore/StructureDefinition/qicore-observation-screening-assessment"]},"status":"final","category":[{"coding":[{"system":"http://terminology.hl7.org/CodeSystem/observation-category","code":"survey","display":"Survey"}]}],"code":{"coding":[{"system":"http://loinc.org","code":"75282-4","display":"Nutrition assessment panel","userSelected":true}]},"subject":{"reference":"Patient/0389dadc-9e16-4ccc-abe8-5d2b4a899319"},"effectiveDateTime":"2026-02-01T10:00:00.000+00:00","valueCodeableConcept":{"coding":[{"system":"http://snomed.info/sct","code":"102636009","display":"Chronic nutritional deficiency (finding)","userSelected":true}]}},"request":{"method":"PUT","url":"Observation/ed660d67-192e-4508-a2a3-86d239c1b5a0"}},{"fullUrl":"https://madie.cms.gov/Procedure/513f8234-7009-4339-bccd-36c0ca4203e5","resource":{"resourceType":"Procedure","id":"513f8234-7009-4339-bccd-36c0ca4203e5","meta":{"profile":["http://hl7.org/fhir/us/qicore/StructureDefinition/qicore-procedure"]},"extension":[{"url":"http://hl7.org/fhir/us/qicore/StructureDefinition/qicore-recorded","valueDateTime":"2026-02-02T11:30:00.000+00:00"}],"status":"completed","code":{"coding":[{"system":"http://snomed.info/sct","code":"410175003","display":"Dietary regime management (procedure)"}],"text":"Dietary regime management (procedure)"},"subject":{"reference":"Patient/0389dadc-9e16-4ccc-abe8-5d2b4a899319"},"encounter":{"reference":"Encounter/2EncountersScreAtRiskThenRefMSROBSPass4"},"performedPeriod":{"start":"2026-02-01T11:30:00.000+00:00","end":"2026-02-07T08:15:00.000+00:00"}},"request":{"method":"PUT","url":"Procedure/513f8234-7009-4339-bccd-36c0ca4203e5"}},{"fullUrl":"https://madie.cms.gov/Coverage/40228728-25df-4726-9947-7aa30c32b823","resource":{"resourceType":"Coverage","id":"40228728-25df-4726-9947-7aa30c32b823","meta":{"profile":["http://hl7.org/fhir/us/qicore/StructureDefinition/qicore-coverage"]},"status":"active","type":{"coding":[{"system":"https://nahdo.org/sopt","version":"9.2","code":"11","display":"Medicare Managed Care (Includes Medicare Advantage Plans)"}]},"subscriberId":"97531","beneficiary":{"reference":"Patient/0389dadc-9e16-4ccc-abe8-5d2b4a899319"},"dependent":"0","relationship":{"coding":[{"system":"http://terminology.hl7.org/CodeSystem/subscriber-relationship","code":"self"}]},"period":{"start":"2024-10-01T00:00:00.000+00:00"},"payor":[{"reference":"Organization/533179c5-4d14-4c42-b2cc-a4e37c9725fa"}]},"request":{"method":"PUT","url":"Coverage/40228728-25df-4726-9947-7aa30c32b823"}},{"fullUrl":"https://madie.cms.gov/Encounter/f0d4a6a1-3382-4f8c-a601-f7bfe2395e77","resource":{"resourceType":"Encounter","id":"f0d4a6a1-3382-4f8c-a601-f7bfe2395e77","meta":{"profile":["http://hl7.org/fhir/us/qicore/StructureDefinition/qicore-encounter"]},"status":"finished","class":{"system":"http://terminology.hl7.org/CodeSystem/v3-ActCode","code":"IMP","display":"inpatient encounter"},"type":[{"coding":[{"system":"http://snomed.info/sct","code":"183452005"}]}],"subject":{"reference":"Patient/0389dadc-9e16-4ccc-abe8-5d2b4a899319"},"period":{"start":"2026-08-01T08:00:00.000+00:00","end":"2026-08-07T08:15:00.000+00:00"},"reasonReference":[{"reference":"Condition/c080dff8-1155-46f0-9dcf-0a5e375e6f00"}]},"request":{"method":"PUT","url":"Encounter/f0d4a6a1-3382-4f8c-a601-f7bfe2395e77"}},{"fullUrl":"https://madie.cms.gov/Condition/c080dff8-1155-46f0-9dcf-0a5e375e6f00","resource":{"resourceType":"Condition","id":"c080dff8-1155-46f0-9dcf-0a5e375e6f00","meta":{"profile":["http://hl7.org/fhir/us/qicore/StructureDefinition/qicore-condition-encounter-diagnosis"]},"clinicalStatus":{"coding":[{"system":"http://terminology.hl7.org/CodeSystem/condition-clinical","code":"active","display":"Active","userSelected":true}]},"verificationStatus":{"coding":[{"system":"http://terminology.hl7.org/CodeSystem/condition-ver-status","code":"confirmed","display":"Confirmed","userSelected":true}]},"category":[{"coding":[{"system":"http://terminology.hl7.org/CodeSystem/condition-category","code":"encounter-diagnosis","display":"Encounter Diagnosis","userSelected":true}]}],"code":{"coding":[{"system":"http://snomed.info/sct","code":"190606006","display":"Moderate protein energy malnutrition (disorder)","userSelected":true}]},"subject":{"reference":"Patient/0389dadc-9e16-4ccc-abe8-5d2b4a899319"},"onsetPeriod":{"start":"2026-08-01T08:00:00.000+00:00"},"recordedDate":"2026-08-01T11:00:00.000+00:00"},"request":{"method":"PUT","url":"Condition/c080dff8-1155-46f0-9dcf-0a5e375e6f00"}},{"fullUrl":"https://madie.cms.gov/Observation/7f77c2ae-cde6-47a1-a8b5-dd0384711df2","resource":{"resourceType":"Observation","id":"7f77c2ae-cde6-47a1-a8b5-dd0384711df2","meta":{"profile":["http://hl7.org/fhir/us/qicore/StructureDefinition/qicore-observation-screening-assessment"]},"status":"final","category":[{"coding":[{"system":"http://terminology.hl7.org/CodeSystem/observation-category","code":"survey","display":"Survey"}]}],"code":{"coding":[{"system":"http://loinc.org","code":"75282-4","display":"Nutrition assessment panel","userSelected":true}]},"subject":{"reference":"Patient/0389dadc-9e16-4ccc-abe8-5d2b4a899319"},"effectiveDateTime":"2026-08-01T10:00:00.000+00:00","valueCodeableConcept":{"coding":[{"system":"http://snomed.info/sct","code":"102636009","display":"Chronic nutritional deficiency (finding)","userSelected":true}]}},"request":{"method":"PUT","url":"Observation/7f77c2ae-cde6-47a1-a8b5-dd0384711df2"}},{"fullUrl":"https://madie.cms.gov/Procedure/2bda666a-5105-4f28-9999-202fd14c0bac","resource":{"resourceType":"Procedure","id":"2bda666a-5105-4f28-9999-202fd14c0bac","meta":{"profile":["http://hl7.org/fhir/us/qicore/StructureDefinition/qicore-procedure"]},"extension":[{"url":"http://hl7.org/fhir/us/qicore/StructureDefinition/qicore-recorded","valueDateTime":"2026-08-01T11:30:00.000+00:00"}],"status":"completed","code":{"coding":[{"system":"http://snomed.info/sct","code":"408285001","display":"Referral to pediatric dietitian (procedure)"}],"text":"Referral to hospital-based dietitian (procedure)"},"subject":{"reference":"Patient/0389dadc-9e16-4ccc-abe8-5d2b4a899319"},"encounter":{"reference":"Encounter/2EncountersScreAtRiskThenRefMSROBSPass4"},"performedPeriod":{"start":"2026-08-01T11:30:00.000+00:00","end":"2026-08-07T08:15:00.000+00:00"}},"request":{"method":"PUT","url":"Procedure/2bda666a-5105-4f28-9999-202fd14c0bac"}},{"fullUrl":"https://madie.cms.gov/Procedure/acc106b7-cf58-446d-a8ca-3e7806d9bba7","resource":{"resourceType":"Procedure","id":"acc106b7-cf58-446d-a8ca-3e7806d9bba7","meta":{"profile":["http://hl7.org/fhir/us/qicore/StructureDefinition/qicore-procedure"]},"extension":[{"url":"http://hl7.org/fhir/us/qicore/StructureDefinition/qicore-recorded","valueDateTime":"2026-02-02T11:30:00.000+00:00"}],"status":"completed","code":{"coding":[{"system":"http://snomed.info/sct","code":"410175003","display":"Dietary regime management (procedure)"}],"text":"Dietary regime management (procedure)"},"subject":{"reference":"Patient/0389dadc-9e16-4ccc-abe8-5d2b4a899319"},"encounter":{"reference":"Encounter/2EncountersScreAtRiskThenRefMSROBSPass4"},"performedPeriod":{"start":"2026-08-01T11:30:00.000+00:00","end":"2026-08-07T08:15:00.000+00:00"}},"request":{"method":"PUT","url":"Procedure/acc106b7-cf58-446d-a8ca-3e7806d9bba7"}},{"fullUrl":"https://madie.cms.gov/Coverage/b0a353fa-a483-49ff-a3be-2c23a17ea086","resource":{"resourceType":"Coverage","id":"b0a353fa-a483-49ff-a3be-2c23a17ea086","meta":{"profile":["http://hl7.org/fhir/us/qicore/StructureDefinition/qicore-coverage"]},"status":"active","type":{"coding":[{"system":"https://nahdo.org/sopt","version":"9.2","code":"11","display":"Medicare Managed Care (Includes Medicare Advantage Plans)"}]},"subscriberId":"97531","beneficiary":{"reference":"Patient/0389dadc-9e16-4ccc-abe8-5d2b4a899319"},"dependent":"0","relationship":{"coding":[{"system":"http://terminology.hl7.org/CodeSystem/subscriber-relationship","code":"self"}]},"period":{"start":"2024-10-01T00:00:00.000+00:00"},"payor":[{"reference":"Organization/533179c5-4d14-4c42-b2cc-a4e37c9725fa"}]},"request":{"method":"PUT","url":"Coverage/b0a353fa-a483-49ff-a3be-2c23a17ea086"}},{"fullUrl":"https://madie.cms.gov/Organization/533179c5-4d14-4c42-b2cc-a4e37c9725fa","resource":{"resourceType":"Organization","id":"533179c5-4d14-4c42-b2cc-a4e37c9725fa","meta":{"profile":["http://hl7.org/fhir/us/qicore/StructureDefinition/qicore-organization"]},"identifier":[{"use":"temp","system":"urn:oid:2.16.840.1.113883.4.4","value":"21-3259825"}],"active":true,"type":[{"coding":[{"system":"http://terminology.hl7.org/CodeSystem/organization-type","code":"pay","display":"Payer"}]}],"name":"Blue Cross Blue Shield of Texas","telecom":[{"system":"phone","value":"(+1) 972-766-6900"}],"address":[{"use":"billing","type":"postal","line":["P.O. Box 660044"],"city":"Dallas","state":"TX","postalCode":"75266-0044","country":"USA"}]},"request":{"method":"PUT","url":"Organization/533179c5-4d14-4c42-b2cc-a4e37c9725fa"}},{"fullUrl":"https://madie.cms.gov/MeasureReport/954df663-5a89-4611-a31e-6878e6aa83fc","resource":{"resourceType":"MeasureReport","id":"954df663-5a89-4611-a31e-6878e6aa83fc","meta":{"profile":["http://hl7.org/fhir/us/cqfmeasures/StructureDefinition/test-case-cqfm"]},"contained":[{"resourceType":"Parameters","id":"68b7e2ca-311b-44d5-9ff5-60777a0d5bd1-parameters","parameter":[{"name":"subject","valueString":"0389dadc-9e16-4ccc-abe8-5d2b4a899319"}]}],"extension":[{"url":"http://hl7.org/fhir/StructureDefinition/cqf-inputParameters","valueReference":{"reference":"#68b7e2ca-311b-44d5-9ff5-60777a0d5bd1-parameters"}},{"url":"http://hl7.org/fhir/us/cqfmeasures/StructureDefinition/cqfm-testCaseDescription","valueMarkdown":"2 encounters: 1-screen (at risk), assessment (mod), dx, care plan\n2-referral, assessment (mod), dx, care plan"}],"modifierExtension":[{"url":"http://hl7.org/fhir/us/cqfmeasures/StructureDefinition/cqfm-isTestCase","valueBoolean":true}],"status":"complete","type":"individual","measure":"https://madie.cms.gov/Measure/CMS986FHIRMalnutritionScore","period":{"start":"2026-01-01","end":"2026-12-31"},"group":[{"id":"Group_1","population":[{"id":"InitialPopulation_1","code":{"coding":[{"system":"http://terminology.hl7.org/CodeSystem/measure-population","code":"initial-population","display":"Initial Population"}]},"count":2},{"id":"MeasurePopulation_1","code":{"coding":[{"system":"http://terminology.hl7.org/CodeSystem/measure-population","code":"measure-population","display":"Measure Population"}]},"count":2},{"id":"MeasurePopulationExclusion_1","code":{"coding":[{"system":"http://terminology.hl7.org/CodeSystem/measure-population","code":"measure-population-exclusion","display":"Measure Population Exclusion"}]},"count":0},{"id":"MeasureObservation_1_1","code":{"coding":[{"system":"http://terminology.hl7.org/CodeSystem/measure-population","code":"measure-population-observation","display":"Measure Population Observation"}]},"count":1},{"id":"MeasureObservation_1_2","code":{"coding":[{"system":"http://terminology.hl7.org/CodeSystem/measure-population","code":"measure-population-observation","display":"Measure Population Observation"}]},"count":1}],"measureScore":{"value":0.0}},{"id":"Group_2","population":[{"id":"InitialPopulation_2","code":{"coding":[{"system":"http://terminology.hl7.org/CodeSystem/measure-population","code":"initial-population","display":"Initial Population"}]},"count":2},{"id":"MeasurePopulation_2","code":{"coding":[{"system":"http://terminology.hl7.org/CodeSystem/measure-population","code":"measure-population","display":"Measure Population"}]},"count":2},{"id":"MeasurePopulationExclusion_2","code":{"coding":[{"system":"http://terminology.hl7.org/CodeSystem/measure-population","code":"measure-population-exclusion","display":"Measure Population Exclusion"}]},"count":0},{"id":"MeasureObservation_2_1","code":{"coding":[{"system":"http://terminology.hl7.org/CodeSystem/measure-population","code":"measure-population-observation","display":"Measure Population Observation"}]},"count":1},{"id":"MeasureObservation_2_2","code":{"coding":[{"system":"http://terminology.hl7.org/CodeSystem/measure-population","code":"measure-population-observation","display":"Measure Population Observation"}]},"count":1}],"measureScore":{"value":0.0}},{"id":"Group_3","population":[{"id":"InitialPopulation_3","code":{"coding":[{"system":"http://terminology.hl7.org/CodeSystem/measure-population","code":"initial-population","display":"Initial Population"}]},"count":2},{"id":"MeasurePopulation_3","code":{"coding":[{"system":"http://terminology.hl7.org/CodeSystem/measure-population","code":"measure-population","display":"Measure Population"}]},"count":2},{"id":"MeasurePopulationExclusion_3","code":{"coding":[{"system":"http://terminology.hl7.org/CodeSystem/measure-population","code":"measure-population-exclusion","display":"Measure Population Exclusion"}]},"count":0},{"id":"MeasureObservation_3_1","code":{"coding":[{"system":"http://terminology.hl7.org/CodeSystem/measure-population","code":"measure-population-observation","display":"Measure Population Observation"}]},"count":1},{"id":"MeasureObservation_3_2","code":{"coding":[{"system":"http://terminology.hl7.org/CodeSystem/measure-population","code":"measure-population-observation","display":"Measure Population Observation"}]},"count":1}],"measureScore":{"value":0.0}},{"id":"Group_4","population":[{"id":"InitialPopulation_4","code":{"coding":[{"system":"http://terminology.hl7.org/CodeSystem/measure-population","code":"initial-population","display":"Initial Population"}]},"count":2},{"id":"MeasurePopulation_4","code":{"coding":[{"system":"http://terminology.hl7.org/CodeSystem/measure-population","code":"measure-population","display":"Measure Population"}]},"count":2},{"id":"MeasurePopulationExclusion_4","code":{"coding":[{"system":"http://terminology.hl7.org/CodeSystem/measure-population","code":"measure-population-exclusion","display":"Measure Population Exclusion"}]},"count":0},{"id":"MeasureObservation_4_1","code":{"coding":[{"system":"http://terminology.hl7.org/CodeSystem/measure-population","code":"measure-population-observation","display":"Measure Population Observation"}]},"count":1},{"id":"MeasureObservation_4_2","code":{"coding":[{"system":"http://terminology.hl7.org/CodeSystem/measure-population","code":"measure-population-observation","display":"Measure Population Observation"}]},"count":1}],"measureScore":{"value":0.0}},{"id":"Group_5","population":[{"id":"InitialPopulation_5","code":{"coding":[{"system":"http://terminology.hl7.org/CodeSystem/measure-population","code":"initial-population","display":"Initial Population"}]},"count":2},{"id":"MeasurePopulation_5","code":{"coding":[{"system":"http://terminology.hl7.org/CodeSystem/measure-population","code":"measure-population","display":"Measure Population"}]},"count":2},{"id":"MeasurePopulationExclusion_5","code":{"coding":[{"system":"http://terminology.hl7.org/CodeSystem/measure-population","code":"measure-population-exclusion","display":"Measure Population Exclusion"}]},"count":0},{"id":"MeasureObservation_5_1","code":{"coding":[{"system":"http://terminology.hl7.org/CodeSystem/measure-population","code":"measure-population-observation","display":"Measure Population Observation"}]},"count":4},{"id":"MeasureObservation_5_2","code":{"coding":[{"system":"http://terminology.hl7.org/CodeSystem/measure-population","code":"measure-population-observation","display":"Measure Population Observation"}]},"count":4}],"measureScore":{"value":0.0}},{"id":"Group_6","population":[{"id":"InitialPopulation_6","code":{"coding":[{"system":"http://terminology.hl7.org/CodeSystem/measure-population","code":"initial-population","display":"Initial Population"}]},"count":2},{"id":"MeasurePopulation_6","code":{"coding":[{"system":"http://terminology.hl7.org/CodeSystem/measure-population","code":"measure-population","display":"Measure Population"}]},"count":2},{"id":"MeasurePopulationExclusion_6","code":{"coding":[{"system":"http://terminology.hl7.org/CodeSystem/measure-population","code":"measure-population-exclusion","display":"Measure Population Exclusion"}]},"count":0},{"id":"MeasureObservation_6_1","code":{"coding":[{"system":"http://terminology.hl7.org/CodeSystem/measure-population","code":"measure-population-observation","display":"Measure Population Observation"}]},"count":100},{"id":"MeasureObservation_6_2","code":{"coding":[{"system":"http://terminology.hl7.org/CodeSystem/measure-population","code":"measure-population-observation","display":"Measure Population Observation"}]},"count":100}],"measureScore":{"value":0.0}}],"evaluatedResource":[{"reference":"Patient/0389dadc-9e16-4ccc-abe8-5d2b4a899319"},{"reference":"Encounter/c8adce31-7580-48d6-b076-a2bdfd629b66"},{"reference":"Condition/0e1a5ef2-89b7-4586-84dd-ba09d7e5359c"},{"reference":"Observation/9772321d-02af-4b6c-af71-158c640e65d2"},{"reference":"Observation/ed660d67-192e-4508-a2a3-86d239c1b5a0"},{"reference":"Procedure/513f8234-7009-4339-bccd-36c0ca4203e5"},{"reference":"Coverage/40228728-25df-4726-9947-7aa30c32b823"},{"reference":"Encounter/f0d4a6a1-3382-4f8c-a601-f7bfe2395e77"},{"reference":"Condition/c080dff8-1155-46f0-9dcf-0a5e375e6f00"},{"reference":"Observation/7f77c2ae-cde6-47a1-a8b5-dd0384711df2"},{"reference":"Procedure/2bda666a-5105-4f28-9999-202fd14c0bac"},{"reference":"Procedure/acc106b7-cf58-446d-a8ca-3e7806d9bba7"},{"reference":"Coverage/b0a353fa-a483-49ff-a3be-2c23a17ea086"},{"reference":"Organization/533179c5-4d14-4c42-b2cc-a4e37c9725fa"}]},"request":{"method":"PUT","url":"MeasureReport/954df663-5a89-4611-a31e-6878e6aa83fc"}}]},"request":{"method":"PUT","url":"Bundle/2EncountersScreAtRiskThenRef"}},{"resource":{"resourceType":"Procedure","id":"2bda666a-5105-4f28-9999-202fd14c0bac","meta":{"profile":["http://hl7.org/fhir/us/qicore/StructureDefinition/qicore-procedure"]},"extension":[{"url":"http://hl7.org/fhir/us/qicore/StructureDefinition/qicore-recorded","valueDateTime":"2026-08-01T11:30:00.000+00:00"}],"status":"completed","code":{"coding":[{"system":"http://snomed.info/sct","code":"408285001","display":"Referral to pediatric dietitian (procedure)"}],"text":"Referral to hospital-based dietitian (procedure)"},"subject":{"reference":"Patient/0389dadc-9e16-4ccc-abe8-5d2b4a899319"},"encounter":{"reference":"Encounter/2EncountersScreAtRiskThenRefMSROBSPass4"},"performedPeriod":{"start":"2026-08-01T11:30:00.000+00:00","end":"2026-08-07T08:15:00.000+00:00"}},"request":{"method":"PUT","url":"Procedure/2bda666a-5105-4f28-9999-202fd14c0bac"}}]}