{"resourceType":"Bundle","id":"tests-6ad4d973-4673-49bd-afb8-2678cb7f2963-bundle","type":"transaction","entry":[{"fullUrl":"Patient/6ad4d973-4673-49bd-afb8-2678cb7f2963","resource":{"resourceType":"Patient","id":"6ad4d973-4673-49bd-afb8-2678cb7f2963","meta":{"profile":["http://hl7.org/fhir/us/qicore/StructureDefinition/qicore-patient"]},"extension":[{"url":"http://hl7.org/fhir/us/core/StructureDefinition/us-core-race","extension":[{"url":"ombCategory","valueCoding":{"system":"urn:oid:2.16.840.1.113883.6.238","code":"2054-5","display":"Black or African American","userSelected":true}},{"url":"text","valueString":"Black or African American"}]},{"url":"http://hl7.org/fhir/us/core/StructureDefinition/us-core-ethnicity","extension":[{"url":"ombCategory","valueCoding":{"system":"urn:oid:2.16.840.1.113883.6.238","code":"2135-2","display":"Hispanic or Latino","userSelected":true}},{"url":"text","valueString":"Hispanic or Latino"}]},{"url":"http://hl7.org/fhir/us/core/StructureDefinition/us-core-sex","valueCode":"248152002"}],"identifier":[{"type":{"coding":[{"system":"http://terminology.hl7.org/CodeSystem/v2-0203","code":"MR"}]},"system":"https://madie.cms.gov/","value":"HospiceExclusion1"}],"active":true,"name":[{"use":"usual","text":"HospiceExclusion1","family":"IPPFAIL","given":["HospiceExclusion1"]}],"gender":"female","birthDate":"1987-01-01","address":[{"text":"HospiceExclusion1, Screened Not at risk No referral No Assessment Diagnosed Care Plan, ID=HospiceExclusion1, DOB: 01 Jan 1987"}]},"request":{"method":"PUT","url":"Patient/6ad4d973-4673-49bd-afb8-2678cb7f2963"}},{"fullUrl":"Coverage/7f235f13-dc9c-44a3-ac69-3ec7e10fb5ab","resource":{"resourceType":"Coverage","id":"7f235f13-dc9c-44a3-ac69-3ec7e10fb5ab","meta":{"profile":["http://hl7.org/fhir/us/qicore/StructureDefinition/qicore-coverage"]},"status":"active","type":{"coding":[{"system":"https://nahdo.org/sopt","version":"9.2","code":"11","display":"Medicare Managed Care (Includes Medicare Advantage Plans)"}]},"subscriberId":"97531","beneficiary":{"reference":"Patient/6ad4d973-4673-49bd-afb8-2678cb7f2963"},"dependent":"0","relationship":{"coding":[{"system":"http://terminology.hl7.org/CodeSystem/subscriber-relationship","code":"self"}]},"period":{"start":"2025-10-01T00:00:00.000+00:00"},"payor":[{"reference":"Organization/44efd38f-1a65-41ab-97e9-0f7bb33127a7"}]},"request":{"method":"PUT","url":"Coverage/7f235f13-dc9c-44a3-ac69-3ec7e10fb5ab"}},{"fullUrl":"Organization/44efd38f-1a65-41ab-97e9-0f7bb33127a7","resource":{"resourceType":"Organization","id":"44efd38f-1a65-41ab-97e9-0f7bb33127a7","meta":{"profile":["http://hl7.org/fhir/us/qicore/StructureDefinition/qicore-organization"]},"identifier":[{"use":"temp","system":"urn:oid:2.16.840.1.113883.4.4","value":"21-3259825"}],"active":true,"type":[{"coding":[{"system":"http://terminology.hl7.org/CodeSystem/organization-type","code":"pay","display":"Payer"}]}],"name":"Blue Cross Blue Shield of Texas","telecom":[{"system":"phone","value":"(+1) 972-766-6900"}],"address":[{"use":"billing","type":"postal","line":["P.O. Box 660044"],"city":"Dallas","state":"TX","postalCode":"75266-0044","country":"USA"}]},"request":{"method":"PUT","url":"Organization/44efd38f-1a65-41ab-97e9-0f7bb33127a7"}},{"fullUrl":"Procedure/a9ec667f-9ce4-415e-bccc-bfafe2a1ea9f","resource":{"resourceType":"Procedure","id":"a9ec667f-9ce4-415e-bccc-bfafe2a1ea9f","meta":{"profile":["http://hl7.org/fhir/us/qicore/StructureDefinition/qicore-procedure"]},"extension":[{"url":"http://hl7.org/fhir/us/qicore/StructureDefinition/qicore-recorded","valueDateTime":"2012-12-04T13:35:00.000+00:00"}],"status":"completed","code":{"coding":[{"system":"http://snomed.info/sct","code":"385763009","display":"Hospice care (regime/therapy)"}]},"subject":{"reference":"Patient/6ad4d973-4673-49bd-afb8-2678cb7f2963"},"performedPeriod":{"start":"2026-02-03T11:30:00.000+00:00","end":"2026-02-04T08:15:00.000+00:00"}},"request":{"method":"PUT","url":"Procedure/a9ec667f-9ce4-415e-bccc-bfafe2a1ea9f"}},{"fullUrl":"Bundle/HospiceExclusion1","resource":{"resourceType":"Bundle","id":"HospiceExclusion1","type":"transaction","entry":[{"fullUrl":"https://madie.cms.gov/Patient/6ad4d973-4673-49bd-afb8-2678cb7f2963","resource":{"resourceType":"Patient","id":"6ad4d973-4673-49bd-afb8-2678cb7f2963","meta":{"profile":["http://hl7.org/fhir/us/qicore/StructureDefinition/qicore-patient"]},"extension":[{"url":"http://hl7.org/fhir/us/core/StructureDefinition/us-core-race","extension":[{"url":"ombCategory","valueCoding":{"system":"urn:oid:2.16.840.1.113883.6.238","code":"2054-5","display":"Black or African American","userSelected":true}},{"url":"text","valueString":"Black or African American"}]},{"url":"http://hl7.org/fhir/us/core/StructureDefinition/us-core-ethnicity","extension":[{"url":"ombCategory","valueCoding":{"system":"urn:oid:2.16.840.1.113883.6.238","code":"2135-2","display":"Hispanic or Latino","userSelected":true}},{"url":"text","valueString":"Hispanic or Latino"}]},{"url":"http://hl7.org/fhir/us/core/StructureDefinition/us-core-sex","valueCode":"248152002"}],"identifier":[{"type":{"coding":[{"system":"http://terminology.hl7.org/CodeSystem/v2-0203","code":"MR"}]},"system":"https://madie.cms.gov/","value":"HospiceExclusion1"}],"active":true,"name":[{"use":"usual","text":"HospiceExclusion1","family":"IPPFAIL","given":["HospiceExclusion1"]}],"gender":"female","birthDate":"1987-01-01","address":[{"text":"HospiceExclusion1, Screened Not at risk No referral No Assessment Diagnosed Care Plan, ID=HospiceExclusion1, DOB: 01 Jan 1987"}]},"request":{"method":"PUT","url":"Patient/6ad4d973-4673-49bd-afb8-2678cb7f2963"}},{"fullUrl":"https://madie.cms.gov/Encounter/cdd9fef5-095f-4bc0-adc6-9d94fea5a7f0","resource":{"resourceType":"Encounter","id":"cdd9fef5-095f-4bc0-adc6-9d94fea5a7f0","meta":{"profile":["http://hl7.org/fhir/us/qicore/StructureDefinition/qicore-encounter"]},"status":"finished","class":{"system":"http://terminology.hl7.org/CodeSystem/v3-ActCode","code":"IMP","display":"inpatient encounter"},"type":[{"coding":[{"system":"http://snomed.info/sct","code":"183452005"}]}],"subject":{"reference":"Patient/6ad4d973-4673-49bd-afb8-2678cb7f2963"},"period":{"start":"2026-02-02T08:00:00.000+00:00","end":"2026-02-22T08:15:00.000+00:00"}},"request":{"method":"PUT","url":"Encounter/cdd9fef5-095f-4bc0-adc6-9d94fea5a7f0"}},{"fullUrl":"https://madie.cms.gov/Procedure/a9ec667f-9ce4-415e-bccc-bfafe2a1ea9f","resource":{"resourceType":"Procedure","id":"a9ec667f-9ce4-415e-bccc-bfafe2a1ea9f","meta":{"profile":["http://hl7.org/fhir/us/qicore/StructureDefinition/qicore-procedure"]},"extension":[{"url":"http://hl7.org/fhir/us/qicore/StructureDefinition/qicore-recorded","valueDateTime":"2012-12-04T13:35:00.000+00:00"}],"status":"completed","code":{"coding":[{"system":"http://snomed.info/sct","code":"385763009","display":"Hospice care (regime/therapy)"}]},"subject":{"reference":"Patient/6ad4d973-4673-49bd-afb8-2678cb7f2963"},"performedPeriod":{"start":"2026-02-03T11:30:00.000+00:00","end":"2026-02-04T08:15:00.000+00:00"}},"request":{"method":"PUT","url":"Procedure/a9ec667f-9ce4-415e-bccc-bfafe2a1ea9f"}},{"fullUrl":"https://madie.cms.gov/Coverage/7f235f13-dc9c-44a3-ac69-3ec7e10fb5ab","resource":{"resourceType":"Coverage","id":"7f235f13-dc9c-44a3-ac69-3ec7e10fb5ab","meta":{"profile":["http://hl7.org/fhir/us/qicore/StructureDefinition/qicore-coverage"]},"status":"active","type":{"coding":[{"system":"https://nahdo.org/sopt","version":"9.2","code":"11","display":"Medicare Managed Care (Includes Medicare Advantage Plans)"}]},"subscriberId":"97531","beneficiary":{"reference":"Patient/6ad4d973-4673-49bd-afb8-2678cb7f2963"},"dependent":"0","relationship":{"coding":[{"system":"http://terminology.hl7.org/CodeSystem/subscriber-relationship","code":"self"}]},"period":{"start":"2025-10-01T00:00:00.000+00:00"},"payor":[{"reference":"Organization/44efd38f-1a65-41ab-97e9-0f7bb33127a7"}]},"request":{"method":"PUT","url":"Coverage/7f235f13-dc9c-44a3-ac69-3ec7e10fb5ab"}},{"fullUrl":"https://madie.cms.gov/Organization/44efd38f-1a65-41ab-97e9-0f7bb33127a7","resource":{"resourceType":"Organization","id":"44efd38f-1a65-41ab-97e9-0f7bb33127a7","meta":{"profile":["http://hl7.org/fhir/us/qicore/StructureDefinition/qicore-organization"]},"identifier":[{"use":"temp","system":"urn:oid:2.16.840.1.113883.4.4","value":"21-3259825"}],"active":true,"type":[{"coding":[{"system":"http://terminology.hl7.org/CodeSystem/organization-type","code":"pay","display":"Payer"}]}],"name":"Blue Cross Blue Shield of Texas","telecom":[{"system":"phone","value":"(+1) 972-766-6900"}],"address":[{"use":"billing","type":"postal","line":["P.O. Box 660044"],"city":"Dallas","state":"TX","postalCode":"75266-0044","country":"USA"}]},"request":{"method":"PUT","url":"Organization/44efd38f-1a65-41ab-97e9-0f7bb33127a7"}},{"fullUrl":"https://madie.cms.gov/MeasureReport/a8a7c166-316a-4e95-82cf-ae32c21a2878","resource":{"resourceType":"MeasureReport","id":"a8a7c166-316a-4e95-82cf-ae32c21a2878","meta":{"profile":["http://hl7.org/fhir/us/cqfmeasures/StructureDefinition/test-case-cqfm"]},"contained":[{"resourceType":"Parameters","id":"f8ba09ca-f1cd-4ad9-aae9-8caffa4f83ee-parameters","parameter":[{"name":"subject","valueString":"6ad4d973-4673-49bd-afb8-2678cb7f2963"}]}],"extension":[{"url":"http://hl7.org/fhir/StructureDefinition/cqf-inputParameters","valueReference":{"reference":"#f8ba09ca-f1cd-4ad9-aae9-8caffa4f83ee-parameters"}},{"url":"http://hl7.org/fhir/us/cqfmeasures/StructureDefinition/cqfm-testCaseDescription","valueMarkdown":"Hospice status valueset"}],"modifierExtension":[{"url":"http://hl7.org/fhir/us/cqfmeasures/StructureDefinition/cqfm-isTestCase","valueBoolean":true}],"status":"complete","type":"individual","measure":"https://madie.cms.gov/Measure/CMS986FHIRMalnutritionScore","period":{"start":"2026-01-01","end":"2026-12-31"},"group":[{"id":"Group_1","population":[{"id":"InitialPopulation_1","code":{"coding":[{"system":"http://terminology.hl7.org/CodeSystem/measure-population","code":"initial-population","display":"Initial Population"}]},"count":1},{"id":"MeasurePopulation_1","code":{"coding":[{"system":"http://terminology.hl7.org/CodeSystem/measure-population","code":"measure-population","display":"Measure Population"}]},"count":1},{"id":"MeasurePopulationExclusion_1","code":{"coding":[{"system":"http://terminology.hl7.org/CodeSystem/measure-population","code":"measure-population-exclusion","display":"Measure Population Exclusion"}]},"count":1}],"measureScore":{"value":0.0}},{"id":"Group_2","population":[{"id":"InitialPopulation_2","code":{"coding":[{"system":"http://terminology.hl7.org/CodeSystem/measure-population","code":"initial-population","display":"Initial Population"}]},"count":1},{"id":"MeasurePopulation_2","code":{"coding":[{"system":"http://terminology.hl7.org/CodeSystem/measure-population","code":"measure-population","display":"Measure Population"}]},"count":1},{"id":"MeasurePopulationExclusion_2","code":{"coding":[{"system":"http://terminology.hl7.org/CodeSystem/measure-population","code":"measure-population-exclusion","display":"Measure Population Exclusion"}]},"count":1}],"measureScore":{"value":0.0}},{"id":"Group_3","population":[{"id":"InitialPopulation_3","code":{"coding":[{"system":"http://terminology.hl7.org/CodeSystem/measure-population","code":"initial-population","display":"Initial Population"}]},"count":1},{"id":"MeasurePopulation_3","code":{"coding":[{"system":"http://terminology.hl7.org/CodeSystem/measure-population","code":"measure-population","display":"Measure Population"}]},"count":1},{"id":"MeasurePopulationExclusion_3","code":{"coding":[{"system":"http://terminology.hl7.org/CodeSystem/measure-population","code":"measure-population-exclusion","display":"Measure Population Exclusion"}]},"count":1}],"measureScore":{"value":0.0}},{"id":"Group_4","population":[{"id":"InitialPopulation_4","code":{"coding":[{"system":"http://terminology.hl7.org/CodeSystem/measure-population","code":"initial-population","display":"Initial Population"}]},"count":1},{"id":"MeasurePopulation_4","code":{"coding":[{"system":"http://terminology.hl7.org/CodeSystem/measure-population","code":"measure-population","display":"Measure Population"}]},"count":1},{"id":"MeasurePopulationExclusion_4","code":{"coding":[{"system":"http://terminology.hl7.org/CodeSystem/measure-population","code":"measure-population-exclusion","display":"Measure Population Exclusion"}]},"count":1}],"measureScore":{"value":0.0}},{"id":"Group_5","population":[{"id":"InitialPopulation_5","code":{"coding":[{"system":"http://terminology.hl7.org/CodeSystem/measure-population","code":"initial-population","display":"Initial Population"}]},"count":1},{"id":"MeasurePopulation_5","code":{"coding":[{"system":"http://terminology.hl7.org/CodeSystem/measure-population","code":"measure-population","display":"Measure Population"}]},"count":1},{"id":"MeasurePopulationExclusion_5","code":{"coding":[{"system":"http://terminology.hl7.org/CodeSystem/measure-population","code":"measure-population-exclusion","display":"Measure Population Exclusion"}]},"count":1}],"measureScore":{"value":0.0}},{"id":"Group_6","population":[{"id":"InitialPopulation_6","code":{"coding":[{"system":"http://terminology.hl7.org/CodeSystem/measure-population","code":"initial-population","display":"Initial Population"}]},"count":1},{"id":"MeasurePopulation_6","code":{"coding":[{"system":"http://terminology.hl7.org/CodeSystem/measure-population","code":"measure-population","display":"Measure Population"}]},"count":1},{"id":"MeasurePopulationExclusion_6","code":{"coding":[{"system":"http://terminology.hl7.org/CodeSystem/measure-population","code":"measure-population-exclusion","display":"Measure Population Exclusion"}]},"count":1}],"measureScore":{"value":0.0}}],"evaluatedResource":[{"reference":"Patient/6ad4d973-4673-49bd-afb8-2678cb7f2963"},{"reference":"Encounter/cdd9fef5-095f-4bc0-adc6-9d94fea5a7f0"},{"reference":"Procedure/a9ec667f-9ce4-415e-bccc-bfafe2a1ea9f"},{"reference":"Coverage/7f235f13-dc9c-44a3-ac69-3ec7e10fb5ab"},{"reference":"Organization/44efd38f-1a65-41ab-97e9-0f7bb33127a7"}]},"request":{"method":"PUT","url":"MeasureReport/a8a7c166-316a-4e95-82cf-ae32c21a2878"}}]},"request":{"method":"PUT","url":"Bundle/HospiceExclusion1"}},{"fullUrl":"MeasureReport/a8a7c166-316a-4e95-82cf-ae32c21a2878","resource":{"resourceType":"MeasureReport","id":"a8a7c166-316a-4e95-82cf-ae32c21a2878","meta":{"profile":["http://hl7.org/fhir/us/cqfmeasures/StructureDefinition/test-case-cqfm"]},"contained":[{"resourceType":"Parameters","id":"f8ba09ca-f1cd-4ad9-aae9-8caffa4f83ee-parameters","parameter":[{"name":"subject","valueString":"6ad4d973-4673-49bd-afb8-2678cb7f2963"}]}],"extension":[{"url":"http://hl7.org/fhir/StructureDefinition/cqf-inputParameters","valueReference":{"reference":"#f8ba09ca-f1cd-4ad9-aae9-8caffa4f83ee-parameters"}},{"url":"http://hl7.org/fhir/us/cqfmeasures/StructureDefinition/cqfm-testCaseDescription","valueMarkdown":"Hospice status valueset"}],"modifierExtension":[{"url":"http://hl7.org/fhir/us/cqfmeasures/StructureDefinition/cqfm-isTestCase","valueBoolean":true}],"status":"complete","type":"individual","measure":"https://madie.cms.gov/Measure/CMS986FHIRMalnutritionScore","period":{"start":"2026-01-01","end":"2026-12-31"},"group":[{"id":"Group_1","population":[{"id":"InitialPopulation_1","code":{"coding":[{"system":"http://terminology.hl7.org/CodeSystem/measure-population","code":"initial-population","display":"Initial Population"}]},"count":1},{"id":"MeasurePopulation_1","code":{"coding":[{"system":"http://terminology.hl7.org/CodeSystem/measure-population","code":"measure-population","display":"Measure Population"}]},"count":1},{"id":"MeasurePopulationExclusion_1","code":{"coding":[{"system":"http://terminology.hl7.org/CodeSystem/measure-population","code":"measure-population-exclusion","display":"Measure Population Exclusion"}]},"count":1}],"measureScore":{"value":0.0}},{"id":"Group_2","population":[{"id":"InitialPopulation_2","code":{"coding":[{"system":"http://terminology.hl7.org/CodeSystem/measure-population","code":"initial-population","display":"Initial Population"}]},"count":1},{"id":"MeasurePopulation_2","code":{"coding":[{"system":"http://terminology.hl7.org/CodeSystem/measure-population","code":"measure-population","display":"Measure Population"}]},"count":1},{"id":"MeasurePopulationExclusion_2","code":{"coding":[{"system":"http://terminology.hl7.org/CodeSystem/measure-population","code":"measure-population-exclusion","display":"Measure Population Exclusion"}]},"count":1}],"measureScore":{"value":0.0}},{"id":"Group_3","population":[{"id":"InitialPopulation_3","code":{"coding":[{"system":"http://terminology.hl7.org/CodeSystem/measure-population","code":"initial-population","display":"Initial Population"}]},"count":1},{"id":"MeasurePopulation_3","code":{"coding":[{"system":"http://terminology.hl7.org/CodeSystem/measure-population","code":"measure-population","display":"Measure Population"}]},"count":1},{"id":"MeasurePopulationExclusion_3","code":{"coding":[{"system":"http://terminology.hl7.org/CodeSystem/measure-population","code":"measure-population-exclusion","display":"Measure Population Exclusion"}]},"count":1}],"measureScore":{"value":0.0}},{"id":"Group_4","population":[{"id":"InitialPopulation_4","code":{"coding":[{"system":"http://terminology.hl7.org/CodeSystem/measure-population","code":"initial-population","display":"Initial Population"}]},"count":1},{"id":"MeasurePopulation_4","code":{"coding":[{"system":"http://terminology.hl7.org/CodeSystem/measure-population","code":"measure-population","display":"Measure Population"}]},"count":1},{"id":"MeasurePopulationExclusion_4","code":{"coding":[{"system":"http://terminology.hl7.org/CodeSystem/measure-population","code":"measure-population-exclusion","display":"Measure Population Exclusion"}]},"count":1}],"measureScore":{"value":0.0}},{"id":"Group_5","population":[{"id":"InitialPopulation_5","code":{"coding":[{"system":"http://terminology.hl7.org/CodeSystem/measure-population","code":"initial-population","display":"Initial Population"}]},"count":1},{"id":"MeasurePopulation_5","code":{"coding":[{"system":"http://terminology.hl7.org/CodeSystem/measure-population","code":"measure-population","display":"Measure Population"}]},"count":1},{"id":"MeasurePopulationExclusion_5","code":{"coding":[{"system":"http://terminology.hl7.org/CodeSystem/measure-population","code":"measure-population-exclusion","display":"Measure Population Exclusion"}]},"count":1}],"measureScore":{"value":0.0}},{"id":"Group_6","population":[{"id":"InitialPopulation_6","code":{"coding":[{"system":"http://terminology.hl7.org/CodeSystem/measure-population","code":"initial-population","display":"Initial Population"}]},"count":1},{"id":"MeasurePopulation_6","code":{"coding":[{"system":"http://terminology.hl7.org/CodeSystem/measure-population","code":"measure-population","display":"Measure Population"}]},"count":1},{"id":"MeasurePopulationExclusion_6","code":{"coding":[{"system":"http://terminology.hl7.org/CodeSystem/measure-population","code":"measure-population-exclusion","display":"Measure Population Exclusion"}]},"count":1}],"measureScore":{"value":0.0}}],"evaluatedResource":[{"reference":"Patient/6ad4d973-4673-49bd-afb8-2678cb7f2963"},{"reference":"Encounter/cdd9fef5-095f-4bc0-adc6-9d94fea5a7f0"},{"reference":"Procedure/a9ec667f-9ce4-415e-bccc-bfafe2a1ea9f"},{"reference":"Coverage/7f235f13-dc9c-44a3-ac69-3ec7e10fb5ab"},{"reference":"Organization/44efd38f-1a65-41ab-97e9-0f7bb33127a7"}]},"request":{"method":"PUT","url":"MeasureReport/a8a7c166-316a-4e95-82cf-ae32c21a2878"}},{"fullUrl":"Encounter/cdd9fef5-095f-4bc0-adc6-9d94fea5a7f0","resource":{"resourceType":"Encounter","id":"cdd9fef5-095f-4bc0-adc6-9d94fea5a7f0","meta":{"profile":["http://hl7.org/fhir/us/qicore/StructureDefinition/qicore-encounter"]},"status":"finished","class":{"system":"http://terminology.hl7.org/CodeSystem/v3-ActCode","code":"IMP","display":"inpatient encounter"},"type":[{"coding":[{"system":"http://snomed.info/sct","code":"183452005"}]}],"subject":{"reference":"Patient/6ad4d973-4673-49bd-afb8-2678cb7f2963"},"period":{"start":"2026-02-02T08:00:00.000+00:00","end":"2026-02-22T08:15:00.000+00:00"}},"request":{"method":"PUT","url":"Encounter/cdd9fef5-095f-4bc0-adc6-9d94fea5a7f0"}}]}