{"resourceType":"Bundle","id":"tests-568283da-a161-4cb8-85d0-e2ef32e60a11-bundle","type":"transaction","entry":[{"fullUrl":"Encounter/7e9b38f1-7911-4e80-acdd-2827f0afd403","resource":{"resourceType":"Encounter","id":"7e9b38f1-7911-4e80-acdd-2827f0afd403","meta":{"profile":["http://hl7.org/fhir/us/qicore/StructureDefinition/qicore-encounter"]},"status":"finished","class":{"system":"http://terminology.hl7.org/CodeSystem/v3-ActCode","code":"IMP","display":"inpatient encounter"},"type":[{"coding":[{"system":"http://snomed.info/sct","code":"8715000"}]}],"subject":{"reference":"Patient/568283da-a161-4cb8-85d0-e2ef32e60a11"},"period":{"start":"2026-02-02T08:00:00.000+00:00","end":"2026-02-22T08:15:00.000+00:00"}},"request":{"method":"PUT","url":"Encounter/7e9b38f1-7911-4e80-acdd-2827f0afd403"}},{"fullUrl":"Patient/568283da-a161-4cb8-85d0-e2ef32e60a11","resource":{"resourceType":"Patient","id":"568283da-a161-4cb8-85d0-e2ef32e60a11","meta":{"profile":["http://hl7.org/fhir/us/qicore/StructureDefinition/qicore-patient"]},"extension":[{"url":"http://hl7.org/fhir/us/core/StructureDefinition/us-core-race","extension":[{"url":"ombCategory","valueCoding":{"system":"urn:oid:2.16.840.1.113883.6.238","code":"1002-5","display":"American Indian or Alaska Native","userSelected":true}},{"url":"text","valueString":"American Indian or Alaska Native"}]},{"url":"http://hl7.org/fhir/us/core/StructureDefinition/us-core-ethnicity","extension":[{"url":"ombCategory","valueCoding":{"system":"urn:oid:2.16.840.1.113883.6.238","code":"2135-2","display":"Hispanic or Latino","userSelected":true}},{"url":"text","valueString":"Hispanic or Latino"}]},{"url":"http://hl7.org/fhir/us/core/StructureDefinition/us-core-sex","valueCode":"248152002"}],"identifier":[{"type":{"coding":[{"system":"http://terminology.hl7.org/CodeSystem/v2-0203","code":"MR"}]},"system":"https://madie.cms.gov/","value":"ScreAtriNorefAsseModNodxCp"}],"active":true,"name":[{"use":"usual","text":"ScreAtriNorefAsseModNodxCp","family":"MSROBSPass4","given":["ScreAtriNorefAsseModNodxCp"]}],"gender":"female","birthDate":"1952-11-23","address":[{"text":"ScreAtriNorefAsseModNodxCp, Screened Not at risk Assessed Severely Malnourished Diagnosed Care Plan, ID=ScreAtriNorefAsseModNodxCp, DOB: 14 May 1950"}]},"request":{"method":"PUT","url":"Patient/568283da-a161-4cb8-85d0-e2ef32e60a11"}},{"fullUrl":"Coverage/d0db62da-502a-47e5-a04a-f9599a6f5337","resource":{"resourceType":"Coverage","id":"d0db62da-502a-47e5-a04a-f9599a6f5337","meta":{"profile":["http://hl7.org/fhir/us/qicore/StructureDefinition/qicore-coverage"]},"status":"active","type":{"coding":[{"system":"https://nahdo.org/sopt","version":"9.2","code":"11","display":"Medicare Managed Care (Includes Medicare Advantage Plans)"}]},"subscriberId":"97531","beneficiary":{"reference":"Patient/568283da-a161-4cb8-85d0-e2ef32e60a11"},"dependent":"0","relationship":{"coding":[{"system":"http://terminology.hl7.org/CodeSystem/subscriber-relationship","code":"self"}]},"period":{"start":"2024-10-01T00:00:00.000+00:00"},"payor":[{"reference":"Organization/9f425a02-df31-4bb5-8958-b5f3f76b44a1"}]},"request":{"method":"PUT","url":"Coverage/d0db62da-502a-47e5-a04a-f9599a6f5337"}},{"fullUrl":"Observation/6d2ad25e-956d-49d6-9654-d1ea7f8d2136","resource":{"resourceType":"Observation","id":"6d2ad25e-956d-49d6-9654-d1ea7f8d2136","meta":{"profile":["http://hl7.org/fhir/us/qicore/StructureDefinition/qicore-observation-screening-assessment"]},"status":"final","category":[{"coding":[{"system":"http://terminology.hl7.org/CodeSystem/observation-category","code":"survey","display":"Survey"}]}],"code":{"coding":[{"system":"http://loinc.org","code":"75304-6","display":"Nutrition status observation panel","userSelected":true}]},"subject":{"reference":"Patient/568283da-a161-4cb8-85d0-e2ef32e60a11"},"effectiveDateTime":"2026-02-02T10:00:00.000+00:00","valueCodeableConcept":{"coding":[{"system":"http://snomed.info/sct","code":"129588001","display":"Adult failure to thrive syndrome (disorder)","userSelected":true}]}},"request":{"method":"PUT","url":"Observation/6d2ad25e-956d-49d6-9654-d1ea7f8d2136"}},{"fullUrl":"Bundle/ScreAtriNorefAsseModNodxCp","resource":{"resourceType":"Bundle","id":"ScreAtriNorefAsseModNodxCp","type":"transaction","entry":[{"fullUrl":"https://madie.cms.gov/Patient/568283da-a161-4cb8-85d0-e2ef32e60a11","resource":{"resourceType":"Patient","id":"568283da-a161-4cb8-85d0-e2ef32e60a11","meta":{"profile":["http://hl7.org/fhir/us/qicore/StructureDefinition/qicore-patient"]},"extension":[{"url":"http://hl7.org/fhir/us/core/StructureDefinition/us-core-race","extension":[{"url":"ombCategory","valueCoding":{"system":"urn:oid:2.16.840.1.113883.6.238","code":"1002-5","display":"American Indian or Alaska Native","userSelected":true}},{"url":"text","valueString":"American Indian or Alaska Native"}]},{"url":"http://hl7.org/fhir/us/core/StructureDefinition/us-core-ethnicity","extension":[{"url":"ombCategory","valueCoding":{"system":"urn:oid:2.16.840.1.113883.6.238","code":"2135-2","display":"Hispanic or Latino","userSelected":true}},{"url":"text","valueString":"Hispanic or Latino"}]},{"url":"http://hl7.org/fhir/us/core/StructureDefinition/us-core-sex","valueCode":"248152002"}],"identifier":[{"type":{"coding":[{"system":"http://terminology.hl7.org/CodeSystem/v2-0203","code":"MR"}]},"system":"https://madie.cms.gov/","value":"ScreAtriNorefAsseModNodxCp"}],"active":true,"name":[{"use":"usual","text":"ScreAtriNorefAsseModNodxCp","family":"MSROBSPass4","given":["ScreAtriNorefAsseModNodxCp"]}],"gender":"female","birthDate":"1952-11-23","address":[{"text":"ScreAtriNorefAsseModNodxCp, Screened Not at risk Assessed Severely Malnourished Diagnosed Care Plan, ID=ScreAtriNorefAsseModNodxCp, DOB: 14 May 1950"}]},"request":{"method":"PUT","url":"Patient/568283da-a161-4cb8-85d0-e2ef32e60a11"}},{"fullUrl":"https://madie.cms.gov/Encounter/7e9b38f1-7911-4e80-acdd-2827f0afd403","resource":{"resourceType":"Encounter","id":"7e9b38f1-7911-4e80-acdd-2827f0afd403","meta":{"profile":["http://hl7.org/fhir/us/qicore/StructureDefinition/qicore-encounter"]},"status":"finished","class":{"system":"http://terminology.hl7.org/CodeSystem/v3-ActCode","code":"IMP","display":"inpatient encounter"},"type":[{"coding":[{"system":"http://snomed.info/sct","code":"8715000"}]}],"subject":{"reference":"Patient/568283da-a161-4cb8-85d0-e2ef32e60a11"},"period":{"start":"2026-02-02T08:00:00.000+00:00","end":"2026-02-22T08:15:00.000+00:00"}},"request":{"method":"PUT","url":"Encounter/7e9b38f1-7911-4e80-acdd-2827f0afd403"}},{"fullUrl":"https://madie.cms.gov/Observation/b8b6e61a-ef7e-4a55-94ca-8789ca419f13","resource":{"resourceType":"Observation","id":"b8b6e61a-ef7e-4a55-94ca-8789ca419f13","meta":{"profile":["http://hl7.org/fhir/us/qicore/StructureDefinition/qicore-observation-screening-assessment"]},"status":"final","category":[{"coding":[{"system":"http://terminology.hl7.org/CodeSystem/observation-category","code":"survey","display":"Survey"}]}],"code":{"coding":[{"system":"http://loinc.org","code":"98968-1","display":"Initial screening NRS_2002","userSelected":true}]},"subject":{"reference":"Patient/568283da-a161-4cb8-85d0-e2ef32e60a11"},"effectiveDateTime":"2026-02-03T09:00:00.000+00:00","valueCodeableConcept":{"coding":[{"system":"http://snomed.info/sct","code":"700361001","display":"Predicted inadequate nutrient intake (finding)","userSelected":true}]}},"request":{"method":"PUT","url":"Observation/b8b6e61a-ef7e-4a55-94ca-8789ca419f13"}},{"fullUrl":"https://madie.cms.gov/Observation/6d2ad25e-956d-49d6-9654-d1ea7f8d2136","resource":{"resourceType":"Observation","id":"6d2ad25e-956d-49d6-9654-d1ea7f8d2136","meta":{"profile":["http://hl7.org/fhir/us/qicore/StructureDefinition/qicore-observation-screening-assessment"]},"status":"final","category":[{"coding":[{"system":"http://terminology.hl7.org/CodeSystem/observation-category","code":"survey","display":"Survey"}]}],"code":{"coding":[{"system":"http://loinc.org","code":"75304-6","display":"Nutrition status observation panel","userSelected":true}]},"subject":{"reference":"Patient/568283da-a161-4cb8-85d0-e2ef32e60a11"},"effectiveDateTime":"2026-02-02T10:00:00.000+00:00","valueCodeableConcept":{"coding":[{"system":"http://snomed.info/sct","code":"129588001","display":"Adult failure to thrive syndrome (disorder)","userSelected":true}]}},"request":{"method":"PUT","url":"Observation/6d2ad25e-956d-49d6-9654-d1ea7f8d2136"}},{"fullUrl":"https://madie.cms.gov/Procedure/f54963da-ce6e-4d25-923d-632461879795","resource":{"resourceType":"Procedure","id":"f54963da-ce6e-4d25-923d-632461879795","meta":{"profile":["http://hl7.org/fhir/us/qicore/StructureDefinition/qicore-procedure"]},"extension":[{"url":"http://hl7.org/fhir/us/qicore/StructureDefinition/qicore-recorded","valueDateTime":"2026-02-02T11:30:00.000+00:00"}],"status":"completed","code":{"coding":[{"system":"http://snomed.info/sct","code":"445101000124100","display":"Collaborating in nutrition therapy (procedure)"}],"text":"Collaborating in nutrition therapy (procedure)"},"subject":{"reference":"Patient/568283da-a161-4cb8-85d0-e2ef32e60a11"},"encounter":{"reference":"Encounter/ScreAtriNorefAsseModNodxCpMSROBSPass4"},"performedPeriod":{"start":"2026-02-02T11:30:00.000+00:00","end":"2026-02-08T08:15:00.000+00:00"}},"request":{"method":"PUT","url":"Procedure/f54963da-ce6e-4d25-923d-632461879795"}},{"fullUrl":"https://madie.cms.gov/Coverage/d0db62da-502a-47e5-a04a-f9599a6f5337","resource":{"resourceType":"Coverage","id":"d0db62da-502a-47e5-a04a-f9599a6f5337","meta":{"profile":["http://hl7.org/fhir/us/qicore/StructureDefinition/qicore-coverage"]},"status":"active","type":{"coding":[{"system":"https://nahdo.org/sopt","version":"9.2","code":"11","display":"Medicare Managed Care (Includes Medicare Advantage Plans)"}]},"subscriberId":"97531","beneficiary":{"reference":"Patient/568283da-a161-4cb8-85d0-e2ef32e60a11"},"dependent":"0","relationship":{"coding":[{"system":"http://terminology.hl7.org/CodeSystem/subscriber-relationship","code":"self"}]},"period":{"start":"2024-10-01T00:00:00.000+00:00"},"payor":[{"reference":"Organization/9f425a02-df31-4bb5-8958-b5f3f76b44a1"}]},"request":{"method":"PUT","url":"Coverage/d0db62da-502a-47e5-a04a-f9599a6f5337"}},{"fullUrl":"https://madie.cms.gov/Organization/9f425a02-df31-4bb5-8958-b5f3f76b44a1","resource":{"resourceType":"Organization","id":"9f425a02-df31-4bb5-8958-b5f3f76b44a1","meta":{"profile":["http://hl7.org/fhir/us/qicore/StructureDefinition/qicore-organization"]},"identifier":[{"use":"temp","system":"urn:oid:2.16.840.1.113883.4.4","value":"21-3259825"}],"active":true,"type":[{"coding":[{"system":"http://terminology.hl7.org/CodeSystem/organization-type","code":"pay","display":"Payer"}]}],"name":"Blue Cross Blue Shield of Texas","telecom":[{"system":"phone","value":"(+1) 972-766-6900"}],"address":[{"use":"billing","type":"postal","line":["P.O. Box 660044"],"city":"Dallas","state":"TX","postalCode":"75266-0044","country":"USA"}]},"request":{"method":"PUT","url":"Organization/9f425a02-df31-4bb5-8958-b5f3f76b44a1"}},{"fullUrl":"https://madie.cms.gov/MeasureReport/eca4a50d-70b2-4979-9c8b-8537f7917564","resource":{"resourceType":"MeasureReport","id":"eca4a50d-70b2-4979-9c8b-8537f7917564","meta":{"profile":["http://hl7.org/fhir/us/cqfmeasures/StructureDefinition/test-case-cqfm"]},"contained":[{"resourceType":"Parameters","id":"154c6ccb-1169-40c7-a546-cdd56be4eaaf-parameters","parameter":[{"name":"subject","valueString":"568283da-a161-4cb8-85d0-e2ef32e60a11"}]}],"extension":[{"url":"http://hl7.org/fhir/StructureDefinition/cqf-inputParameters","valueReference":{"reference":"#154c6ccb-1169-40c7-a546-cdd56be4eaaf-parameters"}},{"url":"http://hl7.org/fhir/us/cqfmeasures/StructureDefinition/cqfm-testCaseDescription","valueMarkdown":"Screened, At Risk, No Referral, Assessed, Severe Malnutrition, No Diagnosis, Nutrition Care Plan"}],"modifierExtension":[{"url":"http://hl7.org/fhir/us/cqfmeasures/StructureDefinition/cqfm-isTestCase","valueBoolean":true}],"status":"complete","type":"individual","measure":"https://madie.cms.gov/Measure/CMS986FHIRMalnutritionScore","period":{"start":"2026-01-01","end":"2026-12-31"},"group":[{"id":"Group_1","population":[{"id":"InitialPopulation_1","code":{"coding":[{"system":"http://terminology.hl7.org/CodeSystem/measure-population","code":"initial-population","display":"Initial Population"}]},"count":1},{"id":"MeasurePopulation_1","code":{"coding":[{"system":"http://terminology.hl7.org/CodeSystem/measure-population","code":"measure-population","display":"Measure Population"}]},"count":1},{"id":"MeasurePopulationExclusion_1","code":{"coding":[{"system":"http://terminology.hl7.org/CodeSystem/measure-population","code":"measure-population-exclusion","display":"Measure Population Exclusion"}]},"count":0},{"id":"MeasureObservation_1_1","code":{"coding":[{"system":"http://terminology.hl7.org/CodeSystem/measure-population","code":"measure-population-observation","display":"Measure Population Observation"}]},"count":1}],"measureScore":{"value":0.0}},{"id":"Group_2","population":[{"id":"InitialPopulation_2","code":{"coding":[{"system":"http://terminology.hl7.org/CodeSystem/measure-population","code":"initial-population","display":"Initial Population"}]},"count":1},{"id":"MeasurePopulation_2","code":{"coding":[{"system":"http://terminology.hl7.org/CodeSystem/measure-population","code":"measure-population","display":"Measure Population"}]},"count":1},{"id":"MeasurePopulationExclusion_2","code":{"coding":[{"system":"http://terminology.hl7.org/CodeSystem/measure-population","code":"measure-population-exclusion","display":"Measure Population Exclusion"}]},"count":0},{"id":"MeasureObservation_2_1","code":{"coding":[{"system":"http://terminology.hl7.org/CodeSystem/measure-population","code":"measure-population-observation","display":"Measure Population Observation"}]},"count":1}],"measureScore":{"value":0.0}},{"id":"Group_3","population":[{"id":"InitialPopulation_3","code":{"coding":[{"system":"http://terminology.hl7.org/CodeSystem/measure-population","code":"initial-population","display":"Initial Population"}]},"count":1},{"id":"MeasurePopulation_3","code":{"coding":[{"system":"http://terminology.hl7.org/CodeSystem/measure-population","code":"measure-population","display":"Measure Population"}]},"count":1},{"id":"MeasurePopulationExclusion_3","code":{"coding":[{"system":"http://terminology.hl7.org/CodeSystem/measure-population","code":"measure-population-exclusion","display":"Measure Population Exclusion"}]},"count":0},{"id":"MeasureObservation_3_1","code":{"coding":[{"system":"http://terminology.hl7.org/CodeSystem/measure-population","code":"measure-population-observation","display":"Measure Population Observation"}]},"count":0}],"measureScore":{"value":0.0}},{"id":"Group_4","population":[{"id":"InitialPopulation_4","code":{"coding":[{"system":"http://terminology.hl7.org/CodeSystem/measure-population","code":"initial-population","display":"Initial Population"}]},"count":1},{"id":"MeasurePopulation_4","code":{"coding":[{"system":"http://terminology.hl7.org/CodeSystem/measure-population","code":"measure-population","display":"Measure Population"}]},"count":1},{"id":"MeasurePopulationExclusion_4","code":{"coding":[{"system":"http://terminology.hl7.org/CodeSystem/measure-population","code":"measure-population-exclusion","display":"Measure Population Exclusion"}]},"count":0},{"id":"MeasureObservation_4_1","code":{"coding":[{"system":"http://terminology.hl7.org/CodeSystem/measure-population","code":"measure-population-observation","display":"Measure Population Observation"}]},"count":1}],"measureScore":{"value":0.0}},{"id":"Group_5","population":[{"id":"InitialPopulation_5","code":{"coding":[{"system":"http://terminology.hl7.org/CodeSystem/measure-population","code":"initial-population","display":"Initial Population"}]},"count":1},{"id":"MeasurePopulation_5","code":{"coding":[{"system":"http://terminology.hl7.org/CodeSystem/measure-population","code":"measure-population","display":"Measure Population"}]},"count":1},{"id":"MeasurePopulationExclusion_5","code":{"coding":[{"system":"http://terminology.hl7.org/CodeSystem/measure-population","code":"measure-population-exclusion","display":"Measure Population Exclusion"}]},"count":0},{"id":"MeasureObservation_5_1","code":{"coding":[{"system":"http://terminology.hl7.org/CodeSystem/measure-population","code":"measure-population-observation","display":"Measure Population Observation"}]},"count":3}],"measureScore":{"value":0.0}},{"id":"Group_6","population":[{"id":"InitialPopulation_6","code":{"coding":[{"system":"http://terminology.hl7.org/CodeSystem/measure-population","code":"initial-population","display":"Initial Population"}]},"count":1},{"id":"MeasurePopulation_6","code":{"coding":[{"system":"http://terminology.hl7.org/CodeSystem/measure-population","code":"measure-population","display":"Measure Population"}]},"count":1},{"id":"MeasurePopulationExclusion_6","code":{"coding":[{"system":"http://terminology.hl7.org/CodeSystem/measure-population","code":"measure-population-exclusion","display":"Measure Population Exclusion"}]},"count":0},{"id":"MeasureObservation_6_1","code":{"coding":[{"system":"http://terminology.hl7.org/CodeSystem/measure-population","code":"measure-population-observation","display":"Measure Population Observation"}]},"count":75}],"measureScore":{"value":0.0}}],"evaluatedResource":[{"reference":"Patient/568283da-a161-4cb8-85d0-e2ef32e60a11"},{"reference":"Encounter/7e9b38f1-7911-4e80-acdd-2827f0afd403"},{"reference":"Observation/b8b6e61a-ef7e-4a55-94ca-8789ca419f13"},{"reference":"Observation/6d2ad25e-956d-49d6-9654-d1ea7f8d2136"},{"reference":"Procedure/f54963da-ce6e-4d25-923d-632461879795"},{"reference":"Coverage/d0db62da-502a-47e5-a04a-f9599a6f5337"},{"reference":"Organization/9f425a02-df31-4bb5-8958-b5f3f76b44a1"}]},"request":{"method":"PUT","url":"MeasureReport/eca4a50d-70b2-4979-9c8b-8537f7917564"}}]},"request":{"method":"PUT","url":"Bundle/ScreAtriNorefAsseModNodxCp"}},{"fullUrl":"Procedure/f54963da-ce6e-4d25-923d-632461879795","resource":{"resourceType":"Procedure","id":"f54963da-ce6e-4d25-923d-632461879795","meta":{"profile":["http://hl7.org/fhir/us/qicore/StructureDefinition/qicore-procedure"]},"extension":[{"url":"http://hl7.org/fhir/us/qicore/StructureDefinition/qicore-recorded","valueDateTime":"2026-02-02T11:30:00.000+00:00"}],"status":"completed","code":{"coding":[{"system":"http://snomed.info/sct","code":"445101000124100","display":"Collaborating in nutrition therapy (procedure)"}],"text":"Collaborating in nutrition therapy (procedure)"},"subject":{"reference":"Patient/568283da-a161-4cb8-85d0-e2ef32e60a11"},"encounter":{"reference":"Encounter/ScreAtriNorefAsseModNodxCpMSROBSPass4"},"performedPeriod":{"start":"2026-02-02T11:30:00.000+00:00","end":"2026-02-08T08:15:00.000+00:00"}},"request":{"method":"PUT","url":"Procedure/f54963da-ce6e-4d25-923d-632461879795"}},{"fullUrl":"MeasureReport/eca4a50d-70b2-4979-9c8b-8537f7917564","resource":{"resourceType":"MeasureReport","id":"eca4a50d-70b2-4979-9c8b-8537f7917564","meta":{"profile":["http://hl7.org/fhir/us/cqfmeasures/StructureDefinition/test-case-cqfm"]},"contained":[{"resourceType":"Parameters","id":"154c6ccb-1169-40c7-a546-cdd56be4eaaf-parameters","parameter":[{"name":"subject","valueString":"568283da-a161-4cb8-85d0-e2ef32e60a11"}]}],"extension":[{"url":"http://hl7.org/fhir/StructureDefinition/cqf-inputParameters","valueReference":{"reference":"#154c6ccb-1169-40c7-a546-cdd56be4eaaf-parameters"}},{"url":"http://hl7.org/fhir/us/cqfmeasures/StructureDefinition/cqfm-testCaseDescription","valueMarkdown":"Screened, At Risk, No Referral, Assessed, Severe Malnutrition, No Diagnosis, Nutrition Care Plan"}],"modifierExtension":[{"url":"http://hl7.org/fhir/us/cqfmeasures/StructureDefinition/cqfm-isTestCase","valueBoolean":true}],"status":"complete","type":"individual","measure":"https://madie.cms.gov/Measure/CMS986FHIRMalnutritionScore","period":{"start":"2026-01-01","end":"2026-12-31"},"group":[{"id":"Group_1","population":[{"id":"InitialPopulation_1","code":{"coding":[{"system":"http://terminology.hl7.org/CodeSystem/measure-population","code":"initial-population","display":"Initial Population"}]},"count":1},{"id":"MeasurePopulation_1","code":{"coding":[{"system":"http://terminology.hl7.org/CodeSystem/measure-population","code":"measure-population","display":"Measure Population"}]},"count":1},{"id":"MeasurePopulationExclusion_1","code":{"coding":[{"system":"http://terminology.hl7.org/CodeSystem/measure-population","code":"measure-population-exclusion","display":"Measure Population Exclusion"}]},"count":0},{"id":"MeasureObservation_1_1","code":{"coding":[{"system":"http://terminology.hl7.org/CodeSystem/measure-population","code":"measure-population-observation","display":"Measure Population Observation"}]},"count":1}],"measureScore":{"value":0.0}},{"id":"Group_2","population":[{"id":"InitialPopulation_2","code":{"coding":[{"system":"http://terminology.hl7.org/CodeSystem/measure-population","code":"initial-population","display":"Initial Population"}]},"count":1},{"id":"MeasurePopulation_2","code":{"coding":[{"system":"http://terminology.hl7.org/CodeSystem/measure-population","code":"measure-population","display":"Measure Population"}]},"count":1},{"id":"MeasurePopulationExclusion_2","code":{"coding":[{"system":"http://terminology.hl7.org/CodeSystem/measure-population","code":"measure-population-exclusion","display":"Measure Population Exclusion"}]},"count":0},{"id":"MeasureObservation_2_1","code":{"coding":[{"system":"http://terminology.hl7.org/CodeSystem/measure-population","code":"measure-population-observation","display":"Measure Population Observation"}]},"count":1}],"measureScore":{"value":0.0}},{"id":"Group_3","population":[{"id":"InitialPopulation_3","code":{"coding":[{"system":"http://terminology.hl7.org/CodeSystem/measure-population","code":"initial-population","display":"Initial Population"}]},"count":1},{"id":"MeasurePopulation_3","code":{"coding":[{"system":"http://terminology.hl7.org/CodeSystem/measure-population","code":"measure-population","display":"Measure Population"}]},"count":1},{"id":"MeasurePopulationExclusion_3","code":{"coding":[{"system":"http://terminology.hl7.org/CodeSystem/measure-population","code":"measure-population-exclusion","display":"Measure Population Exclusion"}]},"count":0},{"id":"MeasureObservation_3_1","code":{"coding":[{"system":"http://terminology.hl7.org/CodeSystem/measure-population","code":"measure-population-observation","display":"Measure Population Observation"}]},"count":0}],"measureScore":{"value":0.0}},{"id":"Group_4","population":[{"id":"InitialPopulation_4","code":{"coding":[{"system":"http://terminology.hl7.org/CodeSystem/measure-population","code":"initial-population","display":"Initial Population"}]},"count":1},{"id":"MeasurePopulation_4","code":{"coding":[{"system":"http://terminology.hl7.org/CodeSystem/measure-population","code":"measure-population","display":"Measure Population"}]},"count":1},{"id":"MeasurePopulationExclusion_4","code":{"coding":[{"system":"http://terminology.hl7.org/CodeSystem/measure-population","code":"measure-population-exclusion","display":"Measure Population Exclusion"}]},"count":0},{"id":"MeasureObservation_4_1","code":{"coding":[{"system":"http://terminology.hl7.org/CodeSystem/measure-population","code":"measure-population-observation","display":"Measure Population Observation"}]},"count":1}],"measureScore":{"value":0.0}},{"id":"Group_5","population":[{"id":"InitialPopulation_5","code":{"coding":[{"system":"http://terminology.hl7.org/CodeSystem/measure-population","code":"initial-population","display":"Initial Population"}]},"count":1},{"id":"MeasurePopulation_5","code":{"coding":[{"system":"http://terminology.hl7.org/CodeSystem/measure-population","code":"measure-population","display":"Measure Population"}]},"count":1},{"id":"MeasurePopulationExclusion_5","code":{"coding":[{"system":"http://terminology.hl7.org/CodeSystem/measure-population","code":"measure-population-exclusion","display":"Measure Population Exclusion"}]},"count":0},{"id":"MeasureObservation_5_1","code":{"coding":[{"system":"http://terminology.hl7.org/CodeSystem/measure-population","code":"measure-population-observation","display":"Measure Population Observation"}]},"count":3}],"measureScore":{"value":0.0}},{"id":"Group_6","population":[{"id":"InitialPopulation_6","code":{"coding":[{"system":"http://terminology.hl7.org/CodeSystem/measure-population","code":"initial-population","display":"Initial Population"}]},"count":1},{"id":"MeasurePopulation_6","code":{"coding":[{"system":"http://terminology.hl7.org/CodeSystem/measure-population","code":"measure-population","display":"Measure Population"}]},"count":1},{"id":"MeasurePopulationExclusion_6","code":{"coding":[{"system":"http://terminology.hl7.org/CodeSystem/measure-population","code":"measure-population-exclusion","display":"Measure Population Exclusion"}]},"count":0},{"id":"MeasureObservation_6_1","code":{"coding":[{"system":"http://terminology.hl7.org/CodeSystem/measure-population","code":"measure-population-observation","display":"Measure Population Observation"}]},"count":75}],"measureScore":{"value":0.0}}],"evaluatedResource":[{"reference":"Patient/568283da-a161-4cb8-85d0-e2ef32e60a11"},{"reference":"Encounter/7e9b38f1-7911-4e80-acdd-2827f0afd403"},{"reference":"Observation/b8b6e61a-ef7e-4a55-94ca-8789ca419f13"},{"reference":"Observation/6d2ad25e-956d-49d6-9654-d1ea7f8d2136"},{"reference":"Procedure/f54963da-ce6e-4d25-923d-632461879795"},{"reference":"Coverage/d0db62da-502a-47e5-a04a-f9599a6f5337"},{"reference":"Organization/9f425a02-df31-4bb5-8958-b5f3f76b44a1"}]},"request":{"method":"PUT","url":"MeasureReport/eca4a50d-70b2-4979-9c8b-8537f7917564"}},{"fullUrl":"Observation/b8b6e61a-ef7e-4a55-94ca-8789ca419f13","resource":{"resourceType":"Observation","id":"b8b6e61a-ef7e-4a55-94ca-8789ca419f13","meta":{"profile":["http://hl7.org/fhir/us/qicore/StructureDefinition/qicore-observation-screening-assessment"]},"status":"final","category":[{"coding":[{"system":"http://terminology.hl7.org/CodeSystem/observation-category","code":"survey","display":"Survey"}]}],"code":{"coding":[{"system":"http://loinc.org","code":"98968-1","display":"Initial screening NRS_2002","userSelected":true}]},"subject":{"reference":"Patient/568283da-a161-4cb8-85d0-e2ef32e60a11"},"effectiveDateTime":"2026-02-03T09:00:00.000+00:00","valueCodeableConcept":{"coding":[{"system":"http://snomed.info/sct","code":"700361001","display":"Predicted inadequate nutrient intake (finding)","userSelected":true}]}},"request":{"method":"PUT","url":"Observation/b8b6e61a-ef7e-4a55-94ca-8789ca419f13"}},{"fullUrl":"Organization/9f425a02-df31-4bb5-8958-b5f3f76b44a1","resource":{"resourceType":"Organization","id":"9f425a02-df31-4bb5-8958-b5f3f76b44a1","meta":{"profile":["http://hl7.org/fhir/us/qicore/StructureDefinition/qicore-organization"]},"identifier":[{"use":"temp","system":"urn:oid:2.16.840.1.113883.4.4","value":"21-3259825"}],"active":true,"type":[{"coding":[{"system":"http://terminology.hl7.org/CodeSystem/organization-type","code":"pay","display":"Payer"}]}],"name":"Blue Cross Blue Shield of Texas","telecom":[{"system":"phone","value":"(+1) 972-766-6900"}],"address":[{"use":"billing","type":"postal","line":["P.O. Box 660044"],"city":"Dallas","state":"TX","postalCode":"75266-0044","country":"USA"}]},"request":{"method":"PUT","url":"Organization/9f425a02-df31-4bb5-8958-b5f3f76b44a1"}}]}