{"resourceType":"Bundle","id":"tests-7fc738cc-7bdf-4f45-8239-959c0492102b-bundle","type":"transaction","entry":[{"resource":{"resourceType":"Coverage","id":"5bdc0655-9701-484b-b786-a46180e82d8a","meta":{"profile":["http://hl7.org/fhir/us/qicore/StructureDefinition/qicore-coverage"]},"status":"active","type":{"coding":[{"system":"https://nahdo.org/sopt","version":"9.2","code":"11","display":"Medicare Managed Care (Includes Medicare Advantage Plans)"}]},"subscriberId":"97531","beneficiary":{"reference":"Patient/7fc738cc-7bdf-4f45-8239-959c0492102b"},"dependent":"0","relationship":{"coding":[{"system":"http://terminology.hl7.org/CodeSystem/subscriber-relationship","code":"self"}]},"period":{"start":"2024-10-01T00:00:00.000+00:00"},"payor":[{"reference":"Organization/80a5beb9-45ee-4862-8fc4-8972ab997c90"}]},"request":{"method":"PUT","url":"Coverage/5bdc0655-9701-484b-b786-a46180e82d8a"}},{"resource":{"resourceType":"Procedure","id":"e88dc888-d5e6-46f3-825b-f743c913b7d9","meta":{"profile":["http://hl7.org/fhir/us/qicore/StructureDefinition/qicore-procedure"]},"extension":[{"url":"http://hl7.org/fhir/us/qicore/StructureDefinition/qicore-recorded","valueDateTime":"2026-07-14T11:30:00.000+00:00"}],"status":"completed","code":{"coding":[{"system":"http://snomed.info/sct","code":"445101000124100","display":"Collaborating in nutrition therapy (procedure)"}],"text":"Collaborating in nutrition therapy (procedure)"},"subject":{"reference":"Patient/7fc738cc-7bdf-4f45-8239-959c0492102b"},"encounter":{"reference":"Encounter/ScreAtriNorefAsseNotmNodxCpMSROBSPass2"},"performedPeriod":{"start":"2026-07-14T11:30:00.000+00:00","end":"2026-07-15T08:15:00.000+00:00"}},"request":{"method":"PUT","url":"Procedure/e88dc888-d5e6-46f3-825b-f743c913b7d9"}},{"resource":{"resourceType":"Organization","id":"80a5beb9-45ee-4862-8fc4-8972ab997c90","meta":{"profile":["http://hl7.org/fhir/us/qicore/StructureDefinition/qicore-organization"]},"identifier":[{"use":"temp","system":"urn:oid:2.16.840.1.113883.4.4","value":"21-3259825"}],"active":true,"type":[{"coding":[{"system":"http://terminology.hl7.org/CodeSystem/organization-type","code":"pay","display":"Payer"}]}],"name":"Blue Cross Blue Shield of Texas","telecom":[{"system":"phone","value":"(+1) 972-766-6900"}],"address":[{"use":"billing","type":"postal","line":["P.O. Box 660044"],"city":"Dallas","state":"TX","postalCode":"75266-0044","country":"USA"}]},"request":{"method":"PUT","url":"Organization/80a5beb9-45ee-4862-8fc4-8972ab997c90"}},{"resource":{"resourceType":"MeasureReport","id":"ab6dccf8-70a2-49e7-84e2-38950db7a0e9","meta":{"profile":["http://hl7.org/fhir/us/cqfmeasures/StructureDefinition/test-case-cqfm"]},"contained":[{"resourceType":"Parameters","id":"2fc2bf8a-7323-494b-b7bc-0b41b5c9316b-parameters","parameter":[{"name":"subject","valueString":"7fc738cc-7bdf-4f45-8239-959c0492102b"}]}],"extension":[{"url":"http://hl7.org/fhir/StructureDefinition/cqf-inputParameters","valueReference":{"reference":"#2fc2bf8a-7323-494b-b7bc-0b41b5c9316b-parameters"}},{"url":"http://hl7.org/fhir/us/cqfmeasures/StructureDefinition/cqfm-testCaseDescription","valueMarkdown":"Screened, At Risk, No Referral, Assessed, Not/Mildly Malnourished, No Diagnosis, Nutrition Care Plan"}],"modifierExtension":[{"url":"http://hl7.org/fhir/us/cqfmeasures/StructureDefinition/cqfm-isTestCase","valueBoolean":true}],"status":"complete","type":"individual","measure":"https://madie.cms.gov/Measure/CMS986FHIRMalnutritionScore","period":{"start":"2026-01-01","end":"2026-12-31"},"group":[{"id":"Group_1","population":[{"id":"InitialPopulation_1","code":{"coding":[{"system":"http://terminology.hl7.org/CodeSystem/measure-population","code":"initial-population","display":"Initial Population"}]},"count":1},{"id":"MeasurePopulation_1","code":{"coding":[{"system":"http://terminology.hl7.org/CodeSystem/measure-population","code":"measure-population","display":"Measure Population"}]},"count":1},{"id":"MeasurePopulationExclusion_1","code":{"coding":[{"system":"http://terminology.hl7.org/CodeSystem/measure-population","code":"measure-population-exclusion","display":"Measure Population Exclusion"}]},"count":0},{"id":"MeasureObservation_1_1","code":{"coding":[{"system":"http://terminology.hl7.org/CodeSystem/measure-population","code":"measure-population-observation","display":"Measure Population Observation"}]},"count":1}],"measureScore":{"value":0.0}},{"id":"Group_2","population":[{"id":"InitialPopulation_2","code":{"coding":[{"system":"http://terminology.hl7.org/CodeSystem/measure-population","code":"initial-population","display":"Initial Population"}]},"count":1},{"id":"MeasurePopulation_2","code":{"coding":[{"system":"http://terminology.hl7.org/CodeSystem/measure-population","code":"measure-population","display":"Measure Population"}]},"count":1},{"id":"MeasurePopulationExclusion_2","code":{"coding":[{"system":"http://terminology.hl7.org/CodeSystem/measure-population","code":"measure-population-exclusion","display":"Measure Population Exclusion"}]},"count":0},{"id":"MeasureObservation_2_1","code":{"coding":[{"system":"http://terminology.hl7.org/CodeSystem/measure-population","code":"measure-population-observation","display":"Measure Population Observation"}]},"count":1}],"measureScore":{"value":0.0}},{"id":"Group_3","population":[{"id":"InitialPopulation_3","code":{"coding":[{"system":"http://terminology.hl7.org/CodeSystem/measure-population","code":"initial-population","display":"Initial Population"}]},"count":1},{"id":"MeasurePopulation_3","code":{"coding":[{"system":"http://terminology.hl7.org/CodeSystem/measure-population","code":"measure-population","display":"Measure Population"}]},"count":1},{"id":"MeasurePopulationExclusion_3","code":{"coding":[{"system":"http://terminology.hl7.org/CodeSystem/measure-population","code":"measure-population-exclusion","display":"Measure Population Exclusion"}]},"count":0},{"id":"MeasureObservation_3_1","code":{"coding":[{"system":"http://terminology.hl7.org/CodeSystem/measure-population","code":"measure-population-observation","display":"Measure Population Observation"}]},"count":0}],"measureScore":{"value":0.0}},{"id":"Group_4","population":[{"id":"InitialPopulation_4","code":{"coding":[{"system":"http://terminology.hl7.org/CodeSystem/measure-population","code":"initial-population","display":"Initial Population"}]},"count":1},{"id":"MeasurePopulation_4","code":{"coding":[{"system":"http://terminology.hl7.org/CodeSystem/measure-population","code":"measure-population","display":"Measure Population"}]},"count":1},{"id":"MeasurePopulationExclusion_4","code":{"coding":[{"system":"http://terminology.hl7.org/CodeSystem/measure-population","code":"measure-population-exclusion","display":"Measure Population Exclusion"}]},"count":0},{"id":"MeasureObservation_4_1","code":{"coding":[{"system":"http://terminology.hl7.org/CodeSystem/measure-population","code":"measure-population-observation","display":"Measure Population Observation"}]},"count":0}],"measureScore":{"value":0.0}},{"id":"Group_5","population":[{"id":"InitialPopulation_5","code":{"coding":[{"system":"http://terminology.hl7.org/CodeSystem/measure-population","code":"initial-population","display":"Initial Population"}]},"count":1},{"id":"MeasurePopulation_5","code":{"coding":[{"system":"http://terminology.hl7.org/CodeSystem/measure-population","code":"measure-population","display":"Measure Population"}]},"count":1},{"id":"MeasurePopulationExclusion_5","code":{"coding":[{"system":"http://terminology.hl7.org/CodeSystem/measure-population","code":"measure-population-exclusion","display":"Measure Population Exclusion"}]},"count":0},{"id":"MeasureObservation_5_1","code":{"coding":[{"system":"http://terminology.hl7.org/CodeSystem/measure-population","code":"measure-population-observation","display":"Measure Population Observation"}]},"count":2}],"measureScore":{"value":0.0}},{"id":"Group_6","population":[{"id":"InitialPopulation_6","code":{"coding":[{"system":"http://terminology.hl7.org/CodeSystem/measure-population","code":"initial-population","display":"Initial Population"}]},"count":1},{"id":"MeasurePopulation_6","code":{"coding":[{"system":"http://terminology.hl7.org/CodeSystem/measure-population","code":"measure-population","display":"Measure Population"}]},"count":1},{"id":"MeasurePopulationExclusion_6","code":{"coding":[{"system":"http://terminology.hl7.org/CodeSystem/measure-population","code":"measure-population-exclusion","display":"Measure Population Exclusion"}]},"count":0},{"id":"MeasureObservation_6_1","code":{"coding":[{"system":"http://terminology.hl7.org/CodeSystem/measure-population","code":"measure-population-observation","display":"Measure Population Observation"}]},"count":100}],"measureScore":{"value":0.0}}],"evaluatedResource":[{"reference":"Patient/7fc738cc-7bdf-4f45-8239-959c0492102b"},{"reference":"Encounter/9166fa3d-ac4d-4c05-8b15-ab33ffd00de7"},{"reference":"Observation/49933777-1005-4821-9e9a-489a3e8fb7b2"},{"reference":"Observation/3fef1464-12b0-4900-8091-ab9dfe672eda"},{"reference":"Procedure/e88dc888-d5e6-46f3-825b-f743c913b7d9"},{"reference":"Coverage/5bdc0655-9701-484b-b786-a46180e82d8a"},{"reference":"Organization/80a5beb9-45ee-4862-8fc4-8972ab997c90"}]},"request":{"method":"PUT","url":"MeasureReport/ab6dccf8-70a2-49e7-84e2-38950db7a0e9"}},{"resource":{"resourceType":"Observation","id":"3fef1464-12b0-4900-8091-ab9dfe672eda","meta":{"profile":["http://hl7.org/fhir/us/qicore/StructureDefinition/qicore-observation-screening-assessment"]},"status":"final","category":[{"coding":[{"system":"http://terminology.hl7.org/CodeSystem/observation-category","code":"survey","display":"Survey"}]}],"code":{"coding":[{"system":"http://loinc.org","code":"75303-8","display":"Nutrition assessment narrative","userSelected":true}]},"subject":{"reference":"Patient/7fc738cc-7bdf-4f45-8239-959c0492102b"},"effectiveDateTime":"2026-07-14T10:00:00.000+00:00","valueCodeableConcept":{"coding":[{"system":"http://loinc.org","code":"LA33703-2","display":"Mildly malnourished","userSelected":true}]}},"request":{"method":"PUT","url":"Observation/3fef1464-12b0-4900-8091-ab9dfe672eda"}},{"resource":{"resourceType":"Encounter","id":"9166fa3d-ac4d-4c05-8b15-ab33ffd00de7","meta":{"profile":["http://hl7.org/fhir/us/qicore/StructureDefinition/qicore-encounter"]},"status":"finished","class":{"system":"http://terminology.hl7.org/CodeSystem/v3-ActCode","code":"IMP","display":"inpatient encounter"},"type":[{"coding":[{"system":"http://snomed.info/sct","code":"183452005"}]}],"subject":{"reference":"Patient/7fc738cc-7bdf-4f45-8239-959c0492102b"},"period":{"start":"2026-07-14T08:00:00.000+00:00","end":"2026-07-15T08:15:00.000+00:00"}},"request":{"method":"PUT","url":"Encounter/9166fa3d-ac4d-4c05-8b15-ab33ffd00de7"}},{"resource":{"resourceType":"Bundle","id":"ScreAtriNorefAsseNotmNodxCp","type":"transaction","entry":[{"fullUrl":"https://madie.cms.gov/Patient/7fc738cc-7bdf-4f45-8239-959c0492102b","resource":{"resourceType":"Patient","id":"7fc738cc-7bdf-4f45-8239-959c0492102b","meta":{"profile":["http://hl7.org/fhir/us/qicore/StructureDefinition/qicore-patient"]},"extension":[{"url":"http://hl7.org/fhir/us/core/StructureDefinition/us-core-race","extension":[{"url":"ombCategory","valueCoding":{"system":"urn:oid:2.16.840.1.113883.6.238","code":"2106-3","display":"White","userSelected":true}},{"url":"text","valueString":"White"}]},{"url":"http://hl7.org/fhir/us/core/StructureDefinition/us-core-ethnicity","extension":[{"url":"ombCategory","valueCoding":{"system":"urn:oid:2.16.840.1.113883.6.238","code":"2186-5","display":"Not Hispanic or Latino","userSelected":true}},{"url":"text","valueString":"Not Hispanic or Latino"}]},{"url":"http://hl7.org/fhir/us/core/StructureDefinition/us-core-sex","valueCode":"248152002"}],"identifier":[{"type":{"coding":[{"system":"http://terminology.hl7.org/CodeSystem/v2-0203","code":"MR"}]},"system":"https://madie.cms.gov/","value":"ScreAtriNorefAsseNotmNodxCp"}],"active":true,"name":[{"use":"usual","text":"ScreAtriNorefAsseNotmNodxCp","family":"MSROBSPass2","given":["ScreAtriNorefAsseNotmNodxCp"]}],"gender":"female","birthDate":"1950-03-10","address":[{"text":"ScreAtriNorefAsseNotmNodxCp, Screened Not at risk Assessed Severely Malnourished Diagnosed Care Plan, ID=ScreAtriNorefAsseNotmNodxCp, DOB: 10 Mar 1950"}]},"request":{"method":"PUT","url":"Patient/7fc738cc-7bdf-4f45-8239-959c0492102b"}},{"fullUrl":"https://madie.cms.gov/Encounter/9166fa3d-ac4d-4c05-8b15-ab33ffd00de7","resource":{"resourceType":"Encounter","id":"9166fa3d-ac4d-4c05-8b15-ab33ffd00de7","meta":{"profile":["http://hl7.org/fhir/us/qicore/StructureDefinition/qicore-encounter"]},"status":"finished","class":{"system":"http://terminology.hl7.org/CodeSystem/v3-ActCode","code":"IMP","display":"inpatient encounter"},"type":[{"coding":[{"system":"http://snomed.info/sct","code":"183452005"}]}],"subject":{"reference":"Patient/7fc738cc-7bdf-4f45-8239-959c0492102b"},"period":{"start":"2026-07-14T08:00:00.000+00:00","end":"2026-07-15T08:15:00.000+00:00"}},"request":{"method":"PUT","url":"Encounter/9166fa3d-ac4d-4c05-8b15-ab33ffd00de7"}},{"fullUrl":"https://madie.cms.gov/Observation/49933777-1005-4821-9e9a-489a3e8fb7b2","resource":{"resourceType":"Observation","id":"49933777-1005-4821-9e9a-489a3e8fb7b2","meta":{"profile":["http://hl7.org/fhir/us/qicore/StructureDefinition/qicore-observation-screening-assessment"]},"status":"final","category":[{"coding":[{"system":"http://terminology.hl7.org/CodeSystem/observation-category","code":"survey","display":"Survey"}]}],"code":{"coding":[{"system":"http://loinc.org","code":"98968-1","display":"Initial screening NRS_2002","userSelected":true}]},"subject":{"reference":"Patient/7fc738cc-7bdf-4f45-8239-959c0492102b"},"effectiveDateTime":"2026-07-14T09:00:00.000+00:00","valueCodeableConcept":{"coding":[{"system":"http://snomed.info/sct","code":"129689002","display":"At increased risk for nutritional problem (finding)","userSelected":true}]}},"request":{"method":"PUT","url":"Observation/49933777-1005-4821-9e9a-489a3e8fb7b2"}},{"fullUrl":"https://madie.cms.gov/Observation/3fef1464-12b0-4900-8091-ab9dfe672eda","resource":{"resourceType":"Observation","id":"3fef1464-12b0-4900-8091-ab9dfe672eda","meta":{"profile":["http://hl7.org/fhir/us/qicore/StructureDefinition/qicore-observation-screening-assessment"]},"status":"final","category":[{"coding":[{"system":"http://terminology.hl7.org/CodeSystem/observation-category","code":"survey","display":"Survey"}]}],"code":{"coding":[{"system":"http://loinc.org","code":"75303-8","display":"Nutrition assessment narrative","userSelected":true}]},"subject":{"reference":"Patient/7fc738cc-7bdf-4f45-8239-959c0492102b"},"effectiveDateTime":"2026-07-14T10:00:00.000+00:00","valueCodeableConcept":{"coding":[{"system":"http://loinc.org","code":"LA33703-2","display":"Mildly malnourished","userSelected":true}]}},"request":{"method":"PUT","url":"Observation/3fef1464-12b0-4900-8091-ab9dfe672eda"}},{"fullUrl":"https://madie.cms.gov/Procedure/e88dc888-d5e6-46f3-825b-f743c913b7d9","resource":{"resourceType":"Procedure","id":"e88dc888-d5e6-46f3-825b-f743c913b7d9","meta":{"profile":["http://hl7.org/fhir/us/qicore/StructureDefinition/qicore-procedure"]},"extension":[{"url":"http://hl7.org/fhir/us/qicore/StructureDefinition/qicore-recorded","valueDateTime":"2026-07-14T11:30:00.000+00:00"}],"status":"completed","code":{"coding":[{"system":"http://snomed.info/sct","code":"445101000124100","display":"Collaborating in nutrition therapy (procedure)"}],"text":"Collaborating in nutrition therapy (procedure)"},"subject":{"reference":"Patient/7fc738cc-7bdf-4f45-8239-959c0492102b"},"encounter":{"reference":"Encounter/ScreAtriNorefAsseNotmNodxCpMSROBSPass2"},"performedPeriod":{"start":"2026-07-14T11:30:00.000+00:00","end":"2026-07-15T08:15:00.000+00:00"}},"request":{"method":"PUT","url":"Procedure/e88dc888-d5e6-46f3-825b-f743c913b7d9"}},{"fullUrl":"https://madie.cms.gov/Coverage/5bdc0655-9701-484b-b786-a46180e82d8a","resource":{"resourceType":"Coverage","id":"5bdc0655-9701-484b-b786-a46180e82d8a","meta":{"profile":["http://hl7.org/fhir/us/qicore/StructureDefinition/qicore-coverage"]},"status":"active","type":{"coding":[{"system":"https://nahdo.org/sopt","version":"9.2","code":"11","display":"Medicare Managed Care (Includes Medicare Advantage Plans)"}]},"subscriberId":"97531","beneficiary":{"reference":"Patient/7fc738cc-7bdf-4f45-8239-959c0492102b"},"dependent":"0","relationship":{"coding":[{"system":"http://terminology.hl7.org/CodeSystem/subscriber-relationship","code":"self"}]},"period":{"start":"2024-10-01T00:00:00.000+00:00"},"payor":[{"reference":"Organization/80a5beb9-45ee-4862-8fc4-8972ab997c90"}]},"request":{"method":"PUT","url":"Coverage/5bdc0655-9701-484b-b786-a46180e82d8a"}},{"fullUrl":"https://madie.cms.gov/Organization/80a5beb9-45ee-4862-8fc4-8972ab997c90","resource":{"resourceType":"Organization","id":"80a5beb9-45ee-4862-8fc4-8972ab997c90","meta":{"profile":["http://hl7.org/fhir/us/qicore/StructureDefinition/qicore-organization"]},"identifier":[{"use":"temp","system":"urn:oid:2.16.840.1.113883.4.4","value":"21-3259825"}],"active":true,"type":[{"coding":[{"system":"http://terminology.hl7.org/CodeSystem/organization-type","code":"pay","display":"Payer"}]}],"name":"Blue Cross Blue Shield of Texas","telecom":[{"system":"phone","value":"(+1) 972-766-6900"}],"address":[{"use":"billing","type":"postal","line":["P.O. Box 660044"],"city":"Dallas","state":"TX","postalCode":"75266-0044","country":"USA"}]},"request":{"method":"PUT","url":"Organization/80a5beb9-45ee-4862-8fc4-8972ab997c90"}},{"fullUrl":"https://madie.cms.gov/MeasureReport/ab6dccf8-70a2-49e7-84e2-38950db7a0e9","resource":{"resourceType":"MeasureReport","id":"ab6dccf8-70a2-49e7-84e2-38950db7a0e9","meta":{"profile":["http://hl7.org/fhir/us/cqfmeasures/StructureDefinition/test-case-cqfm"]},"contained":[{"resourceType":"Parameters","id":"2fc2bf8a-7323-494b-b7bc-0b41b5c9316b-parameters","parameter":[{"name":"subject","valueString":"7fc738cc-7bdf-4f45-8239-959c0492102b"}]}],"extension":[{"url":"http://hl7.org/fhir/StructureDefinition/cqf-inputParameters","valueReference":{"reference":"#2fc2bf8a-7323-494b-b7bc-0b41b5c9316b-parameters"}},{"url":"http://hl7.org/fhir/us/cqfmeasures/StructureDefinition/cqfm-testCaseDescription","valueMarkdown":"Screened, At Risk, No Referral, Assessed, Not/Mildly Malnourished, No Diagnosis, Nutrition Care Plan"}],"modifierExtension":[{"url":"http://hl7.org/fhir/us/cqfmeasures/StructureDefinition/cqfm-isTestCase","valueBoolean":true}],"status":"complete","type":"individual","measure":"https://madie.cms.gov/Measure/CMS986FHIRMalnutritionScore","period":{"start":"2026-01-01","end":"2026-12-31"},"group":[{"id":"Group_1","population":[{"id":"InitialPopulation_1","code":{"coding":[{"system":"http://terminology.hl7.org/CodeSystem/measure-population","code":"initial-population","display":"Initial Population"}]},"count":1},{"id":"MeasurePopulation_1","code":{"coding":[{"system":"http://terminology.hl7.org/CodeSystem/measure-population","code":"measure-population","display":"Measure Population"}]},"count":1},{"id":"MeasurePopulationExclusion_1","code":{"coding":[{"system":"http://terminology.hl7.org/CodeSystem/measure-population","code":"measure-population-exclusion","display":"Measure Population Exclusion"}]},"count":0},{"id":"MeasureObservation_1_1","code":{"coding":[{"system":"http://terminology.hl7.org/CodeSystem/measure-population","code":"measure-population-observation","display":"Measure Population Observation"}]},"count":1}],"measureScore":{"value":0.0}},{"id":"Group_2","population":[{"id":"InitialPopulation_2","code":{"coding":[{"system":"http://terminology.hl7.org/CodeSystem/measure-population","code":"initial-population","display":"Initial Population"}]},"count":1},{"id":"MeasurePopulation_2","code":{"coding":[{"system":"http://terminology.hl7.org/CodeSystem/measure-population","code":"measure-population","display":"Measure Population"}]},"count":1},{"id":"MeasurePopulationExclusion_2","code":{"coding":[{"system":"http://terminology.hl7.org/CodeSystem/measure-population","code":"measure-population-exclusion","display":"Measure Population Exclusion"}]},"count":0},{"id":"MeasureObservation_2_1","code":{"coding":[{"system":"http://terminology.hl7.org/CodeSystem/measure-population","code":"measure-population-observation","display":"Measure Population Observation"}]},"count":1}],"measureScore":{"value":0.0}},{"id":"Group_3","population":[{"id":"InitialPopulation_3","code":{"coding":[{"system":"http://terminology.hl7.org/CodeSystem/measure-population","code":"initial-population","display":"Initial Population"}]},"count":1},{"id":"MeasurePopulation_3","code":{"coding":[{"system":"http://terminology.hl7.org/CodeSystem/measure-population","code":"measure-population","display":"Measure Population"}]},"count":1},{"id":"MeasurePopulationExclusion_3","code":{"coding":[{"system":"http://terminology.hl7.org/CodeSystem/measure-population","code":"measure-population-exclusion","display":"Measure Population Exclusion"}]},"count":0},{"id":"MeasureObservation_3_1","code":{"coding":[{"system":"http://terminology.hl7.org/CodeSystem/measure-population","code":"measure-population-observation","display":"Measure Population Observation"}]},"count":0}],"measureScore":{"value":0.0}},{"id":"Group_4","population":[{"id":"InitialPopulation_4","code":{"coding":[{"system":"http://terminology.hl7.org/CodeSystem/measure-population","code":"initial-population","display":"Initial Population"}]},"count":1},{"id":"MeasurePopulation_4","code":{"coding":[{"system":"http://terminology.hl7.org/CodeSystem/measure-population","code":"measure-population","display":"Measure Population"}]},"count":1},{"id":"MeasurePopulationExclusion_4","code":{"coding":[{"system":"http://terminology.hl7.org/CodeSystem/measure-population","code":"measure-population-exclusion","display":"Measure Population Exclusion"}]},"count":0},{"id":"MeasureObservation_4_1","code":{"coding":[{"system":"http://terminology.hl7.org/CodeSystem/measure-population","code":"measure-population-observation","display":"Measure Population Observation"}]},"count":0}],"measureScore":{"value":0.0}},{"id":"Group_5","population":[{"id":"InitialPopulation_5","code":{"coding":[{"system":"http://terminology.hl7.org/CodeSystem/measure-population","code":"initial-population","display":"Initial Population"}]},"count":1},{"id":"MeasurePopulation_5","code":{"coding":[{"system":"http://terminology.hl7.org/CodeSystem/measure-population","code":"measure-population","display":"Measure Population"}]},"count":1},{"id":"MeasurePopulationExclusion_5","code":{"coding":[{"system":"http://terminology.hl7.org/CodeSystem/measure-population","code":"measure-population-exclusion","display":"Measure Population Exclusion"}]},"count":0},{"id":"MeasureObservation_5_1","code":{"coding":[{"system":"http://terminology.hl7.org/CodeSystem/measure-population","code":"measure-population-observation","display":"Measure Population Observation"}]},"count":2}],"measureScore":{"value":0.0}},{"id":"Group_6","population":[{"id":"InitialPopulation_6","code":{"coding":[{"system":"http://terminology.hl7.org/CodeSystem/measure-population","code":"initial-population","display":"Initial Population"}]},"count":1},{"id":"MeasurePopulation_6","code":{"coding":[{"system":"http://terminology.hl7.org/CodeSystem/measure-population","code":"measure-population","display":"Measure Population"}]},"count":1},{"id":"MeasurePopulationExclusion_6","code":{"coding":[{"system":"http://terminology.hl7.org/CodeSystem/measure-population","code":"measure-population-exclusion","display":"Measure Population Exclusion"}]},"count":0},{"id":"MeasureObservation_6_1","code":{"coding":[{"system":"http://terminology.hl7.org/CodeSystem/measure-population","code":"measure-population-observation","display":"Measure Population Observation"}]},"count":100}],"measureScore":{"value":0.0}}],"evaluatedResource":[{"reference":"Patient/7fc738cc-7bdf-4f45-8239-959c0492102b"},{"reference":"Encounter/9166fa3d-ac4d-4c05-8b15-ab33ffd00de7"},{"reference":"Observation/49933777-1005-4821-9e9a-489a3e8fb7b2"},{"reference":"Observation/3fef1464-12b0-4900-8091-ab9dfe672eda"},{"reference":"Procedure/e88dc888-d5e6-46f3-825b-f743c913b7d9"},{"reference":"Coverage/5bdc0655-9701-484b-b786-a46180e82d8a"},{"reference":"Organization/80a5beb9-45ee-4862-8fc4-8972ab997c90"}]},"request":{"method":"PUT","url":"MeasureReport/ab6dccf8-70a2-49e7-84e2-38950db7a0e9"}}]},"request":{"method":"PUT","url":"Bundle/ScreAtriNorefAsseNotmNodxCp"}},{"resource":{"resourceType":"Patient","id":"7fc738cc-7bdf-4f45-8239-959c0492102b","meta":{"profile":["http://hl7.org/fhir/us/qicore/StructureDefinition/qicore-patient"]},"extension":[{"url":"http://hl7.org/fhir/us/core/StructureDefinition/us-core-race","extension":[{"url":"ombCategory","valueCoding":{"system":"urn:oid:2.16.840.1.113883.6.238","code":"2106-3","display":"White","userSelected":true}},{"url":"text","valueString":"White"}]},{"url":"http://hl7.org/fhir/us/core/StructureDefinition/us-core-ethnicity","extension":[{"url":"ombCategory","valueCoding":{"system":"urn:oid:2.16.840.1.113883.6.238","code":"2186-5","display":"Not Hispanic or Latino","userSelected":true}},{"url":"text","valueString":"Not Hispanic or Latino"}]},{"url":"http://hl7.org/fhir/us/core/StructureDefinition/us-core-sex","valueCode":"248152002"}],"identifier":[{"type":{"coding":[{"system":"http://terminology.hl7.org/CodeSystem/v2-0203","code":"MR"}]},"system":"https://madie.cms.gov/","value":"ScreAtriNorefAsseNotmNodxCp"}],"active":true,"name":[{"use":"usual","text":"ScreAtriNorefAsseNotmNodxCp","family":"MSROBSPass2","given":["ScreAtriNorefAsseNotmNodxCp"]}],"gender":"female","birthDate":"1950-03-10","address":[{"text":"ScreAtriNorefAsseNotmNodxCp, Screened Not at risk Assessed Severely Malnourished Diagnosed Care Plan, ID=ScreAtriNorefAsseNotmNodxCp, DOB: 10 Mar 1950"}]},"request":{"method":"PUT","url":"Patient/7fc738cc-7bdf-4f45-8239-959c0492102b"}},{"resource":{"resourceType":"Observation","id":"49933777-1005-4821-9e9a-489a3e8fb7b2","meta":{"profile":["http://hl7.org/fhir/us/qicore/StructureDefinition/qicore-observation-screening-assessment"]},"status":"final","category":[{"coding":[{"system":"http://terminology.hl7.org/CodeSystem/observation-category","code":"survey","display":"Survey"}]}],"code":{"coding":[{"system":"http://loinc.org","code":"98968-1","display":"Initial screening NRS_2002","userSelected":true}]},"subject":{"reference":"Patient/7fc738cc-7bdf-4f45-8239-959c0492102b"},"effectiveDateTime":"2026-07-14T09:00:00.000+00:00","valueCodeableConcept":{"coding":[{"system":"http://snomed.info/sct","code":"129689002","display":"At increased risk for nutritional problem (finding)","userSelected":true}]}},"request":{"method":"PUT","url":"Observation/49933777-1005-4821-9e9a-489a3e8fb7b2"}}]}