{
  "resourceType": "Bundle",
  "id": "63487c2e0968f8012254018c",
  "type": "transaction",
  "entry": [ {
    "fullUrl": "https://madie.cms.gov/Patient/194c8f74-f131-4d08-aff3-e9740333e874",
    "resource": {
      "resourceType": "Patient",
      "id": "194c8f74-f131-4d08-aff3-e9740333e874",
      "meta": {
        "profile": [ "http://hl7.org/fhir/us/qicore/StructureDefinition/qicore-patient" ]
      },
      "text": {
        "status": "generated",
        "div": "<div xmlns=\"http://www.w3.org/1999/xhtml\"><div class=\"hapiHeaderText\">AssessGARelDtTimeLT24HourB4TimeOfDeliv <b>DENPASS </b></div><table class=\"hapiPropertyTable\"><tbody><tr><td>Identifier</td><td>d274dc96f6308f67a52f29a83387fce6248cd6fafffcbb90145ed6c834e32b90</td></tr><tr><td>Date of birth</td><td><span>14 February 1985</span></td></tr></tbody></table></div>"
      },
      "extension": [ {
        "url": "http://hl7.org/fhir/us/core/StructureDefinition/us-core-race",
        "extension": [ {
          "url": "ombCategory",
          "valueCoding": {
            "system": "urn:oid:2.16.840.1.113883.6.238",
            "code": "1002-5",
            "display": "American Indian or Alaska Native",
            "userSelected": true
          }
        }, {
          "url": "text",
          "valueString": "American Indian or Alaska Native"
        } ]
      }, {
        "url": "http://hl7.org/fhir/us/core/StructureDefinition/us-core-ethnicity",
        "extension": [ {
          "url": "ombCategory",
          "valueCoding": {
            "system": "urn:oid:2.16.840.1.113883.6.238",
            "code": "2135-2",
            "display": "Hispanic or Latino",
            "userSelected": true
          }
        }, {
          "url": "text",
          "valueString": "Hispanic or Latino"
        } ]
      } ],
      "identifier": [ {
        "type": {
          "coding": [ {
            "system": "http://terminology.hl7.org/CodeSystem/v2-0203",
            "code": "MR"
          } ]
        },
        "system": "https://bonnie-fhir.healthit.gov/",
        "value": "63487c2e0968f8012254018c"
      } ],
      "active": true,
      "name": [ {
        "use": "usual",
        "family": "DENPass",
        "given": [ "AssessGARelDtTimeLT24HourB4TimeOfDeliv" ]
      } ],
      "gender": "female",
      "birthDate": "1998-02-14"
    },
    "request": {
      "method": "PUT",
      "url": "Patient/194c8f74-f131-4d08-aff3-e9740333e874"
    }
  }, {
    "fullUrl": "https://madie.cms.gov/Observation/9f2fe113-d947-4a84-95b9-bacf33b216a2",
    "resource": {
      "resourceType": "Observation",
      "id": "9f2fe113-d947-4a84-95b9-bacf33b216a2",
      "meta": {
        "profile": [ "http://hl7.org/fhir/us/qicore/StructureDefinition/qicore-simple-observation" ]
      },
      "status": "final",
      "category": [ {
        "coding": [ {
          "system": "http://terminology.hl7.org/CodeSystem/observation-category",
          "code": "exam",
          "display": "exam",
          "userSelected": true
        } ]
      } ],
      "code": {
        "coding": [ {
          "system": "http://loinc.org",
          "code": "11884-4"
        } ]
      },
      "subject": {
        "reference": "Patient/194c8f74-f131-4d08-aff3-e9740333e874"
      },
      "effectiveDateTime": "2026-06-07T11:59:00.000+00:00",
      "valueQuantity": {
        "value": 37,
        "system": "http://unitsofmeasure.org",
        "code": "wk"
      }
    },
    "request": {
      "method": "PUT",
      "url": "Observation/9f2fe113-d947-4a84-95b9-bacf33b216a2"
    }
  }, {
    "fullUrl": "https://madie.cms.gov/Observation/5983e511-3dc7-46af-ad9d-c3ec48d5e411",
    "resource": {
      "resourceType": "Observation",
      "id": "5983e511-3dc7-46af-ad9d-c3ec48d5e411",
      "meta": {
        "profile": [ "http://hl7.org/fhir/us/qicore/StructureDefinition/qicore-simple-observation" ]
      },
      "status": "final",
      "category": [ {
        "coding": [ {
          "system": "http://terminology.hl7.org/CodeSystem/observation-category",
          "code": "exam",
          "display": "exam",
          "userSelected": true
        } ]
      } ],
      "code": {
        "coding": [ {
          "system": "http://loinc.org",
          "code": "11996-6"
        } ]
      },
      "subject": {
        "reference": "Patient/194c8f74-f131-4d08-aff3-e9740333e874"
      },
      "effectiveDateTime": "2026-06-08T08:00:00.000+00:00",
      "valueInteger": 1
    },
    "request": {
      "method": "PUT",
      "url": "Observation/5983e511-3dc7-46af-ad9d-c3ec48d5e411"
    }
  }, {
    "fullUrl": "https://madie.cms.gov/Observation/996b85d1-7305-497d-b769-73f48e6bd7d4",
    "resource": {
      "resourceType": "Observation",
      "id": "996b85d1-7305-497d-b769-73f48e6bd7d4",
      "meta": {
        "profile": [ "http://hl7.org/fhir/us/qicore/StructureDefinition/qicore-simple-observation" ]
      },
      "status": "final",
      "category": [ {
        "coding": [ {
          "system": "http://terminology.hl7.org/CodeSystem/observation-category",
          "code": "exam",
          "display": "exam",
          "userSelected": true
        } ]
      } ],
      "code": {
        "coding": [ {
          "system": "http://loinc.org",
          "code": "93857-1"
        } ]
      },
      "subject": {
        "reference": "Patient/194c8f74-f131-4d08-aff3-e9740333e874"
      },
      "effectiveDateTime": "2026-06-08T09:15:00.000+00:00",
      "valueDateTime": "2026-06-08T09:15:00.000+00:00"
    },
    "request": {
      "method": "PUT",
      "url": "Observation/996b85d1-7305-497d-b769-73f48e6bd7d4"
    }
  }, {
    "fullUrl": "https://madie.cms.gov/Encounter/b14120e1-e44b-43d4-a305-c47d13bf95e1",
    "resource": {
      "resourceType": "Encounter",
      "id": "b14120e1-e44b-43d4-a305-c47d13bf95e1",
      "meta": {
        "profile": [ "http://hl7.org/fhir/us/qicore/StructureDefinition/qicore-encounter" ]
      },
      "status": "finished",
      "class": {
        "system": "http://terminology.hl7.org/CodeSystem/v3-ActCode",
        "code": "IMP",
        "display": "inpatient encounter"
      },
      "type": [ {
        "coding": [ {
          "system": "http://snomed.info/sct",
          "code": "183452005"
        } ]
      } ],
      "subject": {
        "reference": "Patient/194c8f74-f131-4d08-aff3-e9740333e874"
      },
      "period": {
        "start": "2026-06-08T08:00:00.000+00:00",
        "end": "2026-06-10T08:15:00.000+00:00"
      },
      "length": {
        "value": 2,
        "unit": "days"
      },
      "reasonReference": [ {
        "reference": "Condition/60c828ff-8f76-4c49-b8dc-0989f2e1bbd6"
      } ]
    },
    "request": {
      "method": "PUT",
      "url": "Encounter/b14120e1-e44b-43d4-a305-c47d13bf95e1"
    }
  }, {
    "fullUrl": "https://madie.cms.gov/Procedure/a162b98d-4b84-49ba-9477-1c7c8265d688",
    "resource": {
      "resourceType": "Procedure",
      "id": "a162b98d-4b84-49ba-9477-1c7c8265d688",
      "meta": {
        "profile": [ "http://hl7.org/fhir/us/qicore/StructureDefinition/qicore-procedure" ]
      },
      "extension": [ {
        "url": "http://hl7.org/fhir/us/qicore/StructureDefinition/qicore-recorded",
        "valueDateTime": "2014-04-05T13:35:00.000+00:00"
      } ],
      "status": "completed",
      "code": {
        "coding": [ {
          "system": "http://www.cms.gov/Medicare/Coding/ICD10",
          "code": "10D07Z3"
        } ]
      },
      "subject": {
        "reference": "Patient/194c8f74-f131-4d08-aff3-e9740333e874"
      },
      "performedPeriod": {
        "start": "2026-06-08T08:00:00.000+00:00",
        "end": "2026-06-08T09:15:00.000+00:00"
      }
    },
    "request": {
      "method": "PUT",
      "url": "Procedure/a162b98d-4b84-49ba-9477-1c7c8265d688"
    }
  }, {
    "fullUrl": "https://madie.cms.gov/Condition/60c828ff-8f76-4c49-b8dc-0989f2e1bbd6",
    "resource": {
      "resourceType": "Condition",
      "id": "60c828ff-8f76-4c49-b8dc-0989f2e1bbd6",
      "meta": {
        "profile": [ "http://hl7.org/fhir/us/qicore/StructureDefinition/qicore-condition-encounter-diagnosis" ]
      },
      "category": [ {
        "coding": [ {
          "system": "http://terminology.hl7.org/CodeSystem/condition-category",
          "code": "encounter-diagnosis",
          "display": "Encounter Diagnosis"
        } ]
      } ],
      "code": {
        "coding": [ {
          "system": "http://snomed.info/sct",
          "version": "2022-09",
          "code": "169826009",
          "display": "Single live birth from singleton pregnancy (finding)",
          "userSelected": true
        } ]
      },
      "subject": {
        "reference": "Patient/194c8f74-f131-4d08-aff3-e9740333e874"
      },
      "encounter": {
        "reference": "Encounter/b14120e1-e44b-43d4-a305-c47d13bf95e1"
      },
      "recordedDate": "2026-10-21T08:00:00.000+00:00"
    },
    "request": {
      "method": "PUT",
      "url": "Condition/60c828ff-8f76-4c49-b8dc-0989f2e1bbd6"
    }
  }, {
    "fullUrl": "https://madie.cms.gov/Coverage/1819b96d-53ee-4dd7-9bb5-873f0ebff02e",
    "resource": {
      "resourceType": "Coverage",
      "id": "1819b96d-53ee-4dd7-9bb5-873f0ebff02e",
      "meta": {
        "profile": [ "http://hl7.org/fhir/us/qicore/StructureDefinition/qicore-coverage" ]
      },
      "status": "active",
      "subscriberId": "523435",
      "beneficiary": {
        "reference": "Patient/194c8f74-f131-4d08-aff3-e9740333e874"
      },
      "relationship": {
        "coding": [ {
          "system": "http://terminology.hl7.org/CodeSystem/subscriber-relationship",
          "code": "self"
        } ]
      },
      "payor": [ {
        "reference": "Organization/573d8c20-3558-4bac-ae5f-b3ab579fb7b8"
      } ]
    },
    "request": {
      "method": "PUT",
      "url": "Coverage/1819b96d-53ee-4dd7-9bb5-873f0ebff02e"
    }
  }, {
    "fullUrl": "https://madie.cms.gov/Organization/573d8c20-3558-4bac-ae5f-b3ab579fb7b8",
    "resource": {
      "resourceType": "Organization",
      "id": "573d8c20-3558-4bac-ae5f-b3ab579fb7b8",
      "meta": {
        "profile": [ "http://hl7.org/fhir/us/qicore/StructureDefinition/qicore-organization" ]
      },
      "identifier": [ {
        "use": "temp",
        "system": "urn:oid:2.16.840.1.113883.4.4",
        "value": "21-3259825"
      } ],
      "active": true,
      "type": [ {
        "coding": [ {
          "system": "http://terminology.hl7.org/CodeSystem/organization-type",
          "code": "pay",
          "display": "Payer"
        } ]
      } ],
      "name": "Blue Cross Blue Shield of Texas",
      "telecom": [ {
        "system": "phone",
        "value": "(+1) 972-766-6900"
      } ],
      "address": [ {
        "use": "billing",
        "type": "postal",
        "line": [ "P.O. Box 660044" ],
        "city": "Dallas",
        "state": "TX",
        "postalCode": "75266-0044",
        "country": "USA"
      } ]
    },
    "request": {
      "method": "PUT",
      "url": "Organization/573d8c20-3558-4bac-ae5f-b3ab579fb7b8"
    }
  }, {
    "fullUrl": "https://madie.cms.gov/Practitioner/32e9c533-64d2-4064-9b7b-5d9b9dd458eb",
    "resource": {
      "resourceType": "Practitioner",
      "id": "32e9c533-64d2-4064-9b7b-5d9b9dd458eb",
      "meta": {
        "profile": [ "http://hl7.org/fhir/us/qicore/StructureDefinition/qicore-practitioner" ]
      },
      "identifier": [ {
        "system": "http://hl7.org/fhir/sid/us-npi",
        "value": "1234567890"
      } ],
      "name": [ {
        "family": "Evil",
        "prefix": [ "Dr" ]
      } ]
    },
    "request": {
      "method": "PUT",
      "url": "Practitioner/32e9c533-64d2-4064-9b7b-5d9b9dd458eb"
    }
  }, {
    "fullUrl": "https://madie.cms.gov/MeasureReport/5b9c9464-0063-42f3-a5d7-e46fdaadf586",
    "resource": {
      "resourceType": "MeasureReport",
      "id": "5b9c9464-0063-42f3-a5d7-e46fdaadf586",
      "meta": {
        "profile": [ "http://hl7.org/fhir/us/cqfmeasures/StructureDefinition/test-case-cqfm" ]
      },
      "contained": [ {
        "resourceType": "Parameters",
        "id": "7acfb8f8-2417-42a0-abba-a32d43dc2b8d-parameters",
        "parameter": [ {
          "name": "subject",
          "valueString": "194c8f74-f131-4d08-aff3-e9740333e874"
        } ]
      } ],
      "extension": [ {
        "url": "http://hl7.org/fhir/StructureDefinition/cqf-inputParameters",
        "valueReference": {
          "reference": "#7acfb8f8-2417-42a0-abba-a32d43dc2b8d-parameters"
        }
      }, {
        "url": "http://hl7.org/fhir/us/cqfmeasures/StructureDefinition/cqfm-testCaseDescription",
        "valueMarkdown": "Passes: IP, Pt is 27 years of age,  encounter dx of delivery of singleton, gravida, AsseEGA37 within 24 hours of  TmDelivery.   Breech presentation meets denom exclusion.\n\n"
      } ],
      "modifierExtension": [ {
        "url": "http://hl7.org/fhir/us/cqfmeasures/StructureDefinition/cqfm-isTestCase",
        "valueBoolean": true
      } ],
      "status": "complete",
      "type": "individual",
      "measure": "https://madie.cms.gov/Measure/CMS0334FHIRPCCesareanBirth",
      "period": {
        "start": "2026-01-01",
        "end": "2026-12-31"
      },
      "group": [ {
        "id": "Group_1",
        "population": [ {
          "id": "InitialPopulation_1",
          "code": {
            "coding": [ {
              "system": "http://terminology.hl7.org/CodeSystem/measure-population",
              "code": "initial-population",
              "display": "Initial Population"
            } ]
          },
          "count": 1
        }, {
          "id": "Denominator_1",
          "code": {
            "coding": [ {
              "system": "http://terminology.hl7.org/CodeSystem/measure-population",
              "code": "denominator",
              "display": "Denominator"
            } ]
          },
          "count": 1
        }, {
          "id": "DenominatorExclusion_1",
          "code": {
            "coding": [ {
              "system": "http://terminology.hl7.org/CodeSystem/measure-population",
              "code": "denominator-exclusion",
              "display": "Denominator Exclusion"
            } ]
          },
          "count": 0
        }, {
          "id": "Numerator_1",
          "code": {
            "coding": [ {
              "system": "http://terminology.hl7.org/CodeSystem/measure-population",
              "code": "numerator",
              "display": "Numerator"
            } ]
          },
          "count": 0
        } ],
        "measureScore": {
          "value": 0.0
        }
      } ],
      "evaluatedResource": [ {
        "reference": "Patient/194c8f74-f131-4d08-aff3-e9740333e874"
      }, {
        "reference": "Observation/9f2fe113-d947-4a84-95b9-bacf33b216a2"
      }, {
        "reference": "Observation/5983e511-3dc7-46af-ad9d-c3ec48d5e411"
      }, {
        "reference": "Observation/996b85d1-7305-497d-b769-73f48e6bd7d4"
      }, {
        "reference": "Encounter/b14120e1-e44b-43d4-a305-c47d13bf95e1"
      }, {
        "reference": "Procedure/a162b98d-4b84-49ba-9477-1c7c8265d688"
      }, {
        "reference": "Condition/60c828ff-8f76-4c49-b8dc-0989f2e1bbd6"
      }, {
        "reference": "Coverage/1819b96d-53ee-4dd7-9bb5-873f0ebff02e"
      }, {
        "reference": "Organization/573d8c20-3558-4bac-ae5f-b3ab579fb7b8"
      }, {
        "reference": "Practitioner/32e9c533-64d2-4064-9b7b-5d9b9dd458eb"
      } ]
    },
    "request": {
      "method": "PUT",
      "url": "MeasureReport/5b9c9464-0063-42f3-a5d7-e46fdaadf586"
    }
  } ]
}