{
  "resourceType": "Bundle",
  "id": "Patient-30-NUMPass-HbA1cGreaterThan9",
  "type": "transaction",
  "entry": [ {
    "fullUrl": "https://madie.cms.gov/Patient/8956ebb5-d3c0-4112-a34a-200961713efd",
    "resource": {
      "resourceType": "Patient",
      "id": "8956ebb5-d3c0-4112-a34a-200961713efd",
      "meta": {
        "profile": [ "http://hl7.org/fhir/us/qicore/StructureDefinition/qicore-patient" ]
      },
      "extension": [ {
        "url": "http://hl7.org/fhir/us/core/StructureDefinition/us-core-race",
        "extension": [ {
          "url": "ombCategory",
          "valueCoding": {
            "system": "urn:oid:2.16.840.1.113883.6.238",
            "code": "2028-9",
            "display": "Asian",
            "userSelected": true
          }
        }, {
          "url": "text",
          "valueString": "Asian"
        } ]
      }, {
        "url": "http://hl7.org/fhir/us/core/StructureDefinition/us-core-ethnicity",
        "extension": [ {
          "url": "ombCategory",
          "valueCoding": {
            "system": "urn:oid:2.16.840.1.113883.6.238",
            "code": "2135-2",
            "display": "Hispanic or Latino",
            "userSelected": true
          }
        }, {
          "url": "text",
          "valueString": "Hispanic or Latino"
        } ]
      } ],
      "identifier": [ {
        "type": {
          "coding": [ {
            "system": "http://terminology.hl7.org/CodeSystem/v2-0203",
            "code": "MR"
          } ]
        },
        "system": "http://hospital.smarthealthit.org",
        "value": "999999995"
      } ],
      "name": [ {
        "family": "Bertha",
        "given": [ "Betty" ]
      } ],
      "gender": "female",
      "birthDate": "2006-01-01"
    },
    "request": {
      "method": "PUT",
      "url": "Patient/8956ebb5-d3c0-4112-a34a-200961713efd"
    }
  }, {
    "fullUrl": "https://madie.cms.gov/Encounter/b491b412-3cc3-4b17-9d82-1c3cc767a91a",
    "resource": {
      "resourceType": "Encounter",
      "id": "b491b412-3cc3-4b17-9d82-1c3cc767a91a",
      "meta": {
        "profile": [ "http://hl7.org/fhir/us/qicore/StructureDefinition/qicore-encounter" ]
      },
      "status": "finished",
      "class": {
        "system": "http://terminology.hl7.org/CodeSystem/v3-ActCode",
        "code": "AMB",
        "display": "ambulatory"
      },
      "type": [ {
        "coding": [ {
          "system": "http://snomed.info/sct",
          "code": "185460008",
          "display": "Home visit request by patient (procedure)"
        } ]
      } ],
      "subject": {
        "reference": "Patient/8956ebb5-d3c0-4112-a34a-200961713efd"
      },
      "period": {
        "start": "2026-01-01T00:00:00Z",
        "end": "2026-01-01T00:15:00Z"
      }
    },
    "request": {
      "method": "PUT",
      "url": "Encounter/b491b412-3cc3-4b17-9d82-1c3cc767a91a"
    }
  }, {
    "fullUrl": "https://madie.cms.gov/Condition/ffa5d706-c246-48d5-9d65-636b867787a4",
    "resource": {
      "resourceType": "Condition",
      "id": "ffa5d706-c246-48d5-9d65-636b867787a4",
      "meta": {
        "profile": [ "http://hl7.org/fhir/us/qicore/StructureDefinition/qicore-condition-encounter-diagnosis" ]
      },
      "clinicalStatus": {
        "coding": [ {
          "system": "http://terminology.hl7.org/CodeSystem/condition-clinical",
          "code": "active"
        } ]
      },
      "category": [ {
        "coding": [ {
          "system": "http://terminology.hl7.org/CodeSystem/condition-category",
          "code": "encounter-diagnosis",
          "display": "Encounter Diagnosis"
        } ]
      } ],
      "code": {
        "coding": [ {
          "system": "http://snomed.info/sct",
          "code": "102781000119107",
          "display": "Sensory neuropathy due to type 1 diabetes mellitus (disorder)"
        } ]
      },
      "subject": {
        "reference": "Patient/8956ebb5-d3c0-4112-a34a-200961713efd"
      },
      "onsetDateTime": "2026-01-01T23:59:00Z"
    },
    "request": {
      "method": "PUT",
      "url": "Condition/ffa5d706-c246-48d5-9d65-636b867787a4"
    }
  }, {
    "fullUrl": "https://madie.cms.gov/Observation/bbe66da0-3ab0-4564-8268-2a24e10b6170",
    "resource": {
      "resourceType": "Observation",
      "id": "bbe66da0-3ab0-4564-8268-2a24e10b6170",
      "meta": {
        "profile": [ "http://hl7.org/fhir/us/qicore/StructureDefinition/qicore-observation-lab" ]
      },
      "status": "corrected",
      "category": [ {
        "coding": [ {
          "system": "http://terminology.hl7.org/CodeSystem/observation-category",
          "code": "laboratory"
        } ]
      } ],
      "code": {
        "coding": [ {
          "system": "http://loinc.org",
          "code": "17855-8",
          "display": "Hemoglobin A1c/Hemoglobin.total in Blood by calculation"
        } ]
      },
      "subject": {
        "reference": "Patient/8956ebb5-d3c0-4112-a34a-200961713efd"
      },
      "effectivePeriod": {
        "start": "2026-01-02T00:00:00Z",
        "end": "2026-01-03T00:00:00Z"
      },
      "valueQuantity": {
        "value": 9.1,
        "unit": "%",
        "system": "http://unitsofmeasure.org",
        "code": "%"
      }
    },
    "request": {
      "method": "PUT",
      "url": "Observation/bbe66da0-3ab0-4564-8268-2a24e10b6170"
    }
  }, {
    "fullUrl": "https://madie.cms.gov/MeasureReport/79e465f5-849e-4934-a3dc-a7a0bc8975df",
    "resource": {
      "resourceType": "MeasureReport",
      "id": "79e465f5-849e-4934-a3dc-a7a0bc8975df",
      "meta": {
        "profile": [ "http://hl7.org/fhir/us/cqfmeasures/StructureDefinition/test-case-cqfm" ]
      },
      "contained": [ {
        "resourceType": "Parameters",
        "id": "cccae402-547d-4961-a13f-895cf2c5a962-parameters",
        "parameter": [ {
          "name": "subject",
          "valueString": "8956ebb5-d3c0-4112-a34a-200961713efd"
        } ]
      } ],
      "extension": [ {
        "url": "http://hl7.org/fhir/StructureDefinition/cqf-inputParameters",
        "valueReference": {
          "reference": "#cccae402-547d-4961-a13f-895cf2c5a962-parameters"
        }
      }, {
        "url": "http://hl7.org/fhir/us/cqfmeasures/StructureDefinition/cqfm-testCaseDescription",
        "valueMarkdown": "HbA1c level is 9.1%"
      } ],
      "modifierExtension": [ {
        "url": "http://hl7.org/fhir/us/cqfmeasures/StructureDefinition/cqfm-isTestCase",
        "valueBoolean": true
      } ],
      "status": "complete",
      "type": "individual",
      "measure": "https://madie.cms.gov/Measure/CMS122FHIRDiabetesAssessGreaterThan9Percent",
      "period": {
        "start": "2026-01-01",
        "end": "2026-12-31"
      },
      "group": [ {
        "id": "Group_1",
        "population": [ {
          "id": "InitialPopulation_1",
          "code": {
            "coding": [ {
              "system": "http://terminology.hl7.org/CodeSystem/measure-population",
              "code": "initial-population",
              "display": "Initial Population"
            } ]
          },
          "count": 1
        }, {
          "id": "Denominator_1",
          "code": {
            "coding": [ {
              "system": "http://terminology.hl7.org/CodeSystem/measure-population",
              "code": "denominator",
              "display": "Denominator"
            } ]
          },
          "count": 1
        }, {
          "id": "DenominatorExclusion_1",
          "code": {
            "coding": [ {
              "system": "http://terminology.hl7.org/CodeSystem/measure-population",
              "code": "denominator-exclusion",
              "display": "Denominator Exclusion"
            } ]
          },
          "count": 0
        }, {
          "id": "Numerator_1",
          "code": {
            "coding": [ {
              "system": "http://terminology.hl7.org/CodeSystem/measure-population",
              "code": "numerator",
              "display": "Numerator"
            } ]
          },
          "count": 1
        } ],
        "measureScore": {
          "value": 1.0
        }
      } ],
      "evaluatedResource": [ {
        "reference": "Patient/8956ebb5-d3c0-4112-a34a-200961713efd"
      }, {
        "reference": "Encounter/b491b412-3cc3-4b17-9d82-1c3cc767a91a"
      }, {
        "reference": "Condition/ffa5d706-c246-48d5-9d65-636b867787a4"
      }, {
        "reference": "Observation/bbe66da0-3ab0-4564-8268-2a24e10b6170"
      } ]
    },
    "request": {
      "method": "PUT",
      "url": "MeasureReport/79e465f5-849e-4934-a3dc-a7a0bc8975df"
    }
  } ]
}