{
  "resourceType": "Bundle",
  "id": "DENEXPass-HospiceDischargeToHomeDuringMP",
  "type": "transaction",
  "entry": [ {
    "fullUrl": "https://madie.cms.gov/Patient/92ed2664-a594-4cac-9001-3044b14a02f7",
    "resource": {
      "resourceType": "Patient",
      "id": "92ed2664-a594-4cac-9001-3044b14a02f7",
      "meta": {
        "profile": [ "http://hl7.org/fhir/us/qicore/StructureDefinition/qicore-patient" ]
      },
      "extension": [ {
        "url": "http://hl7.org/fhir/us/core/StructureDefinition/us-core-race",
        "extension": [ {
          "url": "ombCategory",
          "valueCoding": {
            "system": "urn:oid:2.16.840.1.113883.6.238",
            "code": "2028-9",
            "display": "Asian",
            "userSelected": true
          }
        }, {
          "url": "text",
          "valueString": "Asian"
        } ]
      }, {
        "url": "http://hl7.org/fhir/us/core/StructureDefinition/us-core-ethnicity",
        "extension": [ {
          "url": "ombCategory",
          "valueCoding": {
            "system": "urn:oid:2.16.840.1.113883.6.238",
            "code": "2135-2",
            "display": "Hispanic or Latino",
            "userSelected": true
          }
        }, {
          "url": "text",
          "valueString": "Hispanic or Latino"
        } ]
      } ],
      "identifier": [ {
        "type": {
          "coding": [ {
            "system": "http://terminology.hl7.org/CodeSystem/v2-0203",
            "code": "MR"
          } ]
        },
        "system": "http://hospital.smarthealthit.org",
        "value": "999999995"
      } ],
      "name": [ {
        "family": "Bertha",
        "given": [ "Betty" ]
      } ],
      "gender": "female",
      "birthDate": "2024-01-01"
    },
    "request": {
      "method": "PUT",
      "url": "Patient/92ed2664-a594-4cac-9001-3044b14a02f7"
    }
  }, {
    "fullUrl": "https://madie.cms.gov/Encounter/4d1f835c-f824-49bb-8b21-6ef5fe133197",
    "resource": {
      "resourceType": "Encounter",
      "id": "4d1f835c-f824-49bb-8b21-6ef5fe133197",
      "meta": {
        "profile": [ "http://hl7.org/fhir/us/qicore/StructureDefinition/qicore-encounter" ]
      },
      "status": "finished",
      "class": {
        "system": "http://terminology.hl7.org/CodeSystem/v3-ActCode",
        "code": "AMB",
        "display": "ambulatory"
      },
      "type": [ {
        "coding": [ {
          "system": "http://snomed.info/sct",
          "code": "185317003",
          "display": "Telephone encounter (procedure)"
        } ]
      } ],
      "subject": {
        "reference": "Patient/92ed2664-a594-4cac-9001-3044b14a02f7"
      },
      "period": {
        "start": "2026-01-01T01:00:00.000Z",
        "end": "2026-01-01T01:15:00.000Z"
      }
    },
    "request": {
      "method": "PUT",
      "url": "Encounter/4d1f835c-f824-49bb-8b21-6ef5fe133197"
    }
  }, {
    "fullUrl": "https://madie.cms.gov/Encounter/24ee2a06-ada2-46e8-a4d5-8a269b849d36",
    "resource": {
      "resourceType": "Encounter",
      "id": "24ee2a06-ada2-46e8-a4d5-8a269b849d36",
      "meta": {
        "profile": [ "http://hl7.org/fhir/us/qicore/StructureDefinition/qicore-encounter" ]
      },
      "status": "finished",
      "class": {
        "system": "http://terminology.hl7.org/CodeSystem/v3-ActCode",
        "code": "AMB",
        "display": "ambulatory"
      },
      "type": [ {
        "coding": [ {
          "system": "http://snomed.info/sct",
          "code": "32485007",
          "display": "Hospital admission (procedure)"
        } ]
      } ],
      "subject": {
        "reference": "Patient/92ed2664-a594-4cac-9001-3044b14a02f7"
      },
      "period": {
        "start": "2025-12-31T23:59:59.000Z",
        "end": "2026-01-01T01:00:00.000Z"
      },
      "hospitalization": {
        "dischargeDisposition": {
          "coding": [ {
            "system": "http://snomed.info/sct",
            "code": "428361000124107",
            "display": "Discharge to home for hospice care (procedure)"
          } ]
        }
      }
    },
    "request": {
      "method": "PUT",
      "url": "Encounter/24ee2a06-ada2-46e8-a4d5-8a269b849d36"
    }
  }, {
    "fullUrl": "https://madie.cms.gov/MeasureReport/90f41118-0a69-427a-95e8-319251fd6c96",
    "resource": {
      "resourceType": "MeasureReport",
      "id": "90f41118-0a69-427a-95e8-319251fd6c96",
      "meta": {
        "profile": [ "http://hl7.org/fhir/us/cqfmeasures/StructureDefinition/test-case-cqfm" ]
      },
      "contained": [ {
        "resourceType": "Parameters",
        "id": "a813f13f-6c30-47bb-8e15-6c5ce7189988-parameters",
        "parameter": [ {
          "name": "subject",
          "valueString": "92ed2664-a594-4cac-9001-3044b14a02f7"
        } ]
      } ],
      "extension": [ {
        "url": "http://hl7.org/fhir/StructureDefinition/cqf-inputParameters",
        "valueReference": {
          "reference": "#a813f13f-6c30-47bb-8e15-6c5ce7189988-parameters"
        }
      }, {
        "url": "http://hl7.org/fhir/us/cqfmeasures/StructureDefinition/cqfm-testCaseDescription",
        "valueMarkdown": "Hospice discharge to home during MP"
      } ],
      "modifierExtension": [ {
        "url": "http://hl7.org/fhir/us/cqfmeasures/StructureDefinition/cqfm-isTestCase",
        "valueBoolean": true
      } ],
      "status": "complete",
      "type": "individual",
      "measure": "https://madie.cms.gov/Measure/ChildhoodImmunizationStatusFHIR",
      "period": {
        "start": "2026-01-01",
        "end": "2026-12-31"
      },
      "group": [ {
        "id": "Group_1",
        "population": [ {
          "id": "InitialPopulation_1",
          "code": {
            "coding": [ {
              "system": "http://terminology.hl7.org/CodeSystem/measure-population",
              "code": "initial-population",
              "display": "Initial Population"
            } ]
          },
          "count": 1
        }, {
          "id": "Denominator_1",
          "code": {
            "coding": [ {
              "system": "http://terminology.hl7.org/CodeSystem/measure-population",
              "code": "denominator",
              "display": "Denominator"
            } ]
          },
          "count": 1
        }, {
          "id": "DenominatorExclusion_1",
          "code": {
            "coding": [ {
              "system": "http://terminology.hl7.org/CodeSystem/measure-population",
              "code": "denominator-exclusion",
              "display": "Denominator Exclusion"
            } ]
          },
          "count": 1
        }, {
          "id": "Numerator_1",
          "code": {
            "coding": [ {
              "system": "http://terminology.hl7.org/CodeSystem/measure-population",
              "code": "numerator",
              "display": "Numerator"
            } ]
          },
          "count": 0
        } ],
        "measureScore": {
          "value": 1.0
        }
      } ],
      "evaluatedResource": [ {
        "reference": "Patient/92ed2664-a594-4cac-9001-3044b14a02f7"
      }, {
        "reference": "Encounter/4d1f835c-f824-49bb-8b21-6ef5fe133197"
      }, {
        "reference": "Encounter/24ee2a06-ada2-46e8-a4d5-8a269b849d36"
      } ]
    },
    "request": {
      "method": "PUT",
      "url": "MeasureReport/90f41118-0a69-427a-95e8-319251fd6c96"
    }
  }, {
    "fullUrl": "https://madie.cms.gov/MeasureReport/2aea9b9b-5aa2-48c7-9c11-fb0ecd55d257",
    "resource": {
      "resourceType": "MeasureReport",
      "id": "2aea9b9b-5aa2-48c7-9c11-fb0ecd55d257",
      "meta": {
        "profile": [ "http://hl7.org/fhir/us/cqfmeasures/StructureDefinition/test-case-cqfm" ]
      },
      "contained": [ {
        "resourceType": "Parameters",
        "id": "a510c0f4-91b8-4631-b574-d4cb39348423-parameters",
        "parameter": [ {
          "name": "subject",
          "valueString": "92ed2664-a594-4cac-9001-3044b14a02f7"
        } ]
      } ],
      "extension": [ {
        "url": "http://hl7.org/fhir/StructureDefinition/cqf-inputParameters",
        "valueReference": {
          "reference": "#a510c0f4-91b8-4631-b574-d4cb39348423-parameters"
        }
      }, {
        "url": "http://hl7.org/fhir/us/cqfmeasures/StructureDefinition/cqfm-testCaseDescription",
        "valueMarkdown": "Hospice discharge to home during MP"
      } ],
      "modifierExtension": [ {
        "url": "http://hl7.org/fhir/us/cqfmeasures/StructureDefinition/cqfm-isTestCase",
        "valueBoolean": true
      } ],
      "status": "complete",
      "type": "individual",
      "measure": "https://madie.cms.gov/Measure/CMS117FHIRChildhoodImmunizationStatus",
      "period": {
        "start": "2026-01-01",
        "end": "2026-12-31"
      },
      "group": [ {
        "id": "Group_1",
        "population": [ {
          "id": "InitialPopulation_1",
          "code": {
            "coding": [ {
              "system": "http://terminology.hl7.org/CodeSystem/measure-population",
              "code": "initial-population",
              "display": "Initial Population"
            } ]
          },
          "count": 1
        }, {
          "id": "Denominator_1",
          "code": {
            "coding": [ {
              "system": "http://terminology.hl7.org/CodeSystem/measure-population",
              "code": "denominator",
              "display": "Denominator"
            } ]
          },
          "count": 1
        }, {
          "id": "DenominatorExclusion_1",
          "code": {
            "coding": [ {
              "system": "http://terminology.hl7.org/CodeSystem/measure-population",
              "code": "denominator-exclusion",
              "display": "Denominator Exclusion"
            } ]
          },
          "count": 1
        }, {
          "id": "Numerator_1",
          "code": {
            "coding": [ {
              "system": "http://terminology.hl7.org/CodeSystem/measure-population",
              "code": "numerator",
              "display": "Numerator"
            } ]
          },
          "count": 0
        } ],
        "measureScore": {
          "value": 1.0
        }
      } ],
      "evaluatedResource": [ {
        "reference": "Patient/92ed2664-a594-4cac-9001-3044b14a02f7"
      }, {
        "reference": "Encounter/4d1f835c-f824-49bb-8b21-6ef5fe133197"
      }, {
        "reference": "Encounter/24ee2a06-ada2-46e8-a4d5-8a269b849d36"
      }, {
        "reference": "MeasureReport/90f41118-0a69-427a-95e8-319251fd6c96"
      } ]
    },
    "request": {
      "method": "PUT",
      "url": "MeasureReport/2aea9b9b-5aa2-48c7-9c11-fb0ecd55d257"
    }
  } ]
}