{
  "resourceType": "Bundle",
  "id": "tests-IPPFail-NoHypoglycemicGiven-bundle",
  "type": "transaction",
  "entry": [ {
    "fullUrl": "https://madie.cms.gov/Encounter/d3ad89dd-943d-40f3-96dd-368c8b69c4ce",
    "resource": {
      "resourceType": "Encounter",
      "id": "d3ad89dd-943d-40f3-96dd-368c8b69c4ce",
      "meta": {
        "profile": [ "http://hl7.org/fhir/us/qicore/StructureDefinition/qicore-encounter" ]
      },
      "status": "finished",
      "class": {
        "system": "http://terminology.hl7.org/CodeSystem/v3-ActCode",
        "code": "IMP",
        "display": "Inpatient encounter"
      },
      "type": [ {
        "coding": [ {
          "system": "http://snomed.info/sct",
          "code": "183452005",
          "display": "Inpatient encounter"
        } ]
      } ],
      "period": {
        "start": "2026-07-11T08:00:00Z",
        "end": "2026-07-16T21:00:00Z"
      }
    },
    "request": {
      "method": "PUT",
      "url": "Encounter/d3ad89dd-943d-40f3-96dd-368c8b69c4ce"
    }
  }, {
    "fullUrl": "https://madie.cms.gov/Patient/5570227b-f288-4a0c-9df5-807d2afa241a",
    "resource": {
      "resourceType": "Patient",
      "id": "5570227b-f288-4a0c-9df5-807d2afa241a",
      "meta": {
        "profile": [ "http://hl7.org/fhir/us/qicore/StructureDefinition/qicore-patient" ]
      },
      "extension": [ {
        "url": "http://hl7.org/fhir/us/core/StructureDefinition/us-core-race",
        "extension": [ {
          "url": "ombCategory",
          "valueCoding": {
            "system": "urn:oid:2.16.840.1.113883.6.238",
            "code": "2106-3",
            "display": "White"
          }
        }, {
          "url": "text",
          "valueString": "White"
        } ]
      }, {
        "url": "http://hl7.org/fhir/us/core/StructureDefinition/us-core-ethnicity",
        "extension": [ {
          "url": "ombCategory",
          "valueCoding": {
            "system": "urn:oid:2.16.840.1.113883.6.238",
            "code": "2135-2",
            "display": "Hispanic or Latino"
          }
        }, {
          "url": "text",
          "valueString": "Hispanic or Latino"
        } ]
      }, {
        "url": "http://hl7.org/fhir/us/core/StructureDefinition/us-core-sex",
        "valueCode": "248153007"
      } ],
      "identifier": [ {
        "system": "http://hospital.smarthealthit.org",
        "value": "999999999"
      } ],
      "name": [ {
        "family": "Example",
        "given": [ "Patient" ]
      } ],
      "gender": "female",
      "birthDate": "2000-07-11"
    },
    "request": {
      "method": "PUT",
      "url": "Patient/5570227b-f288-4a0c-9df5-807d2afa241a"
    }
  }, {
    "fullUrl": "https://madie.cms.gov/MeasureReport/72d29304-e48a-47ba-a63e-b3fc0f1e5509",
    "resource": {
      "resourceType": "MeasureReport",
      "id": "72d29304-e48a-47ba-a63e-b3fc0f1e5509",
      "meta": {
        "profile": [ "http://hl7.org/fhir/us/cqfmeasures/StructureDefinition/test-case-cqfm" ]
      },
      "contained": [ {
        "resourceType": "Parameters",
        "id": "c084b663-5803-46b9-aa2c-eaf70c8e4783-parameters",
        "parameter": [ {
          "name": "subject",
          "valueString": "5570227b-f288-4a0c-9df5-807d2afa241a"
        } ]
      } ],
      "extension": [ {
        "url": "http://hl7.org/fhir/StructureDefinition/cqf-inputParameters",
        "valueReference": {
          "reference": "#c084b663-5803-46b9-aa2c-eaf70c8e4783-parameters"
        }
      }, {
        "url": "http://hl7.org/fhir/us/cqfmeasures/StructureDefinition/cqfm-testCaseDescription",
        "valueMarkdown": "Inpatient encounter with no hypoglycemic medication administered. Med is required to meet IPP."
      } ],
      "modifierExtension": [ {
        "url": "http://hl7.org/fhir/us/cqfmeasures/StructureDefinition/cqfm-isTestCase",
        "valueBoolean": true
      } ],
      "status": "complete",
      "type": "individual",
      "measure": "https://madie.cms.gov/Measure/CMS816FHIRHHHypo",
      "period": {
        "start": "2026-01-01",
        "end": "2026-12-31"
      },
      "group": [ {
        "id": "Group_1",
        "population": [ {
          "id": "InitialPopulation_1",
          "code": {
            "coding": [ {
              "system": "http://terminology.hl7.org/CodeSystem/measure-population",
              "code": "initial-population",
              "display": "Initial Population"
            } ]
          },
          "count": 0
        }, {
          "id": "Denominator_1",
          "code": {
            "coding": [ {
              "system": "http://terminology.hl7.org/CodeSystem/measure-population",
              "code": "denominator",
              "display": "Denominator"
            } ]
          },
          "count": 0
        }, {
          "id": "Numerator_1",
          "code": {
            "coding": [ {
              "system": "http://terminology.hl7.org/CodeSystem/measure-population",
              "code": "numerator",
              "display": "Numerator"
            } ]
          },
          "count": 0
        } ],
        "measureScore": {
          "value": 0.0
        }
      } ],
      "evaluatedResource": [ {
        "reference": "Encounter/d3ad89dd-943d-40f3-96dd-368c8b69c4ce"
      }, {
        "reference": "Patient/5570227b-f288-4a0c-9df5-807d2afa241a"
      } ]
    },
    "request": {
      "method": "PUT",
      "url": "MeasureReport/72d29304-e48a-47ba-a63e-b3fc0f1e5509"
    }
  } ]
}