{
  "resourceType": "Bundle",
  "id": "61095b0998086b53805591a5",
  "type": "transaction",
  "entry": [ {
    "fullUrl": "https://madie.cms.gov/Patient/5177b27f-59bc-460e-ae96-88a0baa325d5",
    "resource": {
      "resourceType": "Patient",
      "id": "5177b27f-59bc-460e-ae96-88a0baa325d5",
      "meta": {
        "profile": [ "http://hl7.org/fhir/us/qicore/StructureDefinition/qicore-patient" ]
      },
      "text": {
        "status": "generated",
        "div": "<div xmlns=\"http://www.w3.org/1999/xhtml\"><div class=\"hapiHeaderText\">Age@18 <b>DENOMPASS </b></div><table class=\"hapiPropertyTable\"><tbody><tr><td>Identifier</td><td>67f3e33acf17bcb386e754d726ed064ccd48ba21ff0ffb2eb678740a684398be</td></tr><tr><td>Date of birth</td><td><span>01 January 1994</span></td></tr></tbody></table></div>"
      },
      "extension": [ {
        "url": "http://hl7.org/fhir/us/core/StructureDefinition/us-core-race",
        "extension": [ {
          "url": "ombCategory",
          "valueCoding": {
            "system": "urn:oid:2.16.840.1.113883.6.238",
            "code": "1002-5",
            "display": "American Indian or Alaska Native",
            "userSelected": true
          }
        }, {
          "url": "text",
          "valueString": "American Indian or Alaska Native"
        } ]
      }, {
        "url": "http://hl7.org/fhir/us/core/StructureDefinition/us-core-ethnicity",
        "extension": [ {
          "url": "ombCategory",
          "valueCoding": {
            "system": "urn:oid:2.16.840.1.113883.6.238",
            "code": "2135-2",
            "display": "Hispanic or Latino",
            "userSelected": true
          }
        }, {
          "url": "text",
          "valueString": "Hispanic or Latino"
        } ]
      } ],
      "identifier": [ {
        "type": {
          "coding": [ {
            "system": "http://terminology.hl7.org/CodeSystem/v2-0203",
            "code": "MR"
          } ]
        },
        "system": "https://bonnie-fhir.healthit.gov/",
        "value": "61095b0998086b53805591a5"
      } ],
      "active": true,
      "name": [ {
        "use": "usual",
        "family": "DENEXPASS",
        "given": [ "BurnsOverlapsCatSurg" ]
      } ],
      "gender": "female",
      "birthDate": "1996-01-01"
    },
    "request": {
      "method": "PUT",
      "url": "Patient/5177b27f-59bc-460e-ae96-88a0baa325d5"
    }
  }, {
    "fullUrl": "https://madie.cms.gov/Observation/17aac187-7f76-42e3-adfd-8ba93090ba8f",
    "resource": {
      "resourceType": "Observation",
      "id": "17aac187-7f76-42e3-adfd-8ba93090ba8f",
      "meta": {
        "profile": [ "http://hl7.org/fhir/us/qicore/StructureDefinition/qicore-observation-clinical-result" ]
      },
      "status": "final",
      "category": [ {
        "coding": [ {
          "system": "http://terminology.hl7.org/CodeSystem/observation-category",
          "code": "exam",
          "display": "exam"
        } ]
      } ],
      "code": {
        "coding": [ {
          "system": "http://snomed.info/sct",
          "code": "419775003"
        } ]
      },
      "subject": {
        "reference": "Patient/5177b27f-59bc-460e-ae96-88a0baa325d5"
      },
      "effectivePeriod": {
        "start": "2026-03-13T09:00:00+00:00",
        "end": "2026-03-13T09:30:00+00:00"
      }
    },
    "request": {
      "method": "PUT",
      "url": "Observation/17aac187-7f76-42e3-adfd-8ba93090ba8f"
    }
  }, {
    "fullUrl": "https://madie.cms.gov/Procedure/1cc37ec8-7f97-408f-8430-86051be89484",
    "resource": {
      "resourceType": "Procedure",
      "id": "1cc37ec8-7f97-408f-8430-86051be89484",
      "meta": {
        "profile": [ "http://hl7.org/fhir/us/qicore/StructureDefinition/qicore-procedure" ]
      },
      "extension": [ {
        "url": "http://hl7.org/fhir/us/qicore/StructureDefinition/qicore-recorded",
        "valueDateTime": "2026-03-05T09:35:00-04:00"
      } ],
      "status": "completed",
      "code": {
        "coding": [ {
          "system": "http://snomed.info/sct",
          "code": "84149000"
        } ]
      },
      "subject": {
        "reference": "Patient/5177b27f-59bc-460e-ae96-88a0baa325d5"
      },
      "performedPeriod": {
        "start": "2026-03-05T09:20:00-04:00",
        "end": "2026-04-05T10:30:00-04:00"
      }
    },
    "request": {
      "method": "PUT",
      "url": "Procedure/1cc37ec8-7f97-408f-8430-86051be89484"
    }
  }, {
    "fullUrl": "https://madie.cms.gov/Condition/dee062a1-6f32-472b-a876-40b69baf941d",
    "resource": {
      "resourceType": "Condition",
      "id": "dee062a1-6f32-472b-a876-40b69baf941d",
      "meta": {
        "profile": [ "http://hl7.org/fhir/us/qicore/StructureDefinition/qicore-condition-problems-health-concerns" ]
      },
      "clinicalStatus": {
        "coding": [ {
          "system": "http://terminology.hl7.org/CodeSystem/condition-clinical",
          "code": "active",
          "display": "active",
          "userSelected": true
        } ]
      },
      "category": [ {
        "coding": [ {
          "system": "http://terminology.hl7.org/CodeSystem/condition-clinical",
          "code": "active",
          "display": "active",
          "userSelected": true
        } ]
      } ],
      "code": {
        "coding": [ {
          "system": "http://hl7.org/fhir/sid/icd-10-cm",
          "code": "T26.22XA",
          "userSelected": true
        }, {
          "system": "http://snomed.info/sct",
          "code": "418591009",
          "userSelected": true
        } ]
      },
      "subject": {
        "reference": "Patient/5177b27f-59bc-460e-ae96-88a0baa325d5"
      },
      "onsetDateTime": "2024-11-01T08:00:00.000+00:00"
    },
    "request": {
      "method": "PUT",
      "url": "Condition/dee062a1-6f32-472b-a876-40b69baf941d"
    }
  }, {
    "fullUrl": "https://madie.cms.gov/Coverage/00e22017-f4ab-476c-9e3d-9ff4d73e907b",
    "resource": {
      "resourceType": "Coverage",
      "id": "00e22017-f4ab-476c-9e3d-9ff4d73e907b",
      "meta": {
        "profile": [ "http://hl7.org/fhir/us/qicore/StructureDefinition/qicore-coverage" ]
      },
      "status": "active",
      "beneficiary": {
        "reference": "Patient/5177b27f-59bc-460e-ae96-88a0baa325d5"
      },
      "payor": [ {
        "reference": "Organization/ce21591d-d4f2-48f4-bd38-018f41497471"
      } ]
    },
    "request": {
      "method": "PUT",
      "url": "Coverage/00e22017-f4ab-476c-9e3d-9ff4d73e907b"
    }
  }, {
    "fullUrl": "https://madie.cms.gov/Organization/ce21591d-d4f2-48f4-bd38-018f41497471",
    "resource": {
      "resourceType": "Organization",
      "id": "ce21591d-d4f2-48f4-bd38-018f41497471",
      "meta": {
        "profile": [ "http://hl7.org/fhir/us/qicore/StructureDefinition/qicore-organization" ]
      },
      "identifier": [ {
        "use": "temp",
        "system": "urn:oid:2.16.840.1.113883.4.4",
        "value": "21-3259825"
      } ],
      "active": true,
      "type": [ {
        "coding": [ {
          "system": "http://terminology.hl7.org/CodeSystem/organization-type",
          "code": "pay",
          "display": "Payer"
        } ]
      } ],
      "name": "Blue Cross Blue Shield of Texas",
      "telecom": [ {
        "system": "phone",
        "value": "(+1) 972-766-6900"
      } ],
      "address": [ {
        "use": "billing",
        "type": "postal",
        "line": [ "P.O. Box 660044" ],
        "city": "Dallas",
        "state": "TX",
        "postalCode": "75266-0044",
        "country": "USA"
      } ]
    },
    "request": {
      "method": "PUT",
      "url": "Organization/ce21591d-d4f2-48f4-bd38-018f41497471"
    }
  }, {
    "fullUrl": "https://madie.cms.gov/Practitioner/633426f8-ce38-406a-bf6e-69f364520c64",
    "resource": {
      "resourceType": "Practitioner",
      "id": "633426f8-ce38-406a-bf6e-69f364520c64",
      "meta": {
        "profile": [ "http://hl7.org/fhir/us/qicore/StructureDefinition/qicore-practitioner" ]
      },
      "identifier": [ {
        "system": "http://hl7.org/fhir/sid/us-npi",
        "value": "123456"
      } ],
      "name": [ {
        "family": "Evil",
        "prefix": [ "Dr" ]
      } ]
    },
    "request": {
      "method": "PUT",
      "url": "Practitioner/633426f8-ce38-406a-bf6e-69f364520c64"
    }
  }, {
    "fullUrl": "https://madie.cms.gov/MeasureReport/6ddcdbb2-fc06-407d-9a57-c39d14b9a878",
    "resource": {
      "resourceType": "MeasureReport",
      "id": "6ddcdbb2-fc06-407d-9a57-c39d14b9a878",
      "meta": {
        "profile": [ "http://hl7.org/fhir/us/cqfmeasures/StructureDefinition/test-case-cqfm" ]
      },
      "contained": [ {
        "resourceType": "Parameters",
        "id": "1be9ed20-672a-453a-bdac-f034f1814b20-parameters",
        "parameter": [ {
          "name": "subject",
          "valueString": "5177b27f-59bc-460e-ae96-88a0baa325d5"
        } ]
      } ],
      "extension": [ {
        "url": "http://hl7.org/fhir/StructureDefinition/cqf-inputParameters",
        "valueReference": {
          "reference": "#1be9ed20-672a-453a-bdac-f034f1814b20-parameters"
        }
      }, {
        "url": "http://hl7.org/fhir/us/cqfmeasures/StructureDefinition/cqfm-testCaseDescription",
        "valueMarkdown": "Patient with burns of eye or adnexa overlapping cataract surgery. "
      } ],
      "modifierExtension": [ {
        "url": "http://hl7.org/fhir/us/cqfmeasures/StructureDefinition/cqfm-isTestCase",
        "valueBoolean": true
      } ],
      "status": "complete",
      "type": "individual",
      "measure": "https://madie.cms.gov/Measure/CMS133FHIRCataracts2040BCVAwithin90Days",
      "period": {
        "start": "2026-01-01",
        "end": "2026-12-31"
      },
      "group": [ {
        "id": "Group_1",
        "population": [ {
          "id": "InitialPopulation_1",
          "code": {
            "coding": [ {
              "system": "http://terminology.hl7.org/CodeSystem/measure-population",
              "code": "initial-population",
              "display": "Initial Population"
            } ]
          },
          "count": 1
        }, {
          "id": "Denominator_1",
          "code": {
            "coding": [ {
              "system": "http://terminology.hl7.org/CodeSystem/measure-population",
              "code": "denominator",
              "display": "Denominator"
            } ]
          },
          "count": 1
        }, {
          "id": "DenominatorExclusion_1",
          "code": {
            "coding": [ {
              "system": "http://terminology.hl7.org/CodeSystem/measure-population",
              "code": "denominator-exclusion",
              "display": "Denominator Exclusion"
            } ]
          },
          "count": 1
        }, {
          "id": "Numerator_1",
          "code": {
            "coding": [ {
              "system": "http://terminology.hl7.org/CodeSystem/measure-population",
              "code": "numerator",
              "display": "Numerator"
            } ]
          },
          "count": 0
        } ],
        "measureScore": {
          "value": 0.0
        }
      } ],
      "evaluatedResource": [ {
        "reference": "Patient/5177b27f-59bc-460e-ae96-88a0baa325d5"
      }, {
        "reference": "Observation/17aac187-7f76-42e3-adfd-8ba93090ba8f"
      }, {
        "reference": "Procedure/1cc37ec8-7f97-408f-8430-86051be89484"
      }, {
        "reference": "Condition/dee062a1-6f32-472b-a876-40b69baf941d"
      }, {
        "reference": "Coverage/00e22017-f4ab-476c-9e3d-9ff4d73e907b"
      }, {
        "reference": "Organization/ce21591d-d4f2-48f4-bd38-018f41497471"
      }, {
        "reference": "Practitioner/633426f8-ce38-406a-bf6e-69f364520c64"
      } ]
    },
    "request": {
      "method": "PUT",
      "url": "MeasureReport/6ddcdbb2-fc06-407d-9a57-c39d14b9a878"
    }
  } ]
}