{
  "resourceType": "Bundle",
  "id": "62fd4b700968f82603aac81c",
  "type": "transaction",
  "entry": [ {
    "fullUrl": "https://madie.cms.gov/Patient/f117390a-55f1-49b7-920a-c64d1934c89c",
    "resource": {
      "resourceType": "Patient",
      "id": "f117390a-55f1-49b7-920a-c64d1934c89c",
      "meta": {
        "profile": [ "http://hl7.org/fhir/us/qicore/StructureDefinition/qicore-patient" ]
      },
      "extension": [ {
        "url": "http://hl7.org/fhir/us/core/StructureDefinition/us-core-race",
        "extension": [ {
          "url": "ombCategory",
          "valueCoding": {
            "system": "urn:oid:2.16.840.1.113883.6.238",
            "code": "2076-8",
            "display": "Native Hawaiian or Other Pacific Islander",
            "userSelected": true
          }
        }, {
          "url": "text",
          "valueString": "Native Hawaiian or Other Pacific Islander"
        } ]
      }, {
        "url": "http://hl7.org/fhir/us/core/StructureDefinition/us-core-ethnicity",
        "extension": [ {
          "url": "ombCategory",
          "valueCoding": {
            "system": "urn:oid:2.16.840.1.113883.6.238",
            "code": "2186-5",
            "display": "Not Hispanic or Latino",
            "userSelected": true
          }
        }, {
          "url": "text",
          "valueString": "Not Hispanic or Latino"
        } ]
      } ],
      "identifier": [ {
        "type": {
          "coding": [ {
            "system": "http://terminology.hl7.org/CodeSystem/v2-0203",
            "code": "MR"
          } ]
        },
        "system": "https://bonnie-fhir.healthit.gov/",
        "value": "62fd4b700968f82603aac81c"
      } ],
      "name": [ {
        "family": "IPFail",
        "given": [ "EncOverlapsStartMP" ]
      } ],
      "gender": "female",
      "birthDate": "1973-02-25"
    },
    "request": {
      "method": "PUT",
      "url": "Patient/f117390a-55f1-49b7-920a-c64d1934c89c"
    }
  }, {
    "fullUrl": "https://madie.cms.gov/Encounter/65d8572f-bee2-4d4a-936f-40f8983b2dbe",
    "resource": {
      "resourceType": "Encounter",
      "id": "65d8572f-bee2-4d4a-936f-40f8983b2dbe",
      "meta": {
        "profile": [ "http://hl7.org/fhir/us/qicore/StructureDefinition/qicore-encounter" ]
      },
      "status": "finished",
      "class": {
        "system": "http://terminology.hl7.org/CodeSystem/v3-ActCode",
        "code": "AMB",
        "display": "ambulatory"
      },
      "type": [ {
        "coding": [ {
          "system": "http://www.ama-assn.org/go/cpt",
          "version": "2021",
          "code": "99385",
          "display": "Initial comprehensive preventive medicine evaluation and management of an individual including an age and gender appropriate history, examination, counseling/anticipatory guidance/risk factor reduction interventions, and the ordering of laboratory/diagnostic procedures, new patient; 18-39 years",
          "userSelected": true
        } ]
      } ],
      "subject": {
        "reference": "Patient/f117390a-55f1-49b7-920a-c64d1934c89c"
      },
      "period": {
        "start": "2025-12-31T23:00:00.000+00:00",
        "end": "2026-01-01T00:00:00.000+00:00"
      }
    },
    "request": {
      "method": "PUT",
      "url": "Encounter/65d8572f-bee2-4d4a-936f-40f8983b2dbe"
    }
  }, {
    "fullUrl": "https://madie.cms.gov/ServiceRequest/a89d6f68-8eec-419e-bed4-35bcf08994e0",
    "resource": {
      "resourceType": "ServiceRequest",
      "id": "a89d6f68-8eec-419e-bed4-35bcf08994e0",
      "meta": {
        "profile": [ "http://hl7.org/fhir/us/qicore/StructureDefinition/qicore-servicerequest" ]
      },
      "status": "active",
      "intent": "order",
      "code": {
        "coding": [ {
          "system": "http://snomed.info/sct",
          "version": "2022-03",
          "code": "103696004",
          "display": "Patient referral to specialist (procedure)",
          "userSelected": true
        } ]
      },
      "subject": {
        "reference": "Patient/f117390a-55f1-49b7-920a-c64d1934c89c"
      },
      "authoredOn": "2026-10-31T23:59:00.000+00:00"
    },
    "request": {
      "method": "PUT",
      "url": "ServiceRequest/a89d6f68-8eec-419e-bed4-35bcf08994e0"
    }
  }, {
    "fullUrl": "https://madie.cms.gov/Coverage/d04a2c08-1995-48d1-b9c1-5da57ecf0011",
    "resource": {
      "resourceType": "Coverage",
      "id": "d04a2c08-1995-48d1-b9c1-5da57ecf0011",
      "meta": {
        "profile": [ "http://hl7.org/fhir/us/qicore/StructureDefinition/qicore-coverage" ]
      },
      "status": "active",
      "beneficiary": {
        "reference": "Patient/f117390a-55f1-49b7-920a-c64d1934c89c"
      },
      "payor": [ {
        "reference": "Organization/8ce39200-2d67-4e02-a5d3-3a839a6fe2cb"
      } ]
    },
    "request": {
      "method": "PUT",
      "url": "Coverage/d04a2c08-1995-48d1-b9c1-5da57ecf0011"
    }
  }, {
    "fullUrl": "https://madie.cms.gov/Organization/8ce39200-2d67-4e02-a5d3-3a839a6fe2cb",
    "resource": {
      "resourceType": "Organization",
      "id": "8ce39200-2d67-4e02-a5d3-3a839a6fe2cb",
      "meta": {
        "profile": [ "http://hl7.org/fhir/us/qicore/StructureDefinition/qicore-organization" ]
      },
      "identifier": [ {
        "use": "temp",
        "system": "urn:oid:2.16.840.1.113883.4.4",
        "value": "21-3259825"
      } ],
      "active": true,
      "type": [ {
        "coding": [ {
          "system": "http://terminology.hl7.org/CodeSystem/organization-type",
          "code": "pay",
          "display": "Payer"
        } ]
      } ],
      "name": "Blue Cross Blue Shield of Texas",
      "telecom": [ {
        "system": "phone",
        "value": "(+1) 972-766-6900"
      } ],
      "address": [ {
        "use": "billing",
        "type": "postal",
        "line": [ "P.O. Box 660044" ],
        "city": "Dallas",
        "state": "TX",
        "postalCode": "75266-0044",
        "country": "USA"
      } ]
    },
    "request": {
      "method": "PUT",
      "url": "Organization/8ce39200-2d67-4e02-a5d3-3a839a6fe2cb"
    }
  }, {
    "fullUrl": "https://madie.cms.gov/Practitioner/2f061a1e-d74f-4384-85d2-40414994d439",
    "resource": {
      "resourceType": "Practitioner",
      "id": "2f061a1e-d74f-4384-85d2-40414994d439",
      "meta": {
        "profile": [ "http://hl7.org/fhir/us/qicore/StructureDefinition/qicore-practitioner" ]
      },
      "identifier": [ {
        "system": "http://hl7.org/fhir/sid/us-npi",
        "value": "123456"
      } ],
      "name": [ {
        "family": "Evil",
        "prefix": [ "Dr" ]
      } ]
    },
    "request": {
      "method": "PUT",
      "url": "Practitioner/2f061a1e-d74f-4384-85d2-40414994d439"
    }
  }, {
    "fullUrl": "https://madie.cms.gov/MeasureReport/be5e32b6-88aa-4940-b3b4-f70be40561f7",
    "resource": {
      "resourceType": "MeasureReport",
      "id": "be5e32b6-88aa-4940-b3b4-f70be40561f7",
      "meta": {
        "profile": [ "http://hl7.org/fhir/us/cqfmeasures/StructureDefinition/test-case-cqfm" ]
      },
      "contained": [ {
        "resourceType": "Parameters",
        "id": "62986ff8-3cec-4229-8e37-ac69e41841d9-parameters",
        "parameter": [ {
          "name": "subject",
          "valueString": "f117390a-55f1-49b7-920a-c64d1934c89c"
        } ]
      } ],
      "extension": [ {
        "url": "http://hl7.org/fhir/StructureDefinition/cqf-inputParameters",
        "valueReference": {
          "reference": "#62986ff8-3cec-4229-8e37-ac69e41841d9-parameters"
        }
      }, {
        "url": "http://hl7.org/fhir/us/cqfmeasures/StructureDefinition/cqfm-testCaseDescription",
        "valueMarkdown": "Encounter overlaps MP (\"start\" : \"202x-12-31T23:00:00.000+00:00\",\"end\" : \"202x-01-01T00:00:00.000+00:00\") with status finished valid Referral (\"202x-10-31T23:59:00.000+00:00\") Status Active Intent Order\n\n\n\n"
      } ],
      "modifierExtension": [ {
        "url": "http://hl7.org/fhir/us/cqfmeasures/StructureDefinition/cqfm-isTestCase",
        "valueBoolean": true
      } ],
      "status": "complete",
      "type": "individual",
      "measure": "https://madie.cms.gov/Measure/CMS50FHIRCRLReceiptofSpecialistReport",
      "period": {
        "start": "2026-01-01",
        "end": "2026-12-31"
      },
      "group": [ {
        "id": "Group_1",
        "population": [ {
          "id": "InitialPopulation_1",
          "code": {
            "coding": [ {
              "system": "http://terminology.hl7.org/CodeSystem/measure-population",
              "code": "initial-population",
              "display": "Initial Population"
            } ]
          },
          "count": 0
        }, {
          "id": "Denominator_1",
          "code": {
            "coding": [ {
              "system": "http://terminology.hl7.org/CodeSystem/measure-population",
              "code": "denominator",
              "display": "Denominator"
            } ]
          },
          "count": 0
        }, {
          "id": "Numerator_1",
          "code": {
            "coding": [ {
              "system": "http://terminology.hl7.org/CodeSystem/measure-population",
              "code": "numerator",
              "display": "Numerator"
            } ]
          },
          "count": 0
        } ],
        "measureScore": {
          "value": 1.0
        }
      } ],
      "evaluatedResource": [ {
        "reference": "Patient/f117390a-55f1-49b7-920a-c64d1934c89c"
      }, {
        "reference": "Encounter/65d8572f-bee2-4d4a-936f-40f8983b2dbe"
      }, {
        "reference": "ServiceRequest/a89d6f68-8eec-419e-bed4-35bcf08994e0"
      }, {
        "reference": "Coverage/d04a2c08-1995-48d1-b9c1-5da57ecf0011"
      }, {
        "reference": "Organization/8ce39200-2d67-4e02-a5d3-3a839a6fe2cb"
      }, {
        "reference": "Practitioner/2f061a1e-d74f-4384-85d2-40414994d439"
      } ]
    },
    "request": {
      "method": "PUT",
      "url": "MeasureReport/be5e32b6-88aa-4940-b3b4-f70be40561f7"
    }
  } ]
}