{
  "resourceType": "Bundle",
  "id": "62fd4b670968f8012246b12a",
  "type": "transaction",
  "entry": [ {
    "fullUrl": "https://madie.cms.gov/Patient/25b1e840-7e85-4140-9c1b-773d4daa6dee",
    "resource": {
      "resourceType": "Patient",
      "id": "25b1e840-7e85-4140-9c1b-773d4daa6dee",
      "meta": {
        "profile": [ "http://hl7.org/fhir/us/qicore/StructureDefinition/qicore-patient" ]
      },
      "extension": [ {
        "url": "http://hl7.org/fhir/us/core/StructureDefinition/us-core-ethnicity",
        "extension": [ {
          "url": "ombCategory",
          "valueCoding": {
            "system": "urn:oid:2.16.840.1.113883.6.238",
            "code": "2135-2",
            "display": "Hispanic or Latino",
            "userSelected": true
          }
        }, {
          "url": "text",
          "valueString": "Hispanic or Latino"
        } ]
      } ],
      "identifier": [ {
        "type": {
          "coding": [ {
            "system": "http://terminology.hl7.org/CodeSystem/v2-0203",
            "code": "MR"
          } ]
        },
        "system": "https://bonnie-fhir.healthit.gov/",
        "value": "62fd4b670968f8012246b12a"
      } ],
      "name": [ {
        "family": "IPFail",
        "given": [ "ReferralAfterRefPeriodNextMP" ]
      } ],
      "gender": "unknown",
      "birthDate": "1991-07-01"
    },
    "request": {
      "method": "PUT",
      "url": "Patient/25b1e840-7e85-4140-9c1b-773d4daa6dee"
    }
  }, {
    "fullUrl": "https://madie.cms.gov/ServiceRequest/157182e9-72b8-40fc-9229-d2aeab8dbd0b",
    "resource": {
      "resourceType": "ServiceRequest",
      "id": "157182e9-72b8-40fc-9229-d2aeab8dbd0b",
      "meta": {
        "profile": [ "http://hl7.org/fhir/us/qicore/StructureDefinition/qicore-servicerequest" ]
      },
      "status": "active",
      "intent": "order",
      "code": {
        "coding": [ {
          "system": "http://snomed.info/sct",
          "version": "2022-03",
          "code": "103696004",
          "display": "Patient referral to specialist (procedure)",
          "userSelected": true
        } ]
      },
      "subject": {
        "reference": "Patient/25b1e840-7e85-4140-9c1b-773d4daa6dee"
      },
      "authoredOn": "2027-01-01T00:00:00.000+00:00"
    },
    "request": {
      "method": "PUT",
      "url": "ServiceRequest/157182e9-72b8-40fc-9229-d2aeab8dbd0b"
    }
  }, {
    "fullUrl": "https://madie.cms.gov/Encounter/e1ad2373-d848-43be-a962-b0198f5b5729",
    "resource": {
      "resourceType": "Encounter",
      "id": "e1ad2373-d848-43be-a962-b0198f5b5729",
      "meta": {
        "profile": [ "http://hl7.org/fhir/us/qicore/StructureDefinition/qicore-encounter" ]
      },
      "status": "finished",
      "class": {
        "system": "http://terminology.hl7.org/CodeSystem/v3-ActCode",
        "code": "AMB",
        "display": "ambulatory"
      },
      "type": [ {
        "coding": [ {
          "system": "http://www.ama-assn.org/go/cpt",
          "version": "2021",
          "code": "99381",
          "display": "Initial comprehensive preventive medicine evaluation and management of an individual including an age and gender appropriate history, examination, counseling/anticipatory guidance/risk factor reduction interventions, and the ordering of laboratory/diagnostic procedures, new patient; infant (age younger than 1 year)",
          "userSelected": true
        } ]
      } ],
      "subject": {
        "reference": "Patient/25b1e840-7e85-4140-9c1b-773d4daa6dee"
      },
      "period": {
        "start": "2026-12-31T23:00:00.000+00:00",
        "end": "2026-12-31T23:59:00.000+00:00"
      }
    },
    "request": {
      "method": "PUT",
      "url": "Encounter/e1ad2373-d848-43be-a962-b0198f5b5729"
    }
  }, {
    "fullUrl": "https://madie.cms.gov/Coverage/7b98a661-2d1c-4b2d-9bf2-78c6815c515a",
    "resource": {
      "resourceType": "Coverage",
      "id": "7b98a661-2d1c-4b2d-9bf2-78c6815c515a",
      "meta": {
        "profile": [ "http://hl7.org/fhir/us/qicore/StructureDefinition/qicore-coverage" ]
      },
      "status": "active",
      "beneficiary": {
        "reference": "Patient/25b1e840-7e85-4140-9c1b-773d4daa6dee"
      },
      "payor": [ {
        "reference": "Organization/21d909a5-01dd-410b-b32f-5161b8ad481a"
      } ]
    },
    "request": {
      "method": "PUT",
      "url": "Coverage/7b98a661-2d1c-4b2d-9bf2-78c6815c515a"
    }
  }, {
    "fullUrl": "https://madie.cms.gov/Organization/21d909a5-01dd-410b-b32f-5161b8ad481a",
    "resource": {
      "resourceType": "Organization",
      "id": "21d909a5-01dd-410b-b32f-5161b8ad481a",
      "meta": {
        "profile": [ "http://hl7.org/fhir/us/qicore/StructureDefinition/qicore-organization" ]
      },
      "identifier": [ {
        "use": "temp",
        "system": "urn:oid:2.16.840.1.113883.4.4",
        "value": "21-3259825"
      } ],
      "active": true,
      "type": [ {
        "coding": [ {
          "system": "http://terminology.hl7.org/CodeSystem/organization-type",
          "code": "pay",
          "display": "Payer"
        } ]
      } ],
      "name": "Blue Cross Blue Shield of Texas",
      "telecom": [ {
        "system": "phone",
        "value": "(+1) 972-766-6900"
      } ],
      "address": [ {
        "use": "billing",
        "type": "postal",
        "line": [ "P.O. Box 660044" ],
        "city": "Dallas",
        "state": "TX",
        "postalCode": "75266-0044",
        "country": "USA"
      } ]
    },
    "request": {
      "method": "PUT",
      "url": "Organization/21d909a5-01dd-410b-b32f-5161b8ad481a"
    }
  }, {
    "fullUrl": "https://madie.cms.gov/Practitioner/a6c9d795-3993-43ee-b22c-5b0855be3dc3",
    "resource": {
      "resourceType": "Practitioner",
      "id": "a6c9d795-3993-43ee-b22c-5b0855be3dc3",
      "meta": {
        "profile": [ "http://hl7.org/fhir/us/qicore/StructureDefinition/qicore-practitioner" ]
      },
      "identifier": [ {
        "system": "http://hl7.org/fhir/sid/us-npi",
        "value": "123456"
      } ],
      "name": [ {
        "family": "Evil",
        "prefix": [ "Dr" ]
      } ]
    },
    "request": {
      "method": "PUT",
      "url": "Practitioner/a6c9d795-3993-43ee-b22c-5b0855be3dc3"
    }
  }, {
    "fullUrl": "https://madie.cms.gov/MeasureReport/a1c103f4-1a97-4d67-b2bf-88cfa8aca97c",
    "resource": {
      "resourceType": "MeasureReport",
      "id": "a1c103f4-1a97-4d67-b2bf-88cfa8aca97c",
      "meta": {
        "profile": [ "http://hl7.org/fhir/us/cqfmeasures/StructureDefinition/test-case-cqfm" ]
      },
      "contained": [ {
        "resourceType": "Parameters",
        "id": "0a8649f2-307d-4e5f-9f5a-c92fc80e00f4-parameters",
        "parameter": [ {
          "name": "subject",
          "valueString": "25b1e840-7e85-4140-9c1b-773d4daa6dee"
        } ]
      } ],
      "extension": [ {
        "url": "http://hl7.org/fhir/StructureDefinition/cqf-inputParameters",
        "valueReference": {
          "reference": "#0a8649f2-307d-4e5f-9f5a-c92fc80e00f4-parameters"
        }
      }, {
        "url": "http://hl7.org/fhir/us/cqfmeasures/StructureDefinition/cqfm-testCaseDescription",
        "valueMarkdown": "Encounter after MP (12/31  ends at 23:59) status finished Referral Status Active Intent Order after Referral period (\"202x-01-01T00:00:00.000+00:00\")"
      } ],
      "modifierExtension": [ {
        "url": "http://hl7.org/fhir/us/cqfmeasures/StructureDefinition/cqfm-isTestCase",
        "valueBoolean": true
      } ],
      "status": "complete",
      "type": "individual",
      "measure": "https://madie.cms.gov/Measure/CMS50FHIRCRLReceiptofSpecialistReport",
      "period": {
        "start": "2026-01-01",
        "end": "2026-12-31"
      },
      "group": [ {
        "id": "Group_1",
        "population": [ {
          "id": "InitialPopulation_1",
          "code": {
            "coding": [ {
              "system": "http://terminology.hl7.org/CodeSystem/measure-population",
              "code": "initial-population",
              "display": "Initial Population"
            } ]
          },
          "count": 0
        }, {
          "id": "Denominator_1",
          "code": {
            "coding": [ {
              "system": "http://terminology.hl7.org/CodeSystem/measure-population",
              "code": "denominator",
              "display": "Denominator"
            } ]
          },
          "count": 0
        }, {
          "id": "Numerator_1",
          "code": {
            "coding": [ {
              "system": "http://terminology.hl7.org/CodeSystem/measure-population",
              "code": "numerator",
              "display": "Numerator"
            } ]
          },
          "count": 0
        } ],
        "measureScore": {
          "value": 1.0
        }
      } ],
      "evaluatedResource": [ {
        "reference": "Patient/25b1e840-7e85-4140-9c1b-773d4daa6dee"
      }, {
        "reference": "ServiceRequest/157182e9-72b8-40fc-9229-d2aeab8dbd0b"
      }, {
        "reference": "Encounter/e1ad2373-d848-43be-a962-b0198f5b5729"
      }, {
        "reference": "Coverage/7b98a661-2d1c-4b2d-9bf2-78c6815c515a"
      }, {
        "reference": "Organization/21d909a5-01dd-410b-b32f-5161b8ad481a"
      }, {
        "reference": "Practitioner/a6c9d795-3993-43ee-b22c-5b0855be3dc3"
      } ]
    },
    "request": {
      "method": "PUT",
      "url": "MeasureReport/a1c103f4-1a97-4d67-b2bf-88cfa8aca97c"
    }
  } ]
}