{"resourceType":"Bundle","id":"tests-a4eb4933-e343-4e4b-b4bd-f582c42979be-bundle","type":"transaction","entry":[{"resource":{"resourceType":"Practitioner","id":"4244360a-ae2b-4153-a0ea-440d2194a262","meta":{"profile":["http://hl7.org/fhir/us/qicore/StructureDefinition/qicore-practitioner"]},"identifier":[{"system":"http://hl7.org/fhir/sid/us-npi","value":"123456"}],"name":[{"family":"Evil","prefix":["Dr"]}]},"request":{"method":"PUT","url":"Practitioner/4244360a-ae2b-4153-a0ea-440d2194a262"}},{"resource":{"resourceType":"Patient","id":"a4eb4933-e343-4e4b-b4bd-f582c42979be","meta":{"profile":["http://hl7.org/fhir/us/qicore/StructureDefinition/qicore-patient"]},"extension":[{"url":"http://hl7.org/fhir/us/core/StructureDefinition/us-core-race","extension":[{"url":"ombCategory","valueCoding":{"system":"urn:oid:2.16.840.1.113883.6.238","code":"2028-9","display":"Asian","userSelected":true}},{"url":"text","valueString":"Asian"}]},{"url":"http://hl7.org/fhir/us/core/StructureDefinition/us-core-ethnicity","extension":[{"url":"ombCategory","valueCoding":{"system":"urn:oid:2.16.840.1.113883.6.238","code":"2186-5","display":"Not Hispanic or Latino","userSelected":true}},{"url":"text","valueString":"Not Hispanic or Latino"}]},{"url":"http://hl7.org/fhir/us/core/StructureDefinition/us-core-sex","valueCode":"248153007"}],"identifier":[{"type":{"coding":[{"system":"http://terminology.hl7.org/CodeSystem/v2-0203","code":"MR"}]},"system":"https://bonnie-fhir.healthit.gov/","value":"62fd4b660968f8012246b012"}],"name":[{"family":"IPFail","given":["EncounterInvalidStatus"]}],"gender":"male","birthDate":"1989-11-29"},"request":{"method":"PUT","url":"Patient/a4eb4933-e343-4e4b-b4bd-f582c42979be"}},{"resource":{"resourceType":"MeasureReport","id":"d4499068-35ed-49da-93f2-d4b9843a308c","meta":{"profile":["http://hl7.org/fhir/us/cqfmeasures/StructureDefinition/test-case-cqfm"]},"contained":[{"resourceType":"Parameters","id":"4f1c4d53-c9c4-4d6f-acf1-6ef0ad382aab-parameters","parameter":[{"name":"subject","valueString":"a4eb4933-e343-4e4b-b4bd-f582c42979be"}]}],"extension":[{"url":"http://hl7.org/fhir/StructureDefinition/cqf-inputParameters","valueReference":{"reference":"#4f1c4d53-c9c4-4d6f-acf1-6ef0ad382aab-parameters"}},{"url":"http://hl7.org/fhir/us/cqfmeasures/StructureDefinition/cqfm-testCaseDescription","valueMarkdown":"Encounter during MP,  invalid status arrived,   Referral Status Active Intent Order during Referral period"}],"modifierExtension":[{"url":"http://hl7.org/fhir/us/cqfmeasures/StructureDefinition/cqfm-isTestCase","valueBoolean":true}],"status":"complete","type":"individual","measure":"https://madie.cms.gov/Measure/CMS50FHIRCRLReceiptofSpecialistReport","period":{"start":"2026-01-01","end":"2026-12-31"},"group":[{"id":"Group_1","population":[{"id":"InitialPopulation_1","code":{"coding":[{"system":"http://terminology.hl7.org/CodeSystem/measure-population","code":"initial-population","display":"Initial Population"}]},"count":0},{"id":"Denominator_1","code":{"coding":[{"system":"http://terminology.hl7.org/CodeSystem/measure-population","code":"denominator","display":"Denominator"}]},"count":0},{"id":"Numerator_1","code":{"coding":[{"system":"http://terminology.hl7.org/CodeSystem/measure-population","code":"numerator","display":"Numerator"}]},"count":0}],"measureScore":{"value":1.0}}],"evaluatedResource":[{"reference":"Patient/a4eb4933-e343-4e4b-b4bd-f582c42979be"},{"reference":"ServiceRequest/ccf68ce0-b9d2-4df7-90a2-d71a07f13b80"},{"reference":"Encounter/a98daf4f-e46f-4bd6-9ba6-369f5d73f2d0"},{"reference":"Coverage/76a8970f-ecd5-4447-b1c7-ccadeb681839"},{"reference":"Organization/45f25b12-8da9-4d9d-857d-66e250bf461b"},{"reference":"Practitioner/4244360a-ae2b-4153-a0ea-440d2194a262"}]},"request":{"method":"PUT","url":"MeasureReport/d4499068-35ed-49da-93f2-d4b9843a308c"}},{"resource":{"resourceType":"Bundle","id":"62fd4b660968f8012246b012","type":"transaction","entry":[{"fullUrl":"https://madie.cms.gov/Patient/a4eb4933-e343-4e4b-b4bd-f582c42979be","resource":{"resourceType":"Patient","id":"a4eb4933-e343-4e4b-b4bd-f582c42979be","meta":{"profile":["http://hl7.org/fhir/us/qicore/StructureDefinition/qicore-patient"]},"extension":[{"url":"http://hl7.org/fhir/us/core/StructureDefinition/us-core-race","extension":[{"url":"ombCategory","valueCoding":{"system":"urn:oid:2.16.840.1.113883.6.238","code":"2028-9","display":"Asian","userSelected":true}},{"url":"text","valueString":"Asian"}]},{"url":"http://hl7.org/fhir/us/core/StructureDefinition/us-core-ethnicity","extension":[{"url":"ombCategory","valueCoding":{"system":"urn:oid:2.16.840.1.113883.6.238","code":"2186-5","display":"Not Hispanic or Latino","userSelected":true}},{"url":"text","valueString":"Not Hispanic or Latino"}]},{"url":"http://hl7.org/fhir/us/core/StructureDefinition/us-core-sex","valueCode":"248153007"}],"identifier":[{"type":{"coding":[{"system":"http://terminology.hl7.org/CodeSystem/v2-0203","code":"MR"}]},"system":"https://bonnie-fhir.healthit.gov/","value":"62fd4b660968f8012246b012"}],"name":[{"family":"IPFail","given":["EncounterInvalidStatus"]}],"gender":"male","birthDate":"1989-11-29"},"request":{"method":"PUT","url":"Patient/a4eb4933-e343-4e4b-b4bd-f582c42979be"}},{"fullUrl":"https://madie.cms.gov/ServiceRequest/ccf68ce0-b9d2-4df7-90a2-d71a07f13b80","resource":{"resourceType":"ServiceRequest","id":"ccf68ce0-b9d2-4df7-90a2-d71a07f13b80","meta":{"profile":["http://hl7.org/fhir/us/qicore/StructureDefinition/qicore-servicerequest"]},"status":"completed","intent":"order","code":{"coding":[{"system":"http://snomed.info/sct","version":"2022-03","code":"103696004","display":"Patient referral to specialist (procedure)","userSelected":true}]},"subject":{"reference":"Patient/a4eb4933-e343-4e4b-b4bd-f582c42979be"},"authoredOn":"2026-08-08T08:00:00.000+00:00"},"request":{"method":"PUT","url":"ServiceRequest/ccf68ce0-b9d2-4df7-90a2-d71a07f13b80"}},{"fullUrl":"https://madie.cms.gov/Encounter/a98daf4f-e46f-4bd6-9ba6-369f5d73f2d0","resource":{"resourceType":"Encounter","id":"a98daf4f-e46f-4bd6-9ba6-369f5d73f2d0","meta":{"profile":["http://hl7.org/fhir/us/qicore/StructureDefinition/qicore-encounter"]},"status":"arrived","class":{"system":"http://terminology.hl7.org/CodeSystem/v3-ActCode","code":"AMB","display":"ambulatory"},"type":[{"coding":[{"system":"http://www.ama-assn.org/go/cpt","version":"2021","code":"99391","display":"Periodic comprehensive preventive medicine reevaluation and management of an individual including an age and gender appropriate history, examination, counseling/anticipatory guidance/risk factor reduction interventions, and the ordering of laboratory/diagnostic procedures, established patient; infant (age younger than 1 year)","userSelected":true}]}],"subject":{"reference":"Patient/a4eb4933-e343-4e4b-b4bd-f582c42979be"},"period":{"start":"2026-12-31T00:00:00.000+00:00","end":"2026-12-31T00:59:00.000+00:00"}},"request":{"method":"PUT","url":"Encounter/a98daf4f-e46f-4bd6-9ba6-369f5d73f2d0"}},{"fullUrl":"https://madie.cms.gov/Coverage/76a8970f-ecd5-4447-b1c7-ccadeb681839","resource":{"resourceType":"Coverage","id":"76a8970f-ecd5-4447-b1c7-ccadeb681839","meta":{"profile":["http://hl7.org/fhir/us/qicore/StructureDefinition/qicore-coverage"]},"status":"active","beneficiary":{"reference":"Patient/a4eb4933-e343-4e4b-b4bd-f582c42979be"},"payor":[{"reference":"Organization/45f25b12-8da9-4d9d-857d-66e250bf461b"}]},"request":{"method":"PUT","url":"Coverage/76a8970f-ecd5-4447-b1c7-ccadeb681839"}},{"fullUrl":"https://madie.cms.gov/Organization/45f25b12-8da9-4d9d-857d-66e250bf461b","resource":{"resourceType":"Organization","id":"45f25b12-8da9-4d9d-857d-66e250bf461b","meta":{"profile":["http://hl7.org/fhir/us/qicore/StructureDefinition/qicore-organization"]},"identifier":[{"use":"temp","system":"urn:oid:2.16.840.1.113883.4.4","value":"21-3259825"}],"active":true,"type":[{"coding":[{"system":"http://terminology.hl7.org/CodeSystem/organization-type","code":"pay","display":"Payer"}]}],"name":"Blue Cross Blue Shield of Texas","telecom":[{"system":"phone","value":"(+1) 972-766-6900"}],"address":[{"use":"billing","type":"postal","line":["P.O. Box 660044"],"city":"Dallas","state":"TX","postalCode":"75266-0044","country":"USA"}]},"request":{"method":"PUT","url":"Organization/45f25b12-8da9-4d9d-857d-66e250bf461b"}},{"fullUrl":"https://madie.cms.gov/Practitioner/4244360a-ae2b-4153-a0ea-440d2194a262","resource":{"resourceType":"Practitioner","id":"4244360a-ae2b-4153-a0ea-440d2194a262","meta":{"profile":["http://hl7.org/fhir/us/qicore/StructureDefinition/qicore-practitioner"]},"identifier":[{"system":"http://hl7.org/fhir/sid/us-npi","value":"123456"}],"name":[{"family":"Evil","prefix":["Dr"]}]},"request":{"method":"PUT","url":"Practitioner/4244360a-ae2b-4153-a0ea-440d2194a262"}},{"fullUrl":"https://madie.cms.gov/MeasureReport/d4499068-35ed-49da-93f2-d4b9843a308c","resource":{"resourceType":"MeasureReport","id":"d4499068-35ed-49da-93f2-d4b9843a308c","meta":{"profile":["http://hl7.org/fhir/us/cqfmeasures/StructureDefinition/test-case-cqfm"]},"contained":[{"resourceType":"Parameters","id":"4f1c4d53-c9c4-4d6f-acf1-6ef0ad382aab-parameters","parameter":[{"name":"subject","valueString":"a4eb4933-e343-4e4b-b4bd-f582c42979be"}]}],"extension":[{"url":"http://hl7.org/fhir/StructureDefinition/cqf-inputParameters","valueReference":{"reference":"#4f1c4d53-c9c4-4d6f-acf1-6ef0ad382aab-parameters"}},{"url":"http://hl7.org/fhir/us/cqfmeasures/StructureDefinition/cqfm-testCaseDescription","valueMarkdown":"Encounter during MP,  invalid status arrived,   Referral Status Active Intent Order during Referral period"}],"modifierExtension":[{"url":"http://hl7.org/fhir/us/cqfmeasures/StructureDefinition/cqfm-isTestCase","valueBoolean":true}],"status":"complete","type":"individual","measure":"https://madie.cms.gov/Measure/CMS50FHIRCRLReceiptofSpecialistReport","period":{"start":"2026-01-01","end":"2026-12-31"},"group":[{"id":"Group_1","population":[{"id":"InitialPopulation_1","code":{"coding":[{"system":"http://terminology.hl7.org/CodeSystem/measure-population","code":"initial-population","display":"Initial Population"}]},"count":0},{"id":"Denominator_1","code":{"coding":[{"system":"http://terminology.hl7.org/CodeSystem/measure-population","code":"denominator","display":"Denominator"}]},"count":0},{"id":"Numerator_1","code":{"coding":[{"system":"http://terminology.hl7.org/CodeSystem/measure-population","code":"numerator","display":"Numerator"}]},"count":0}],"measureScore":{"value":1.0}}],"evaluatedResource":[{"reference":"Patient/a4eb4933-e343-4e4b-b4bd-f582c42979be"},{"reference":"ServiceRequest/ccf68ce0-b9d2-4df7-90a2-d71a07f13b80"},{"reference":"Encounter/a98daf4f-e46f-4bd6-9ba6-369f5d73f2d0"},{"reference":"Coverage/76a8970f-ecd5-4447-b1c7-ccadeb681839"},{"reference":"Organization/45f25b12-8da9-4d9d-857d-66e250bf461b"},{"reference":"Practitioner/4244360a-ae2b-4153-a0ea-440d2194a262"}]},"request":{"method":"PUT","url":"MeasureReport/d4499068-35ed-49da-93f2-d4b9843a308c"}}]},"request":{"method":"PUT","url":"Bundle/62fd4b660968f8012246b012"}},{"resource":{"resourceType":"ServiceRequest","id":"ccf68ce0-b9d2-4df7-90a2-d71a07f13b80","meta":{"profile":["http://hl7.org/fhir/us/qicore/StructureDefinition/qicore-servicerequest"]},"status":"completed","intent":"order","code":{"coding":[{"system":"http://snomed.info/sct","version":"2022-03","code":"103696004","display":"Patient referral to specialist (procedure)","userSelected":true}]},"subject":{"reference":"Patient/a4eb4933-e343-4e4b-b4bd-f582c42979be"},"authoredOn":"2026-08-08T08:00:00.000+00:00"},"request":{"method":"PUT","url":"ServiceRequest/ccf68ce0-b9d2-4df7-90a2-d71a07f13b80"}},{"resource":{"resourceType":"Encounter","id":"a98daf4f-e46f-4bd6-9ba6-369f5d73f2d0","meta":{"profile":["http://hl7.org/fhir/us/qicore/StructureDefinition/qicore-encounter"]},"status":"arrived","class":{"system":"http://terminology.hl7.org/CodeSystem/v3-ActCode","code":"AMB","display":"ambulatory"},"type":[{"coding":[{"system":"http://www.ama-assn.org/go/cpt","version":"2021","code":"99391","display":"Periodic comprehensive preventive medicine reevaluation and management of an individual including an age and gender appropriate history, examination, counseling/anticipatory guidance/risk factor reduction interventions, and the ordering of laboratory/diagnostic procedures, established patient; infant (age younger than 1 year)","userSelected":true}]}],"subject":{"reference":"Patient/a4eb4933-e343-4e4b-b4bd-f582c42979be"},"period":{"start":"2026-12-31T00:00:00.000+00:00","end":"2026-12-31T00:59:00.000+00:00"}},"request":{"method":"PUT","url":"Encounter/a98daf4f-e46f-4bd6-9ba6-369f5d73f2d0"}},{"resource":{"resourceType":"Coverage","id":"76a8970f-ecd5-4447-b1c7-ccadeb681839","meta":{"profile":["http://hl7.org/fhir/us/qicore/StructureDefinition/qicore-coverage"]},"status":"active","beneficiary":{"reference":"Patient/a4eb4933-e343-4e4b-b4bd-f582c42979be"},"payor":[{"reference":"Organization/45f25b12-8da9-4d9d-857d-66e250bf461b"}]},"request":{"method":"PUT","url":"Coverage/76a8970f-ecd5-4447-b1c7-ccadeb681839"}},{"resource":{"resourceType":"Organization","id":"45f25b12-8da9-4d9d-857d-66e250bf461b","meta":{"profile":["http://hl7.org/fhir/us/qicore/StructureDefinition/qicore-organization"]},"identifier":[{"use":"temp","system":"urn:oid:2.16.840.1.113883.4.4","value":"21-3259825"}],"active":true,"type":[{"coding":[{"system":"http://terminology.hl7.org/CodeSystem/organization-type","code":"pay","display":"Payer"}]}],"name":"Blue Cross Blue Shield of Texas","telecom":[{"system":"phone","value":"(+1) 972-766-6900"}],"address":[{"use":"billing","type":"postal","line":["P.O. Box 660044"],"city":"Dallas","state":"TX","postalCode":"75266-0044","country":"USA"}]},"request":{"method":"PUT","url":"Organization/45f25b12-8da9-4d9d-857d-66e250bf461b"}}]}