{"resourceType":"Bundle","id":"tests-0fbfcffb-d7b0-4956-b860-22bac50ca7ea-bundle","type":"transaction","entry":[{"resource":{"resourceType":"Bundle","id":"62fd4b670968f8012246b12a","type":"transaction","entry":[{"fullUrl":"https://madie.cms.gov/Patient/0fbfcffb-d7b0-4956-b860-22bac50ca7ea","resource":{"resourceType":"Patient","id":"0fbfcffb-d7b0-4956-b860-22bac50ca7ea","meta":{"profile":["http://hl7.org/fhir/us/qicore/StructureDefinition/qicore-patient"]},"extension":[{"url":"http://hl7.org/fhir/us/core/StructureDefinition/us-core-ethnicity","extension":[{"url":"ombCategory","valueCoding":{"system":"urn:oid:2.16.840.1.113883.6.238","code":"2135-2","display":"Hispanic or Latino","userSelected":true}},{"url":"text","valueString":"Hispanic or Latino"}]}],"identifier":[{"type":{"coding":[{"system":"http://terminology.hl7.org/CodeSystem/v2-0203","code":"MR"}]},"system":"https://bonnie-fhir.healthit.gov/","value":"62fd4b670968f8012246b12a"}],"name":[{"family":"IPFail","given":["ReferralAfterRefPeriod"]}],"gender":"unknown","birthDate":"1991-07-01"},"request":{"method":"PUT","url":"Patient/0fbfcffb-d7b0-4956-b860-22bac50ca7ea"}},{"fullUrl":"https://madie.cms.gov/ServiceRequest/ac247d5b-5acc-4ef5-a3ba-c44b88a94ee3","resource":{"resourceType":"ServiceRequest","id":"ac247d5b-5acc-4ef5-a3ba-c44b88a94ee3","meta":{"profile":["http://hl7.org/fhir/us/qicore/StructureDefinition/qicore-servicerequest"]},"status":"active","intent":"order","code":{"coding":[{"system":"http://snomed.info/sct","version":"2022-03","code":"103696004","display":"Patient referral to specialist (procedure)","userSelected":true}]},"subject":{"reference":"Patient/0fbfcffb-d7b0-4956-b860-22bac50ca7ea"},"authoredOn":"2026-11-01T00:00:00.000+00:00"},"request":{"method":"PUT","url":"ServiceRequest/ac247d5b-5acc-4ef5-a3ba-c44b88a94ee3"}},{"fullUrl":"https://madie.cms.gov/Encounter/b021fd37-6ba2-4f39-bfac-46436aafcd12","resource":{"resourceType":"Encounter","id":"b021fd37-6ba2-4f39-bfac-46436aafcd12","meta":{"profile":["http://hl7.org/fhir/us/qicore/StructureDefinition/qicore-encounter"]},"status":"finished","class":{"system":"http://terminology.hl7.org/CodeSystem/v3-ActCode","code":"AMB","display":"ambulatory"},"type":[{"coding":[{"system":"http://www.ama-assn.org/go/cpt","version":"2021","code":"99381","display":"Initial comprehensive preventive medicine evaluation and management of an individual including an age and gender appropriate history, examination, counseling/anticipatory guidance/risk factor reduction interventions, and the ordering of laboratory/diagnostic procedures, new patient; infant (age younger than 1 year)","userSelected":true}]}],"subject":{"reference":"Patient/0fbfcffb-d7b0-4956-b860-22bac50ca7ea"},"period":{"start":"2026-12-31T23:00:00.000+00:00","end":"2026-12-31T23:59:00.000+00:00"}},"request":{"method":"PUT","url":"Encounter/b021fd37-6ba2-4f39-bfac-46436aafcd12"}},{"fullUrl":"https://madie.cms.gov/Coverage/7f34d9fc-3e45-4ff9-bfce-27bb32091572","resource":{"resourceType":"Coverage","id":"7f34d9fc-3e45-4ff9-bfce-27bb32091572","meta":{"profile":["http://hl7.org/fhir/us/qicore/StructureDefinition/qicore-coverage"]},"status":"active","beneficiary":{"reference":"Patient/0fbfcffb-d7b0-4956-b860-22bac50ca7ea"},"payor":[{"reference":"Organization/5bad8a22-09b1-499d-a08f-579d2cb48387"}]},"request":{"method":"PUT","url":"Coverage/7f34d9fc-3e45-4ff9-bfce-27bb32091572"}},{"fullUrl":"https://madie.cms.gov/Organization/5bad8a22-09b1-499d-a08f-579d2cb48387","resource":{"resourceType":"Organization","id":"5bad8a22-09b1-499d-a08f-579d2cb48387","meta":{"profile":["http://hl7.org/fhir/us/qicore/StructureDefinition/qicore-organization"]},"identifier":[{"use":"temp","system":"urn:oid:2.16.840.1.113883.4.4","value":"21-3259825"}],"active":true,"type":[{"coding":[{"system":"http://terminology.hl7.org/CodeSystem/organization-type","code":"pay","display":"Payer"}]}],"name":"Blue Cross Blue Shield of Texas","telecom":[{"system":"phone","value":"(+1) 972-766-6900"}],"address":[{"use":"billing","type":"postal","line":["P.O. Box 660044"],"city":"Dallas","state":"TX","postalCode":"75266-0044","country":"USA"}]},"request":{"method":"PUT","url":"Organization/5bad8a22-09b1-499d-a08f-579d2cb48387"}},{"fullUrl":"https://madie.cms.gov/Practitioner/b19cb26d-fdca-4daa-8b86-1ca869337b4f","resource":{"resourceType":"Practitioner","id":"b19cb26d-fdca-4daa-8b86-1ca869337b4f","meta":{"profile":["http://hl7.org/fhir/us/qicore/StructureDefinition/qicore-practitioner"]},"identifier":[{"system":"http://hl7.org/fhir/sid/us-npi","value":"123456"}],"name":[{"family":"Evil","prefix":["Dr"]}]},"request":{"method":"PUT","url":"Practitioner/b19cb26d-fdca-4daa-8b86-1ca869337b4f"}},{"fullUrl":"https://madie.cms.gov/MeasureReport/f2033d7e-e2ce-4066-a696-5f06b162d257","resource":{"resourceType":"MeasureReport","id":"f2033d7e-e2ce-4066-a696-5f06b162d257","meta":{"profile":["http://hl7.org/fhir/us/cqfmeasures/StructureDefinition/test-case-cqfm"]},"contained":[{"resourceType":"Parameters","id":"858b1c1c-07de-44bb-8df7-8e0630234289-parameters","parameter":[{"name":"subject","valueString":"0fbfcffb-d7b0-4956-b860-22bac50ca7ea"}]}],"extension":[{"url":"http://hl7.org/fhir/StructureDefinition/cqf-inputParameters","valueReference":{"reference":"#858b1c1c-07de-44bb-8df7-8e0630234289-parameters"}},{"url":"http://hl7.org/fhir/us/cqfmeasures/StructureDefinition/cqfm-testCaseDescription","valueMarkdown":"Encounter during MP (12/31 ends at 23:59) status finished Referral Status Active Intent Order after Referral period (\"202x-11-01T00:00:00.000+00:00\")\n"}],"modifierExtension":[{"url":"http://hl7.org/fhir/us/cqfmeasures/StructureDefinition/cqfm-isTestCase","valueBoolean":true}],"status":"complete","type":"individual","measure":"https://madie.cms.gov/Measure/CMS50FHIRCRLReceiptofSpecialistReport","period":{"start":"2026-01-01","end":"2026-12-31"},"group":[{"id":"Group_1","population":[{"id":"InitialPopulation_1","code":{"coding":[{"system":"http://terminology.hl7.org/CodeSystem/measure-population","code":"initial-population","display":"Initial Population"}]},"count":0},{"id":"Denominator_1","code":{"coding":[{"system":"http://terminology.hl7.org/CodeSystem/measure-population","code":"denominator","display":"Denominator"}]},"count":0},{"id":"Numerator_1","code":{"coding":[{"system":"http://terminology.hl7.org/CodeSystem/measure-population","code":"numerator","display":"Numerator"}]},"count":0}],"measureScore":{"value":1.0}}],"evaluatedResource":[{"reference":"Patient/0fbfcffb-d7b0-4956-b860-22bac50ca7ea"},{"reference":"ServiceRequest/ac247d5b-5acc-4ef5-a3ba-c44b88a94ee3"},{"reference":"Encounter/b021fd37-6ba2-4f39-bfac-46436aafcd12"},{"reference":"Coverage/7f34d9fc-3e45-4ff9-bfce-27bb32091572"},{"reference":"Organization/5bad8a22-09b1-499d-a08f-579d2cb48387"},{"reference":"Practitioner/b19cb26d-fdca-4daa-8b86-1ca869337b4f"}]},"request":{"method":"PUT","url":"MeasureReport/f2033d7e-e2ce-4066-a696-5f06b162d257"}}]},"request":{"method":"PUT","url":"Bundle/62fd4b670968f8012246b12a"}},{"resource":{"resourceType":"Coverage","id":"7f34d9fc-3e45-4ff9-bfce-27bb32091572","meta":{"profile":["http://hl7.org/fhir/us/qicore/StructureDefinition/qicore-coverage"]},"status":"active","beneficiary":{"reference":"Patient/0fbfcffb-d7b0-4956-b860-22bac50ca7ea"},"payor":[{"reference":"Organization/5bad8a22-09b1-499d-a08f-579d2cb48387"}]},"request":{"method":"PUT","url":"Coverage/7f34d9fc-3e45-4ff9-bfce-27bb32091572"}},{"resource":{"resourceType":"Encounter","id":"b021fd37-6ba2-4f39-bfac-46436aafcd12","meta":{"profile":["http://hl7.org/fhir/us/qicore/StructureDefinition/qicore-encounter"]},"status":"finished","class":{"system":"http://terminology.hl7.org/CodeSystem/v3-ActCode","code":"AMB","display":"ambulatory"},"type":[{"coding":[{"system":"http://www.ama-assn.org/go/cpt","version":"2021","code":"99381","display":"Initial comprehensive preventive medicine evaluation and management of an individual including an age and gender appropriate history, examination, counseling/anticipatory guidance/risk factor reduction interventions, and the ordering of laboratory/diagnostic procedures, new patient; infant (age younger than 1 year)","userSelected":true}]}],"subject":{"reference":"Patient/0fbfcffb-d7b0-4956-b860-22bac50ca7ea"},"period":{"start":"2026-12-31T23:00:00.000+00:00","end":"2026-12-31T23:59:00.000+00:00"}},"request":{"method":"PUT","url":"Encounter/b021fd37-6ba2-4f39-bfac-46436aafcd12"}},{"resource":{"resourceType":"MeasureReport","id":"f2033d7e-e2ce-4066-a696-5f06b162d257","meta":{"profile":["http://hl7.org/fhir/us/cqfmeasures/StructureDefinition/test-case-cqfm"]},"contained":[{"resourceType":"Parameters","id":"858b1c1c-07de-44bb-8df7-8e0630234289-parameters","parameter":[{"name":"subject","valueString":"0fbfcffb-d7b0-4956-b860-22bac50ca7ea"}]}],"extension":[{"url":"http://hl7.org/fhir/StructureDefinition/cqf-inputParameters","valueReference":{"reference":"#858b1c1c-07de-44bb-8df7-8e0630234289-parameters"}},{"url":"http://hl7.org/fhir/us/cqfmeasures/StructureDefinition/cqfm-testCaseDescription","valueMarkdown":"Encounter during MP (12/31 ends at 23:59) status finished Referral Status Active Intent Order after Referral period (\"202x-11-01T00:00:00.000+00:00\")\n"}],"modifierExtension":[{"url":"http://hl7.org/fhir/us/cqfmeasures/StructureDefinition/cqfm-isTestCase","valueBoolean":true}],"status":"complete","type":"individual","measure":"https://madie.cms.gov/Measure/CMS50FHIRCRLReceiptofSpecialistReport","period":{"start":"2026-01-01","end":"2026-12-31"},"group":[{"id":"Group_1","population":[{"id":"InitialPopulation_1","code":{"coding":[{"system":"http://terminology.hl7.org/CodeSystem/measure-population","code":"initial-population","display":"Initial Population"}]},"count":0},{"id":"Denominator_1","code":{"coding":[{"system":"http://terminology.hl7.org/CodeSystem/measure-population","code":"denominator","display":"Denominator"}]},"count":0},{"id":"Numerator_1","code":{"coding":[{"system":"http://terminology.hl7.org/CodeSystem/measure-population","code":"numerator","display":"Numerator"}]},"count":0}],"measureScore":{"value":1.0}}],"evaluatedResource":[{"reference":"Patient/0fbfcffb-d7b0-4956-b860-22bac50ca7ea"},{"reference":"ServiceRequest/ac247d5b-5acc-4ef5-a3ba-c44b88a94ee3"},{"reference":"Encounter/b021fd37-6ba2-4f39-bfac-46436aafcd12"},{"reference":"Coverage/7f34d9fc-3e45-4ff9-bfce-27bb32091572"},{"reference":"Organization/5bad8a22-09b1-499d-a08f-579d2cb48387"},{"reference":"Practitioner/b19cb26d-fdca-4daa-8b86-1ca869337b4f"}]},"request":{"method":"PUT","url":"MeasureReport/f2033d7e-e2ce-4066-a696-5f06b162d257"}},{"resource":{"resourceType":"Organization","id":"5bad8a22-09b1-499d-a08f-579d2cb48387","meta":{"profile":["http://hl7.org/fhir/us/qicore/StructureDefinition/qicore-organization"]},"identifier":[{"use":"temp","system":"urn:oid:2.16.840.1.113883.4.4","value":"21-3259825"}],"active":true,"type":[{"coding":[{"system":"http://terminology.hl7.org/CodeSystem/organization-type","code":"pay","display":"Payer"}]}],"name":"Blue Cross Blue Shield of Texas","telecom":[{"system":"phone","value":"(+1) 972-766-6900"}],"address":[{"use":"billing","type":"postal","line":["P.O. Box 660044"],"city":"Dallas","state":"TX","postalCode":"75266-0044","country":"USA"}]},"request":{"method":"PUT","url":"Organization/5bad8a22-09b1-499d-a08f-579d2cb48387"}},{"resource":{"resourceType":"Patient","id":"0fbfcffb-d7b0-4956-b860-22bac50ca7ea","meta":{"profile":["http://hl7.org/fhir/us/qicore/StructureDefinition/qicore-patient"]},"extension":[{"url":"http://hl7.org/fhir/us/core/StructureDefinition/us-core-ethnicity","extension":[{"url":"ombCategory","valueCoding":{"system":"urn:oid:2.16.840.1.113883.6.238","code":"2135-2","display":"Hispanic or Latino","userSelected":true}},{"url":"text","valueString":"Hispanic or Latino"}]}],"identifier":[{"type":{"coding":[{"system":"http://terminology.hl7.org/CodeSystem/v2-0203","code":"MR"}]},"system":"https://bonnie-fhir.healthit.gov/","value":"62fd4b670968f8012246b12a"}],"name":[{"family":"IPFail","given":["ReferralAfterRefPeriod"]}],"gender":"unknown","birthDate":"1991-07-01"},"request":{"method":"PUT","url":"Patient/0fbfcffb-d7b0-4956-b860-22bac50ca7ea"}},{"resource":{"resourceType":"Practitioner","id":"b19cb26d-fdca-4daa-8b86-1ca869337b4f","meta":{"profile":["http://hl7.org/fhir/us/qicore/StructureDefinition/qicore-practitioner"]},"identifier":[{"system":"http://hl7.org/fhir/sid/us-npi","value":"123456"}],"name":[{"family":"Evil","prefix":["Dr"]}]},"request":{"method":"PUT","url":"Practitioner/b19cb26d-fdca-4daa-8b86-1ca869337b4f"}},{"resource":{"resourceType":"ServiceRequest","id":"ac247d5b-5acc-4ef5-a3ba-c44b88a94ee3","meta":{"profile":["http://hl7.org/fhir/us/qicore/StructureDefinition/qicore-servicerequest"]},"status":"active","intent":"order","code":{"coding":[{"system":"http://snomed.info/sct","version":"2022-03","code":"103696004","display":"Patient referral to specialist (procedure)","userSelected":true}]},"subject":{"reference":"Patient/0fbfcffb-d7b0-4956-b860-22bac50ca7ea"},"authoredOn":"2026-11-01T00:00:00.000+00:00"},"request":{"method":"PUT","url":"ServiceRequest/ac247d5b-5acc-4ef5-a3ba-c44b88a94ee3"}}]}