{"resourceType":"Bundle","id":"tests-8e1e9821-1176-4dd0-a361-1931cbc5029e-bundle","type":"transaction","entry":[{"resource":{"resourceType":"Bundle","id":"62fd4b660968f8012246afda","type":"transaction","entry":[{"fullUrl":"https://madie.cms.gov/Patient/8e1e9821-1176-4dd0-a361-1931cbc5029e","resource":{"resourceType":"Patient","id":"8e1e9821-1176-4dd0-a361-1931cbc5029e","meta":{"profile":["http://hl7.org/fhir/us/qicore/StructureDefinition/qicore-patient"]},"extension":[{"url":"http://hl7.org/fhir/us/core/StructureDefinition/us-core-race","extension":[{"url":"ombCategory","valueCoding":{"system":"urn:oid:2.16.840.1.113883.6.238","code":"2106-3","display":"White","userSelected":true}},{"url":"text","valueString":"White"}]},{"url":"http://hl7.org/fhir/us/core/StructureDefinition/us-core-ethnicity","extension":[{"url":"ombCategory","valueCoding":{"system":"urn:oid:2.16.840.1.113883.6.238","code":"2186-5","display":"Not Hispanic or Latino","userSelected":true}},{"url":"text","valueString":"Not Hispanic or Latino"}]}],"identifier":[{"type":{"coding":[{"system":"http://terminology.hl7.org/CodeSystem/v2-0203","code":"MR"}]},"system":"https://bonnie-fhir.healthit.gov/","value":"62fd4b660968f8012246afda"}],"name":[{"family":"DenomPass","given":["ReferralDayEndRefPeriod"]}],"gender":"other","birthDate":"2001-06-02"},"request":{"method":"PUT","url":"Patient/8e1e9821-1176-4dd0-a361-1931cbc5029e"}},{"fullUrl":"https://madie.cms.gov/ServiceRequest/fd75b1fd-4c80-44e2-b7d4-67775160cc29","resource":{"resourceType":"ServiceRequest","id":"fd75b1fd-4c80-44e2-b7d4-67775160cc29","meta":{"profile":["http://hl7.org/fhir/us/qicore/StructureDefinition/qicore-servicerequest"]},"status":"active","intent":"order","code":{"coding":[{"system":"http://snomed.info/sct","version":"2022-03","code":"103696004","display":"Patient referral to specialist (procedure)","userSelected":true}]},"subject":{"reference":"Patient/8e1e9821-1176-4dd0-a361-1931cbc5029e"},"authoredOn":"2026-10-31T23:59:00.000+00:00"},"request":{"method":"PUT","url":"ServiceRequest/fd75b1fd-4c80-44e2-b7d4-67775160cc29"}},{"fullUrl":"https://madie.cms.gov/Encounter/0a5ed290-2c7f-4361-a92a-51a0ab4b7511","resource":{"resourceType":"Encounter","id":"0a5ed290-2c7f-4361-a92a-51a0ab4b7511","meta":{"profile":["http://hl7.org/fhir/us/qicore/StructureDefinition/qicore-encounter"]},"status":"finished","class":{"system":"http://terminology.hl7.org/CodeSystem/v3-ActCode","code":"AMB","display":"ambulatory"},"type":[{"coding":[{"system":"http://www.ama-assn.org/go/cpt","version":"2021","code":"99381","display":"Initial comprehensive preventive medicine evaluation and management of an individual including an age and gender appropriate history, examination, counseling/anticipatory guidance/risk factor reduction interventions, and the ordering of laboratory/diagnostic procedures, new patient; infant (age younger than 1 year)","userSelected":true}]}],"subject":{"reference":"Patient/8e1e9821-1176-4dd0-a361-1931cbc5029e"},"period":{"start":"2026-12-31T23:00:00.000+00:00","end":"2026-12-31T23:59:00.000+00:00"}},"request":{"method":"PUT","url":"Encounter/0a5ed290-2c7f-4361-a92a-51a0ab4b7511"}},{"fullUrl":"https://madie.cms.gov/Coverage/1ed4f034-6e32-46d2-b088-4f590eb819ec","resource":{"resourceType":"Coverage","id":"1ed4f034-6e32-46d2-b088-4f590eb819ec","meta":{"profile":["http://hl7.org/fhir/us/qicore/StructureDefinition/qicore-coverage"]},"status":"active","beneficiary":{"reference":"Patient/8e1e9821-1176-4dd0-a361-1931cbc5029e"},"payor":[{"reference":"Organization/98710e56-53d2-4818-9d55-832fd468ca8b"}]},"request":{"method":"PUT","url":"Coverage/1ed4f034-6e32-46d2-b088-4f590eb819ec"}},{"fullUrl":"https://madie.cms.gov/Organization/98710e56-53d2-4818-9d55-832fd468ca8b","resource":{"resourceType":"Organization","id":"98710e56-53d2-4818-9d55-832fd468ca8b","meta":{"profile":["http://hl7.org/fhir/us/qicore/StructureDefinition/qicore-organization"]},"identifier":[{"use":"temp","system":"urn:oid:2.16.840.1.113883.4.4","value":"21-3259825"}],"active":true,"type":[{"coding":[{"system":"http://terminology.hl7.org/CodeSystem/organization-type","code":"pay","display":"Payer"}]}],"name":"Blue Cross Blue Shield of Texas","telecom":[{"system":"phone","value":"(+1) 972-766-6900"}],"address":[{"use":"billing","type":"postal","line":["P.O. Box 660044"],"city":"Dallas","state":"TX","postalCode":"75266-0044","country":"USA"}]},"request":{"method":"PUT","url":"Organization/98710e56-53d2-4818-9d55-832fd468ca8b"}},{"fullUrl":"https://madie.cms.gov/Practitioner/189edf4f-44ed-4061-9b4b-f307c4269021","resource":{"resourceType":"Practitioner","id":"189edf4f-44ed-4061-9b4b-f307c4269021","meta":{"profile":["http://hl7.org/fhir/us/qicore/StructureDefinition/qicore-practitioner"]},"identifier":[{"system":"http://hl7.org/fhir/sid/us-npi","value":"123456"}],"name":[{"family":"Evil","prefix":["Dr"]}]},"request":{"method":"PUT","url":"Practitioner/189edf4f-44ed-4061-9b4b-f307c4269021"}},{"fullUrl":"https://madie.cms.gov/MeasureReport/3fe6c468-a5dc-4258-9aaf-d0516dd7f78c","resource":{"resourceType":"MeasureReport","id":"3fe6c468-a5dc-4258-9aaf-d0516dd7f78c","meta":{"profile":["http://hl7.org/fhir/us/cqfmeasures/StructureDefinition/test-case-cqfm"]},"contained":[{"resourceType":"Parameters","id":"bc840d47-889e-4a12-81ca-3d51aaba6ba4-parameters","parameter":[{"name":"subject","valueString":"8e1e9821-1176-4dd0-a361-1931cbc5029e"}]}],"extension":[{"url":"http://hl7.org/fhir/StructureDefinition/cqf-inputParameters","valueReference":{"reference":"#bc840d47-889e-4a12-81ca-3d51aaba6ba4-parameters"}},{"url":"http://hl7.org/fhir/us/cqfmeasures/StructureDefinition/cqfm-testCaseDescription","valueMarkdown":"Encounter on last day of MP status finished, Referral Status Active. Intent Order, Edge test of Referral Period 10/31 11:59 PM "}],"modifierExtension":[{"url":"http://hl7.org/fhir/us/cqfmeasures/StructureDefinition/cqfm-isTestCase","valueBoolean":true}],"status":"complete","type":"individual","measure":"https://madie.cms.gov/Measure/CMS50FHIRCRLReceiptofSpecialistReport","period":{"start":"2026-01-01","end":"2026-12-31"},"group":[{"id":"Group_1","population":[{"id":"InitialPopulation_1","code":{"coding":[{"system":"http://terminology.hl7.org/CodeSystem/measure-population","code":"initial-population","display":"Initial Population"}]},"count":1},{"id":"Denominator_1","code":{"coding":[{"system":"http://terminology.hl7.org/CodeSystem/measure-population","code":"denominator","display":"Denominator"}]},"count":1},{"id":"Numerator_1","code":{"coding":[{"system":"http://terminology.hl7.org/CodeSystem/measure-population","code":"numerator","display":"Numerator"}]},"count":0}],"measureScore":{"value":1}}],"evaluatedResource":[{"reference":"Patient/8e1e9821-1176-4dd0-a361-1931cbc5029e"},{"reference":"ServiceRequest/fd75b1fd-4c80-44e2-b7d4-67775160cc29"},{"reference":"Encounter/0a5ed290-2c7f-4361-a92a-51a0ab4b7511"},{"reference":"Coverage/1ed4f034-6e32-46d2-b088-4f590eb819ec"},{"reference":"Organization/98710e56-53d2-4818-9d55-832fd468ca8b"},{"reference":"Practitioner/189edf4f-44ed-4061-9b4b-f307c4269021"}]},"request":{"method":"PUT","url":"MeasureReport/3fe6c468-a5dc-4258-9aaf-d0516dd7f78c"}}]},"request":{"method":"PUT","url":"Bundle/62fd4b660968f8012246afda"}},{"resource":{"resourceType":"Coverage","id":"1ed4f034-6e32-46d2-b088-4f590eb819ec","meta":{"profile":["http://hl7.org/fhir/us/qicore/StructureDefinition/qicore-coverage"]},"status":"active","beneficiary":{"reference":"Patient/8e1e9821-1176-4dd0-a361-1931cbc5029e"},"payor":[{"reference":"Organization/98710e56-53d2-4818-9d55-832fd468ca8b"}]},"request":{"method":"PUT","url":"Coverage/1ed4f034-6e32-46d2-b088-4f590eb819ec"}},{"resource":{"resourceType":"Encounter","id":"0a5ed290-2c7f-4361-a92a-51a0ab4b7511","meta":{"profile":["http://hl7.org/fhir/us/qicore/StructureDefinition/qicore-encounter"]},"status":"finished","class":{"system":"http://terminology.hl7.org/CodeSystem/v3-ActCode","code":"AMB","display":"ambulatory"},"type":[{"coding":[{"system":"http://www.ama-assn.org/go/cpt","version":"2021","code":"99381","display":"Initial comprehensive preventive medicine evaluation and management of an individual including an age and gender appropriate history, examination, counseling/anticipatory guidance/risk factor reduction interventions, and the ordering of laboratory/diagnostic procedures, new patient; infant (age younger than 1 year)","userSelected":true}]}],"subject":{"reference":"Patient/8e1e9821-1176-4dd0-a361-1931cbc5029e"},"period":{"start":"2026-12-31T23:00:00.000+00:00","end":"2026-12-31T23:59:00.000+00:00"}},"request":{"method":"PUT","url":"Encounter/0a5ed290-2c7f-4361-a92a-51a0ab4b7511"}},{"resource":{"resourceType":"MeasureReport","id":"3fe6c468-a5dc-4258-9aaf-d0516dd7f78c","meta":{"profile":["http://hl7.org/fhir/us/cqfmeasures/StructureDefinition/test-case-cqfm"]},"contained":[{"resourceType":"Parameters","id":"bc840d47-889e-4a12-81ca-3d51aaba6ba4-parameters","parameter":[{"name":"subject","valueString":"8e1e9821-1176-4dd0-a361-1931cbc5029e"}]}],"extension":[{"url":"http://hl7.org/fhir/StructureDefinition/cqf-inputParameters","valueReference":{"reference":"#bc840d47-889e-4a12-81ca-3d51aaba6ba4-parameters"}},{"url":"http://hl7.org/fhir/us/cqfmeasures/StructureDefinition/cqfm-testCaseDescription","valueMarkdown":"Encounter on last day of MP status finished, Referral Status Active. Intent Order, Edge test of Referral Period 10/31 11:59 PM "}],"modifierExtension":[{"url":"http://hl7.org/fhir/us/cqfmeasures/StructureDefinition/cqfm-isTestCase","valueBoolean":true}],"status":"complete","type":"individual","measure":"https://madie.cms.gov/Measure/CMS50FHIRCRLReceiptofSpecialistReport","period":{"start":"2026-01-01","end":"2026-12-31"},"group":[{"id":"Group_1","population":[{"id":"InitialPopulation_1","code":{"coding":[{"system":"http://terminology.hl7.org/CodeSystem/measure-population","code":"initial-population","display":"Initial Population"}]},"count":1},{"id":"Denominator_1","code":{"coding":[{"system":"http://terminology.hl7.org/CodeSystem/measure-population","code":"denominator","display":"Denominator"}]},"count":1},{"id":"Numerator_1","code":{"coding":[{"system":"http://terminology.hl7.org/CodeSystem/measure-population","code":"numerator","display":"Numerator"}]},"count":0}],"measureScore":{"value":1}}],"evaluatedResource":[{"reference":"Patient/8e1e9821-1176-4dd0-a361-1931cbc5029e"},{"reference":"ServiceRequest/fd75b1fd-4c80-44e2-b7d4-67775160cc29"},{"reference":"Encounter/0a5ed290-2c7f-4361-a92a-51a0ab4b7511"},{"reference":"Coverage/1ed4f034-6e32-46d2-b088-4f590eb819ec"},{"reference":"Organization/98710e56-53d2-4818-9d55-832fd468ca8b"},{"reference":"Practitioner/189edf4f-44ed-4061-9b4b-f307c4269021"}]},"request":{"method":"PUT","url":"MeasureReport/3fe6c468-a5dc-4258-9aaf-d0516dd7f78c"}},{"resource":{"resourceType":"Organization","id":"98710e56-53d2-4818-9d55-832fd468ca8b","meta":{"profile":["http://hl7.org/fhir/us/qicore/StructureDefinition/qicore-organization"]},"identifier":[{"use":"temp","system":"urn:oid:2.16.840.1.113883.4.4","value":"21-3259825"}],"active":true,"type":[{"coding":[{"system":"http://terminology.hl7.org/CodeSystem/organization-type","code":"pay","display":"Payer"}]}],"name":"Blue Cross Blue Shield of Texas","telecom":[{"system":"phone","value":"(+1) 972-766-6900"}],"address":[{"use":"billing","type":"postal","line":["P.O. Box 660044"],"city":"Dallas","state":"TX","postalCode":"75266-0044","country":"USA"}]},"request":{"method":"PUT","url":"Organization/98710e56-53d2-4818-9d55-832fd468ca8b"}},{"resource":{"resourceType":"Patient","id":"8e1e9821-1176-4dd0-a361-1931cbc5029e","meta":{"profile":["http://hl7.org/fhir/us/qicore/StructureDefinition/qicore-patient"]},"extension":[{"url":"http://hl7.org/fhir/us/core/StructureDefinition/us-core-race","extension":[{"url":"ombCategory","valueCoding":{"system":"urn:oid:2.16.840.1.113883.6.238","code":"2106-3","display":"White","userSelected":true}},{"url":"text","valueString":"White"}]},{"url":"http://hl7.org/fhir/us/core/StructureDefinition/us-core-ethnicity","extension":[{"url":"ombCategory","valueCoding":{"system":"urn:oid:2.16.840.1.113883.6.238","code":"2186-5","display":"Not Hispanic or Latino","userSelected":true}},{"url":"text","valueString":"Not Hispanic or Latino"}]}],"identifier":[{"type":{"coding":[{"system":"http://terminology.hl7.org/CodeSystem/v2-0203","code":"MR"}]},"system":"https://bonnie-fhir.healthit.gov/","value":"62fd4b660968f8012246afda"}],"name":[{"family":"DenomPass","given":["ReferralDayEndRefPeriod"]}],"gender":"other","birthDate":"2001-06-02"},"request":{"method":"PUT","url":"Patient/8e1e9821-1176-4dd0-a361-1931cbc5029e"}},{"resource":{"resourceType":"Practitioner","id":"189edf4f-44ed-4061-9b4b-f307c4269021","meta":{"profile":["http://hl7.org/fhir/us/qicore/StructureDefinition/qicore-practitioner"]},"identifier":[{"system":"http://hl7.org/fhir/sid/us-npi","value":"123456"}],"name":[{"family":"Evil","prefix":["Dr"]}]},"request":{"method":"PUT","url":"Practitioner/189edf4f-44ed-4061-9b4b-f307c4269021"}},{"resource":{"resourceType":"ServiceRequest","id":"fd75b1fd-4c80-44e2-b7d4-67775160cc29","meta":{"profile":["http://hl7.org/fhir/us/qicore/StructureDefinition/qicore-servicerequest"]},"status":"active","intent":"order","code":{"coding":[{"system":"http://snomed.info/sct","version":"2022-03","code":"103696004","display":"Patient referral to specialist (procedure)","userSelected":true}]},"subject":{"reference":"Patient/8e1e9821-1176-4dd0-a361-1931cbc5029e"},"authoredOn":"2026-10-31T23:59:00.000+00:00"},"request":{"method":"PUT","url":"ServiceRequest/fd75b1fd-4c80-44e2-b7d4-67775160cc29"}}]}