{"resourceType":"Bundle","id":"tests-e25e1d4a-6240-4bd6-8d8a-2773e7a920b6-bundle","type":"transaction","entry":[{"resource":{"resourceType":"Bundle","id":"62fd4b710968f82603aac854","type":"transaction","entry":[{"fullUrl":"https://madie.cms.gov/Patient/e25e1d4a-6240-4bd6-8d8a-2773e7a920b6","resource":{"resourceType":"Patient","id":"e25e1d4a-6240-4bd6-8d8a-2773e7a920b6","meta":{"profile":["http://hl7.org/fhir/us/qicore/StructureDefinition/qicore-patient"]},"extension":[{"url":"http://hl7.org/fhir/us/core/StructureDefinition/us-core-race","extension":[{"url":"ombCategory","valueCoding":{"system":"urn:oid:2.16.840.1.113883.6.238","code":"2054-5","display":"Black or African American","userSelected":true}},{"url":"text","valueString":"Black or African American"}]},{"url":"http://hl7.org/fhir/us/core/StructureDefinition/us-core-ethnicity","extension":[{"url":"ombCategory","valueCoding":{"system":"urn:oid:2.16.840.1.113883.6.238","code":"2186-5","display":"Not Hispanic or Latino","userSelected":true}},{"url":"text","valueString":"Not Hispanic or Latino"}]}],"identifier":[{"type":{"coding":[{"system":"http://terminology.hl7.org/CodeSystem/v2-0203","code":"MR"}]},"system":"https://bonnie-fhir.healthit.gov/","value":"62fd4b710968f82603aac854"}],"name":[{"family":"IPFail","given":["EncOverlapsEndMP"]}],"gender":"female","birthDate":"2001-12-31"},"request":{"method":"PUT","url":"Patient/e25e1d4a-6240-4bd6-8d8a-2773e7a920b6"}},{"fullUrl":"https://madie.cms.gov/Encounter/7a3dbd64-8723-49a0-a74d-7f41489ca4cf","resource":{"resourceType":"Encounter","id":"7a3dbd64-8723-49a0-a74d-7f41489ca4cf","meta":{"profile":["http://hl7.org/fhir/us/qicore/StructureDefinition/qicore-encounter"]},"status":"finished","class":{"system":"http://terminology.hl7.org/CodeSystem/v3-ActCode","code":"AMB","display":"ambulatory"},"type":[{"coding":[{"system":"http://www.ama-assn.org/go/cpt","version":"2021","code":"99385","display":"Initial comprehensive preventive medicine evaluation and management of an individual including an age and gender appropriate history, examination, counseling/anticipatory guidance/risk factor reduction interventions, and the ordering of laboratory/diagnostic procedures, new patient; 18-39 years","userSelected":true}]}],"subject":{"reference":"Patient/e25e1d4a-6240-4bd6-8d8a-2773e7a920b6"},"period":{"start":"2026-12-31T23:59:00.000+00:00","end":"2027-01-01T00:15:00.000+00:00"}},"request":{"method":"PUT","url":"Encounter/7a3dbd64-8723-49a0-a74d-7f41489ca4cf"}},{"fullUrl":"https://madie.cms.gov/ServiceRequest/230de349-5789-4043-beeb-368d7acc7fe3","resource":{"resourceType":"ServiceRequest","id":"230de349-5789-4043-beeb-368d7acc7fe3","meta":{"profile":["http://hl7.org/fhir/us/qicore/StructureDefinition/qicore-servicerequest"]},"status":"active","intent":"order","code":{"coding":[{"system":"http://snomed.info/sct","version":"2022-03","code":"103696004","display":"Patient referral to specialist (procedure)","userSelected":true}]},"subject":{"reference":"Patient/e25e1d4a-6240-4bd6-8d8a-2773e7a920b6"},"authoredOn":"2026-08-08T08:00:00.000+00:00"},"request":{"method":"PUT","url":"ServiceRequest/230de349-5789-4043-beeb-368d7acc7fe3"}},{"fullUrl":"https://madie.cms.gov/Coverage/655f45d5-5b0f-4807-b974-66587d7812bd","resource":{"resourceType":"Coverage","id":"655f45d5-5b0f-4807-b974-66587d7812bd","meta":{"profile":["http://hl7.org/fhir/us/qicore/StructureDefinition/qicore-coverage"]},"status":"active","beneficiary":{"reference":"Patient/e25e1d4a-6240-4bd6-8d8a-2773e7a920b6"},"payor":[{"reference":"Organization/a836a885-05f2-4a04-a8de-15d041fa3b10"}]},"request":{"method":"PUT","url":"Coverage/655f45d5-5b0f-4807-b974-66587d7812bd"}},{"fullUrl":"https://madie.cms.gov/Organization/a836a885-05f2-4a04-a8de-15d041fa3b10","resource":{"resourceType":"Organization","id":"a836a885-05f2-4a04-a8de-15d041fa3b10","meta":{"profile":["http://hl7.org/fhir/us/qicore/StructureDefinition/qicore-organization"]},"identifier":[{"use":"temp","system":"urn:oid:2.16.840.1.113883.4.4","value":"21-3259825"}],"active":true,"type":[{"coding":[{"system":"http://terminology.hl7.org/CodeSystem/organization-type","code":"pay","display":"Payer"}]}],"name":"Blue Cross Blue Shield of Texas","telecom":[{"system":"phone","value":"(+1) 972-766-6900"}],"address":[{"use":"billing","type":"postal","line":["P.O. Box 660044"],"city":"Dallas","state":"TX","postalCode":"75266-0044","country":"USA"}]},"request":{"method":"PUT","url":"Organization/a836a885-05f2-4a04-a8de-15d041fa3b10"}},{"fullUrl":"https://madie.cms.gov/Practitioner/b56aaab8-45d5-4032-9fdf-0fa50c22d25b","resource":{"resourceType":"Practitioner","id":"b56aaab8-45d5-4032-9fdf-0fa50c22d25b","meta":{"profile":["http://hl7.org/fhir/us/qicore/StructureDefinition/qicore-practitioner"]},"identifier":[{"system":"http://hl7.org/fhir/sid/us-npi","value":"123456"}],"name":[{"family":"Evil","prefix":["Dr"]}]},"request":{"method":"PUT","url":"Practitioner/b56aaab8-45d5-4032-9fdf-0fa50c22d25b"}},{"fullUrl":"https://madie.cms.gov/MeasureReport/f790a015-acf2-4e8c-8e5d-53d8512a19e5","resource":{"resourceType":"MeasureReport","id":"f790a015-acf2-4e8c-8e5d-53d8512a19e5","meta":{"profile":["http://hl7.org/fhir/us/cqfmeasures/StructureDefinition/test-case-cqfm"]},"contained":[{"resourceType":"Parameters","id":"33d5f213-63cd-458d-93a2-fc52b5629887-parameters","parameter":[{"name":"subject","valueString":"e25e1d4a-6240-4bd6-8d8a-2773e7a920b6"}]}],"extension":[{"url":"http://hl7.org/fhir/StructureDefinition/cqf-inputParameters","valueReference":{"reference":"#33d5f213-63cd-458d-93a2-fc52b5629887-parameters"}},{"url":"http://hl7.org/fhir/us/cqfmeasures/StructureDefinition/cqfm-testCaseDescription","valueMarkdown":"Encounter starts during MP but ends after MP.  ( \"start\" : \"202x-12-31T23:59:00.000+00:00\", \"end\" : \"202x-01-01T00:15:00.000+00:00\")"}],"modifierExtension":[{"url":"http://hl7.org/fhir/us/cqfmeasures/StructureDefinition/cqfm-isTestCase","valueBoolean":true}],"status":"complete","type":"individual","measure":"https://madie.cms.gov/Measure/CMS50FHIRCRLReceiptofSpecialistReport","period":{"start":"2026-01-01","end":"2026-12-31"},"group":[{"id":"Group_1","population":[{"id":"InitialPopulation_1","code":{"coding":[{"system":"http://terminology.hl7.org/CodeSystem/measure-population","code":"initial-population","display":"Initial Population"}]},"count":0},{"id":"Denominator_1","code":{"coding":[{"system":"http://terminology.hl7.org/CodeSystem/measure-population","code":"denominator","display":"Denominator"}]},"count":0},{"id":"Numerator_1","code":{"coding":[{"system":"http://terminology.hl7.org/CodeSystem/measure-population","code":"numerator","display":"Numerator"}]},"count":0}],"measureScore":{"value":1}}],"evaluatedResource":[{"reference":"Patient/e25e1d4a-6240-4bd6-8d8a-2773e7a920b6"},{"reference":"Encounter/7a3dbd64-8723-49a0-a74d-7f41489ca4cf"},{"reference":"ServiceRequest/230de349-5789-4043-beeb-368d7acc7fe3"},{"reference":"Coverage/655f45d5-5b0f-4807-b974-66587d7812bd"},{"reference":"Organization/a836a885-05f2-4a04-a8de-15d041fa3b10"},{"reference":"Practitioner/b56aaab8-45d5-4032-9fdf-0fa50c22d25b"}]},"request":{"method":"PUT","url":"MeasureReport/f790a015-acf2-4e8c-8e5d-53d8512a19e5"}}]},"request":{"method":"PUT","url":"Bundle/62fd4b710968f82603aac854"}},{"resource":{"resourceType":"Coverage","id":"655f45d5-5b0f-4807-b974-66587d7812bd","meta":{"profile":["http://hl7.org/fhir/us/qicore/StructureDefinition/qicore-coverage"]},"status":"active","beneficiary":{"reference":"Patient/e25e1d4a-6240-4bd6-8d8a-2773e7a920b6"},"payor":[{"reference":"Organization/a836a885-05f2-4a04-a8de-15d041fa3b10"}]},"request":{"method":"PUT","url":"Coverage/655f45d5-5b0f-4807-b974-66587d7812bd"}},{"resource":{"resourceType":"Encounter","id":"7a3dbd64-8723-49a0-a74d-7f41489ca4cf","meta":{"profile":["http://hl7.org/fhir/us/qicore/StructureDefinition/qicore-encounter"]},"status":"finished","class":{"system":"http://terminology.hl7.org/CodeSystem/v3-ActCode","code":"AMB","display":"ambulatory"},"type":[{"coding":[{"system":"http://www.ama-assn.org/go/cpt","version":"2021","code":"99385","display":"Initial comprehensive preventive medicine evaluation and management of an individual including an age and gender appropriate history, examination, counseling/anticipatory guidance/risk factor reduction interventions, and the ordering of laboratory/diagnostic procedures, new patient; 18-39 years","userSelected":true}]}],"subject":{"reference":"Patient/e25e1d4a-6240-4bd6-8d8a-2773e7a920b6"},"period":{"start":"2026-12-31T23:59:00.000+00:00","end":"2027-01-01T00:15:00.000+00:00"}},"request":{"method":"PUT","url":"Encounter/7a3dbd64-8723-49a0-a74d-7f41489ca4cf"}},{"resource":{"resourceType":"MeasureReport","id":"f790a015-acf2-4e8c-8e5d-53d8512a19e5","meta":{"profile":["http://hl7.org/fhir/us/cqfmeasures/StructureDefinition/test-case-cqfm"]},"contained":[{"resourceType":"Parameters","id":"33d5f213-63cd-458d-93a2-fc52b5629887-parameters","parameter":[{"name":"subject","valueString":"e25e1d4a-6240-4bd6-8d8a-2773e7a920b6"}]}],"extension":[{"url":"http://hl7.org/fhir/StructureDefinition/cqf-inputParameters","valueReference":{"reference":"#33d5f213-63cd-458d-93a2-fc52b5629887-parameters"}},{"url":"http://hl7.org/fhir/us/cqfmeasures/StructureDefinition/cqfm-testCaseDescription","valueMarkdown":"Encounter starts during MP but ends after MP.  ( \"start\" : \"202x-12-31T23:59:00.000+00:00\", \"end\" : \"202x-01-01T00:15:00.000+00:00\")"}],"modifierExtension":[{"url":"http://hl7.org/fhir/us/cqfmeasures/StructureDefinition/cqfm-isTestCase","valueBoolean":true}],"status":"complete","type":"individual","measure":"https://madie.cms.gov/Measure/CMS50FHIRCRLReceiptofSpecialistReport","period":{"start":"2026-01-01","end":"2026-12-31"},"group":[{"id":"Group_1","population":[{"id":"InitialPopulation_1","code":{"coding":[{"system":"http://terminology.hl7.org/CodeSystem/measure-population","code":"initial-population","display":"Initial Population"}]},"count":0},{"id":"Denominator_1","code":{"coding":[{"system":"http://terminology.hl7.org/CodeSystem/measure-population","code":"denominator","display":"Denominator"}]},"count":0},{"id":"Numerator_1","code":{"coding":[{"system":"http://terminology.hl7.org/CodeSystem/measure-population","code":"numerator","display":"Numerator"}]},"count":0}],"measureScore":{"value":1}}],"evaluatedResource":[{"reference":"Patient/e25e1d4a-6240-4bd6-8d8a-2773e7a920b6"},{"reference":"Encounter/7a3dbd64-8723-49a0-a74d-7f41489ca4cf"},{"reference":"ServiceRequest/230de349-5789-4043-beeb-368d7acc7fe3"},{"reference":"Coverage/655f45d5-5b0f-4807-b974-66587d7812bd"},{"reference":"Organization/a836a885-05f2-4a04-a8de-15d041fa3b10"},{"reference":"Practitioner/b56aaab8-45d5-4032-9fdf-0fa50c22d25b"}]},"request":{"method":"PUT","url":"MeasureReport/f790a015-acf2-4e8c-8e5d-53d8512a19e5"}},{"resource":{"resourceType":"Organization","id":"a836a885-05f2-4a04-a8de-15d041fa3b10","meta":{"profile":["http://hl7.org/fhir/us/qicore/StructureDefinition/qicore-organization"]},"identifier":[{"use":"temp","system":"urn:oid:2.16.840.1.113883.4.4","value":"21-3259825"}],"active":true,"type":[{"coding":[{"system":"http://terminology.hl7.org/CodeSystem/organization-type","code":"pay","display":"Payer"}]}],"name":"Blue Cross Blue Shield of Texas","telecom":[{"system":"phone","value":"(+1) 972-766-6900"}],"address":[{"use":"billing","type":"postal","line":["P.O. Box 660044"],"city":"Dallas","state":"TX","postalCode":"75266-0044","country":"USA"}]},"request":{"method":"PUT","url":"Organization/a836a885-05f2-4a04-a8de-15d041fa3b10"}},{"resource":{"resourceType":"Patient","id":"e25e1d4a-6240-4bd6-8d8a-2773e7a920b6","meta":{"profile":["http://hl7.org/fhir/us/qicore/StructureDefinition/qicore-patient"]},"extension":[{"url":"http://hl7.org/fhir/us/core/StructureDefinition/us-core-race","extension":[{"url":"ombCategory","valueCoding":{"system":"urn:oid:2.16.840.1.113883.6.238","code":"2054-5","display":"Black or African American","userSelected":true}},{"url":"text","valueString":"Black or African American"}]},{"url":"http://hl7.org/fhir/us/core/StructureDefinition/us-core-ethnicity","extension":[{"url":"ombCategory","valueCoding":{"system":"urn:oid:2.16.840.1.113883.6.238","code":"2186-5","display":"Not Hispanic or Latino","userSelected":true}},{"url":"text","valueString":"Not Hispanic or Latino"}]}],"identifier":[{"type":{"coding":[{"system":"http://terminology.hl7.org/CodeSystem/v2-0203","code":"MR"}]},"system":"https://bonnie-fhir.healthit.gov/","value":"62fd4b710968f82603aac854"}],"name":[{"family":"IPFail","given":["EncOverlapsEndMP"]}],"gender":"female","birthDate":"2001-12-31"},"request":{"method":"PUT","url":"Patient/e25e1d4a-6240-4bd6-8d8a-2773e7a920b6"}},{"resource":{"resourceType":"Practitioner","id":"b56aaab8-45d5-4032-9fdf-0fa50c22d25b","meta":{"profile":["http://hl7.org/fhir/us/qicore/StructureDefinition/qicore-practitioner"]},"identifier":[{"system":"http://hl7.org/fhir/sid/us-npi","value":"123456"}],"name":[{"family":"Evil","prefix":["Dr"]}]},"request":{"method":"PUT","url":"Practitioner/b56aaab8-45d5-4032-9fdf-0fa50c22d25b"}},{"resource":{"resourceType":"ServiceRequest","id":"230de349-5789-4043-beeb-368d7acc7fe3","meta":{"profile":["http://hl7.org/fhir/us/qicore/StructureDefinition/qicore-servicerequest"]},"status":"active","intent":"order","code":{"coding":[{"system":"http://snomed.info/sct","version":"2022-03","code":"103696004","display":"Patient referral to specialist (procedure)","userSelected":true}]},"subject":{"reference":"Patient/e25e1d4a-6240-4bd6-8d8a-2773e7a920b6"},"authoredOn":"2026-08-08T08:00:00.000+00:00"},"request":{"method":"PUT","url":"ServiceRequest/230de349-5789-4043-beeb-368d7acc7fe3"}}]}