{"resourceType":"Bundle","id":"tests-3e48a3fd-0416-470f-a3c5-3635f18f2913-bundle","type":"transaction","entry":[{"resource":{"resourceType":"Bundle","id":"62fd4b660968f8012246b012","type":"transaction","entry":[{"fullUrl":"https://madie.cms.gov/Patient/3e48a3fd-0416-470f-a3c5-3635f18f2913","resource":{"resourceType":"Patient","id":"3e48a3fd-0416-470f-a3c5-3635f18f2913","meta":{"profile":["http://hl7.org/fhir/us/qicore/StructureDefinition/qicore-patient"]},"extension":[{"url":"http://hl7.org/fhir/us/core/StructureDefinition/us-core-race","extension":[{"url":"ombCategory","valueCoding":{"system":"urn:oid:2.16.840.1.113883.6.238","code":"2028-9","display":"Asian","userSelected":true}},{"url":"text","valueString":"Asian"}]},{"url":"http://hl7.org/fhir/us/core/StructureDefinition/us-core-ethnicity","extension":[{"url":"ombCategory","valueCoding":{"system":"urn:oid:2.16.840.1.113883.6.238","code":"2186-5","display":"Not Hispanic or Latino","userSelected":true}},{"url":"text","valueString":"Not Hispanic or Latino"}]}],"identifier":[{"type":{"coding":[{"system":"http://terminology.hl7.org/CodeSystem/v2-0203","code":"MR"}]},"system":"https://bonnie-fhir.healthit.gov/","value":"62fd4b660968f8012246b012"}],"name":[{"family":"DenomPass","given":["EncRefNewPsychDRC"]}],"gender":"female","birthDate":"1989-11-29"},"request":{"method":"PUT","url":"Patient/3e48a3fd-0416-470f-a3c5-3635f18f2913"}},{"fullUrl":"https://madie.cms.gov/ServiceRequest/4cefc416-34b3-4274-b4c3-58f278533c3e","resource":{"resourceType":"ServiceRequest","id":"4cefc416-34b3-4274-b4c3-58f278533c3e","meta":{"profile":["http://hl7.org/fhir/us/qicore/StructureDefinition/qicore-servicerequest"]},"status":"completed","intent":"order","code":{"coding":[{"system":"http://snomed.info/sct","version":"2022-03","code":"103696004","display":"Patient referral to specialist (procedure)","userSelected":true}]},"subject":{"reference":"Patient/3e48a3fd-0416-470f-a3c5-3635f18f2913"},"authoredOn":"2026-01-01T00:00:00.000+00:00"},"request":{"method":"PUT","url":"ServiceRequest/4cefc416-34b3-4274-b4c3-58f278533c3e"}},{"fullUrl":"https://madie.cms.gov/Procedure/0b2aa2e2-f7ae-4a36-9eb0-7c4b5bf1d5ca","resource":{"resourceType":"Procedure","id":"0b2aa2e2-f7ae-4a36-9eb0-7c4b5bf1d5ca","meta":{"profile":["http://hl7.org/fhir/us/qicore/StructureDefinition/qicore-procedure"]},"extension":[{"url":"http://hl7.org/fhir/us/qicore/StructureDefinition/qicore-recorded","valueDateTime":"2026-01-01T00:00:00.000+00:00"}],"status":"completed","code":{"coding":[{"system":"http://www.ama-assn.org/go/cpt","version":"2021","code":"96138","display":"Psychological or neuropsychological test administration and scoring by technician, two or more tests, any method; first 30 minutes","userSelected":true}]},"subject":{"reference":"Patient/3e48a3fd-0416-470f-a3c5-3635f18f2913"},"performedDateTime":"2026-01-01T00:00:00.000+00:00"},"request":{"method":"PUT","url":"Procedure/0b2aa2e2-f7ae-4a36-9eb0-7c4b5bf1d5ca"}},{"fullUrl":"https://madie.cms.gov/Coverage/f69c4853-5579-4640-b88c-6552d4ba00a5","resource":{"resourceType":"Coverage","id":"f69c4853-5579-4640-b88c-6552d4ba00a5","meta":{"profile":["http://hl7.org/fhir/us/qicore/StructureDefinition/qicore-coverage"]},"status":"active","beneficiary":{"reference":"Patient/3e48a3fd-0416-470f-a3c5-3635f18f2913"},"payor":[{"reference":"Organization/afaa5450-95a8-4af6-ac91-95969ac77a22"}]},"request":{"method":"PUT","url":"Coverage/f69c4853-5579-4640-b88c-6552d4ba00a5"}},{"fullUrl":"https://madie.cms.gov/Organization/afaa5450-95a8-4af6-ac91-95969ac77a22","resource":{"resourceType":"Organization","id":"afaa5450-95a8-4af6-ac91-95969ac77a22","meta":{"profile":["http://hl7.org/fhir/us/qicore/StructureDefinition/qicore-organization"]},"identifier":[{"use":"temp","system":"urn:oid:2.16.840.1.113883.4.4","value":"21-3259825"}],"active":true,"type":[{"coding":[{"system":"http://terminology.hl7.org/CodeSystem/organization-type","code":"pay","display":"Payer"}]}],"name":"Blue Cross Blue Shield of Texas","telecom":[{"system":"phone","value":"(+1) 972-766-6900"}],"address":[{"use":"billing","type":"postal","line":["P.O. Box 660044"],"city":"Dallas","state":"TX","postalCode":"75266-0044","country":"USA"}]},"request":{"method":"PUT","url":"Organization/afaa5450-95a8-4af6-ac91-95969ac77a22"}},{"fullUrl":"https://madie.cms.gov/Practitioner/c7a80b55-cd11-4727-b50b-e4d1950a7f70","resource":{"resourceType":"Practitioner","id":"c7a80b55-cd11-4727-b50b-e4d1950a7f70","meta":{"profile":["http://hl7.org/fhir/us/qicore/StructureDefinition/qicore-practitioner"]},"identifier":[{"system":"http://hl7.org/fhir/sid/us-npi","value":"123456"}],"name":[{"family":"Evil","prefix":["Dr"]}]},"request":{"method":"PUT","url":"Practitioner/c7a80b55-cd11-4727-b50b-e4d1950a7f70"}},{"fullUrl":"https://madie.cms.gov/MeasureReport/3ad08f94-c80e-412a-90a5-b4df434f1728","resource":{"resourceType":"MeasureReport","id":"3ad08f94-c80e-412a-90a5-b4df434f1728","meta":{"profile":["http://hl7.org/fhir/us/cqfmeasures/StructureDefinition/test-case-cqfm"]},"contained":[{"resourceType":"Parameters","id":"37c24f2f-2ff1-4e86-aa5a-2af1f9ecbd47-parameters","parameter":[{"name":"subject","valueString":"3e48a3fd-0416-470f-a3c5-3635f18f2913"}]}],"extension":[{"url":"http://hl7.org/fhir/StructureDefinition/cqf-inputParameters","valueReference":{"reference":"#37c24f2f-2ff1-4e86-aa5a-2af1f9ecbd47-parameters"}},{"url":"http://hl7.org/fhir/us/cqfmeasures/StructureDefinition/cqfm-testCaseDescription","valueMarkdown":"Enc starts first minute of MP and ends in 59 minutes, referral order made."}],"modifierExtension":[{"url":"http://hl7.org/fhir/us/cqfmeasures/StructureDefinition/cqfm-isTestCase","valueBoolean":true}],"status":"complete","type":"individual","measure":"https://madie.cms.gov/Measure/CMS50FHIRCRLReceiptofSpecialistReport","period":{"start":"2026-01-01","end":"2026-12-31"},"group":[{"id":"Group_1","population":[{"id":"InitialPopulation_1","code":{"coding":[{"system":"http://terminology.hl7.org/CodeSystem/measure-population","code":"initial-population","display":"Initial Population"}]},"count":1},{"id":"Denominator_1","code":{"coding":[{"system":"http://terminology.hl7.org/CodeSystem/measure-population","code":"denominator","display":"Denominator"}]},"count":1},{"id":"Numerator_1","code":{"coding":[{"system":"http://terminology.hl7.org/CodeSystem/measure-population","code":"numerator","display":"Numerator"}]},"count":0}],"measureScore":{"value":1}}],"evaluatedResource":[{"reference":"Patient/3e48a3fd-0416-470f-a3c5-3635f18f2913"},{"reference":"ServiceRequest/4cefc416-34b3-4274-b4c3-58f278533c3e"},{"reference":"Procedure/0b2aa2e2-f7ae-4a36-9eb0-7c4b5bf1d5ca"},{"reference":"Coverage/f69c4853-5579-4640-b88c-6552d4ba00a5"},{"reference":"Organization/afaa5450-95a8-4af6-ac91-95969ac77a22"},{"reference":"Practitioner/c7a80b55-cd11-4727-b50b-e4d1950a7f70"}]},"request":{"method":"PUT","url":"MeasureReport/3ad08f94-c80e-412a-90a5-b4df434f1728"}}]},"request":{"method":"PUT","url":"Bundle/62fd4b660968f8012246b012"}},{"resource":{"resourceType":"Coverage","id":"f69c4853-5579-4640-b88c-6552d4ba00a5","meta":{"profile":["http://hl7.org/fhir/us/qicore/StructureDefinition/qicore-coverage"]},"status":"active","beneficiary":{"reference":"Patient/3e48a3fd-0416-470f-a3c5-3635f18f2913"},"payor":[{"reference":"Organization/afaa5450-95a8-4af6-ac91-95969ac77a22"}]},"request":{"method":"PUT","url":"Coverage/f69c4853-5579-4640-b88c-6552d4ba00a5"}},{"resource":{"resourceType":"MeasureReport","id":"3ad08f94-c80e-412a-90a5-b4df434f1728","meta":{"profile":["http://hl7.org/fhir/us/cqfmeasures/StructureDefinition/test-case-cqfm"]},"contained":[{"resourceType":"Parameters","id":"37c24f2f-2ff1-4e86-aa5a-2af1f9ecbd47-parameters","parameter":[{"name":"subject","valueString":"3e48a3fd-0416-470f-a3c5-3635f18f2913"}]}],"extension":[{"url":"http://hl7.org/fhir/StructureDefinition/cqf-inputParameters","valueReference":{"reference":"#37c24f2f-2ff1-4e86-aa5a-2af1f9ecbd47-parameters"}},{"url":"http://hl7.org/fhir/us/cqfmeasures/StructureDefinition/cqfm-testCaseDescription","valueMarkdown":"Enc starts first minute of MP and ends in 59 minutes, referral order made."}],"modifierExtension":[{"url":"http://hl7.org/fhir/us/cqfmeasures/StructureDefinition/cqfm-isTestCase","valueBoolean":true}],"status":"complete","type":"individual","measure":"https://madie.cms.gov/Measure/CMS50FHIRCRLReceiptofSpecialistReport","period":{"start":"2026-01-01","end":"2026-12-31"},"group":[{"id":"Group_1","population":[{"id":"InitialPopulation_1","code":{"coding":[{"system":"http://terminology.hl7.org/CodeSystem/measure-population","code":"initial-population","display":"Initial Population"}]},"count":1},{"id":"Denominator_1","code":{"coding":[{"system":"http://terminology.hl7.org/CodeSystem/measure-population","code":"denominator","display":"Denominator"}]},"count":1},{"id":"Numerator_1","code":{"coding":[{"system":"http://terminology.hl7.org/CodeSystem/measure-population","code":"numerator","display":"Numerator"}]},"count":0}],"measureScore":{"value":1}}],"evaluatedResource":[{"reference":"Patient/3e48a3fd-0416-470f-a3c5-3635f18f2913"},{"reference":"ServiceRequest/4cefc416-34b3-4274-b4c3-58f278533c3e"},{"reference":"Procedure/0b2aa2e2-f7ae-4a36-9eb0-7c4b5bf1d5ca"},{"reference":"Coverage/f69c4853-5579-4640-b88c-6552d4ba00a5"},{"reference":"Organization/afaa5450-95a8-4af6-ac91-95969ac77a22"},{"reference":"Practitioner/c7a80b55-cd11-4727-b50b-e4d1950a7f70"}]},"request":{"method":"PUT","url":"MeasureReport/3ad08f94-c80e-412a-90a5-b4df434f1728"}},{"resource":{"resourceType":"Organization","id":"afaa5450-95a8-4af6-ac91-95969ac77a22","meta":{"profile":["http://hl7.org/fhir/us/qicore/StructureDefinition/qicore-organization"]},"identifier":[{"use":"temp","system":"urn:oid:2.16.840.1.113883.4.4","value":"21-3259825"}],"active":true,"type":[{"coding":[{"system":"http://terminology.hl7.org/CodeSystem/organization-type","code":"pay","display":"Payer"}]}],"name":"Blue Cross Blue Shield of Texas","telecom":[{"system":"phone","value":"(+1) 972-766-6900"}],"address":[{"use":"billing","type":"postal","line":["P.O. Box 660044"],"city":"Dallas","state":"TX","postalCode":"75266-0044","country":"USA"}]},"request":{"method":"PUT","url":"Organization/afaa5450-95a8-4af6-ac91-95969ac77a22"}},{"resource":{"resourceType":"Patient","id":"3e48a3fd-0416-470f-a3c5-3635f18f2913","meta":{"profile":["http://hl7.org/fhir/us/qicore/StructureDefinition/qicore-patient"]},"extension":[{"url":"http://hl7.org/fhir/us/core/StructureDefinition/us-core-race","extension":[{"url":"ombCategory","valueCoding":{"system":"urn:oid:2.16.840.1.113883.6.238","code":"2028-9","display":"Asian","userSelected":true}},{"url":"text","valueString":"Asian"}]},{"url":"http://hl7.org/fhir/us/core/StructureDefinition/us-core-ethnicity","extension":[{"url":"ombCategory","valueCoding":{"system":"urn:oid:2.16.840.1.113883.6.238","code":"2186-5","display":"Not Hispanic or Latino","userSelected":true}},{"url":"text","valueString":"Not Hispanic or Latino"}]}],"identifier":[{"type":{"coding":[{"system":"http://terminology.hl7.org/CodeSystem/v2-0203","code":"MR"}]},"system":"https://bonnie-fhir.healthit.gov/","value":"62fd4b660968f8012246b012"}],"name":[{"family":"DenomPass","given":["EncRefNewPsychDRC"]}],"gender":"female","birthDate":"1989-11-29"},"request":{"method":"PUT","url":"Patient/3e48a3fd-0416-470f-a3c5-3635f18f2913"}},{"resource":{"resourceType":"Practitioner","id":"c7a80b55-cd11-4727-b50b-e4d1950a7f70","meta":{"profile":["http://hl7.org/fhir/us/qicore/StructureDefinition/qicore-practitioner"]},"identifier":[{"system":"http://hl7.org/fhir/sid/us-npi","value":"123456"}],"name":[{"family":"Evil","prefix":["Dr"]}]},"request":{"method":"PUT","url":"Practitioner/c7a80b55-cd11-4727-b50b-e4d1950a7f70"}},{"resource":{"resourceType":"Procedure","id":"0b2aa2e2-f7ae-4a36-9eb0-7c4b5bf1d5ca","meta":{"profile":["http://hl7.org/fhir/us/qicore/StructureDefinition/qicore-procedure"]},"extension":[{"url":"http://hl7.org/fhir/us/qicore/StructureDefinition/qicore-recorded","valueDateTime":"2026-01-01T00:00:00.000+00:00"}],"status":"completed","code":{"coding":[{"system":"http://www.ama-assn.org/go/cpt","version":"2021","code":"96138","display":"Psychological or neuropsychological test administration and scoring by technician, two or more tests, any method; first 30 minutes","userSelected":true}]},"subject":{"reference":"Patient/3e48a3fd-0416-470f-a3c5-3635f18f2913"},"performedDateTime":"2026-01-01T00:00:00.000+00:00"},"request":{"method":"PUT","url":"Procedure/0b2aa2e2-f7ae-4a36-9eb0-7c4b5bf1d5ca"}},{"resource":{"resourceType":"ServiceRequest","id":"4cefc416-34b3-4274-b4c3-58f278533c3e","meta":{"profile":["http://hl7.org/fhir/us/qicore/StructureDefinition/qicore-servicerequest"]},"status":"completed","intent":"order","code":{"coding":[{"system":"http://snomed.info/sct","version":"2022-03","code":"103696004","display":"Patient referral to specialist (procedure)","userSelected":true}]},"subject":{"reference":"Patient/3e48a3fd-0416-470f-a3c5-3635f18f2913"},"authoredOn":"2026-01-01T00:00:00.000+00:00"},"request":{"method":"PUT","url":"ServiceRequest/4cefc416-34b3-4274-b4c3-58f278533c3e"}}]}