{
  "resourceType": "Bundle",
  "id": "63594c7a6aee9629c82981df",
  "type": "transaction",
  "entry": [ {
    "fullUrl": "https://madie.cms.gov/Patient/4edd9934-deae-40dd-a558-1fdf94f912d7",
    "resource": {
      "resourceType": "Patient",
      "id": "4edd9934-deae-40dd-a558-1fdf94f912d7",
      "meta": {
        "profile": [ "http://hl7.org/fhir/us/qicore/StructureDefinition/qicore-patient" ]
      },
      "text": {
        "status": "generated",
        "div": "<div xmlns=\"http://www.w3.org/1999/xhtml\"><div class=\"hapiHeaderText\">2RiskFactors<b>NUMERPass</b></div><table class=\"hapiPropertyTable\"><tbody><tr><td>Date of birth</td><td><span>01 February 2004</span></td></tr></tbody></table></div>"
      },
      "extension": [ {
        "url": "http://hl7.org/fhir/us/core/StructureDefinition/us-core-race",
        "extension": [ {
          "url": "ombCategory",
          "valueCoding": {
            "system": "urn:oid:2.16.840.1.113883.6.238",
            "code": "1002-5",
            "display": "American Indian or Alaska Native",
            "userSelected": true
          }
        }, {
          "url": "text",
          "valueString": "American Indian or Alaska Native"
        } ]
      }, {
        "url": "http://hl7.org/fhir/us/core/StructureDefinition/us-core-ethnicity",
        "extension": [ {
          "url": "ombCategory",
          "valueCoding": {
            "system": "urn:oid:2.16.840.1.113883.6.238",
            "code": "2135-2",
            "display": "Hispanic or Latino",
            "userSelected": true
          }
        }, {
          "url": "text",
          "valueString": "Hispanic or Latino"
        } ]
      } ],
      "identifier": [ {
        "type": {
          "coding": [ {
            "system": "http://terminology.hl7.org/CodeSystem/v2-0203",
            "code": "MR"
          } ]
        },
        "system": "https://bonnie-fhir.healthit.gov/",
        "value": "63594c7a6aee9629c82981df"
      } ],
      "active": true,
      "name": [ {
        "use": "usual",
        "family": "NUMERPass",
        "given": [ "2RiskFactors" ]
      } ],
      "gender": "female",
      "birthDate": "2005-02-01"
    },
    "request": {
      "method": "PUT",
      "url": "Patient/4edd9934-deae-40dd-a558-1fdf94f912d7"
    }
  }, {
    "fullUrl": "https://madie.cms.gov/Observation/b8e72464-35c3-4666-a984-0bf486e9a6fb",
    "resource": {
      "resourceType": "Observation",
      "id": "b8e72464-35c3-4666-a984-0bf486e9a6fb",
      "meta": {
        "profile": [ "http://hl7.org/fhir/us/qicore/StructureDefinition/qicore-simple-observation" ]
      },
      "status": "final",
      "category": [ {
        "coding": [ {
          "system": "http://terminology.hl7.org/CodeSystem/observation-category",
          "code": "exam",
          "display": "exam",
          "userSelected": true
        } ]
      } ],
      "code": {
        "coding": [ {
          "system": "http://loinc.org",
          "code": "93857-1"
        } ]
      },
      "subject": {
        "reference": "Patient/4edd9934-deae-40dd-a558-1fdf94f912d7"
      },
      "effectiveDateTime": "2026-02-01T08:00:00Z",
      "performer": [ {
        "reference": "Organization/example1",
        "display": "Hendricks Country Hospital"
      } ],
      "valueDateTime": "2026-02-01T08:00:00Z"
    },
    "request": {
      "method": "PUT",
      "url": "Observation/b8e72464-35c3-4666-a984-0bf486e9a6fb"
    }
  }, {
    "fullUrl": "https://madie.cms.gov/Observation/0ef7f5aa-de89-446f-8115-34ca7bb2f22f",
    "resource": {
      "resourceType": "Observation",
      "id": "0ef7f5aa-de89-446f-8115-34ca7bb2f22f",
      "meta": {
        "profile": [ "http://hl7.org/fhir/us/qicore/StructureDefinition/qicore-simple-observation" ]
      },
      "status": "final",
      "category": [ {
        "coding": [ {
          "system": "http://terminology.hl7.org/CodeSystem/observation-category",
          "code": "exam",
          "display": "exam",
          "userSelected": true
        } ]
      } ],
      "code": {
        "coding": [ {
          "system": "http://loinc.org",
          "code": "11778-8"
        } ]
      },
      "subject": {
        "reference": "Patient/4edd9934-deae-40dd-a558-1fdf94f912d7"
      },
      "effectiveDateTime": "2026-02-01T08:00:00Z",
      "performer": [ {
        "reference": "Organization/example1",
        "display": "Hendricks Country Hospital"
      } ],
      "valueDateTime": "2026-02-01T00:00:00Z"
    },
    "request": {
      "method": "PUT",
      "url": "Observation/0ef7f5aa-de89-446f-8115-34ca7bb2f22f"
    }
  }, {
    "fullUrl": "https://madie.cms.gov/Encounter/9bda425d-9998-4a59-b366-6efdc5af8f25",
    "resource": {
      "resourceType": "Encounter",
      "id": "9bda425d-9998-4a59-b366-6efdc5af8f25",
      "meta": {
        "profile": [ "http://hl7.org/fhir/us/qicore/StructureDefinition/qicore-encounter" ]
      },
      "status": "finished",
      "class": {
        "system": "http://terminology.hl7.org/CodeSystem/v3-ActCode",
        "code": "IMP",
        "display": "inpatient encounter"
      },
      "type": [ {
        "coding": [ {
          "system": "http://snomed.info/sct",
          "code": "183452005"
        } ]
      } ],
      "subject": {
        "reference": "Patient/4edd9934-deae-40dd-a558-1fdf94f912d7"
      },
      "period": {
        "start": "2026-02-01T08:00:00Z",
        "end": "2026-02-05T08:15:00Z"
      },
      "diagnosis": [ {
        "extension": [ {
          "url": "http://hl7.org/fhir/us/qicore/StructureDefinition/qicore-encounter-diagnosisPresentOnAdmission",
          "valueCodeableConcept": {
            "coding": [ {
              "system": "https://www.cms.gov/Medicare/Medicare-Fee-for-Service-Payment/HospitalAcqCond/Coding",
              "code": "Y"
            } ]
          }
        } ],
        "condition": {
          "reference": "Condition/db181cbe-385d-4bf6-a4ab-41b980a703e3"
        }
      }, {
        "extension": [ {
          "url": "http://hl7.org/fhir/us/qicore/StructureDefinition/qicore-encounter-diagnosisPresentOnAdmission",
          "valueCodeableConcept": {
            "coding": [ {
              "system": "https://www.cms.gov/Medicare/Medicare-Fee-for-Service-Payment/HospitalAcqCond/Coding",
              "code": "Y"
            } ]
          }
        } ],
        "condition": {
          "reference": "Condition/ff79eaf2-0b51-4943-9fa9-267b370b0fcb"
        }
      }, {
        "extension": [ {
          "url": "http://hl7.org/fhir/us/qicore/StructureDefinition/qicore-encounter-diagnosisPresentOnAdmission",
          "valueCodeableConcept": {
            "coding": [ {
              "system": "https://www.cms.gov/Medicare/Medicare-Fee-for-Service-Payment/HospitalAcqCond/Coding",
              "code": "N"
            } ]
          }
        } ],
        "condition": {
          "reference": "Condition/d8037164-9d64-4dff-b455-53320a71facd"
        }
      } ]
    },
    "request": {
      "method": "PUT",
      "url": "Encounter/9bda425d-9998-4a59-b366-6efdc5af8f25"
    }
  }, {
    "fullUrl": "https://madie.cms.gov/Procedure/5cfe84b4-0bbd-4c2f-a6bd-eac860c4a448",
    "resource": {
      "resourceType": "Procedure",
      "id": "5cfe84b4-0bbd-4c2f-a6bd-eac860c4a448",
      "meta": {
        "profile": [ "http://hl7.org/fhir/us/qicore/StructureDefinition/qicore-procedure" ]
      },
      "extension": [ {
        "url": "http://hl7.org/fhir/us/qicore/StructureDefinition/qicore-recorded",
        "valueDateTime": "2014-04-05T13:35:00Z"
      } ],
      "status": "completed",
      "code": {
        "coding": [ {
          "system": "http://snomed.info/sct",
          "code": "10745001"
        } ]
      },
      "subject": {
        "reference": "Patient/4edd9934-deae-40dd-a558-1fdf94f912d7"
      },
      "performedDateTime": "2026-02-01T08:00:00Z"
    },
    "request": {
      "method": "PUT",
      "url": "Procedure/5cfe84b4-0bbd-4c2f-a6bd-eac860c4a448"
    }
  }, {
    "fullUrl": "https://madie.cms.gov/Condition/d8037164-9d64-4dff-b455-53320a71facd",
    "resource": {
      "resourceType": "Condition",
      "id": "d8037164-9d64-4dff-b455-53320a71facd",
      "meta": {
        "profile": [ "http://hl7.org/fhir/us/qicore/StructureDefinition/qicore-condition-encounter-diagnosis" ]
      },
      "category": [ {
        "coding": [ {
          "system": "http://terminology.hl7.org/CodeSystem/condition-category",
          "code": "encounter-diagnosis",
          "display": "Encounter Diagnosis"
        } ]
      } ],
      "code": {
        "coding": [ {
          "system": "http://hl7.org/fhir/sid/icd-10-cm",
          "version": "2023",
          "code": "A32.7",
          "display": "Listerial sepsis",
          "userSelected": true
        } ]
      },
      "subject": {
        "reference": "Patient/4edd9934-deae-40dd-a558-1fdf94f912d7"
      },
      "recordedDate": "2026-10-26T08:00:00Z"
    },
    "request": {
      "method": "PUT",
      "url": "Condition/d8037164-9d64-4dff-b455-53320a71facd"
    }
  }, {
    "fullUrl": "https://madie.cms.gov/Condition/ff79eaf2-0b51-4943-9fa9-267b370b0fcb",
    "resource": {
      "resourceType": "Condition",
      "id": "ff79eaf2-0b51-4943-9fa9-267b370b0fcb",
      "meta": {
        "profile": [ "http://hl7.org/fhir/us/qicore/StructureDefinition/qicore-condition" ]
      },
      "category": [ {
        "coding": [ {
          "system": "http://terminology.hl7.org/CodeSystem/condition-category",
          "code": "encounter-diagnosis",
          "display": "Encounter Diagnosis"
        } ]
      } ],
      "code": {
        "coding": [ {
          "system": "http://hl7.org/fhir/sid/icd-10-cm",
          "version": "2023",
          "code": "J45.21",
          "display": "Asthma",
          "userSelected": true
        } ]
      },
      "subject": {
        "reference": "Patient/4edd9934-deae-40dd-a558-1fdf94f912d7"
      },
      "recordedDate": "2026-10-26T08:00:00Z"
    },
    "request": {
      "method": "PUT",
      "url": "Condition/ff79eaf2-0b51-4943-9fa9-267b370b0fcb"
    }
  }, {
    "fullUrl": "https://madie.cms.gov/Condition/db181cbe-385d-4bf6-a4ab-41b980a703e3",
    "resource": {
      "resourceType": "Condition",
      "id": "db181cbe-385d-4bf6-a4ab-41b980a703e3",
      "meta": {
        "profile": [ "http://hl7.org/fhir/us/qicore/StructureDefinition/qicore-condition-encounter-diagnosis" ]
      },
      "category": [ {
        "coding": [ {
          "system": "http://terminology.hl7.org/CodeSystem/condition-category",
          "code": "encounter-diagnosis",
          "display": "Encounter Diagnosis"
        } ]
      } ],
      "code": {
        "coding": [ {
          "system": "http://hl7.org/fhir/sid/icd-10-cm",
          "version": "2023",
          "code": "O99.840",
          "display": "Bariatric Surgery-81e0",
          "userSelected": true
        } ]
      },
      "subject": {
        "reference": "Patient/4edd9934-deae-40dd-a558-1fdf94f912d7"
      },
      "recordedDate": "2026-10-26T08:00:00Z"
    },
    "request": {
      "method": "PUT",
      "url": "Condition/db181cbe-385d-4bf6-a4ab-41b980a703e3"
    }
  }, {
    "fullUrl": "https://madie.cms.gov/Claim/a060bd79-138d-49a6-b55b-2196b3bdcfcc",
    "resource": {
      "resourceType": "Claim",
      "id": "a060bd79-138d-49a6-b55b-2196b3bdcfcc",
      "meta": {
        "profile": [ "http://hl7.org/fhir/us/qicore/StructureDefinition/qicore-claim" ]
      },
      "status": "active",
      "type": {
        "coding": [ {
          "system": "http://terminology.hl7.org/CodeSystem/claim-type",
          "code": "institutional",
          "display": "Institutional"
        } ]
      },
      "use": "claim",
      "patient": {
        "reference": "Patient/4edd9934-deae-40dd-a558-1fdf94f912d7"
      },
      "created": "2026-11-08",
      "provider": {
        "reference": "Practitioner/practitioner-123456"
      },
      "priority": {
        "coding": [ {
          "system": "http://terminology.hl7.org/CodeSystem/processpriority",
          "code": "normal"
        } ]
      },
      "diagnosis": [ {
        "sequence": 1,
        "diagnosisCodeableConcept": {
          "coding": [ {
            "system": "http://hl7.org/fhir/sid/icd-10-cm",
            "code": "J45.21",
            "display": "Mild intermittent asthma with (acute) exacerbation"
          } ]
        },
        "type": [ {
          "coding": [ {
            "system": "http://terminology.hl7.org/CodeSystem/ex-diagnosistype",
            "code": "discharge",
            "display": "Discharge Diagnosis"
          } ]
        } ],
        "onAdmission": {
          "coding": [ {
            "system": "https://www.cms.gov/Medicare/Medicare-Fee-for-Service-Payment/HospitalAcqCond/Coding",
            "code": "Y"
          } ]
        }
      }, {
        "sequence": 2,
        "diagnosisCodeableConcept": {
          "coding": [ {
            "system": "http://hl7.org/fhir/sid/icd-10-cm",
            "code": "A32.7",
            "display": "Listerial sepsis"
          } ]
        },
        "type": [ {
          "coding": [ {
            "system": "http://terminology.hl7.org/CodeSystem/ex-diagnosistype",
            "code": "discharge",
            "display": "Discharge Diagnosis"
          } ]
        } ],
        "onAdmission": {
          "coding": [ {
            "system": "https://www.cms.gov/Medicare/Medicare-Fee-for-Service-Payment/HospitalAcqCond/Coding",
            "code": "N"
          } ]
        }
      }, {
        "sequence": 2,
        "diagnosisCodeableConcept": {
          "coding": [ {
            "system": "http://hl7.org/fhir/sid/icd-10-cm",
            "code": "O99.840",
            "display": "Bariatric Surgery"
          } ]
        },
        "type": [ {
          "coding": [ {
            "system": "http://terminology.hl7.org/CodeSystem/ex-diagnosistype",
            "code": "discharge",
            "display": "Discharge Diagnosis"
          } ]
        } ],
        "onAdmission": {
          "coding": [ {
            "system": "https://www.cms.gov/Medicare/Medicare-Fee-for-Service-Payment/HospitalAcqCond/Coding",
            "code": "Y"
          } ]
        }
      } ],
      "insurance": [ {
        "sequence": 1,
        "focal": true,
        "coverage": {
          "reference": "Coverage/Coverage-1"
        }
      } ],
      "item": [ {
        "sequence": 1,
        "careTeamSequence": [ 1 ],
        "diagnosisSequence": [ 1 ],
        "productOrService": {
          "coding": [ {
            "system": "http://www.ama-assn.org/go/cpt",
            "code": "99232"
          } ]
        },
        "encounter": [ {
          "reference": "Encounter/9bda425d-9998-4a59-b366-6efdc5af8f25"
        } ]
      }, {
        "sequence": 2,
        "careTeamSequence": [ 1 ],
        "diagnosisSequence": [ 2 ],
        "productOrService": {
          "coding": [ {
            "system": "http://www.ama-assn.org/go/cpt",
            "code": "99233"
          } ]
        },
        "encounter": [ {
          "reference": "Encounter/9bda425d-9998-4a59-b366-6efdc5af8f25"
        } ]
      } ],
      "total": {
        "value": 3800,
        "currency": "USD"
      }
    },
    "request": {
      "method": "PUT",
      "url": "Claim/a060bd79-138d-49a6-b55b-2196b3bdcfcc"
    }
  }, {
    "fullUrl": "https://madie.cms.gov/MeasureReport/80fa1e36-4b15-4f5e-b3c7-553377f1b88d",
    "resource": {
      "resourceType": "MeasureReport",
      "id": "80fa1e36-4b15-4f5e-b3c7-553377f1b88d",
      "meta": {
        "profile": [ "http://hl7.org/fhir/us/cqfmeasures/StructureDefinition/test-case-cqfm" ]
      },
      "contained": [ {
        "resourceType": "Parameters",
        "id": "6bbe128f-83c2-4a70-a1bb-efdd99b9fc39-parameters",
        "parameter": [ {
          "name": "subject",
          "valueString": "4edd9934-deae-40dd-a558-1fdf94f912d7"
        } ]
      } ],
      "extension": [ {
        "url": "http://hl7.org/fhir/StructureDefinition/cqf-inputParameters",
        "valueReference": {
          "reference": "#6bbe128f-83c2-4a70-a1bb-efdd99b9fc39-parameters"
        }
      }, {
        "url": "http://hl7.org/fhir/us/cqfmeasures/StructureDefinition/cqfm-testCaseDescription",
        "valueMarkdown": "2 Risk factors (bariatric surgery and asthma) are true in numerator case.\n"
      } ],
      "modifierExtension": [ {
        "url": "http://hl7.org/fhir/us/cqfmeasures/StructureDefinition/cqfm-isTestCase",
        "valueBoolean": true
      } ],
      "status": "complete",
      "type": "individual",
      "measure": "https://madie.cms.gov/Measure/CMS1028FHIRPCSevereOBComps",
      "period": {
        "start": "2026-01-01",
        "end": "2026-12-31"
      },
      "group": [ {
        "id": "Group_1",
        "population": [ {
          "id": "InitialPopulation_1",
          "code": {
            "coding": [ {
              "system": "http://terminology.hl7.org/CodeSystem/measure-population",
              "code": "initial-population",
              "display": "Initial Population"
            } ]
          },
          "count": 1
        }, {
          "id": "Denominator_1",
          "code": {
            "coding": [ {
              "system": "http://terminology.hl7.org/CodeSystem/measure-population",
              "code": "denominator",
              "display": "Denominator"
            } ]
          },
          "count": 1
        }, {
          "id": "Numerator_1",
          "code": {
            "coding": [ {
              "system": "http://terminology.hl7.org/CodeSystem/measure-population",
              "code": "numerator",
              "display": "Numerator"
            } ]
          },
          "count": 1
        }, {
          "id": "NumeratorExclusion_1",
          "code": {
            "coding": [ {
              "system": "http://terminology.hl7.org/CodeSystem/measure-population",
              "code": "numerator-exclusion",
              "display": "Numerator Exclusion"
            } ]
          },
          "count": 0
        } ],
        "measureScore": {
          "value": 0.0
        }
      }, {
        "id": "Group_2",
        "population": [ {
          "id": "InitialPopulation_2",
          "code": {
            "coding": [ {
              "system": "http://terminology.hl7.org/CodeSystem/measure-population",
              "code": "initial-population",
              "display": "Initial Population"
            } ]
          },
          "count": 1
        }, {
          "id": "Denominator_2",
          "code": {
            "coding": [ {
              "system": "http://terminology.hl7.org/CodeSystem/measure-population",
              "code": "denominator",
              "display": "Denominator"
            } ]
          },
          "count": 1
        }, {
          "id": "Numerator_2",
          "code": {
            "coding": [ {
              "system": "http://terminology.hl7.org/CodeSystem/measure-population",
              "code": "numerator",
              "display": "Numerator"
            } ]
          },
          "count": 1
        }, {
          "id": "NumeratorExclusion_2",
          "code": {
            "coding": [ {
              "system": "http://terminology.hl7.org/CodeSystem/measure-population",
              "code": "numerator-exclusion",
              "display": "Numerator Exclusion"
            } ]
          },
          "count": 0
        } ],
        "measureScore": {
          "value": 0.0
        }
      } ],
      "evaluatedResource": [ {
        "reference": "Patient/4edd9934-deae-40dd-a558-1fdf94f912d7"
      }, {
        "reference": "Observation/b8e72464-35c3-4666-a984-0bf486e9a6fb"
      }, {
        "reference": "Observation/0ef7f5aa-de89-446f-8115-34ca7bb2f22f"
      }, {
        "reference": "Encounter/9bda425d-9998-4a59-b366-6efdc5af8f25"
      }, {
        "reference": "Procedure/5cfe84b4-0bbd-4c2f-a6bd-eac860c4a448"
      }, {
        "reference": "Condition/d8037164-9d64-4dff-b455-53320a71facd"
      }, {
        "reference": "Condition/ff79eaf2-0b51-4943-9fa9-267b370b0fcb"
      }, {
        "reference": "Condition/db181cbe-385d-4bf6-a4ab-41b980a703e3"
      }, {
        "reference": "Claim/a060bd79-138d-49a6-b55b-2196b3bdcfcc"
      } ]
    },
    "request": {
      "method": "PUT",
      "url": "MeasureReport/80fa1e36-4b15-4f5e-b3c7-553377f1b88d"
    }
  } ]
}