{
  "resourceType": "Bundle",
  "id": "64270cbea7ffa60ebe02488f",
  "type": "transaction",
  "entry": [ {
    "fullUrl": "https://madie.cms.gov/Patient/67e19058-917d-43f8-98d3-d16730fc7d32",
    "resource": {
      "resourceType": "Patient",
      "id": "67e19058-917d-43f8-98d3-d16730fc7d32",
      "meta": {
        "profile": [ "http://hl7.org/fhir/us/qicore/StructureDefinition/qicore-patient" ]
      },
      "extension": [ {
        "url": "http://hl7.org/fhir/us/core/StructureDefinition/us-core-race",
        "extension": [ {
          "url": "ombCategory",
          "valueCoding": {
            "system": "urn:oid:2.16.840.1.113883.6.238",
            "code": "1002-5",
            "display": "American Indian or Alaska Native",
            "userSelected": true
          }
        }, {
          "url": "text",
          "valueString": "American Indian or Alaska Native"
        } ]
      }, {
        "url": "http://hl7.org/fhir/us/core/StructureDefinition/us-core-ethnicity",
        "extension": [ {
          "url": "ombCategory",
          "valueCoding": {
            "system": "urn:oid:2.16.840.1.113883.6.238",
            "code": "2135-2",
            "display": "Hispanic or Latino",
            "userSelected": true
          }
        }, {
          "url": "text",
          "valueString": "Hispanic or Latino"
        } ]
      } ],
      "identifier": [ {
        "type": {
          "coding": [ {
            "system": "http://terminology.hl7.org/CodeSystem/v2-0203",
            "code": "MR"
          } ]
        },
        "system": "https://goodhealth.healthit.gov/",
        "value": "64270cbea7ffa60ebe02488f"
      } ],
      "name": [ {
        "family": "IPPass",
        "given": [ "EncounterandDxinMP" ]
      } ],
      "gender": "female",
      "birthDate": "1989-01-02"
    },
    "request": {
      "method": "PUT",
      "url": "Patient/67e19058-917d-43f8-98d3-d16730fc7d32"
    }
  }, {
    "fullUrl": "https://madie.cms.gov/Condition/7669ed50-ef8e-4544-b2c4-0649236976d2",
    "resource": {
      "resourceType": "Condition",
      "id": "7669ed50-ef8e-4544-b2c4-0649236976d2",
      "meta": {
        "profile": [ "http://hl7.org/fhir/us/qicore/StructureDefinition/qicore-condition-problems-health-concerns" ]
      },
      "clinicalStatus": {
        "coding": [ {
          "system": "http://terminology.hl7.org/CodeSystem/condition-clinical",
          "code": "active",
          "display": "Active",
          "userSelected": true
        } ]
      },
      "verificationStatus": {
        "coding": [ {
          "system": "http://terminology.hl7.org/CodeSystem/condition-ver-status",
          "code": "confirmed",
          "display": "Confirmed",
          "userSelected": true
        } ]
      },
      "category": [ {
        "coding": [ {
          "system": "http://terminology.hl7.org/CodeSystem/condition-category",
          "code": "encounter-diagnosis",
          "display": "Encounter Diagnosis",
          "userSelected": true
        } ]
      } ],
      "code": {
        "coding": [ {
          "system": "http://hl7.org/fhir/sid/icd-10-cm",
          "version": "2023",
          "code": "G31.83",
          "userSelected": true
        } ]
      },
      "subject": {
        "reference": "Patient/67e19058-917d-43f8-98d3-d16730fc7d32"
      },
      "onsetPeriod": {
        "start": "2025-12-31T08:00:00.000+00:00"
      }
    },
    "request": {
      "method": "PUT",
      "url": "Condition/7669ed50-ef8e-4544-b2c4-0649236976d2"
    }
  }, {
    "fullUrl": "https://madie.cms.gov/Encounter/04d24108-d1d0-4c1d-8e8e-4d5e86b081a6",
    "resource": {
      "resourceType": "Encounter",
      "id": "04d24108-d1d0-4c1d-8e8e-4d5e86b081a6",
      "meta": {
        "profile": [ "http://hl7.org/fhir/us/qicore/StructureDefinition/qicore-encounter" ]
      },
      "status": "finished",
      "class": {
        "system": "http://terminology.hl7.org/CodeSystem/v3-ActCode",
        "code": "AMB",
        "display": "ambulatory",
        "userSelected": true
      },
      "type": [ {
        "coding": [ {
          "system": "http://www.ama-assn.org/go/cpt",
          "version": "2023",
          "code": "99212",
          "userSelected": true
        } ]
      } ],
      "subject": {
        "reference": "Patient/67e19058-917d-43f8-98d3-d16730fc7d32"
      },
      "period": {
        "start": "2026-03-31T08:00:00.000+00:00",
        "end": "2026-03-31T08:35:00.000+00:00"
      }
    },
    "request": {
      "method": "PUT",
      "url": "Encounter/04d24108-d1d0-4c1d-8e8e-4d5e86b081a6"
    }
  }, {
    "fullUrl": "https://madie.cms.gov/Encounter/2d7975e0-8488-49b2-8b3f-7e0297843e4d",
    "resource": {
      "resourceType": "Encounter",
      "id": "2d7975e0-8488-49b2-8b3f-7e0297843e4d",
      "meta": {
        "profile": [ "http://hl7.org/fhir/us/qicore/StructureDefinition/qicore-encounter" ]
      },
      "status": "finished",
      "class": {
        "system": "http://terminology.hl7.org/CodeSystem/v3-ActCode",
        "code": "AMB",
        "display": "ambulatory",
        "userSelected": true
      },
      "type": [ {
        "coding": [ {
          "system": "http://snomed.info/sct",
          "version": "http://snomed.info/sct/731000124108/version/202303",
          "code": "210098006",
          "display": "Domiciliary or rest home patient evaluation and management (procedure)",
          "userSelected": true
        } ]
      } ],
      "subject": {
        "reference": "Patient/67e19058-917d-43f8-98d3-d16730fc7d32"
      },
      "period": {
        "start": "2026-08-31T08:00:00.000+00:00",
        "end": "2026-08-31T08:35:00.000+00:00"
      }
    },
    "request": {
      "method": "PUT",
      "url": "Encounter/2d7975e0-8488-49b2-8b3f-7e0297843e4d"
    }
  }, {
    "fullUrl": "https://madie.cms.gov/MeasureReport/5e762f0d-6496-40d5-a801-c8154b593dc9",
    "resource": {
      "resourceType": "MeasureReport",
      "id": "5e762f0d-6496-40d5-a801-c8154b593dc9",
      "meta": {
        "profile": [ "http://hl7.org/fhir/us/cqfmeasures/StructureDefinition/test-case-cqfm" ]
      },
      "contained": [ {
        "resourceType": "Parameters",
        "id": "57ca97c2-5a88-49bb-b6c7-a896b42af66d-parameters",
        "parameter": [ {
          "name": "subject",
          "valueString": "67e19058-917d-43f8-98d3-d16730fc7d32"
        } ]
      } ],
      "extension": [ {
        "url": "http://hl7.org/fhir/StructureDefinition/cqf-inputParameters",
        "valueReference": {
          "reference": "#57ca97c2-5a88-49bb-b6c7-a896b42af66d-parameters"
        }
      }, {
        "url": "http://hl7.org/fhir/us/cqfmeasures/StructureDefinition/cqfm-testCaseDescription",
        "valueMarkdown": "Patient has two qualifying visits (Care Services in Long Term Residential Facility; Office Visit) during the MP and has a dementia diagnosis prior to the MP"
      } ],
      "modifierExtension": [ {
        "url": "http://hl7.org/fhir/us/cqfmeasures/StructureDefinition/cqfm-isTestCase",
        "valueBoolean": true
      } ],
      "status": "complete",
      "type": "individual",
      "measure": "https://madie.cms.gov/Measure/CMS149FHIRDementiaCognitiveAssessment",
      "period": {
        "start": "2026-01-01",
        "end": "2026-12-31"
      },
      "group": [ {
        "id": "Group_1",
        "population": [ {
          "id": "InitialPopulation_1",
          "code": {
            "coding": [ {
              "system": "http://terminology.hl7.org/CodeSystem/measure-population",
              "code": "initial-population",
              "display": "Initial Population"
            } ]
          },
          "count": 1
        }, {
          "id": "Denominator_1",
          "code": {
            "coding": [ {
              "system": "http://terminology.hl7.org/CodeSystem/measure-population",
              "code": "denominator",
              "display": "Denominator"
            } ]
          },
          "count": 1
        }, {
          "id": "Numerator_1",
          "code": {
            "coding": [ {
              "system": "http://terminology.hl7.org/CodeSystem/measure-population",
              "code": "numerator",
              "display": "Numerator"
            } ]
          },
          "count": 0
        }, {
          "id": "DenominatorException_1",
          "code": {
            "coding": [ {
              "system": "http://terminology.hl7.org/CodeSystem/measure-population",
              "code": "denominator-exception",
              "display": "Denominator Exception"
            } ]
          },
          "count": 0
        } ],
        "measureScore": {
          "value": 1.0
        }
      } ],
      "evaluatedResource": [ {
        "reference": "Patient/67e19058-917d-43f8-98d3-d16730fc7d32"
      }, {
        "reference": "Condition/7669ed50-ef8e-4544-b2c4-0649236976d2"
      }, {
        "reference": "Encounter/04d24108-d1d0-4c1d-8e8e-4d5e86b081a6"
      }, {
        "reference": "Encounter/2d7975e0-8488-49b2-8b3f-7e0297843e4d"
      } ]
    },
    "request": {
      "method": "PUT",
      "url": "MeasureReport/5e762f0d-6496-40d5-a801-c8154b593dc9"
    }
  } ]
}