{
  "resourceType": "Bundle",
  "id": "63487c2e0968f80122540170",
  "type": "transaction",
  "entry": [ {
    "fullUrl": "https://madie.cms.gov/Patient/301cbb39-bf89-40f4-9539-4e1b9eb5e5be",
    "resource": {
      "resourceType": "Patient",
      "id": "301cbb39-bf89-40f4-9539-4e1b9eb5e5be",
      "meta": {
        "profile": [ "http://hl7.org/fhir/us/qicore/StructureDefinition/qicore-patient" ]
      },
      "text": {
        "status": "generated",
        "div": "<div xmlns=\"http://www.w3.org/1999/xhtml\"><div class=\"hapiHeaderText\">AssessTimeOfDelivRelvDateTimeB4DelivEnc<b>DENOMFail</b></div><table class=\"hapiPropertyTable\"><tbody><tr><td>Identifier</td><td>47c319cd31456047c4f1e1acf1a65c9a687762be9778e0d4061ef15c003314c8</td></tr><tr><td>Date of birth</td><td><span>14 February 1985</span></td></tr></tbody></table></div>"
      },
      "extension": [ {
        "url": "http://hl7.org/fhir/us/core/StructureDefinition/us-core-race",
        "extension": [ {
          "url": "ombCategory",
          "valueCoding": {
            "system": "urn:oid:2.16.840.1.113883.6.238",
            "code": "1002-5",
            "display": "American Indian or Alaska Native",
            "userSelected": true
          }
        }, {
          "url": "text",
          "valueString": "American Indian or Alaska Native"
        } ]
      }, {
        "url": "http://hl7.org/fhir/us/core/StructureDefinition/us-core-ethnicity",
        "extension": [ {
          "url": "ombCategory",
          "valueCoding": {
            "system": "urn:oid:2.16.840.1.113883.6.238",
            "code": "2135-2",
            "display": "Hispanic or Latino",
            "userSelected": true
          }
        }, {
          "url": "text",
          "valueString": "Hispanic or Latino"
        } ]
      } ],
      "identifier": [ {
        "type": {
          "coding": [ {
            "system": "http://terminology.hl7.org/CodeSystem/v2-0203",
            "code": "MR"
          } ]
        },
        "system": "https://bonnie-fhir.healthit.gov/",
        "value": "63487c2e0968f80122540170"
      } ],
      "active": true,
      "name": [ {
        "use": "usual",
        "family": "DENOMFail",
        "given": [ "AssessTimeOfDelivRelvDateTimeB4DelivEnc" ]
      } ],
      "gender": "female",
      "birthDate": "1998-02-14"
    },
    "request": {
      "method": "PUT",
      "url": "Patient/301cbb39-bf89-40f4-9539-4e1b9eb5e5be"
    }
  }, {
    "fullUrl": "https://madie.cms.gov/Observation/cf860d6e-3c9a-4ed0-bf82-8e2c0cda40a5",
    "resource": {
      "resourceType": "Observation",
      "id": "cf860d6e-3c9a-4ed0-bf82-8e2c0cda40a5",
      "meta": {
        "profile": [ "http://hl7.org/fhir/us/qicore/StructureDefinition/qicore-simple-observation" ]
      },
      "status": "final",
      "category": [ {
        "coding": [ {
          "system": "http://terminology.hl7.org/CodeSystem/observation-category",
          "code": "exam",
          "display": "exam",
          "userSelected": true
        } ]
      } ],
      "code": {
        "coding": [ {
          "system": "http://loinc.org",
          "code": "11996-6"
        } ]
      },
      "subject": {
        "reference": "Patient/301cbb39-bf89-40f4-9539-4e1b9eb5e5be"
      },
      "effectiveDateTime": "2026-06-08T08:00:00.000+00:00",
      "performer": [ {
        "reference": "Organization/example1",
        "display": "Hendricks Country Hospital"
      } ],
      "valueInteger": 1
    },
    "request": {
      "method": "PUT",
      "url": "Observation/cf860d6e-3c9a-4ed0-bf82-8e2c0cda40a5"
    }
  }, {
    "fullUrl": "https://madie.cms.gov/Observation/13f594eb-92db-44ad-8ee0-edc3ce90fdff",
    "resource": {
      "resourceType": "Observation",
      "id": "13f594eb-92db-44ad-8ee0-edc3ce90fdff",
      "meta": {
        "profile": [ "http://hl7.org/fhir/us/qicore/StructureDefinition/qicore-simple-observation" ]
      },
      "status": "final",
      "category": [ {
        "coding": [ {
          "system": "http://terminology.hl7.org/CodeSystem/observation-category",
          "code": "exam",
          "display": "exam",
          "userSelected": true
        } ]
      } ],
      "code": {
        "coding": [ {
          "system": "http://loinc.org",
          "code": "11884-4"
        } ]
      },
      "subject": {
        "reference": "Patient/301cbb39-bf89-40f4-9539-4e1b9eb5e5be"
      },
      "effectiveDateTime": "2026-06-08T09:15:00.000+00:00",
      "performer": [ {
        "reference": "Organization/example1",
        "display": "Hendricks Country Hospital"
      } ],
      "valueQuantity": {
        "value": 38,
        "system": "http://unitsofmeasure.org",
        "code": "wk"
      }
    },
    "request": {
      "method": "PUT",
      "url": "Observation/13f594eb-92db-44ad-8ee0-edc3ce90fdff"
    }
  }, {
    "fullUrl": "https://madie.cms.gov/Observation/024bc587-5cac-486c-9286-37d729018bbd",
    "resource": {
      "resourceType": "Observation",
      "id": "024bc587-5cac-486c-9286-37d729018bbd",
      "meta": {
        "profile": [ "http://hl7.org/fhir/us/qicore/StructureDefinition/qicore-simple-observation" ]
      },
      "status": "final",
      "category": [ {
        "coding": [ {
          "system": "http://terminology.hl7.org/CodeSystem/observation-category",
          "code": "exam",
          "display": "exam",
          "userSelected": true
        } ]
      } ],
      "code": {
        "coding": [ {
          "system": "http://loinc.org",
          "code": "93857-1"
        } ]
      },
      "subject": {
        "reference": "Patient/301cbb39-bf89-40f4-9539-4e1b9eb5e5be"
      },
      "effectiveDateTime": "2026-06-05T09:15:00.000+00:00",
      "performer": [ {
        "reference": "Organization/example1",
        "display": "Hendricks Country Hospital"
      } ],
      "valueDateTime": "2026-06-05T09:15:00.000+00:00"
    },
    "request": {
      "method": "PUT",
      "url": "Observation/024bc587-5cac-486c-9286-37d729018bbd"
    }
  }, {
    "fullUrl": "https://madie.cms.gov/Encounter/3946333e-5764-4292-8816-780f39479b46",
    "resource": {
      "resourceType": "Encounter",
      "id": "3946333e-5764-4292-8816-780f39479b46",
      "meta": {
        "profile": [ "http://hl7.org/fhir/us/qicore/StructureDefinition/qicore-encounter" ]
      },
      "status": "finished",
      "class": {
        "system": "http://terminology.hl7.org/CodeSystem/v3-ActCode",
        "code": "IMP",
        "display": "inpatient encounter"
      },
      "type": [ {
        "coding": [ {
          "system": "http://snomed.info/sct",
          "code": "183452005"
        } ]
      } ],
      "subject": {
        "reference": "Patient/301cbb39-bf89-40f4-9539-4e1b9eb5e5be"
      },
      "period": {
        "start": "2026-06-08T08:00:00.000+00:00",
        "end": "2026-06-10T08:15:00.000+00:00"
      },
      "length": {
        "value": 2,
        "unit": "days"
      },
      "reasonCode": [ {
        "coding": [ {
          "system": "http://snomed.info/sct",
          "code": "169826009",
          "display": "Single live birth from singleton pregnancy (finding)"
        } ]
      } ]
    },
    "request": {
      "method": "PUT",
      "url": "Encounter/3946333e-5764-4292-8816-780f39479b46"
    }
  }, {
    "fullUrl": "https://madie.cms.gov/Procedure/def09636-a974-4fa6-ad7a-ed53db93f868",
    "resource": {
      "resourceType": "Procedure",
      "id": "def09636-a974-4fa6-ad7a-ed53db93f868",
      "meta": {
        "profile": [ "http://hl7.org/fhir/us/qicore/StructureDefinition/qicore-procedure" ]
      },
      "extension": [ {
        "url": "http://hl7.org/fhir/us/qicore/StructureDefinition/qicore-recorded",
        "valueDateTime": "2014-04-05T13:35:00.000+00:00"
      } ],
      "status": "completed",
      "code": {
        "coding": [ {
          "system": "http://www.cms.gov/Medicare/Coding/ICD10",
          "code": "10D00Z0"
        } ]
      },
      "subject": {
        "reference": "Patient/301cbb39-bf89-40f4-9539-4e1b9eb5e5be"
      },
      "performedPeriod": {
        "start": "2026-06-08T08:00:00.000+00:00",
        "end": "2026-06-08T09:15:00.000+00:00"
      }
    },
    "request": {
      "method": "PUT",
      "url": "Procedure/def09636-a974-4fa6-ad7a-ed53db93f868"
    }
  }, {
    "fullUrl": "https://madie.cms.gov/Condition/507c7b19-a153-47df-b679-3efbb2a103ae",
    "resource": {
      "resourceType": "Condition",
      "id": "507c7b19-a153-47df-b679-3efbb2a103ae",
      "meta": {
        "profile": [ "http://hl7.org/fhir/us/qicore/StructureDefinition/qicore-condition" ]
      },
      "category": [ {
        "coding": [ {
          "system": "http://terminology.hl7.org/CodeSystem/condition-category",
          "code": "encounter-diagnosis",
          "display": "Encounter Diagnosis"
        } ]
      } ],
      "code": {
        "coding": [ {
          "system": "http://snomed.info/sct",
          "version": "2022-09",
          "code": "169826009",
          "display": "Single live birth (finding)",
          "userSelected": true
        } ]
      },
      "subject": {
        "reference": "Patient/301cbb39-bf89-40f4-9539-4e1b9eb5e5be"
      },
      "recordedDate": "2026-10-21T08:00:00.000+00:00"
    },
    "request": {
      "method": "PUT",
      "url": "Condition/507c7b19-a153-47df-b679-3efbb2a103ae"
    }
  }, {
    "fullUrl": "https://madie.cms.gov/Coverage/7ba8a5ed-7a4b-4e05-aee9-a7e5658319a7",
    "resource": {
      "resourceType": "Coverage",
      "id": "7ba8a5ed-7a4b-4e05-aee9-a7e5658319a7",
      "meta": {
        "profile": [ "http://hl7.org/fhir/us/qicore/StructureDefinition/qicore-coverage" ]
      },
      "status": "active",
      "subscriberId": "523435",
      "beneficiary": {
        "reference": "Patient/301cbb39-bf89-40f4-9539-4e1b9eb5e5be"
      },
      "relationship": {
        "coding": [ {
          "system": "http://terminology.hl7.org/CodeSystem/subscriber-relationship",
          "code": "self"
        } ]
      },
      "payor": [ {
        "reference": "Organization/0904f5e5-c23f-476e-8569-e6ddb32fb966"
      } ]
    },
    "request": {
      "method": "PUT",
      "url": "Coverage/7ba8a5ed-7a4b-4e05-aee9-a7e5658319a7"
    }
  }, {
    "fullUrl": "https://madie.cms.gov/Organization/0904f5e5-c23f-476e-8569-e6ddb32fb966",
    "resource": {
      "resourceType": "Organization",
      "id": "0904f5e5-c23f-476e-8569-e6ddb32fb966",
      "meta": {
        "profile": [ "http://hl7.org/fhir/us/qicore/StructureDefinition/qicore-organization" ]
      },
      "identifier": [ {
        "use": "temp",
        "system": "urn:oid:2.16.840.1.113883.4.4",
        "value": "21-3259825"
      } ],
      "active": true,
      "type": [ {
        "coding": [ {
          "system": "http://terminology.hl7.org/CodeSystem/organization-type",
          "code": "pay",
          "display": "Payer"
        } ]
      } ],
      "name": "Blue Cross Blue Shield of Texas",
      "telecom": [ {
        "system": "phone",
        "value": "(+1) 972-766-6900"
      } ],
      "address": [ {
        "use": "billing",
        "type": "postal",
        "line": [ "P.O. Box 660044" ],
        "city": "Dallas",
        "state": "TX",
        "postalCode": "75266-0044",
        "country": "USA"
      } ]
    },
    "request": {
      "method": "PUT",
      "url": "Organization/0904f5e5-c23f-476e-8569-e6ddb32fb966"
    }
  }, {
    "fullUrl": "https://madie.cms.gov/Practitioner/956329cc-2fae-4ec6-b56c-5f2b2ebdec81",
    "resource": {
      "resourceType": "Practitioner",
      "id": "956329cc-2fae-4ec6-b56c-5f2b2ebdec81",
      "meta": {
        "profile": [ "http://hl7.org/fhir/us/qicore/StructureDefinition/qicore-practitioner" ]
      },
      "identifier": [ {
        "system": "http://hl7.org/fhir/sid/us-npi",
        "value": "1234567890"
      } ],
      "name": [ {
        "family": "Evil",
        "prefix": [ "Dr" ]
      } ]
    },
    "request": {
      "method": "PUT",
      "url": "Practitioner/956329cc-2fae-4ec6-b56c-5f2b2ebdec81"
    }
  }, {
    "fullUrl": "https://madie.cms.gov/MeasureReport/d1295036-9d3a-46e6-9bc4-0a5fa8e10a3c",
    "resource": {
      "resourceType": "MeasureReport",
      "id": "d1295036-9d3a-46e6-9bc4-0a5fa8e10a3c",
      "meta": {
        "profile": [ "http://hl7.org/fhir/us/cqfmeasures/StructureDefinition/test-case-cqfm" ]
      },
      "contained": [ {
        "resourceType": "Parameters",
        "id": "9efbf38f-456f-4882-8fc8-57a0a58ee417-parameters",
        "parameter": [ {
          "name": "subject",
          "valueString": "301cbb39-bf89-40f4-9539-4e1b9eb5e5be"
        } ]
      } ],
      "extension": [ {
        "url": "http://hl7.org/fhir/StructureDefinition/cqf-inputParameters",
        "valueReference": {
          "reference": "#9efbf38f-456f-4882-8fc8-57a0a58ee417-parameters"
        }
      }, {
        "url": "http://hl7.org/fhir/us/cqfmeasures/StructureDefinition/cqfm-testCaseDescription",
        "valueMarkdown": "Passes: IP, Pt is 27 years of age,  encounter dx of delivery of singleton, gravida, EGA @ 38 weeks, AssessTimeOfDeliv relevantDate B4 DelivEnc.  Tests \"TimeOfDelivery.relevantDatetime during DeliveryEncounters.relevantPeriod\".\n"
      } ],
      "modifierExtension": [ {
        "url": "http://hl7.org/fhir/us/cqfmeasures/StructureDefinition/cqfm-isTestCase",
        "valueBoolean": true
      } ],
      "status": "complete",
      "type": "individual",
      "measure": "https://madie.cms.gov/Measure/CMS0334FHIRPCCesareanBirth",
      "period": {
        "start": "2026-01-01",
        "end": "2026-12-31"
      },
      "group": [ {
        "id": "Group_1",
        "population": [ {
          "id": "InitialPopulation_1",
          "code": {
            "coding": [ {
              "system": "http://terminology.hl7.org/CodeSystem/measure-population",
              "code": "initial-population",
              "display": "Initial Population"
            } ]
          },
          "count": 1
        }, {
          "id": "Denominator_1",
          "code": {
            "coding": [ {
              "system": "http://terminology.hl7.org/CodeSystem/measure-population",
              "code": "denominator",
              "display": "Denominator"
            } ]
          },
          "count": 0
        }, {
          "id": "DenominatorExclusion_1",
          "code": {
            "coding": [ {
              "system": "http://terminology.hl7.org/CodeSystem/measure-population",
              "code": "denominator-exclusion",
              "display": "Denominator Exclusion"
            } ]
          },
          "count": 0
        }, {
          "id": "Numerator_1",
          "code": {
            "coding": [ {
              "system": "http://terminology.hl7.org/CodeSystem/measure-population",
              "code": "numerator",
              "display": "Numerator"
            } ]
          },
          "count": 0
        } ],
        "measureScore": {
          "value": 0.0
        }
      } ],
      "evaluatedResource": [ {
        "reference": "Patient/301cbb39-bf89-40f4-9539-4e1b9eb5e5be"
      }, {
        "reference": "Observation/cf860d6e-3c9a-4ed0-bf82-8e2c0cda40a5"
      }, {
        "reference": "Observation/13f594eb-92db-44ad-8ee0-edc3ce90fdff"
      }, {
        "reference": "Observation/024bc587-5cac-486c-9286-37d729018bbd"
      }, {
        "reference": "Encounter/3946333e-5764-4292-8816-780f39479b46"
      }, {
        "reference": "Procedure/def09636-a974-4fa6-ad7a-ed53db93f868"
      }, {
        "reference": "Condition/507c7b19-a153-47df-b679-3efbb2a103ae"
      }, {
        "reference": "Coverage/7ba8a5ed-7a4b-4e05-aee9-a7e5658319a7"
      }, {
        "reference": "Organization/0904f5e5-c23f-476e-8569-e6ddb32fb966"
      }, {
        "reference": "Practitioner/956329cc-2fae-4ec6-b56c-5f2b2ebdec81"
      } ]
    },
    "request": {
      "method": "PUT",
      "url": "MeasureReport/d1295036-9d3a-46e6-9bc4-0a5fa8e10a3c"
    }
  } ]
}