{"resourceType":"Bundle","id":"OncologyPainIntensityQuantifiedFHIR-bundle","type":"transaction","timestamp":"2025-07-15T07:42:20.854-06:00","entry":[{"resource":{"resourceType":"Library","id":"OncologyPainIntensityQuantifiedFHIR","meta":{"profile":["http://hl7.org/fhir/uv/crmi/StructureDefinition/crmi-shareablelibrary","http://hl7.org/fhir/uv/crmi/StructureDefinition/crmi-computablelibrary","http://hl7.org/fhir/uv/crmi/StructureDefinition/crmi-publishablelibrary","http://hl7.org/fhir/uv/crmi/StructureDefinition/crmi-executablelibrary","http://hl7.org/fhir/uv/cql/StructureDefinition/cql-library","http://hl7.org/fhir/uv/cql/StructureDefinition/elm-json-library","http://hl7.org/fhir/uv/cql/StructureDefinition/elm-xml-library"]},"language":"en","text":{"status":"extensions","div":"<div xmlns=\"http://www.w3.org/1999/xhtml\">\n    <table class=\"grid dict\">\n        \n        \n        <tr>\n            <th scope=\"row\"><b>Title: </b></th>\n            <td style=\"padding-left: 4px;\">OncologyPainIntensityQuantifiedFHIR</td>\n        </tr>\n        \n\n        \n        \n        <tr>\n            <th scope=\"row\"><b>Id: </b></th>\n            <td style=\"padding-left: 4px;\">OncologyPainIntensityQuantifiedFHIR</td>\n        </tr>\n        \n\n        \n        \n        <tr>\n            <th scope=\"row\"><b>Version: </b></th>\n            <td style=\"padding-left: 4px;\">0.3.000</td>\n        </tr>\n        \n\n        \n        <tr>\n            <th scope=\"row\"><b>Url: </b></th>\n            <td style=\"padding-left: 4px;\">https://madie.cms.gov/Library/OncologyPainIntensityQuantifiedFHIR</td>\n        </tr>\n        \n\n        \n        <tr>\n            <th scope=\"row\">\n                <b>\n                    \n                        official\n                    \n                </b>\n            </th>\n            <td style=\"padding-left: 4px;\">\n                \n                <p style=\"margin-bottom: 5px;\">\n                    <span>OncologyPainIntensityQuantifiedFHIR</span>\n                </p>\n                \n            </td>\n        </tr>\n        \n\n        \n\n        \n\n        \n\n        \n        <tr>\n            <th scope=\"row\"><b>Type: </b></th>\n            <td style=\"padding-left: 4px;\">\n                \n                    \n                        \n                        <p style=\"margin-bottom: 5px;\">\n                            <b>system: </b> <span>http://terminology.hl7.org/CodeSystem/library-type</span>\n                        </p>\n                        \n                        \n                        <p style=\"margin-bottom: 5px;\">\n                            <b>code: </b> <span>logic-library</span>\n                        </p>\n                        \n                        \n                    \n                \n                \n            </td>\n        </tr>\n        \n\n        \n\n        \n        <tr>\n            <th scope=\"row\"><b>Date: </b></th>\n            <td style=\"padding-left: 4px;\">2025-04-16T15:15:42+00:00</td>\n        </tr>\n        \n\n        \n        <tr>\n            <th scope=\"row\"><b>Publisher: </b></th>\n            <td style=\"padding-left: 4px;\">American Society of Clinical Oncology</td>\n        </tr>\n        \n\n        \n        <tr>\n            <th scope=\"row\"><b>Description: </b></th>\n            <td style=\"padding-left: 4px;\">OncologyPainIntensityQuantifiedFHIR</td>\n        </tr>\n        \n\n        \n\n        \n\n        \n\n        \n\n        \n\n        \n\n        \n\n        \n\n        \n\n        \n\n        \n        <tr>\n            <th scope=\"row\"><b>Related Artifacts: </b></th>\n            <td style=\"padding-left: 4px;\">\n                \n                \n                \n                <p><b>Dependencies</b></p>\n                <ul>\n                  \n                    <li>https://madie.cms.gov/Library/QICoreCommon|4.0.000</li>\n                  \n                    <li>http://www.ama-assn.org/go/cpt</li>\n                  \n                    <li>http://cts.nlm.nih.gov/fhir/ValueSet/2.16.840.1.113883.3.526.3.1026</li>\n                  \n                    <li>http://cts.nlm.nih.gov/fhir/ValueSet/2.16.840.1.113883.3.526.3.1010</li>\n                  \n                    <li>http://cts.nlm.nih.gov/fhir/ValueSet/2.16.840.1.113883.3.464.1003.101.12.1001</li>\n                  \n                    <li>http://cts.nlm.nih.gov/fhir/ValueSet/2.16.840.1.113883.3.1444.5.215</li>\n                  \n                    <li>http://cts.nlm.nih.gov/fhir/ValueSet/2.16.840.1.113883.3.526.3.1027</li>\n                  \n                    <li>http://cts.nlm.nih.gov/fhir/ValueSet/2.16.840.1.113883.3.526.3.1028</li>\n                  \n                </ul>\n                \n                \n                \n                \n                \n            </td>\n        </tr>\n        \n\n        \n\n        \n        <tr>\n          <th scope=\"row\"><b>Data Requirements:</b></th>\n          <td style=\"padding-left: 4px;\">\n            <table class=\"grid-dict\">\n              <tr><th><b>Type</b></th><th><b>Profile</b></th><th><b>MS</b></th><th><b>Code Filter</b></th></tr>\n              \n                <tr>\n                  <th>Encounter</th>\n                  <th>http://hl7.org/fhir/us/qicore/StructureDefinition/qicore-encounter</th>\n                  <th>;;</th>\n                  <th>\n                    \n                      <b>code filter: </b>\n                      \n                      <br/>\n                      \n                      \n                      <span style=\"padding-left: 4px;\">\n                          <b>path: </b><span>type</span>\n                      </span>\n                      \n                      <br/>\n                      \n                      \n                      \n                      <span style=\"padding-left: 4px;\">\n                          <b>value set: </b><span>http://cts.nlm.nih.gov/fhir/ValueSet/2.16.840.1.113883.3.464.1003.101.12.1001</span>\n                      </span>\n                      \n                      \n                    \n                  </th>\n                </tr>\n              \n                <tr>\n                  <th>Encounter</th>\n                  <th>http://hl7.org/fhir/us/qicore/StructureDefinition/qicore-encounter</th>\n                  <th>;;</th>\n                  <th>\n                    \n                      <b>code filter: </b>\n                      \n                      <br/>\n                      \n                      \n                      <span style=\"padding-left: 4px;\">\n                          <b>path: </b><span>type</span>\n                      </span>\n                      \n                      <br/>\n                      \n                      \n                      \n                      <span style=\"padding-left: 4px;\">\n                          <b>value set: </b><span>http://cts.nlm.nih.gov/fhir/ValueSet/2.16.840.1.113883.3.1444.5.215</span>\n                      </span>\n                      \n                      \n                    \n                  </th>\n                </tr>\n              \n                <tr>\n                  <th>Observation</th>\n                  <th>http://hl7.org/fhir/us/qicore/StructureDefinition/qicore-observation-screening-assessment</th>\n                  <th>;;;;;</th>\n                  <th>\n                    \n                      <b>code filter: </b>\n                      \n                      <br/>\n                      \n                      \n                      <span style=\"padding-left: 4px;\">\n                          <b>path: </b><span>code</span>\n                      </span>\n                      \n                      <br/>\n                      \n                      \n                      \n                      <span style=\"padding-left: 4px;\">\n                          <b>value set: </b><span>http://cts.nlm.nih.gov/fhir/ValueSet/2.16.840.1.113883.3.526.3.1028</span>\n                      </span>\n                      \n                      \n                    \n                  </th>\n                </tr>\n              \n            </table>\n          </td>\n        </tr>\n        \n\n        \n        \n        <tr>\n          <td colspan=\"2\">\n            <table>\n              <tr><th><a id=\"cql-content\"><b>Content: </b></a> text/cql</th></tr>\n              <tr><td><pre><code class=\"language-cql\">library OncologyPainIntensityQuantifiedFHIR version '0.3.000'\r\n\r\nusing QICore version '6.0.0'\r\n\r\ninclude FHIRHelpers version '4.4.000' called FHIRHelpers\r\ninclude CQMCommon version '4.0.000' called CQMCommon\r\ninclude QICoreCommon version '4.0.000' called QICoreCommon\r\ninclude SupplementalDataElements version '5.1.000' called SDE\r\n\r\ncodesystem &quot;CPT&quot;: 'http://www.ama-assn.org/go/cpt'\r\n\r\nvalueset &quot;Audio Visual Telehealth Encounter&quot;: 'http://cts.nlm.nih.gov/fhir/ValueSet/2.16.840.1.113883.3.1444.5.215'\r\nvalueset &quot;Cancer&quot;: 'http://cts.nlm.nih.gov/fhir/ValueSet/2.16.840.1.113883.3.526.3.1010'\r\nvalueset &quot;Chemotherapy Administration&quot;: 'http://cts.nlm.nih.gov/fhir/ValueSet/2.16.840.1.113883.3.526.3.1027'\r\nvalueset &quot;Office Visit&quot;: 'http://cts.nlm.nih.gov/fhir/ValueSet/2.16.840.1.113883.3.464.1003.101.12.1001'\r\nvalueset &quot;Radiation Treatment Management&quot;: 'http://cts.nlm.nih.gov/fhir/ValueSet/2.16.840.1.113883.3.526.3.1026'\r\nvalueset &quot;Standardized Pain Assessment Tool&quot;: 'http://cts.nlm.nih.gov/fhir/ValueSet/2.16.840.1.113883.3.526.3.1028'\r\n\r\ncode &quot;Radiation treatment management, 5 treatments&quot;: '77427' from &quot;CPT&quot; display 'Radiation treatment management, 5 treatments'\r\n\r\nparameter &quot;Measurement Period&quot; Interval&lt;DateTime&gt;\r\n\r\ncontext Patient\r\n\r\ndefine &quot;Denominator 1&quot;:\r\n  &quot;Initial Population 1&quot;\r\n\r\ndefine &quot;Denominator 2&quot;:\r\n  &quot;Initial Population 2&quot;\r\n\r\ndefine &quot;Initial Population 1&quot;:\r\n  &quot;Face to Face or Telehealth Encounter with Ongoing Chemotherapy&quot;\r\n\r\ndefine &quot;Initial Population 2&quot;:\r\n  &quot;Radiation Treatment Management During Measurement Period with Cancer Diagnosis&quot;\r\n\r\ndefine &quot;Chemotherapy Within 31 Days Prior and During Measurement Period&quot;:\r\n  [Procedure: &quot;Chemotherapy Administration&quot;] ChemoAdministration\r\n    where ChemoAdministration.performed.toInterval ( ) during Interval[start of &quot;Measurement Period&quot; - 31 days, end of &quot;Measurement Period&quot;]\r\n      and ChemoAdministration.status = 'completed'\r\n\r\ndefine &quot;Face to Face or Telehealth Encounter with Ongoing Chemotherapy&quot;:\r\n  from\r\n    ( [Encounter: &quot;Office Visit&quot;]\r\n      union [Encounter: &quot;Audio Visual Telehealth Encounter&quot;] ) FaceToFaceOrTelehealthEncounter,\r\n    &quot;Chemotherapy Within 31 Days Prior and During Measurement Period&quot; ChemoBeforeEncounter,\r\n    &quot;Chemotherapy Within 31 Days Prior and During Measurement Period&quot; ChemoAfterEncounter,\r\n    [ConditionProblemsHealthConcerns: &quot;Cancer&quot;] CancerDx\r\n    where CancerDx.prevalenceInterval ( ) overlaps FaceToFaceOrTelehealthEncounter.period\r\n      and ChemoBeforeEncounter.performed.toInterval ( ) starts 30 days or less on or before day of end of FaceToFaceOrTelehealthEncounter.period\r\n      and ChemoAfterEncounter.performed.toInterval ( ) starts 30 days or less on or after day of end of FaceToFaceOrTelehealthEncounter.period\r\n      and not ( ChemoAfterEncounter.performed.toInterval ( ) same day as ChemoBeforeEncounter.performed.toInterval ( ) )\r\n      and FaceToFaceOrTelehealthEncounter.period during &quot;Measurement Period&quot;\r\n      and FaceToFaceOrTelehealthEncounter.status = 'finished'\r\n    return FaceToFaceOrTelehealthEncounter\r\n\r\ndefine &quot;Numerator 1&quot;:\r\n  &quot;Face to Face or Telehealth Encounter with Ongoing Chemotherapy&quot; FaceToFaceOrTelehealthEncounterWithChemo\r\n    with &quot;Standard Pain Assessment with Result&quot; PainAssessed\r\n      such that PainAssessed.effective.toInterval ( ) during FaceToFaceOrTelehealthEncounterWithChemo.period\r\n\r\ndefine &quot;Radiation Treatment Management During Measurement Period with Cancer Diagnosis&quot;:\r\n  ( [Encounter: &quot;Radiation Treatment Management&quot;] ) RadiationTreatmentManagement\r\n    with [ConditionProblemsHealthConcerns: &quot;Cancer&quot;] CancerDx\r\n      such that CancerDx.isActive ( )\r\n        and CancerDx.prevalenceInterval ( ) overlaps RadiationTreatmentManagement.period\r\n    where RadiationTreatmentManagement.period during &quot;Measurement Period&quot;\r\n      and RadiationTreatmentManagement.status = 'finished'\r\n\r\ndefine &quot;Numerator 2&quot;:\r\n  &quot;Radiation Treatment Management During Measurement Period with Cancer Diagnosis&quot; RadiationManagementEncounter\r\n    with &quot;Standard Pain Assessment with Result&quot; PainAssessed\r\n      such that case\r\n        when exists ( ( RadiationManagementEncounter.type ) RadiationManagement\r\n            where RadiationManagement ~ &quot;Radiation treatment management, 5 treatments&quot;\r\n        ) then PainAssessed.effective.toInterval ( ) 6 days or less on or before day of start of RadiationManagementEncounter.period \r\n        else PainAssessed.effective.toInterval ( ) during day of RadiationManagementEncounter.period end\r\n\r\ndefine &quot;SDE Ethnicity&quot;:\r\n  SDE.&quot;SDE Ethnicity&quot;\r\n\r\ndefine &quot;SDE Payer&quot;:\r\n  SDE.&quot;SDE Payer&quot;\r\n\r\ndefine &quot;SDE Race&quot;:\r\n  SDE.&quot;SDE Race&quot;\r\n\r\ndefine &quot;SDE Sex&quot;:\r\n  SDE.&quot;SDE Sex&quot;\r\n\r\ndefine &quot;Standard Pain Assessment with Result&quot;:\r\n  [ObservationScreeningAssessment: &quot;Standardized Pain Assessment Tool&quot;] AssessedPain\r\n    where AssessedPain.value is not null\r\n      and AssessedPain.status = 'final'</code></pre></td></tr>\n            </table>\n          </td>\n        </tr>\n        \n        \n        \n    </table>\n</div>"},"contained":[{"resourceType":"Parameters","id":"options","parameter":[{"name":"translatorVersion","valueString":"3.25.0"},{"name":"option","valueString":"EnableAnnotations"},{"name":"option","valueString":"EnableLocators"},{"name":"option","valueString":"DisableListDemotion"},{"name":"option","valueString":"DisableListPromotion"},{"name":"format","valueString":"JSON"},{"name":"format","valueString":"XML"},{"name":"analyzeDataRequirements","valueBoolean":false},{"name":"collapseDataRequirements","valueBoolean":false},{"name":"compatibilityLevel","valueString":"1.5"},{"name":"enableCqlOnly","valueBoolean":false},{"name":"errorLevel","valueString":"Info"},{"name":"signatureLevel","valueString":"Overloads"},{"name":"validateUnits","valueBoolean":true},{"name":"verifyOnly","valueBoolean":false}]}],"extension":[{"url":"http://hl7.org/fhir/StructureDefinition/cqf-directReferenceCode","valueCoding":{"system":"http://www.ama-assn.org/go/cpt","code":"77427","display":"Radiation treatment management, 5 treatments"}},{"url":"http://hl7.org/fhir/StructureDefinition/cqf-cqlOptions","valueReference":{"reference":"#options"}},{"url":"http://hl7.org/fhir/uv/crmi/StructureDefinition/crmi-softwaresystem","valueReference":{"reference":"Device/cqf-tooling"}}],"url":"https://madie.cms.gov/Library/OncologyPainIntensityQuantifiedFHIR","identifier":[{"use":"official","system":"https://madie.cms.gov/login","value":"OncologyPainIntensityQuantifiedFHIR"}],"version":"0.3.000","name":"OncologyPainIntensityQuantifiedFHIR","title":"OncologyPainIntensityQuantifiedFHIR","status":"active","experimental":false,"type":{"coding":[{"system":"http://terminology.hl7.org/CodeSystem/library-type","code":"logic-library"}]},"date":"2025-04-16T15:15:42+00:00","publisher":"American Society of Clinical Oncology","description":"OncologyPainIntensityQuantifiedFHIR","content":[{"contentType":"text/cql","data":""}]},"request":{"method":"PUT","url":"Library/OncologyPainIntensityQuantifiedFHIR"}},{"resource":{"resourceType":"Patient","id":"ba6d787f-d15f-4e22-8ee4-30c12d53aa37","meta":{"profile":["http://hl7.org/fhir/us/qicore/StructureDefinition/qicore-patient"]},"text":{"status":"generated","div":"<div xmlns=\"http://www.w3.org/1999/xhtml\"><div class=\"hapiHeaderText\">NoEncChemoOrRadTx<b>IPPFailPop1And2</b></div><table class=\"hapiPropertyTable\"><tbody><tr><td>Identifier</td><td>70907baa15b476ae78501f3d66740457</td></tr><tr><td>Date of birth</td><td><span>10 January 1991</span></td></tr></tbody></table></div>"},"extension":[{"url":"http://hl7.org/fhir/us/core/StructureDefinition/us-core-race","extension":[{"url":"ombCategory","valueCoding":{"system":"urn:oid:2.16.840.1.113883.6.238","code":"1002-5","display":"American Indian or Alaska Native","userSelected":true}},{"url":"text","valueString":"American Indian or Alaska Native"}]},{"url":"http://hl7.org/fhir/us/core/StructureDefinition/us-core-ethnicity","extension":[{"url":"ombCategory","valueCoding":{"system":"urn:oid:2.16.840.1.113883.6.238","code":"2135-2","display":"Hispanic or Latino","userSelected":true}},{"url":"text","valueString":"Hispanic or Latino"}]}],"identifier":[{"type":{"coding":[{"system":"http://terminology.hl7.org/CodeSystem/v2-0203","code":"MR"}]},"system":"https://bonnie-fhir.healthit.gov/","value":"62c880eb0111a60120dc21eb"}],"active":true,"name":[{"use":"usual","family":"IPPFailPop1And2","given":["NoEncChemoOrRadTx"]}],"gender":"female","birthDate":"1991-01-10"},"request":{"method":"PUT","url":"Patient/ba6d787f-d15f-4e22-8ee4-30c12d53aa37"}},{"resource":{"resourceType":"MeasureReport","id":"2ddbc587-71f5-418b-acbf-4a0f12bb5e82","meta":{"profile":["http://hl7.org/fhir/us/cqfmeasures/StructureDefinition/test-case-cqfm"]},"contained":[{"resourceType":"Parameters","id":"d0e71a9e-832d-4d3c-9df3-dba97228c253-parameters","parameter":[{"name":"subject","valueString":"ba6d787f-d15f-4e22-8ee4-30c12d53aa37"}]}],"extension":[{"url":"http://hl7.org/fhir/StructureDefinition/cqf-inputParameters","valueReference":{"reference":"#d0e71a9e-832d-4d3c-9df3-dba97228c253-parameters"}},{"url":"http://hl7.org/fhir/us/cqfmeasures/StructureDefinition/cqfm-testCaseDescription","valueMarkdown":"Patient with cancer diagnosis, but no encounter, no chemotherapy or radiation treatment management. \n"}],"modifierExtension":[{"url":"http://hl7.org/fhir/us/cqfmeasures/StructureDefinition/cqfm-isTestCase","valueBoolean":true}],"status":"complete","type":"individual","measure":"https://madie.cms.gov/Measure/OncologyPainIntensityQuantifiedFHIR","period":{"start":"2026-01-01","end":"2026-12-31"},"group":[{"id":"Group_1","population":[{"id":"InitialPopulation_1","code":{"coding":[{"system":"http://terminology.hl7.org/CodeSystem/measure-population","code":"initial-population","display":"Initial Population"}]},"count":0},{"id":"Denominator_1","code":{"coding":[{"system":"http://terminology.hl7.org/CodeSystem/measure-population","code":"denominator","display":"Denominator"}]},"count":0},{"id":"Numerator_1","code":{"coding":[{"system":"http://terminology.hl7.org/CodeSystem/measure-population","code":"numerator","display":"Numerator"}]},"count":0}],"measureScore":{"value":0.0}},{"id":"Group_2","population":[{"id":"InitialPopulation_2","code":{"coding":[{"system":"http://terminology.hl7.org/CodeSystem/measure-population","code":"initial-population","display":"Initial Population"}]},"count":0},{"id":"Denominator_2","code":{"coding":[{"system":"http://terminology.hl7.org/CodeSystem/measure-population","code":"denominator","display":"Denominator"}]},"count":0},{"id":"Numerator_2","code":{"coding":[{"system":"http://terminology.hl7.org/CodeSystem/measure-population","code":"numerator","display":"Numerator"}]},"count":0}],"measureScore":{"value":0.0}}],"evaluatedResource":[{"reference":"Patient/ba6d787f-d15f-4e22-8ee4-30c12d53aa37"},{"reference":"Condition/a8de04b9-007d-4538-83e2-8dabce47462c"},{"reference":"Coverage/613507da-80cc-4eaa-ba1b-5316da723597"},{"reference":"Organization/1a90904c-6272-43ed-97c8-ee5fd8363435"},{"reference":"Practitioner/b8790d49-4955-4ccd-abe5-fbcf9905f240"}]},"request":{"method":"PUT","url":"MeasureReport/2ddbc587-71f5-418b-acbf-4a0f12bb5e82"}},{"resource":{"resourceType":"Practitioner","id":"b8790d49-4955-4ccd-abe5-fbcf9905f240","meta":{"profile":["http://hl7.org/fhir/us/qicore/StructureDefinition/qicore-practitioner"]},"identifier":[{"system":"http://hl7.org/fhir/sid/us-npi","value":"123456"}],"name":[{"family":"Evil","prefix":["Dr"]}]},"request":{"method":"PUT","url":"Practitioner/b8790d49-4955-4ccd-abe5-fbcf9905f240"}},{"resource":{"resourceType":"Organization","id":"1a90904c-6272-43ed-97c8-ee5fd8363435","meta":{"profile":["http://hl7.org/fhir/us/qicore/StructureDefinition/qicore-organization"]},"identifier":[{"use":"temp","system":"urn:oid:2.16.840.1.113883.4.4","value":"21-3259825"}],"active":true,"type":[{"coding":[{"system":"http://terminology.hl7.org/CodeSystem/organization-type","code":"pay","display":"Payer"}]}],"name":"Blue Cross Blue Shield of Texas","telecom":[{"system":"phone","value":"(+1) 972-766-6900"}],"address":[{"use":"billing","type":"postal","line":["P.O. Box 660044"],"city":"Dallas","state":"TX","postalCode":"75266-0044","country":"USA"}]},"request":{"method":"PUT","url":"Organization/1a90904c-6272-43ed-97c8-ee5fd8363435"}},{"resource":{"resourceType":"Condition","id":"a8de04b9-007d-4538-83e2-8dabce47462c","meta":{"profile":["http://hl7.org/fhir/us/qicore/StructureDefinition/qicore-condition"]},"clinicalStatus":{"coding":[{"system":"http://terminology.hl7.org/CodeSystem/condition-clinical","code":"active","display":"active","userSelected":true}]},"verificationStatus":{"coding":[{"system":"http://terminology.hl7.org/CodeSystem/condition-ver-status","code":"confirmed","display":"Confirmed"}]},"category":[{"coding":[{"system":"http://terminology.hl7.org/CodeSystem/condition-category","code":"problem-list-item","display":"Problem List Item"}]}],"code":{"coding":[{"system":"http://snomed.info/sct","code":"443136000"}]},"subject":{"reference":"Patient/ba6d787f-d15f-4e22-8ee4-30c12d53aa37"},"onsetDateTime":"2025-01-02T14:30:00.000Z"},"request":{"method":"PUT","url":"Condition/a8de04b9-007d-4538-83e2-8dabce47462c"}},{"resource":{"resourceType":"Coverage","id":"613507da-80cc-4eaa-ba1b-5316da723597","meta":{"profile":["http://hl7.org/fhir/us/qicore/StructureDefinition/qicore-coverage"]},"status":"active","beneficiary":{"reference":"Patient/ba6d787f-d15f-4e22-8ee4-30c12d53aa37"},"period":{"start":"1991-01-10T08:00:00.000Z"},"payor":[{"reference":"Organization/1a90904c-6272-43ed-97c8-ee5fd8363435"}]},"request":{"method":"PUT","url":"Coverage/613507da-80cc-4eaa-ba1b-5316da723597"}},{"resource":{"resourceType":"Observation","id":"befd7bf6-c393-4b2a-960b-fd47a0aa300a","meta":{"profile":["http://hl7.org/fhir/us/qicore/StructureDefinition/qicore-observation"]},"status":"final","category":[{"coding":[{"system":"http://terminology.hl7.org/CodeSystem/observation-category","code":"survey","display":"Survey"}],"text":"Survey"}],"code":{"coding":[{"system":"http://loinc.org","code":"38208-5","display":"Pain severity - Reported"}],"text":"Pain severity - Reported"},"subject":{"reference":"Patient/bbdccaa6-f3a0-426d-8e77-eff43095cfc9"},"effectivePeriod":{"start":"2025-02-10T08:00:00.000Z","end":"2025-02-10T08:15:00.000Z"},"valueInteger":5},"request":{"method":"PUT","url":"Observation/befd7bf6-c393-4b2a-960b-fd47a0aa300a"}},{"resource":{"resourceType":"Practitioner","id":"2759f797-c98a-4f61-a0f1-05ef1ccf1484","meta":{"profile":["http://hl7.org/fhir/us/qicore/StructureDefinition/qicore-practitioner"]},"identifier":[{"system":"http://hl7.org/fhir/sid/us-npi","value":"123456"}],"name":[{"family":"Evil","prefix":["Dr"]}]},"request":{"method":"PUT","url":"Practitioner/2759f797-c98a-4f61-a0f1-05ef1ccf1484"}},{"resource":{"resourceType":"Encounter","id":"e799bf6b-8bcd-48cd-bac3-0e0b1625f61c","meta":{"profile":["http://hl7.org/fhir/us/qicore/StructureDefinition/qicore-encounter"]},"status":"finished","class":{"system":"http://terminology.hl7.org/CodeSystem/v3-ActCode","code":"AMB","display":"ambulatory","userSelected":true},"type":[{"coding":[{"system":"http://www.ama-assn.org/go/cpt","version":"2023","code":"77427","display":"Radiation treatment management, 5 treatments","userSelected":true}]}],"subject":{"reference":"Patient/bbdccaa6-f3a0-426d-8e77-eff43095cfc9"},"period":{"start":"2025-09-20T11:30:00.000+00:00","end":"2025-09-20T11:30:00.000+00:00"}},"request":{"method":"PUT","url":"Encounter/e799bf6b-8bcd-48cd-bac3-0e0b1625f61c"}},{"resource":{"resourceType":"MeasureReport","id":"72c5975d-143b-45fa-9194-6015eaa822c0","meta":{"profile":["http://hl7.org/fhir/us/cqfmeasures/StructureDefinition/test-case-cqfm"]},"contained":[{"resourceType":"Parameters","id":"15b4897d-ef44-4780-b92e-8aaaf0ca318d-parameters","parameter":[{"name":"subject","valueString":"bbdccaa6-f3a0-426d-8e77-eff43095cfc9"}]}],"extension":[{"url":"http://hl7.org/fhir/StructureDefinition/cqf-inputParameters","valueReference":{"reference":"#15b4897d-ef44-4780-b92e-8aaaf0ca318d-parameters"}},{"url":"http://hl7.org/fhir/us/cqfmeasures/StructureDefinition/cqfm-testCaseDescription","valueMarkdown":"Patient with cancer diagnosis that overlaps radiation treatment management during measurement period. Pain intensity assessment was performed months before radiation treatment management encounter.\n"}],"modifierExtension":[{"url":"http://hl7.org/fhir/us/cqfmeasures/StructureDefinition/cqfm-isTestCase","valueBoolean":true}],"status":"complete","type":"individual","measure":"https://madie.cms.gov/Measure/OncologyPainIntensityQuantifiedFHIR","period":{"start":"2026-01-01","end":"2026-12-31"},"group":[{"id":"Group_1","population":[{"id":"InitialPopulation_1","code":{"coding":[{"system":"http://terminology.hl7.org/CodeSystem/measure-population","code":"initial-population","display":"Initial Population"}]},"count":0},{"id":"Denominator_1","code":{"coding":[{"system":"http://terminology.hl7.org/CodeSystem/measure-population","code":"denominator","display":"Denominator"}]},"count":0},{"id":"Numerator_1","code":{"coding":[{"system":"http://terminology.hl7.org/CodeSystem/measure-population","code":"numerator","display":"Numerator"}]},"count":0}],"measureScore":{"value":0.0}},{"id":"Group_2","population":[{"id":"InitialPopulation_2","code":{"coding":[{"system":"http://terminology.hl7.org/CodeSystem/measure-population","code":"initial-population","display":"Initial Population"}]},"count":1},{"id":"Denominator_2","code":{"coding":[{"system":"http://terminology.hl7.org/CodeSystem/measure-population","code":"denominator","display":"Denominator"}]},"count":1},{"id":"Numerator_2","code":{"coding":[{"system":"http://terminology.hl7.org/CodeSystem/measure-population","code":"numerator","display":"Numerator"}]},"count":0}],"measureScore":{"value":0.0}}],"evaluatedResource":[{"reference":"Patient/bbdccaa6-f3a0-426d-8e77-eff43095cfc9"},{"reference":"Observation/befd7bf6-c393-4b2a-960b-fd47a0aa300a"},{"reference":"Condition/d04ce652-393a-48b0-b6af-430944262610"},{"reference":"Coverage/fe1f830f-af32-4da2-9d73-42aa0aca1e0c"},{"reference":"Encounter/e799bf6b-8bcd-48cd-bac3-0e0b1625f61c"},{"reference":"Organization/be55d835-5681-4a07-a760-bc7a9c301271"},{"reference":"Practitioner/2759f797-c98a-4f61-a0f1-05ef1ccf1484"}]},"request":{"method":"PUT","url":"MeasureReport/72c5975d-143b-45fa-9194-6015eaa822c0"}},{"resource":{"resourceType":"Organization","id":"be55d835-5681-4a07-a760-bc7a9c301271","meta":{"profile":["http://hl7.org/fhir/us/qicore/StructureDefinition/qicore-organization"]},"identifier":[{"use":"temp","system":"urn:oid:2.16.840.1.113883.4.4","value":"21-3259825"}],"active":true,"type":[{"coding":[{"system":"http://terminology.hl7.org/CodeSystem/organization-type","code":"pay","display":"Payer"}]}],"name":"Blue Cross Blue Shield of Texas","telecom":[{"system":"phone","value":"(+1) 972-766-6900"}],"address":[{"use":"billing","type":"postal","line":["P.O. Box 660044"],"city":"Dallas","state":"TX","postalCode":"75266-0044","country":"USA"}]},"request":{"method":"PUT","url":"Organization/be55d835-5681-4a07-a760-bc7a9c301271"}},{"resource":{"resourceType":"Patient","id":"bbdccaa6-f3a0-426d-8e77-eff43095cfc9","meta":{"profile":["http://hl7.org/fhir/us/qicore/StructureDefinition/qicore-patient"]},"text":{"status":"generated","div":"<div xmlns=\"http://www.w3.org/1999/xhtml\"><div class=\"hapiHeaderText\">PainAssessPriorRadTx<b>NUMERFailPop2</b></div><table class=\"hapiPropertyTable\"><tbody><tr><td>Identifier</td><td>c8dceba3c1a4e57c39b8866880103c78</td></tr><tr><td>Date of birth</td><td><span>10 February 1951</span></td></tr></tbody></table></div>"},"extension":[{"url":"http://hl7.org/fhir/us/core/StructureDefinition/us-core-race","extension":[{"url":"ombCategory","valueCoding":{"system":"urn:oid:2.16.840.1.113883.6.238","code":"1002-5","display":"American Indian or Alaska Native","userSelected":true}},{"url":"text","valueString":"American Indian or Alaska Native"}]},{"url":"http://hl7.org/fhir/us/core/StructureDefinition/us-core-ethnicity","extension":[{"url":"ombCategory","valueCoding":{"system":"urn:oid:2.16.840.1.113883.6.238","code":"2135-2","display":"Hispanic or Latino","userSelected":true}},{"url":"text","valueString":"Hispanic or Latino"}]}],"identifier":[{"type":{"coding":[{"system":"http://terminology.hl7.org/CodeSystem/v2-0203","code":"MR"}]},"system":"https://bonnie-fhir.healthit.gov/","value":"62c880ec0111a60120dc21f6"}],"active":true,"name":[{"use":"usual","family":"NUMERFailPop2","given":["PainAssessPriorRadTx"]}],"gender":"male","birthDate":"1951-02-10"},"request":{"method":"PUT","url":"Patient/bbdccaa6-f3a0-426d-8e77-eff43095cfc9"}},{"resource":{"resourceType":"Condition","id":"d04ce652-393a-48b0-b6af-430944262610","meta":{"profile":["http://hl7.org/fhir/us/qicore/StructureDefinition/qicore-condition"]},"clinicalStatus":{"coding":[{"system":"http://terminology.hl7.org/CodeSystem/condition-clinical","code":"active","display":"active","userSelected":true}]},"verificationStatus":{"coding":[{"system":"http://terminology.hl7.org/CodeSystem/condition-ver-status","code":"confirmed","display":"Confirmed"}]},"category":[{"coding":[{"system":"http://terminology.hl7.org/CodeSystem/condition-category","code":"problem-list-item","display":"Problem List Item"}]}],"code":{"coding":[{"system":"http://snomed.info/sct","code":"107691000119101"}]},"subject":{"reference":"Patient/bbdccaa6-f3a0-426d-8e77-eff43095cfc9"},"onsetDateTime":"2021-09-12T10:45:00.000Z"},"request":{"method":"PUT","url":"Condition/d04ce652-393a-48b0-b6af-430944262610"}},{"resource":{"resourceType":"Coverage","id":"fe1f830f-af32-4da2-9d73-42aa0aca1e0c","meta":{"profile":["http://hl7.org/fhir/us/qicore/StructureDefinition/qicore-coverage"]},"status":"active","beneficiary":{"reference":"Patient/bbdccaa6-f3a0-426d-8e77-eff43095cfc9"},"period":{"start":"1951-02-10T08:00:00.000Z"},"payor":[{"reference":"Organization/be55d835-5681-4a07-a760-bc7a9c301271"}]},"request":{"method":"PUT","url":"Coverage/fe1f830f-af32-4da2-9d73-42aa0aca1e0c"}},{"resource":{"resourceType":"Procedure","id":"09a3b08c-8f8f-48aa-844f-bd213801b217","meta":{"profile":["http://hl7.org/fhir/us/qicore/StructureDefinition/qicore-procedure"]},"extension":[{"url":"http://hl7.org/fhir/us/qicore/StructureDefinition/qicore-recorded","valueDateTime":"2023-12-27T10:35:00.000Z"}],"status":"completed","code":{"coding":[{"system":"http://www.ama-assn.org/go/cpt","code":"96405"}]},"subject":{"reference":"Patient/91ebcd41-a1a5-45e0-95fd-e2a2799f4459"},"performedPeriod":{"start":"2023-12-27T10:30:00.000Z","end":"2023-12-27T10:30:00.000Z"}},"request":{"method":"PUT","url":"Procedure/09a3b08c-8f8f-48aa-844f-bd213801b217"}},{"resource":{"resourceType":"Patient","id":"91ebcd41-a1a5-45e0-95fd-e2a2799f4459","meta":{"profile":["http://hl7.org/fhir/us/qicore/StructureDefinition/qicore-patient"]},"text":{"status":"generated","div":"<div xmlns=\"http://www.w3.org/1999/xhtml\"><div class=\"hapiHeaderText\">EncPriorMP<b>IPPFailPop1</b></div><table class=\"hapiPropertyTable\"><tbody><tr><td>Identifier</td><td>3a32515f77a3f69506b686cae30ab46d</td></tr><tr><td>Date of birth</td><td><span>13 April 1921</span></td></tr></tbody></table></div>"},"extension":[{"url":"http://hl7.org/fhir/us/core/StructureDefinition/us-core-race","extension":[{"url":"ombCategory","valueCoding":{"system":"urn:oid:2.16.840.1.113883.6.238","code":"1002-5","display":"American Indian or Alaska Native","userSelected":true}},{"url":"text","valueString":"American Indian or Alaska Native"}]},{"url":"http://hl7.org/fhir/us/core/StructureDefinition/us-core-ethnicity","extension":[{"url":"ombCategory","valueCoding":{"system":"urn:oid:2.16.840.1.113883.6.238","code":"2135-2","display":"Hispanic or Latino","userSelected":true}},{"url":"text","valueString":"Hispanic or Latino"}]}],"identifier":[{"type":{"coding":[{"system":"http://terminology.hl7.org/CodeSystem/v2-0203","code":"MR"}]},"system":"https://bonnie-fhir.healthit.gov/","value":"62c880ec0111a60120dc220a"}],"active":true,"name":[{"use":"usual","family":"IPPFailPop1","given":["EncPriorMP"]}],"gender":"male","birthDate":"1921-04-13"},"request":{"method":"PUT","url":"Patient/91ebcd41-a1a5-45e0-95fd-e2a2799f4459"}},{"resource":{"resourceType":"Organization","id":"9ecfed64-596c-4a8c-89a5-66a84a57afd2","meta":{"profile":["http://hl7.org/fhir/us/qicore/StructureDefinition/qicore-organization"]},"identifier":[{"use":"temp","system":"urn:oid:2.16.840.1.113883.4.4","value":"21-3259825"}],"active":true,"type":[{"coding":[{"system":"http://terminology.hl7.org/CodeSystem/organization-type","code":"pay","display":"Payer"}]}],"name":"Blue Cross Blue Shield of Texas","telecom":[{"system":"phone","value":"(+1) 972-766-6900"}],"address":[{"use":"billing","type":"postal","line":["P.O. Box 660044"],"city":"Dallas","state":"TX","postalCode":"75266-0044","country":"USA"}]},"request":{"method":"PUT","url":"Organization/9ecfed64-596c-4a8c-89a5-66a84a57afd2"}},{"resource":{"resourceType":"Encounter","id":"c1a18122-a3af-4df9-ae11-235cecb236db","meta":{"profile":["http://hl7.org/fhir/us/qicore/StructureDefinition/qicore-encounter"]},"status":"finished","class":{"system":"http://terminology.hl7.org/CodeSystem/v3-ActCode","code":"AMB","display":"ambulatory","userSelected":true},"type":[{"coding":[{"system":"http://snomed.info/sct","code":"185463005"}]}],"subject":{"reference":"Patient/91ebcd41-a1a5-45e0-95fd-e2a2799f4459"},"period":{"start":"2023-12-29T10:50:00.000Z","end":"2023-12-29T10:50:00.000Z"}},"request":{"method":"PUT","url":"Encounter/c1a18122-a3af-4df9-ae11-235cecb236db"}},{"resource":{"resourceType":"MeasureReport","id":"132cbf89-450c-4d21-be13-7ec599e888af","meta":{"profile":["http://hl7.org/fhir/us/cqfmeasures/StructureDefinition/test-case-cqfm"]},"contained":[{"resourceType":"Parameters","id":"d030c429-7ca9-4a18-b908-ba0e79c70a40-parameters","parameter":[{"name":"subject","valueString":"91ebcd41-a1a5-45e0-95fd-e2a2799f4459"}]}],"extension":[{"url":"http://hl7.org/fhir/StructureDefinition/cqf-inputParameters","valueReference":{"reference":"#d030c429-7ca9-4a18-b908-ba0e79c70a40-parameters"}},{"url":"http://hl7.org/fhir/us/cqfmeasures/StructureDefinition/cqfm-testCaseDescription","valueMarkdown":"Patient with cancer diagnosis that overlaps the office visit. Office visit occurs prior to the measurement period. \n"}],"modifierExtension":[{"url":"http://hl7.org/fhir/us/cqfmeasures/StructureDefinition/cqfm-isTestCase","valueBoolean":true}],"status":"complete","type":"individual","measure":"https://madie.cms.gov/Measure/OncologyPainIntensityQuantifiedFHIR","period":{"start":"2026-01-01","end":"2026-12-31"},"group":[{"id":"Group_1","population":[{"id":"InitialPopulation_1","code":{"coding":[{"system":"http://terminology.hl7.org/CodeSystem/measure-population","code":"initial-population","display":"Initial Population"}]},"count":0},{"id":"Denominator_1","code":{"coding":[{"system":"http://terminology.hl7.org/CodeSystem/measure-population","code":"denominator","display":"Denominator"}]},"count":0},{"id":"Numerator_1","code":{"coding":[{"system":"http://terminology.hl7.org/CodeSystem/measure-population","code":"numerator","display":"Numerator"}]},"count":0}],"measureScore":{"value":0.0}},{"id":"Group_2","population":[{"id":"InitialPopulation_2","code":{"coding":[{"system":"http://terminology.hl7.org/CodeSystem/measure-population","code":"initial-population","display":"Initial Population"}]},"count":0},{"id":"Denominator_2","code":{"coding":[{"system":"http://terminology.hl7.org/CodeSystem/measure-population","code":"denominator","display":"Denominator"}]},"count":0},{"id":"Numerator_2","code":{"coding":[{"system":"http://terminology.hl7.org/CodeSystem/measure-population","code":"numerator","display":"Numerator"}]},"count":0}],"measureScore":{"value":0.0}}],"evaluatedResource":[{"reference":"Patient/91ebcd41-a1a5-45e0-95fd-e2a2799f4459"},{"reference":"Condition/318ff321-7aa0-4a3a-80a6-b01d4c1a2350"},{"reference":"Encounter/c1a18122-a3af-4df9-ae11-235cecb236db"},{"reference":"Coverage/2cd80866-fcda-4518-bda5-84a8f83a1f03"},{"reference":"Procedure/09a3b08c-8f8f-48aa-844f-bd213801b217"},{"reference":"Procedure/7f4cae3d-0d95-4b48-a9ce-118e5170d66a"},{"reference":"Organization/9ecfed64-596c-4a8c-89a5-66a84a57afd2"},{"reference":"Practitioner/60f1c6db-e152-4cdd-b6bc-bab2311da46c"}]},"request":{"method":"PUT","url":"MeasureReport/132cbf89-450c-4d21-be13-7ec599e888af"}},{"resource":{"resourceType":"Condition","id":"318ff321-7aa0-4a3a-80a6-b01d4c1a2350","meta":{"profile":["http://hl7.org/fhir/us/qicore/StructureDefinition/qicore-condition"]},"clinicalStatus":{"coding":[{"system":"http://terminology.hl7.org/CodeSystem/condition-clinical","code":"active","display":"active","userSelected":true}]},"verificationStatus":{"coding":[{"system":"http://terminology.hl7.org/CodeSystem/condition-ver-status","code":"confirmed","display":"Confirmed"}]},"category":[{"coding":[{"system":"http://terminology.hl7.org/CodeSystem/condition-category","code":"problem-list-item","display":"Problem List Item"}]}],"code":{"coding":[{"system":"http://hl7.org/fhir/sid/icd-10-cm","code":"C44.229"}]},"subject":{"reference":"Patient/91ebcd41-a1a5-45e0-95fd-e2a2799f4459"},"onsetDateTime":"2020-01-14T10:50:00.000Z"},"request":{"method":"PUT","url":"Condition/318ff321-7aa0-4a3a-80a6-b01d4c1a2350"}},{"resource":{"resourceType":"Coverage","id":"2cd80866-fcda-4518-bda5-84a8f83a1f03","meta":{"profile":["http://hl7.org/fhir/us/qicore/StructureDefinition/qicore-coverage"]},"status":"active","beneficiary":{"reference":"Patient/91ebcd41-a1a5-45e0-95fd-e2a2799f4459"},"period":{"start":"1921-04-13T08:00:00.000Z"},"payor":[{"reference":"Organization/9ecfed64-596c-4a8c-89a5-66a84a57afd2"}]},"request":{"method":"PUT","url":"Coverage/2cd80866-fcda-4518-bda5-84a8f83a1f03"}},{"resource":{"resourceType":"Procedure","id":"7f4cae3d-0d95-4b48-a9ce-118e5170d66a","meta":{"profile":["http://hl7.org/fhir/us/qicore/StructureDefinition/qicore-procedure"]},"extension":[{"url":"http://hl7.org/fhir/us/qicore/StructureDefinition/qicore-recorded","valueDateTime":"2025-01-15T12:50:00.000Z"}],"status":"completed","code":{"coding":[{"system":"http://www.ama-assn.org/go/cpt","code":"96405"}]},"subject":{"reference":"Patient/91ebcd41-a1a5-45e0-95fd-e2a2799f4459"},"performedPeriod":{"start":"2025-01-15T12:45:00.000Z","end":"2025-01-15T12:45:00.000Z"}},"request":{"method":"PUT","url":"Procedure/7f4cae3d-0d95-4b48-a9ce-118e5170d66a"}},{"resource":{"resourceType":"Practitioner","id":"60f1c6db-e152-4cdd-b6bc-bab2311da46c","meta":{"profile":["http://hl7.org/fhir/us/qicore/StructureDefinition/qicore-practitioner"]},"identifier":[{"system":"http://hl7.org/fhir/sid/us-npi","value":"123456"}],"name":[{"family":"Evil","prefix":["Dr"]}]},"request":{"method":"PUT","url":"Practitioner/60f1c6db-e152-4cdd-b6bc-bab2311da46c"}},{"resource":{"resourceType":"Patient","id":"18a871b4-b7d2-4fca-bd04-155b44965f4e","meta":{"profile":["http://hl7.org/fhir/us/qicore/StructureDefinition/qicore-patient"]},"text":{"status":"generated","div":"<div xmlns=\"http://www.w3.org/1999/xhtml\"><div class=\"hapiHeaderText\">PainAssessDuringOVEncNotRadTx<b>NUMERFailPop2</b></div><table class=\"hapiPropertyTable\"><tbody><tr><td>Identifier</td><td>37f8133962bfd168fb6fc8902e0c030e</td></tr><tr><td>Date of birth</td><td><span>25 April 1981</span></td></tr></tbody></table></div>"},"extension":[{"url":"http://hl7.org/fhir/us/core/StructureDefinition/us-core-race","extension":[{"url":"ombCategory","valueCoding":{"system":"urn:oid:2.16.840.1.113883.6.238","code":"1002-5","display":"American Indian or Alaska Native","userSelected":true}},{"url":"text","valueString":"American Indian or Alaska Native"}]},{"url":"http://hl7.org/fhir/us/core/StructureDefinition/us-core-ethnicity","extension":[{"url":"ombCategory","valueCoding":{"system":"urn:oid:2.16.840.1.113883.6.238","code":"2135-2","display":"Hispanic or Latino","userSelected":true}},{"url":"text","valueString":"Hispanic or Latino"}]}],"identifier":[{"type":{"coding":[{"system":"http://terminology.hl7.org/CodeSystem/v2-0203","code":"MR"}]},"system":"https://bonnie-fhir.healthit.gov/","value":"62c880ed0111a60120dc221a"}],"active":true,"name":[{"use":"usual","family":"NUMERFailPop2","given":["PainAssessDuringOVEncNotRadTx"]}],"gender":"male","birthDate":"1981-04-25"},"request":{"method":"PUT","url":"Patient/18a871b4-b7d2-4fca-bd04-155b44965f4e"}},{"resource":{"resourceType":"Observation","id":"6bff62fe-fdbe-4982-87b3-c7a30e409c77","meta":{"profile":["http://hl7.org/fhir/us/qicore/StructureDefinition/qicore-observation"]},"status":"final","category":[{"coding":[{"system":"http://terminology.hl7.org/CodeSystem/observation-category","code":"survey","display":"Survey"}],"text":"Survey"}],"code":{"coding":[{"system":"http://loinc.org","code":"38208-5","display":"Pain severity - Reported"}],"text":"Pain severity - Reported"},"subject":{"reference":"Patient/18a871b4-b7d2-4fca-bd04-155b44965f4e"},"effectiveDateTime":"2025-01-06T12:45:00.000Z"},"request":{"method":"PUT","url":"Observation/6bff62fe-fdbe-4982-87b3-c7a30e409c77"}},{"resource":{"resourceType":"Encounter","id":"4f8008f2-5378-4f64-a47f-b9615924c099","meta":{"profile":["http://hl7.org/fhir/us/qicore/StructureDefinition/qicore-encounter"]},"status":"finished","class":{"system":"http://terminology.hl7.org/CodeSystem/v3-ActCode","code":"AMB","display":"ambulatory","userSelected":true},"type":[{"coding":[{"system":"http://www.ama-assn.org/go/cpt","version":"2023","code":"77427","display":"Radiation treatment management, 5 treatments","userSelected":true}]}],"subject":{"reference":"Patient/18a871b4-b7d2-4fca-bd04-155b44965f4e"},"period":{"start":"2025-11-01T13:30:00.000+00:00","end":"2025-11-01T13:30:00.000+00:00"}},"request":{"method":"PUT","url":"Encounter/4f8008f2-5378-4f64-a47f-b9615924c099"}},{"resource":{"resourceType":"Practitioner","id":"f95a099c-cdab-4971-ba0f-487a7c041e46","meta":{"profile":["http://hl7.org/fhir/us/qicore/StructureDefinition/qicore-practitioner"]},"identifier":[{"system":"http://hl7.org/fhir/sid/us-npi","value":"123456"}],"name":[{"family":"Evil","prefix":["Dr"]}]},"request":{"method":"PUT","url":"Practitioner/f95a099c-cdab-4971-ba0f-487a7c041e46"}},{"resource":{"resourceType":"Encounter","id":"fafdc17c-eb86-45e0-a891-0a7fd3d2a072","meta":{"profile":["http://hl7.org/fhir/us/qicore/StructureDefinition/qicore-encounter"]},"status":"finished","class":{"system":"http://terminology.hl7.org/CodeSystem/v3-ActCode","code":"AMB","display":"ambulatory","userSelected":true},"type":[{"coding":[{"system":"http://www.ama-assn.org/go/cpt","code":"99202"}]}],"subject":{"reference":"Patient/18a871b4-b7d2-4fca-bd04-155b44965f4e"},"period":{"start":"2025-01-06T12:45:00.000Z","end":"2025-01-06T13:00:00.000Z"}},"request":{"method":"PUT","url":"Encounter/fafdc17c-eb86-45e0-a891-0a7fd3d2a072"}},{"resource":{"resourceType":"Condition","id":"da413d02-d7ae-47c0-ad59-0752df5cc066","meta":{"profile":["http://hl7.org/fhir/us/qicore/StructureDefinition/qicore-condition"]},"clinicalStatus":{"coding":[{"system":"http://terminology.hl7.org/CodeSystem/condition-clinical","code":"active","display":"active","userSelected":true}]},"verificationStatus":{"coding":[{"system":"http://terminology.hl7.org/CodeSystem/condition-ver-status","code":"confirmed","display":"Confirmed"}]},"category":[{"coding":[{"system":"http://terminology.hl7.org/CodeSystem/condition-category","code":"problem-list-item","display":"Problem List Item"}]}],"code":{"coding":[{"system":"http://snomed.info/sct","code":"107691000119101"}]},"subject":{"reference":"Patient/18a871b4-b7d2-4fca-bd04-155b44965f4e"},"onsetDateTime":"2021-01-06T12:45:00.000Z"},"request":{"method":"PUT","url":"Condition/da413d02-d7ae-47c0-ad59-0752df5cc066"}},{"resource":{"resourceType":"MeasureReport","id":"f0187aac-ea4d-4e32-8473-3272225932e6","meta":{"profile":["http://hl7.org/fhir/us/cqfmeasures/StructureDefinition/test-case-cqfm"]},"contained":[{"resourceType":"Parameters","id":"b8adb118-30c0-4ec8-be91-407238b9c4f4-parameters","parameter":[{"name":"subject","valueString":"18a871b4-b7d2-4fca-bd04-155b44965f4e"}]}],"extension":[{"url":"http://hl7.org/fhir/StructureDefinition/cqf-inputParameters","valueReference":{"reference":"#b8adb118-30c0-4ec8-be91-407238b9c4f4-parameters"}},{"url":"http://hl7.org/fhir/us/cqfmeasures/StructureDefinition/cqfm-testCaseDescription","valueMarkdown":"Patient with cancer diagnosis that overlaps radiation treatment management during measurement period. Pain intensity assessment was performed during office visit, not during radiation treatment management encounter.\n"}],"modifierExtension":[{"url":"http://hl7.org/fhir/us/cqfmeasures/StructureDefinition/cqfm-isTestCase","valueBoolean":true}],"status":"complete","type":"individual","measure":"https://madie.cms.gov/Measure/OncologyPainIntensityQuantifiedFHIR","period":{"start":"2026-01-01","end":"2026-12-31"},"group":[{"id":"Group_1","population":[{"id":"InitialPopulation_1","code":{"coding":[{"system":"http://terminology.hl7.org/CodeSystem/measure-population","code":"initial-population","display":"Initial Population"}]},"count":0},{"id":"Denominator_1","code":{"coding":[{"system":"http://terminology.hl7.org/CodeSystem/measure-population","code":"denominator","display":"Denominator"}]},"count":0},{"id":"Numerator_1","code":{"coding":[{"system":"http://terminology.hl7.org/CodeSystem/measure-population","code":"numerator","display":"Numerator"}]},"count":0}],"measureScore":{"value":0.0}},{"id":"Group_2","population":[{"id":"InitialPopulation_2","code":{"coding":[{"system":"http://terminology.hl7.org/CodeSystem/measure-population","code":"initial-population","display":"Initial Population"}]},"count":1},{"id":"Denominator_2","code":{"coding":[{"system":"http://terminology.hl7.org/CodeSystem/measure-population","code":"denominator","display":"Denominator"}]},"count":1},{"id":"Numerator_2","code":{"coding":[{"system":"http://terminology.hl7.org/CodeSystem/measure-population","code":"numerator","display":"Numerator"}]},"count":0}],"measureScore":{"value":0.0}}],"evaluatedResource":[{"reference":"Patient/18a871b4-b7d2-4fca-bd04-155b44965f4e"},{"reference":"Observation/6bff62fe-fdbe-4982-87b3-c7a30e409c77"},{"reference":"Condition/da413d02-d7ae-47c0-ad59-0752df5cc066"},{"reference":"Encounter/fafdc17c-eb86-45e0-a891-0a7fd3d2a072"},{"reference":"Coverage/67b152b7-92ba-41fe-9ba8-e0e2f04cb1b5"},{"reference":"Encounter/4f8008f2-5378-4f64-a47f-b9615924c099"},{"reference":"Organization/acc32c2f-bf27-4676-812a-7fb674db04fb"},{"reference":"Practitioner/f95a099c-cdab-4971-ba0f-487a7c041e46"}]},"request":{"method":"PUT","url":"MeasureReport/f0187aac-ea4d-4e32-8473-3272225932e6"}},{"resource":{"resourceType":"Organization","id":"acc32c2f-bf27-4676-812a-7fb674db04fb","meta":{"profile":["http://hl7.org/fhir/us/qicore/StructureDefinition/qicore-organization"]},"identifier":[{"use":"temp","system":"urn:oid:2.16.840.1.113883.4.4","value":"21-3259825"}],"active":true,"type":[{"coding":[{"system":"http://terminology.hl7.org/CodeSystem/organization-type","code":"pay","display":"Payer"}]}],"name":"Blue Cross Blue Shield of Texas","telecom":[{"system":"phone","value":"(+1) 972-766-6900"}],"address":[{"use":"billing","type":"postal","line":["P.O. Box 660044"],"city":"Dallas","state":"TX","postalCode":"75266-0044","country":"USA"}]},"request":{"method":"PUT","url":"Organization/acc32c2f-bf27-4676-812a-7fb674db04fb"}},{"resource":{"resourceType":"Coverage","id":"67b152b7-92ba-41fe-9ba8-e0e2f04cb1b5","meta":{"profile":["http://hl7.org/fhir/us/qicore/StructureDefinition/qicore-coverage"]},"status":"active","beneficiary":{"reference":"Patient/18a871b4-b7d2-4fca-bd04-155b44965f4e"},"period":{"start":"1981-04-25T08:00:00.000Z"},"payor":[{"reference":"Organization/acc32c2f-bf27-4676-812a-7fb674db04fb"}]},"request":{"method":"PUT","url":"Coverage/67b152b7-92ba-41fe-9ba8-e0e2f04cb1b5"}},{"resource":{"resourceType":"Coverage","id":"ddb1042a-d209-473b-ae92-68ac73a007f1","meta":{"profile":["http://hl7.org/fhir/us/qicore/StructureDefinition/qicore-coverage"]},"status":"active","beneficiary":{"reference":"Patient/ea08cba3-e556-496e-8aab-3b1e6f58fda0"},"period":{"start":"1956-07-16T08:00:00.000Z"},"payor":[{"reference":"Organization/44c2909d-83ce-42dc-85f7-385a4d1d7b7d"}]},"request":{"method":"PUT","url":"Coverage/ddb1042a-d209-473b-ae92-68ac73a007f1"}},{"resource":{"resourceType":"Condition","id":"f7c0de4b-c6ec-41d8-9d53-56a5b2154668","meta":{"profile":["http://hl7.org/fhir/us/qicore/StructureDefinition/qicore-condition"]},"clinicalStatus":{"coding":[{"system":"http://terminology.hl7.org/CodeSystem/condition-clinical","code":"remission","display":"remission"}]},"verificationStatus":{"coding":[{"system":"http://terminology.hl7.org/CodeSystem/condition-ver-status","code":"confirmed","display":"Confirmed"}]},"category":[{"coding":[{"system":"http://terminology.hl7.org/CodeSystem/condition-category","code":"problem-list-item","display":"Problem List Item"}]}],"code":{"coding":[{"system":"http://snomed.info/sct","code":"423746001"}]},"subject":{"reference":"Patient/ea08cba3-e556-496e-8aab-3b1e6f58fda0"},"onsetDateTime":"2021-06-27T13:40:00.000Z","abatementDateTime":"2025-03-27T13:40:00.000Z"},"request":{"method":"PUT","url":"Condition/f7c0de4b-c6ec-41d8-9d53-56a5b2154668"}},{"resource":{"resourceType":"Organization","id":"44c2909d-83ce-42dc-85f7-385a4d1d7b7d","meta":{"profile":["http://hl7.org/fhir/us/qicore/StructureDefinition/qicore-organization"]},"identifier":[{"use":"temp","system":"urn:oid:2.16.840.1.113883.4.4","value":"21-3259825"}],"active":true,"type":[{"coding":[{"system":"http://terminology.hl7.org/CodeSystem/organization-type","code":"pay","display":"Payer"}]}],"name":"Blue Cross Blue Shield of Texas","telecom":[{"system":"phone","value":"(+1) 972-766-6900"}],"address":[{"use":"billing","type":"postal","line":["P.O. Box 660044"],"city":"Dallas","state":"TX","postalCode":"75266-0044","country":"USA"}]},"request":{"method":"PUT","url":"Organization/44c2909d-83ce-42dc-85f7-385a4d1d7b7d"}},{"resource":{"resourceType":"Procedure","id":"5e7483c2-41d1-426d-86cb-506223eec9f1","meta":{"profile":["http://hl7.org/fhir/us/qicore/StructureDefinition/qicore-procedure"]},"extension":[{"url":"http://hl7.org/fhir/us/qicore/StructureDefinition/qicore-recorded","valueDateTime":"2025-03-28T13:45:00.000Z"}],"status":"completed","code":{"coding":[{"system":"http://snomed.info/sct","code":"169396008"}]},"subject":{"reference":"Patient/ea08cba3-e556-496e-8aab-3b1e6f58fda0"},"performedPeriod":{"start":"2025-03-28T13:40:00.000Z","end":"2025-03-28T13:40:00.000Z"}},"request":{"method":"PUT","url":"Procedure/5e7483c2-41d1-426d-86cb-506223eec9f1"}},{"resource":{"resourceType":"MeasureReport","id":"567b84c4-8396-4eba-bab1-bc8980f3cbf4","meta":{"profile":["http://hl7.org/fhir/us/cqfmeasures/StructureDefinition/test-case-cqfm"]},"contained":[{"resourceType":"Parameters","id":"93e7cba4-f585-4d53-96b6-677c052f58a2-parameters","parameter":[{"name":"subject","valueString":"ea08cba3-e556-496e-8aab-3b1e6f58fda0"}]}],"extension":[{"url":"http://hl7.org/fhir/StructureDefinition/cqf-inputParameters","valueReference":{"reference":"#93e7cba4-f585-4d53-96b6-677c052f58a2-parameters"}},{"url":"http://hl7.org/fhir/us/cqfmeasures/StructureDefinition/cqfm-testCaseDescription","valueMarkdown":"Patient with cancer diagnosis ending at the start of the office visit during the measurement period. No chemotherapy administered prior to the office visit. \n"}],"modifierExtension":[{"url":"http://hl7.org/fhir/us/cqfmeasures/StructureDefinition/cqfm-isTestCase","valueBoolean":true}],"status":"complete","type":"individual","measure":"https://madie.cms.gov/Measure/OncologyPainIntensityQuantifiedFHIR","period":{"start":"2026-01-01","end":"2026-12-31"},"group":[{"id":"Group_1","population":[{"id":"InitialPopulation_1","code":{"coding":[{"system":"http://terminology.hl7.org/CodeSystem/measure-population","code":"initial-population","display":"Initial Population"}]},"count":0},{"id":"Denominator_1","code":{"coding":[{"system":"http://terminology.hl7.org/CodeSystem/measure-population","code":"denominator","display":"Denominator"}]},"count":0},{"id":"Numerator_1","code":{"coding":[{"system":"http://terminology.hl7.org/CodeSystem/measure-population","code":"numerator","display":"Numerator"}]},"count":0}],"measureScore":{"value":0.0}},{"id":"Group_2","population":[{"id":"InitialPopulation_2","code":{"coding":[{"system":"http://terminology.hl7.org/CodeSystem/measure-population","code":"initial-population","display":"Initial Population"}]},"count":0},{"id":"Denominator_2","code":{"coding":[{"system":"http://terminology.hl7.org/CodeSystem/measure-population","code":"denominator","display":"Denominator"}]},"count":0},{"id":"Numerator_2","code":{"coding":[{"system":"http://terminology.hl7.org/CodeSystem/measure-population","code":"numerator","display":"Numerator"}]},"count":0}],"measureScore":{"value":0.0}}],"evaluatedResource":[{"reference":"Patient/ea08cba3-e556-496e-8aab-3b1e6f58fda0"},{"reference":"Condition/f7c0de4b-c6ec-41d8-9d53-56a5b2154668"},{"reference":"Encounter/bc1dba0a-2b85-4926-96a8-7c1f2d5786cd"},{"reference":"Coverage/ddb1042a-d209-473b-ae92-68ac73a007f1"},{"reference":"Procedure/5e7483c2-41d1-426d-86cb-506223eec9f1"},{"reference":"Procedure/7d870642-a67a-4081-85fe-c0cc8897c204"},{"reference":"Organization/44c2909d-83ce-42dc-85f7-385a4d1d7b7d"},{"reference":"Practitioner/0503e3c9-6dbc-474b-8abd-0edbf03a544f"}]},"request":{"method":"PUT","url":"MeasureReport/567b84c4-8396-4eba-bab1-bc8980f3cbf4"}},{"resource":{"resourceType":"Encounter","id":"bc1dba0a-2b85-4926-96a8-7c1f2d5786cd","meta":{"profile":["http://hl7.org/fhir/us/qicore/StructureDefinition/qicore-encounter"]},"status":"finished","class":{"system":"http://terminology.hl7.org/CodeSystem/v3-ActCode","code":"AMB","display":"ambulatory","userSelected":true},"type":[{"coding":[{"system":"http://snomed.info/sct","code":"185463005"}]}],"subject":{"reference":"Patient/ea08cba3-e556-496e-8aab-3b1e6f58fda0"},"period":{"start":"2025-03-27T13:40:00.000Z","end":"2025-03-27T13:40:00.000Z"}},"request":{"method":"PUT","url":"Encounter/bc1dba0a-2b85-4926-96a8-7c1f2d5786cd"}},{"resource":{"resourceType":"Practitioner","id":"0503e3c9-6dbc-474b-8abd-0edbf03a544f","meta":{"profile":["http://hl7.org/fhir/us/qicore/StructureDefinition/qicore-practitioner"]},"identifier":[{"system":"http://hl7.org/fhir/sid/us-npi","value":"123456"}],"name":[{"family":"Evil","prefix":["Dr"]}]},"request":{"method":"PUT","url":"Practitioner/0503e3c9-6dbc-474b-8abd-0edbf03a544f"}},{"resource":{"resourceType":"Patient","id":"ea08cba3-e556-496e-8aab-3b1e6f58fda0","meta":{"profile":["http://hl7.org/fhir/us/qicore/StructureDefinition/qicore-patient"]},"text":{"status":"generated","div":"<div xmlns=\"http://www.w3.org/1999/xhtml\"><div class=\"hapiHeaderText\">NoChemoPriorEnc<b>IPPFailPop1</b></div><table class=\"hapiPropertyTable\"><tbody><tr><td>Identifier</td><td>ff3925b673f4a036a257dd80aff86021</td></tr><tr><td>Date of birth</td><td><span>16 July 1956</span></td></tr></tbody></table></div>"},"extension":[{"url":"http://hl7.org/fhir/us/core/StructureDefinition/us-core-race","extension":[{"url":"ombCategory","valueCoding":{"system":"urn:oid:2.16.840.1.113883.6.238","code":"1002-5","display":"American Indian or Alaska Native","userSelected":true}},{"url":"text","valueString":"American Indian or Alaska Native"}]},{"url":"http://hl7.org/fhir/us/core/StructureDefinition/us-core-ethnicity","extension":[{"url":"ombCategory","valueCoding":{"system":"urn:oid:2.16.840.1.113883.6.238","code":"2135-2","display":"Hispanic or Latino","userSelected":true}},{"url":"text","valueString":"Hispanic or Latino"}]}],"identifier":[{"type":{"coding":[{"system":"http://terminology.hl7.org/CodeSystem/v2-0203","code":"MR"}]},"system":"https://bonnie-fhir.healthit.gov/","value":"62c880ec0111a60120dc2203"}],"active":true,"name":[{"use":"usual","family":"IPPFailPop1","given":["NoChemoPriorEnc"]}],"gender":"male","birthDate":"1956-07-16"},"request":{"method":"PUT","url":"Patient/ea08cba3-e556-496e-8aab-3b1e6f58fda0"}},{"resource":{"resourceType":"Procedure","id":"7d870642-a67a-4081-85fe-c0cc8897c204","meta":{"profile":["http://hl7.org/fhir/us/qicore/StructureDefinition/qicore-procedure"]},"extension":[{"url":"http://hl7.org/fhir/us/qicore/StructureDefinition/qicore-recorded","valueDateTime":"2025-04-03T15:55:00.000Z"}],"status":"completed","code":{"coding":[{"system":"http://snomed.info/sct","code":"84755001"}]},"subject":{"reference":"Patient/ea08cba3-e556-496e-8aab-3b1e6f58fda0"},"performedPeriod":{"start":"2025-04-03T15:50:00.000Z","end":"2025-04-03T15:50:00.000Z"}},"request":{"method":"PUT","url":"Procedure/7d870642-a67a-4081-85fe-c0cc8897c204"}},{"resource":{"resourceType":"Organization","id":"61627c0d-1e8e-4090-9624-f73f610cf724","meta":{"profile":["http://hl7.org/fhir/us/qicore/StructureDefinition/qicore-organization"]},"identifier":[{"use":"temp","system":"urn:oid:2.16.840.1.113883.4.4","value":"21-3259825"}],"active":true,"type":[{"coding":[{"system":"http://terminology.hl7.org/CodeSystem/organization-type","code":"pay","display":"Payer"}]}],"name":"Blue Cross Blue Shield of Texas","telecom":[{"system":"phone","value":"(+1) 972-766-6900"}],"address":[{"use":"billing","type":"postal","line":["P.O. Box 660044"],"city":"Dallas","state":"TX","postalCode":"75266-0044","country":"USA"}]},"request":{"method":"PUT","url":"Organization/61627c0d-1e8e-4090-9624-f73f610cf724"}},{"resource":{"resourceType":"Practitioner","id":"40eacd62-20c0-4b66-9701-f105a279d6b2","meta":{"profile":["http://hl7.org/fhir/us/qicore/StructureDefinition/qicore-practitioner"]},"identifier":[{"system":"http://hl7.org/fhir/sid/us-npi","value":"123456"}],"name":[{"family":"Evil","prefix":["Dr"]}]},"request":{"method":"PUT","url":"Practitioner/40eacd62-20c0-4b66-9701-f105a279d6b2"}},{"resource":{"resourceType":"MeasureReport","id":"4726991c-e2d2-4225-87e3-7670780e7ab3","meta":{"profile":["http://hl7.org/fhir/us/cqfmeasures/StructureDefinition/test-case-cqfm"]},"contained":[{"resourceType":"Parameters","id":"10a56e65-d5eb-4b01-b726-a1124a187021-parameters","parameter":[{"name":"subject","valueString":"4bf7c1f5-8c25-4cd9-9ca8-d67e9f1283cb"}]}],"extension":[{"url":"http://hl7.org/fhir/StructureDefinition/cqf-inputParameters","valueReference":{"reference":"#10a56e65-d5eb-4b01-b726-a1124a187021-parameters"}},{"url":"http://hl7.org/fhir/us/cqfmeasures/StructureDefinition/cqfm-testCaseDescription","valueMarkdown":"Patient with cancer diagnosis that overlaps the office visit during measurement period, received one administration of chemotherapy. \n"}],"modifierExtension":[{"url":"http://hl7.org/fhir/us/cqfmeasures/StructureDefinition/cqfm-isTestCase","valueBoolean":true}],"status":"complete","type":"individual","measure":"https://madie.cms.gov/Measure/OncologyPainIntensityQuantifiedFHIR","period":{"start":"2026-01-01","end":"2026-12-31"},"group":[{"id":"Group_1","population":[{"id":"InitialPopulation_1","code":{"coding":[{"system":"http://terminology.hl7.org/CodeSystem/measure-population","code":"initial-population","display":"Initial Population"}]},"count":0},{"id":"Denominator_1","code":{"coding":[{"system":"http://terminology.hl7.org/CodeSystem/measure-population","code":"denominator","display":"Denominator"}]},"count":0},{"id":"Numerator_1","code":{"coding":[{"system":"http://terminology.hl7.org/CodeSystem/measure-population","code":"numerator","display":"Numerator"}]},"count":0}],"measureScore":{"value":0.0}},{"id":"Group_2","population":[{"id":"InitialPopulation_2","code":{"coding":[{"system":"http://terminology.hl7.org/CodeSystem/measure-population","code":"initial-population","display":"Initial Population"}]},"count":0},{"id":"Denominator_2","code":{"coding":[{"system":"http://terminology.hl7.org/CodeSystem/measure-population","code":"denominator","display":"Denominator"}]},"count":0},{"id":"Numerator_2","code":{"coding":[{"system":"http://terminology.hl7.org/CodeSystem/measure-population","code":"numerator","display":"Numerator"}]},"count":0}],"measureScore":{"value":0.0}}],"evaluatedResource":[{"reference":"Patient/4bf7c1f5-8c25-4cd9-9ca8-d67e9f1283cb"},{"reference":"Condition/334ed9b7-e47c-4093-906b-af238b238ec2"},{"reference":"Encounter/1a670df4-b958-4028-b322-c7bf433263cd"},{"reference":"Coverage/3b6677c8-3839-4a77-bf6a-0e2529411c1b"},{"reference":"Procedure/7c99e527-1e5b-484c-ba3f-e093cb511f53"},{"reference":"Organization/61627c0d-1e8e-4090-9624-f73f610cf724"},{"reference":"Practitioner/40eacd62-20c0-4b66-9701-f105a279d6b2"}]},"request":{"method":"PUT","url":"MeasureReport/4726991c-e2d2-4225-87e3-7670780e7ab3"}},{"resource":{"resourceType":"Encounter","id":"1a670df4-b958-4028-b322-c7bf433263cd","meta":{"profile":["http://hl7.org/fhir/us/qicore/StructureDefinition/qicore-encounter"]},"status":"finished","class":{"system":"http://terminology.hl7.org/CodeSystem/v3-ActCode","code":"AMB","display":"ambulatory","userSelected":true},"type":[{"coding":[{"system":"http://www.ama-assn.org/go/cpt","code":"99205"}]}],"subject":{"reference":"Patient/4bf7c1f5-8c25-4cd9-9ca8-d67e9f1283cb"},"period":{"start":"2025-01-01T14:00:00.000Z","end":"2025-01-01T15:00:00.000Z"}},"request":{"method":"PUT","url":"Encounter/1a670df4-b958-4028-b322-c7bf433263cd"}},{"resource":{"resourceType":"Procedure","id":"7c99e527-1e5b-484c-ba3f-e093cb511f53","meta":{"profile":["http://hl7.org/fhir/us/qicore/StructureDefinition/qicore-procedure"]},"extension":[{"url":"http://hl7.org/fhir/us/qicore/StructureDefinition/qicore-recorded","valueDateTime":"2023-12-02T08:35:00.000Z"}],"status":"completed","code":{"coding":[{"system":"http://snomed.info/sct","code":"169396008"}]},"subject":{"reference":"Patient/4bf7c1f5-8c25-4cd9-9ca8-d67e9f1283cb"},"performedPeriod":{"start":"2023-12-02T08:00:00.000Z","end":"2023-12-02T08:15:00.000Z"}},"request":{"method":"PUT","url":"Procedure/7c99e527-1e5b-484c-ba3f-e093cb511f53"}},{"resource":{"resourceType":"Patient","id":"4bf7c1f5-8c25-4cd9-9ca8-d67e9f1283cb","meta":{"profile":["http://hl7.org/fhir/us/qicore/StructureDefinition/qicore-patient"]},"text":{"status":"generated","div":"<div xmlns=\"http://www.w3.org/1999/xhtml\"><div class=\"hapiHeaderText\">OneChemoAdministered<b>IPPFailPop1</b></div><table class=\"hapiPropertyTable\"><tbody><tr><td>Identifier</td><td>4206cb6373f43f924a14fc3f870f2e65432862568ee58c4ad128c68855defc5c</td></tr><tr><td>Date of birth</td><td><span>13 May 1937</span></td></tr></tbody></table></div>"},"extension":[{"url":"http://hl7.org/fhir/us/core/StructureDefinition/us-core-race","extension":[{"url":"ombCategory","valueCoding":{"system":"urn:oid:2.16.840.1.113883.6.238","code":"1002-5","display":"American Indian or Alaska Native","userSelected":true}},{"url":"text","valueString":"American Indian or Alaska Native"}]},{"url":"http://hl7.org/fhir/us/core/StructureDefinition/us-core-ethnicity","extension":[{"url":"ombCategory","valueCoding":{"system":"urn:oid:2.16.840.1.113883.6.238","code":"2135-2","display":"Hispanic or Latino","userSelected":true}},{"url":"text","valueString":"Hispanic or Latino"}]}],"identifier":[{"type":{"coding":[{"system":"http://terminology.hl7.org/CodeSystem/v2-0203","code":"MR"}]},"system":"https://bonnie-fhir.healthit.gov/","value":"62c880ec0111a60120dc2206"}],"active":true,"name":[{"use":"usual","family":"IPPFailPop1","given":["OneChemoAdministered"]}],"gender":"female","birthDate":"1937-05-13"},"request":{"method":"PUT","url":"Patient/4bf7c1f5-8c25-4cd9-9ca8-d67e9f1283cb"}},{"resource":{"resourceType":"Condition","id":"334ed9b7-e47c-4093-906b-af238b238ec2","meta":{"profile":["http://hl7.org/fhir/us/qicore/StructureDefinition/qicore-condition"]},"clinicalStatus":{"coding":[{"system":"http://terminology.hl7.org/CodeSystem/condition-clinical","code":"active","display":"active"}]},"verificationStatus":{"coding":[{"system":"http://terminology.hl7.org/CodeSystem/condition-ver-status","code":"confirmed","display":"Confirmed"}]},"category":[{"coding":[{"system":"http://terminology.hl7.org/CodeSystem/condition-category","code":"problem-list-item","display":"Problem List Item"}]}],"code":{"coding":[{"system":"http://snomed.info/sct","version":"2022-09","code":"80914001"}]},"subject":{"reference":"Patient/4bf7c1f5-8c25-4cd9-9ca8-d67e9f1283cb"},"onsetDateTime":"2023-05-01T13:30:00.000Z"},"request":{"method":"PUT","url":"Condition/334ed9b7-e47c-4093-906b-af238b238ec2"}},{"resource":{"resourceType":"Coverage","id":"3b6677c8-3839-4a77-bf6a-0e2529411c1b","meta":{"profile":["http://hl7.org/fhir/us/qicore/StructureDefinition/qicore-coverage"]},"status":"active","beneficiary":{"reference":"Patient/4bf7c1f5-8c25-4cd9-9ca8-d67e9f1283cb"},"period":{"start":"1937-05-13T08:00:00.000Z"},"payor":[{"reference":"Organization/61627c0d-1e8e-4090-9624-f73f610cf724"}]},"request":{"method":"PUT","url":"Coverage/3b6677c8-3839-4a77-bf6a-0e2529411c1b"}},{"resource":{"resourceType":"Practitioner","id":"bdb32685-d195-40a4-89e5-305d1b3277f1","meta":{"profile":["http://hl7.org/fhir/us/qicore/StructureDefinition/qicore-practitioner"]},"identifier":[{"system":"http://hl7.org/fhir/sid/us-npi","value":"123456"}],"name":[{"family":"Evil","prefix":["Dr"]}]},"request":{"method":"PUT","url":"Practitioner/bdb32685-d195-40a4-89e5-305d1b3277f1"}},{"resource":{"resourceType":"Condition","id":"67e2b260-6527-4b6b-a53c-8f4a759f9c08","meta":{"profile":["http://hl7.org/fhir/us/qicore/StructureDefinition/qicore-condition"]},"clinicalStatus":{"coding":[{"system":"http://terminology.hl7.org/CodeSystem/condition-clinical","code":"active","display":"Active"}]},"verificationStatus":{"coding":[{"system":"http://terminology.hl7.org/CodeSystem/condition-ver-status","code":"confirmed","display":"Confirmed"}]},"category":[{"coding":[{"system":"http://terminology.hl7.org/CodeSystem/condition-category","code":"problem-list-item","display":"Problem List Item"}]}],"code":{"coding":[{"system":"http://hl7.org/fhir/sid/icd-10-cm","code":"C40.00"}]},"subject":{"reference":"Patient/fe6ef07d-bff1-4e0e-9bf4-b0424a1d0ab4"},"onsetDateTime":"2023-05-01T13:30:00.000Z"},"request":{"method":"PUT","url":"Condition/67e2b260-6527-4b6b-a53c-8f4a759f9c08"}},{"resource":{"resourceType":"Organization","id":"b25cbc1b-beaf-499b-ba8b-39d11d1cae5a","meta":{"profile":["http://hl7.org/fhir/us/qicore/StructureDefinition/qicore-organization"]},"identifier":[{"use":"temp","system":"urn:oid:2.16.840.1.113883.4.4","value":"21-3259825"}],"active":true,"type":[{"coding":[{"system":"http://terminology.hl7.org/CodeSystem/organization-type","code":"pay","display":"Payer"}]}],"name":"Blue Cross Blue Shield of Texas","telecom":[{"system":"phone","value":"(+1) 972-766-6900"}],"address":[{"use":"billing","type":"postal","line":["P.O. Box 660044"],"city":"Dallas","state":"TX","postalCode":"75266-0044","country":"USA"}]},"request":{"method":"PUT","url":"Organization/b25cbc1b-beaf-499b-ba8b-39d11d1cae5a"}},{"resource":{"resourceType":"Coverage","id":"374f852a-8604-430b-a6bf-ae084696f98a","meta":{"profile":["http://hl7.org/fhir/us/qicore/StructureDefinition/qicore-coverage"]},"status":"active","beneficiary":{"reference":"Patient/fe6ef07d-bff1-4e0e-9bf4-b0424a1d0ab4"},"period":{"start":"1937-05-13T08:00:00.000Z"},"payor":[{"reference":"Organization/b25cbc1b-beaf-499b-ba8b-39d11d1cae5a"}]},"request":{"method":"PUT","url":"Coverage/374f852a-8604-430b-a6bf-ae084696f98a"}},{"resource":{"resourceType":"MeasureReport","id":"fc29387a-97a0-4cc1-894e-a3b1552e8f90","meta":{"profile":["http://hl7.org/fhir/us/cqfmeasures/StructureDefinition/test-case-cqfm"]},"contained":[{"resourceType":"Parameters","id":"9889618a-c441-47b2-82b4-749489e96f78-parameters","parameter":[{"name":"subject","valueString":"fe6ef07d-bff1-4e0e-9bf4-b0424a1d0ab4"}]}],"extension":[{"url":"http://hl7.org/fhir/StructureDefinition/cqf-inputParameters","valueReference":{"reference":"#9889618a-c441-47b2-82b4-749489e96f78-parameters"}},{"url":"http://hl7.org/fhir/us/cqfmeasures/StructureDefinition/cqfm-testCaseDescription","valueMarkdown":"Patient with cancer diagnosis that overlaps the office visit during measurement period. Received chemo 30 days before the office visit and another chemo on the same day of office visit."}],"modifierExtension":[{"url":"http://hl7.org/fhir/us/cqfmeasures/StructureDefinition/cqfm-isTestCase","valueBoolean":true}],"status":"complete","type":"individual","measure":"https://madie.cms.gov/Measure/OncologyPainIntensityQuantifiedFHIR","period":{"start":"2026-01-01","end":"2026-12-31"},"group":[{"id":"Group_1","population":[{"id":"InitialPopulation_1","code":{"coding":[{"system":"http://terminology.hl7.org/CodeSystem/measure-population","code":"initial-population","display":"Initial Population"}]},"count":1},{"id":"Denominator_1","code":{"coding":[{"system":"http://terminology.hl7.org/CodeSystem/measure-population","code":"denominator","display":"Denominator"}]},"count":1},{"id":"Numerator_1","code":{"coding":[{"system":"http://terminology.hl7.org/CodeSystem/measure-population","code":"numerator","display":"Numerator"}]},"count":0}],"measureScore":{"value":0.0}},{"id":"Group_2","population":[{"id":"InitialPopulation_2","code":{"coding":[{"system":"http://terminology.hl7.org/CodeSystem/measure-population","code":"initial-population","display":"Initial Population"}]},"count":0},{"id":"Denominator_2","code":{"coding":[{"system":"http://terminology.hl7.org/CodeSystem/measure-population","code":"denominator","display":"Denominator"}]},"count":0},{"id":"Numerator_2","code":{"coding":[{"system":"http://terminology.hl7.org/CodeSystem/measure-population","code":"numerator","display":"Numerator"}]},"count":0}],"measureScore":{"value":0.0}}],"evaluatedResource":[{"reference":"Patient/fe6ef07d-bff1-4e0e-9bf4-b0424a1d0ab4"},{"reference":"Condition/67e2b260-6527-4b6b-a53c-8f4a759f9c08"},{"reference":"Encounter/fe99486c-9be4-44df-84bc-89865312df82"},{"reference":"Coverage/374f852a-8604-430b-a6bf-ae084696f98a"},{"reference":"Procedure/c87d4d7c-d37d-4eee-9d11-cc4729d1acd6"},{"reference":"Procedure/c9edf87f-2aaf-49f8-b667-5805cb13251f"},{"reference":"Organization/b25cbc1b-beaf-499b-ba8b-39d11d1cae5a"},{"reference":"Practitioner/bdb32685-d195-40a4-89e5-305d1b3277f1"}]},"request":{"method":"PUT","url":"MeasureReport/fc29387a-97a0-4cc1-894e-a3b1552e8f90"}},{"resource":{"resourceType":"Patient","id":"fe6ef07d-bff1-4e0e-9bf4-b0424a1d0ab4","meta":{"profile":["http://hl7.org/fhir/us/qicore/StructureDefinition/qicore-patient"]},"text":{"status":"generated","div":"<div xmlns=\"http://www.w3.org/1999/xhtml\"><div class=\"hapiHeaderText\">ChemoSameDayofEncAnd30DaysB4Enc<b>IPPPassPop1</b></div><table class=\"hapiPropertyTable\"><tbody><tr><td>Identifier</td><td>60e349100edd633ca8f54b90369c7513</td></tr><tr><td>Date of birth</td><td><span>13 May 1937</span></td></tr></tbody></table></div>"},"extension":[{"url":"http://hl7.org/fhir/us/core/StructureDefinition/us-core-race","extension":[{"url":"ombCategory","valueCoding":{"system":"urn:oid:2.16.840.1.113883.6.238","code":"1002-5","display":"American Indian or Alaska Native","userSelected":true}},{"url":"text","valueString":"American Indian or Alaska Native"}]},{"url":"http://hl7.org/fhir/us/core/StructureDefinition/us-core-ethnicity","extension":[{"url":"ombCategory","valueCoding":{"system":"urn:oid:2.16.840.1.113883.6.238","code":"2135-2","display":"Hispanic or Latino","userSelected":true}},{"url":"text","valueString":"Hispanic or Latino"}]}],"identifier":[{"type":{"coding":[{"system":"http://terminology.hl7.org/CodeSystem/v2-0203","code":"MR"}]},"system":"https://bonnie-fhir.healthit.gov/","value":"62c880ec0111a60120dc21fb"}],"active":true,"name":[{"use":"usual","family":"IPPPassPop1","given":["ChemoSameDayofEncAnd30DaysB4Enc"]}],"gender":"female","birthDate":"1937-05-13"},"request":{"method":"PUT","url":"Patient/fe6ef07d-bff1-4e0e-9bf4-b0424a1d0ab4"}},{"resource":{"resourceType":"Procedure","id":"c9edf87f-2aaf-49f8-b667-5805cb13251f","meta":{"profile":["http://hl7.org/fhir/us/qicore/StructureDefinition/qicore-procedure"]},"extension":[{"url":"http://hl7.org/fhir/us/qicore/StructureDefinition/qicore-recorded","valueDateTime":"2025-01-31T12:35:00.000Z"}],"status":"completed","code":{"coding":[{"system":"http://snomed.info/sct","code":"169396008"}]},"subject":{"reference":"Patient/fe6ef07d-bff1-4e0e-9bf4-b0424a1d0ab4"},"performedPeriod":{"start":"2024-12-02T08:00:00.000Z","end":"2024-12-02T08:15:00.000Z"}},"request":{"method":"PUT","url":"Procedure/c9edf87f-2aaf-49f8-b667-5805cb13251f"}},{"resource":{"resourceType":"Encounter","id":"fe99486c-9be4-44df-84bc-89865312df82","meta":{"profile":["http://hl7.org/fhir/us/qicore/StructureDefinition/qicore-encounter"]},"status":"finished","class":{"system":"http://terminology.hl7.org/CodeSystem/v3-ActCode","code":"AMB","display":"ambulatory","userSelected":true},"type":[{"coding":[{"system":"http://www.ama-assn.org/go/cpt","code":"99203"}]}],"subject":{"reference":"Patient/fe6ef07d-bff1-4e0e-9bf4-b0424a1d0ab4"},"period":{"start":"2025-01-01T14:00:00.000Z","end":"2025-01-01T15:00:00.000Z"}},"request":{"method":"PUT","url":"Encounter/fe99486c-9be4-44df-84bc-89865312df82"}},{"resource":{"resourceType":"Procedure","id":"c87d4d7c-d37d-4eee-9d11-cc4729d1acd6","meta":{"profile":["http://hl7.org/fhir/us/qicore/StructureDefinition/qicore-procedure"]},"extension":[{"url":"http://hl7.org/fhir/us/qicore/StructureDefinition/qicore-recorded","valueDateTime":"2025-01-01T12:35:00.000Z"}],"status":"completed","code":{"coding":[{"system":"http://snomed.info/sct","code":"169396008"}]},"subject":{"reference":"Patient/fe6ef07d-bff1-4e0e-9bf4-b0424a1d0ab4"},"performedPeriod":{"start":"2025-01-01T08:00:00.000Z","end":"2025-01-01T08:15:00.000Z"}},"request":{"method":"PUT","url":"Procedure/c87d4d7c-d37d-4eee-9d11-cc4729d1acd6"}},{"resource":{"resourceType":"Encounter","id":"45260914-33c0-44f4-861d-df230ade9197","meta":{"profile":["http://hl7.org/fhir/us/qicore/StructureDefinition/qicore-encounter"]},"status":"finished","class":{"system":"http://terminology.hl7.org/CodeSystem/v3-ActCode","code":"AMB","display":"ambulatory","userSelected":true},"type":[{"coding":[{"system":"http://www.ama-assn.org/go/cpt","code":"99213"}]}],"subject":{"reference":"Patient/f0f73fe9-f8ae-4994-911f-1745e5efbce3"},"period":{"start":"2025-02-11T11:45:00.000Z","end":"2025-02-11T11:45:00.000Z"}},"request":{"method":"PUT","url":"Encounter/45260914-33c0-44f4-861d-df230ade9197"}},{"resource":{"resourceType":"Coverage","id":"199f1aa3-c688-400f-ac4c-c39aee69f0f8","meta":{"profile":["http://hl7.org/fhir/us/qicore/StructureDefinition/qicore-coverage"]},"status":"active","beneficiary":{"reference":"Patient/f0f73fe9-f8ae-4994-911f-1745e5efbce3"},"period":{"start":"1966-05-15T08:00:00.000Z"},"payor":[{"reference":"Organization/a6e43fc0-4a3f-4abb-93df-61879aa6e53d"}]},"request":{"method":"PUT","url":"Coverage/199f1aa3-c688-400f-ac4c-c39aee69f0f8"}},{"resource":{"resourceType":"Patient","id":"f0f73fe9-f8ae-4994-911f-1745e5efbce3","meta":{"profile":["http://hl7.org/fhir/us/qicore/StructureDefinition/qicore-patient"]},"text":{"status":"generated","div":"<div xmlns=\"http://www.w3.org/1999/xhtml\"><div class=\"hapiHeaderText\">CancerDxEndsPriorOfficeEnc<b>IPPFAILPOP1</b></div><table class=\"hapiPropertyTable\"><tbody><tr><td>Identifier</td><td>2c49e0586ead45a42884f353188a6a41</td></tr><tr><td>Date of birth</td><td><span>15 May 1966</span></td></tr></tbody></table></div>"},"extension":[{"url":"http://hl7.org/fhir/us/core/StructureDefinition/us-core-race","extension":[{"url":"ombCategory","valueCoding":{"system":"urn:oid:2.16.840.1.113883.6.238","code":"1002-5","display":"American Indian or Alaska Native","userSelected":true}},{"url":"text","valueString":"American Indian or Alaska Native"}]},{"url":"http://hl7.org/fhir/us/core/StructureDefinition/us-core-ethnicity","extension":[{"url":"ombCategory","valueCoding":{"system":"urn:oid:2.16.840.1.113883.6.238","code":"2135-2","display":"Hispanic or Latino","userSelected":true}},{"url":"text","valueString":"Hispanic or Latino"}]}],"identifier":[{"type":{"coding":[{"system":"http://terminology.hl7.org/CodeSystem/v2-0203","code":"MR"}]},"system":"https://bonnie-fhir.healthit.gov/","value":"62c880ec0111a60120dc220b"}],"active":true,"name":[{"use":"usual","family":"IPPFailPop1","given":["CancerDxEndsPriorEnc"]}],"gender":"male","birthDate":"1966-05-15"},"request":{"method":"PUT","url":"Patient/f0f73fe9-f8ae-4994-911f-1745e5efbce3"}},{"resource":{"resourceType":"Condition","id":"7f08a62c-e0ff-47ff-bf5a-9e82f0d93b2a","meta":{"profile":["http://hl7.org/fhir/us/qicore/StructureDefinition/qicore-condition"]},"clinicalStatus":{"coding":[{"system":"http://terminology.hl7.org/CodeSystem/condition-clinical","code":"remission","display":"remission","userSelected":true}]},"verificationStatus":{"coding":[{"system":"http://terminology.hl7.org/CodeSystem/condition-ver-status","code":"confirmed","display":"Confirmed"}]},"category":[{"coding":[{"system":"http://terminology.hl7.org/CodeSystem/condition-category","code":"problem-list-item","display":"Problem List Item"}]}],"code":{"coding":[{"system":"http://snomed.info/sct","code":"278453007"}]},"subject":{"reference":"Patient/f0f73fe9-f8ae-4994-911f-1745e5efbce3"},"onsetDateTime":"2025-01-02T14:00:00.000Z","abatementDateTime":"2025-02-10T14:45:00.000Z"},"request":{"method":"PUT","url":"Condition/7f08a62c-e0ff-47ff-bf5a-9e82f0d93b2a"}},{"resource":{"resourceType":"MeasureReport","id":"7c31dcf7-0458-49eb-8554-5d17e8c1fbdb","meta":{"profile":["http://hl7.org/fhir/us/cqfmeasures/StructureDefinition/test-case-cqfm"]},"contained":[{"resourceType":"Parameters","id":"f64b8acc-77a1-40e3-9b59-07fb534c4b22-parameters","parameter":[{"name":"subject","valueString":"f0f73fe9-f8ae-4994-911f-1745e5efbce3"}]}],"extension":[{"url":"http://hl7.org/fhir/StructureDefinition/cqf-inputParameters","valueReference":{"reference":"#f64b8acc-77a1-40e3-9b59-07fb534c4b22-parameters"}},{"url":"http://hl7.org/fhir/us/cqfmeasures/StructureDefinition/cqfm-testCaseDescription","valueMarkdown":"Patient with cancer diagnosis ending before office visit.\n"}],"modifierExtension":[{"url":"http://hl7.org/fhir/us/cqfmeasures/StructureDefinition/cqfm-isTestCase","valueBoolean":true}],"status":"complete","type":"individual","measure":"https://madie.cms.gov/Measure/OncologyPainIntensityQuantifiedFHIR","period":{"start":"2026-01-01","end":"2026-12-31"},"group":[{"id":"Group_1","population":[{"id":"InitialPopulation_1","code":{"coding":[{"system":"http://terminology.hl7.org/CodeSystem/measure-population","code":"initial-population","display":"Initial Population"}]},"count":0},{"id":"Denominator_1","code":{"coding":[{"system":"http://terminology.hl7.org/CodeSystem/measure-population","code":"denominator","display":"Denominator"}]},"count":0},{"id":"Numerator_1","code":{"coding":[{"system":"http://terminology.hl7.org/CodeSystem/measure-population","code":"numerator","display":"Numerator"}]},"count":0}],"measureScore":{"value":0.0}},{"id":"Group_2","population":[{"id":"InitialPopulation_2","code":{"coding":[{"system":"http://terminology.hl7.org/CodeSystem/measure-population","code":"initial-population","display":"Initial Population"}]},"count":0},{"id":"Denominator_2","code":{"coding":[{"system":"http://terminology.hl7.org/CodeSystem/measure-population","code":"denominator","display":"Denominator"}]},"count":0},{"id":"Numerator_2","code":{"coding":[{"system":"http://terminology.hl7.org/CodeSystem/measure-population","code":"numerator","display":"Numerator"}]},"count":0}],"measureScore":{"value":0.0}}],"evaluatedResource":[{"reference":"Patient/f0f73fe9-f8ae-4994-911f-1745e5efbce3"},{"reference":"Condition/7f08a62c-e0ff-47ff-bf5a-9e82f0d93b2a"},{"reference":"Encounter/45260914-33c0-44f4-861d-df230ade9197"},{"reference":"Coverage/199f1aa3-c688-400f-ac4c-c39aee69f0f8"},{"reference":"Procedure/0cfd6700-6879-462c-8251-b305ab414c64"},{"reference":"Procedure/4cad8e59-81eb-4dc2-a993-0886aa7006bd"},{"reference":"Organization/a6e43fc0-4a3f-4abb-93df-61879aa6e53d"},{"reference":"Practitioner/0ed1041a-ba40-4dc1-9363-10f6d9a23fb4"}]},"request":{"method":"PUT","url":"MeasureReport/7c31dcf7-0458-49eb-8554-5d17e8c1fbdb"}},{"resource":{"resourceType":"Procedure","id":"0cfd6700-6879-462c-8251-b305ab414c64","meta":{"profile":["http://hl7.org/fhir/us/qicore/StructureDefinition/qicore-procedure"]},"extension":[{"url":"http://hl7.org/fhir/us/qicore/StructureDefinition/qicore-recorded","valueDateTime":"2025-02-11T10:55:00.000Z"}],"status":"completed","code":{"coding":[{"system":"http://www.ama-assn.org/go/cpt","code":"96446"}]},"subject":{"reference":"Patient/f0f73fe9-f8ae-4994-911f-1745e5efbce3"},"performedPeriod":{"start":"2025-02-11T10:50:00.000Z","end":"2025-02-11T10:50:00.000Z"}},"request":{"method":"PUT","url":"Procedure/0cfd6700-6879-462c-8251-b305ab414c64"}},{"resource":{"resourceType":"Procedure","id":"4cad8e59-81eb-4dc2-a993-0886aa7006bd","meta":{"profile":["http://hl7.org/fhir/us/qicore/StructureDefinition/qicore-procedure"]},"extension":[{"url":"http://hl7.org/fhir/us/qicore/StructureDefinition/qicore-recorded","valueDateTime":"2025-02-23T11:50:00.000Z"}],"status":"completed","code":{"coding":[{"system":"http://www.ama-assn.org/go/cpt","code":"96446"}]},"subject":{"reference":"Patient/f0f73fe9-f8ae-4994-911f-1745e5efbce3"},"performedPeriod":{"start":"2025-02-23T11:45:00.000Z","end":"2025-02-23T11:45:00.000Z"}},"request":{"method":"PUT","url":"Procedure/4cad8e59-81eb-4dc2-a993-0886aa7006bd"}},{"resource":{"resourceType":"Practitioner","id":"0ed1041a-ba40-4dc1-9363-10f6d9a23fb4","meta":{"profile":["http://hl7.org/fhir/us/qicore/StructureDefinition/qicore-practitioner"]},"identifier":[{"system":"http://hl7.org/fhir/sid/us-npi","value":"123456"}],"name":[{"family":"Evil","prefix":["Dr"]}]},"request":{"method":"PUT","url":"Practitioner/0ed1041a-ba40-4dc1-9363-10f6d9a23fb4"}},{"resource":{"resourceType":"Organization","id":"a6e43fc0-4a3f-4abb-93df-61879aa6e53d","meta":{"profile":["http://hl7.org/fhir/us/qicore/StructureDefinition/qicore-organization"]},"identifier":[{"use":"temp","system":"urn:oid:2.16.840.1.113883.4.4","value":"21-3259825"}],"active":true,"type":[{"coding":[{"system":"http://terminology.hl7.org/CodeSystem/organization-type","code":"pay","display":"Payer"}]}],"name":"Blue Cross Blue Shield of Texas","telecom":[{"system":"phone","value":"(+1) 972-766-6900"}],"address":[{"use":"billing","type":"postal","line":["P.O. Box 660044"],"city":"Dallas","state":"TX","postalCode":"75266-0044","country":"USA"}]},"request":{"method":"PUT","url":"Organization/a6e43fc0-4a3f-4abb-93df-61879aa6e53d"}},{"resource":{"resourceType":"Coverage","id":"54974eb3-f93f-4b34-8c98-03d3f7da13c5","meta":{"profile":["http://hl7.org/fhir/us/qicore/StructureDefinition/qicore-coverage"]},"status":"active","beneficiary":{"reference":"Patient/be20e6d8-f2f2-49d9-abc1-39e93ba36a1c"},"period":{"start":"1981-03-12T08:00:00.000Z"},"payor":[{"reference":"Organization/e4cff8e3-990c-4d76-89f5-271664ace422"}]},"request":{"method":"PUT","url":"Coverage/54974eb3-f93f-4b34-8c98-03d3f7da13c5"}},{"resource":{"resourceType":"Organization","id":"e4cff8e3-990c-4d76-89f5-271664ace422","meta":{"profile":["http://hl7.org/fhir/us/qicore/StructureDefinition/qicore-organization"]},"identifier":[{"use":"temp","system":"urn:oid:2.16.840.1.113883.4.4","value":"21-3259825"}],"active":true,"type":[{"coding":[{"system":"http://terminology.hl7.org/CodeSystem/organization-type","code":"pay","display":"Payer"}]}],"name":"Blue Cross Blue Shield of Texas","telecom":[{"system":"phone","value":"(+1) 972-766-6900"}],"address":[{"use":"billing","type":"postal","line":["P.O. Box 660044"],"city":"Dallas","state":"TX","postalCode":"75266-0044","country":"USA"}]},"request":{"method":"PUT","url":"Organization/e4cff8e3-990c-4d76-89f5-271664ace422"}},{"resource":{"resourceType":"Procedure","id":"e9f26b13-3678-492e-ae34-5e0b14d50aa9","meta":{"profile":["http://hl7.org/fhir/us/qicore/StructureDefinition/qicore-procedure"]},"extension":[{"url":"http://hl7.org/fhir/us/qicore/StructureDefinition/qicore-recorded","valueDateTime":"2025-01-03T15:35:00.000Z"}],"status":"completed","code":{"coding":[{"system":"http://www.ama-assn.org/go/cpt","code":"96405"}]},"subject":{"reference":"Patient/be20e6d8-f2f2-49d9-abc1-39e93ba36a1c"},"performedPeriod":{"start":"2025-01-03T15:00:00.000Z","end":"2025-01-03T15:00:00.000Z"}},"request":{"method":"PUT","url":"Procedure/e9f26b13-3678-492e-ae34-5e0b14d50aa9"}},{"resource":{"resourceType":"Procedure","id":"942f444d-b944-4008-abf1-4644f5b713bc","meta":{"profile":["http://hl7.org/fhir/us/qicore/StructureDefinition/qicore-procedure"]},"extension":[{"url":"http://hl7.org/fhir/us/qicore/StructureDefinition/qicore-recorded","valueDateTime":"2025-12-22T14:50:00.000Z"}],"status":"completed","code":{"coding":[{"system":"http://www.ama-assn.org/go/cpt","code":"96405"}]},"subject":{"reference":"Patient/be20e6d8-f2f2-49d9-abc1-39e93ba36a1c"},"performedPeriod":{"start":"2025-12-22T14:45:00.000Z","end":"2025-12-22T14:45:00.000Z"}},"request":{"method":"PUT","url":"Procedure/942f444d-b944-4008-abf1-4644f5b713bc"}},{"resource":{"resourceType":"Condition","id":"9b6f385e-4213-46e4-9ec8-26c70f787118","meta":{"profile":["http://hl7.org/fhir/us/qicore/StructureDefinition/qicore-condition"]},"clinicalStatus":{"coding":[{"system":"http://terminology.hl7.org/CodeSystem/condition-clinical","code":"remission","display":"remission"}]},"verificationStatus":{"coding":[{"system":"http://terminology.hl7.org/CodeSystem/condition-ver-status","code":"confirmed","display":"Confirmed"}]},"category":[{"coding":[{"system":"http://terminology.hl7.org/CodeSystem/condition-category","code":"problem-list-item","display":"Problem List Item"}]}],"code":{"coding":[{"system":"http://snomed.info/sct","code":"271323007"}]},"subject":{"reference":"Patient/be20e6d8-f2f2-49d9-abc1-39e93ba36a1c"},"onsetDateTime":"2025-12-21T13:30:00.000Z","abatementDateTime":"2025-12-30T14:15:00.000Z"},"request":{"method":"PUT","url":"Condition/9b6f385e-4213-46e4-9ec8-26c70f787118"}},{"resource":{"resourceType":"Practitioner","id":"6f2af927-d7c7-438f-9f6d-b2245ba58a16","meta":{"profile":["http://hl7.org/fhir/us/qicore/StructureDefinition/qicore-practitioner"]},"identifier":[{"system":"http://hl7.org/fhir/sid/us-npi","value":"123456"}],"name":[{"family":"Evil","prefix":["Dr"]}]},"request":{"method":"PUT","url":"Practitioner/6f2af927-d7c7-438f-9f6d-b2245ba58a16"}},{"resource":{"resourceType":"Encounter","id":"2c97d44d-1e49-4f1d-ad11-0505e34a8215","meta":{"profile":["http://hl7.org/fhir/us/qicore/StructureDefinition/qicore-encounter"]},"status":"finished","class":{"system":"http://terminology.hl7.org/CodeSystem/v3-ActCode","code":"AMB","display":"ambulatory","userSelected":true},"type":[{"coding":[{"system":"http://www.ama-assn.org/go/cpt","code":"99205"}]}],"subject":{"reference":"Patient/be20e6d8-f2f2-49d9-abc1-39e93ba36a1c"},"period":{"start":"2025-01-02T14:30:00.000Z","end":"2025-01-02T14:30:00.000Z"}},"request":{"method":"PUT","url":"Encounter/2c97d44d-1e49-4f1d-ad11-0505e34a8215"}},{"resource":{"resourceType":"MeasureReport","id":"1b059127-aba3-4d8c-9195-42e6b60a6560","meta":{"profile":["http://hl7.org/fhir/us/cqfmeasures/StructureDefinition/test-case-cqfm"]},"contained":[{"resourceType":"Parameters","id":"45e436f8-266b-48a2-ae06-bcf31e017281-parameters","parameter":[{"name":"subject","valueString":"be20e6d8-f2f2-49d9-abc1-39e93ba36a1c"}]}],"extension":[{"url":"http://hl7.org/fhir/StructureDefinition/cqf-inputParameters","valueReference":{"reference":"#45e436f8-266b-48a2-ae06-bcf31e017281-parameters"}},{"url":"http://hl7.org/fhir/us/cqfmeasures/StructureDefinition/cqfm-testCaseDescription","valueMarkdown":"Patient with cancer diagnosis that overlaps the office visit. Office visit occurs after the measurement period."}],"modifierExtension":[{"url":"http://hl7.org/fhir/us/cqfmeasures/StructureDefinition/cqfm-isTestCase","valueBoolean":true}],"status":"complete","type":"individual","measure":"https://madie.cms.gov/Measure/OncologyPainIntensityQuantifiedFHIR","period":{"start":"2026-01-01","end":"2026-12-31"},"group":[{"id":"Group_1","population":[{"id":"InitialPopulation_1","code":{"coding":[{"system":"http://terminology.hl7.org/CodeSystem/measure-population","code":"initial-population","display":"Initial Population"}]},"count":0},{"id":"Denominator_1","code":{"coding":[{"system":"http://terminology.hl7.org/CodeSystem/measure-population","code":"denominator","display":"Denominator"}]},"count":0},{"id":"Numerator_1","code":{"coding":[{"system":"http://terminology.hl7.org/CodeSystem/measure-population","code":"numerator","display":"Numerator"}]},"count":0}],"measureScore":{"value":0.0}},{"id":"Group_2","population":[{"id":"InitialPopulation_2","code":{"coding":[{"system":"http://terminology.hl7.org/CodeSystem/measure-population","code":"initial-population","display":"Initial Population"}]},"count":0},{"id":"Denominator_2","code":{"coding":[{"system":"http://terminology.hl7.org/CodeSystem/measure-population","code":"denominator","display":"Denominator"}]},"count":0},{"id":"Numerator_2","code":{"coding":[{"system":"http://terminology.hl7.org/CodeSystem/measure-population","code":"numerator","display":"Numerator"}]},"count":0}],"measureScore":{"value":0.0}}],"evaluatedResource":[{"reference":"Patient/be20e6d8-f2f2-49d9-abc1-39e93ba36a1c"},{"reference":"Condition/9b6f385e-4213-46e4-9ec8-26c70f787118"},{"reference":"Encounter/2c97d44d-1e49-4f1d-ad11-0505e34a8215"},{"reference":"Coverage/54974eb3-f93f-4b34-8c98-03d3f7da13c5"},{"reference":"Procedure/942f444d-b944-4008-abf1-4644f5b713bc"},{"reference":"Procedure/e9f26b13-3678-492e-ae34-5e0b14d50aa9"},{"reference":"Organization/e4cff8e3-990c-4d76-89f5-271664ace422"},{"reference":"Practitioner/6f2af927-d7c7-438f-9f6d-b2245ba58a16"}]},"request":{"method":"PUT","url":"MeasureReport/1b059127-aba3-4d8c-9195-42e6b60a6560"}},{"resource":{"resourceType":"Patient","id":"be20e6d8-f2f2-49d9-abc1-39e93ba36a1c","meta":{"profile":["http://hl7.org/fhir/us/qicore/StructureDefinition/qicore-patient"]},"text":{"status":"generated","div":"<div xmlns=\"http://www.w3.org/1999/xhtml\"><div class=\"hapiHeaderText\">OVEncAndChemoAfterMP<b>IPPFAILPOP1</b></div><table class=\"hapiPropertyTable\"><tbody><tr><td>Identifier</td><td>ac1da6e0409af00bfb044b9882b4de26</td></tr><tr><td>Date of birth</td><td><span>12 March 1981</span></td></tr></tbody></table></div>"},"extension":[{"url":"http://hl7.org/fhir/us/core/StructureDefinition/us-core-race","extension":[{"url":"ombCategory","valueCoding":{"system":"urn:oid:2.16.840.1.113883.6.238","code":"1002-5","display":"American Indian or Alaska Native","userSelected":true}},{"url":"text","valueString":"American Indian or Alaska Native"}]},{"url":"http://hl7.org/fhir/us/core/StructureDefinition/us-core-ethnicity","extension":[{"url":"ombCategory","valueCoding":{"system":"urn:oid:2.16.840.1.113883.6.238","code":"2135-2","display":"Hispanic or Latino","userSelected":true}},{"url":"text","valueString":"Hispanic or Latino"}]}],"identifier":[{"type":{"coding":[{"system":"http://terminology.hl7.org/CodeSystem/v2-0203","code":"MR"}]},"system":"https://bonnie-fhir.healthit.gov/","value":"62c880ec0111a60120dc2201"}],"active":true,"name":[{"use":"usual","family":"IPPFailPop1","given":["EncAfterMP"]}],"gender":"female","birthDate":"1981-03-12"},"request":{"method":"PUT","url":"Patient/be20e6d8-f2f2-49d9-abc1-39e93ba36a1c"}},{"resource":{"resourceType":"Procedure","id":"d8cce7d0-1a47-4a63-a34a-d4b871819f89","meta":{"profile":["http://hl7.org/fhir/us/qicore/StructureDefinition/qicore-procedure"]},"extension":[{"url":"http://hl7.org/fhir/us/qicore/StructureDefinition/qicore-recorded","valueDateTime":"2025-04-20T11:35:00.000Z"}],"status":"completed","code":{"coding":[{"system":"http://snomed.info/sct","code":"169396008"}]},"subject":{"reference":"Patient/6c1a8557-73be-4026-9ec6-f0699bfcbfda"},"performedPeriod":{"start":"2025-04-20T11:00:00.000Z","end":"2025-04-20T11:00:00.000Z"}},"request":{"method":"PUT","url":"Procedure/d8cce7d0-1a47-4a63-a34a-d4b871819f89"}},{"resource":{"resourceType":"Patient","id":"6c1a8557-73be-4026-9ec6-f0699bfcbfda","meta":{"profile":["http://hl7.org/fhir/us/qicore/StructureDefinition/qicore-patient"]},"text":{"status":"generated","div":"<div xmlns=\"http://www.w3.org/1999/xhtml\"><div class=\"hapiHeaderText\">CancerDxStartsAfterEncAndChemo<b>IPPFailPop1</b></div><table class=\"hapiPropertyTable\"><tbody><tr><td>Identifier</td><td>972778dfe42618990e47340420092399</td></tr><tr><td>Date of birth</td><td><span>17 August 1951</span></td></tr></tbody></table></div>"},"extension":[{"url":"http://hl7.org/fhir/us/core/StructureDefinition/us-core-race","extension":[{"url":"ombCategory","valueCoding":{"system":"urn:oid:2.16.840.1.113883.6.238","code":"2054-5","display":"Black or African American","userSelected":true}},{"url":"text","valueString":"Black or African American"}]},{"url":"http://hl7.org/fhir/us/core/StructureDefinition/us-core-ethnicity","extension":[{"url":"ombCategory","valueCoding":{"system":"urn:oid:2.16.840.1.113883.6.238","code":"2186-5","display":"Not Hispanic or Latino","userSelected":true}},{"url":"text","valueString":"Not Hispanic or Latino"}]}],"identifier":[{"type":{"coding":[{"system":"http://terminology.hl7.org/CodeSystem/v2-0203","code":"MR"}]},"system":"https://bonnie-fhir.healthit.gov/","value":"62c880ec0111a60120dc2207"}],"active":true,"name":[{"use":"usual","family":"IPPFailPop1","given":["CancerDxStartsAfterEncAndChemo"]}],"gender":"female","birthDate":"1951-08-17"},"request":{"method":"PUT","url":"Patient/6c1a8557-73be-4026-9ec6-f0699bfcbfda"}},{"resource":{"resourceType":"Encounter","id":"d14e3cd2-479a-4795-ab5e-6931be791293","meta":{"profile":["http://hl7.org/fhir/us/qicore/StructureDefinition/qicore-encounter"]},"status":"finished","class":{"system":"http://terminology.hl7.org/CodeSystem/v3-ActCode","code":"AMB","display":"ambulatory","userSelected":true},"type":[{"coding":[{"system":"http://www.ama-assn.org/go/cpt","code":"99213"}]}],"subject":{"reference":"Patient/6c1a8557-73be-4026-9ec6-f0699bfcbfda"},"period":{"start":"2025-05-25T14:20:00.000Z","end":"2025-05-25T14:20:00.000Z"}},"request":{"method":"PUT","url":"Encounter/d14e3cd2-479a-4795-ab5e-6931be791293"}},{"resource":{"resourceType":"Procedure","id":"fcd09c92-a666-4ef9-899b-7aa677cc2050","meta":{"profile":["http://hl7.org/fhir/us/qicore/StructureDefinition/qicore-procedure"]},"extension":[{"url":"http://hl7.org/fhir/us/qicore/StructureDefinition/qicore-recorded","valueDateTime":"2025-06-10T14:50:00.000Z"}],"status":"completed","code":{"coding":[{"system":"http://snomed.info/sct","code":"169396008"}]},"subject":{"reference":"Patient/6c1a8557-73be-4026-9ec6-f0699bfcbfda"},"performedPeriod":{"start":"2025-06-10T14:45:00.000Z","end":"2025-06-10T14:45:00.000Z"}},"request":{"method":"PUT","url":"Procedure/fcd09c92-a666-4ef9-899b-7aa677cc2050"}},{"resource":{"resourceType":"Coverage","id":"6e49fbcf-e7c1-4b02-8f1b-34486df76039","meta":{"profile":["http://hl7.org/fhir/us/qicore/StructureDefinition/qicore-coverage"]},"status":"active","beneficiary":{"reference":"Patient/6c1a8557-73be-4026-9ec6-f0699bfcbfda"},"period":{"start":"1951-08-17T08:00:00.000Z"},"payor":[{"reference":"Organization/45c064b9-a6ed-41bb-b988-e321ecaa6ded"}]},"request":{"method":"PUT","url":"Coverage/6e49fbcf-e7c1-4b02-8f1b-34486df76039"}},{"resource":{"resourceType":"Practitioner","id":"47ba0dc8-9c6c-42e3-8574-3b32961808c3","meta":{"profile":["http://hl7.org/fhir/us/qicore/StructureDefinition/qicore-practitioner"]},"identifier":[{"system":"http://hl7.org/fhir/sid/us-npi","value":"123456"}],"name":[{"family":"Evil","prefix":["Dr"]}]},"request":{"method":"PUT","url":"Practitioner/47ba0dc8-9c6c-42e3-8574-3b32961808c3"}},{"resource":{"resourceType":"Organization","id":"45c064b9-a6ed-41bb-b988-e321ecaa6ded","meta":{"profile":["http://hl7.org/fhir/us/qicore/StructureDefinition/qicore-organization"]},"identifier":[{"use":"temp","system":"urn:oid:2.16.840.1.113883.4.4","value":"21-3259825"}],"active":true,"type":[{"coding":[{"system":"http://terminology.hl7.org/CodeSystem/organization-type","code":"pay","display":"Payer"}]}],"name":"Blue Cross Blue Shield of Texas","telecom":[{"system":"phone","value":"(+1) 972-766-6900"}],"address":[{"use":"billing","type":"postal","line":["P.O. Box 660044"],"city":"Dallas","state":"TX","postalCode":"75266-0044","country":"USA"}]},"request":{"method":"PUT","url":"Organization/45c064b9-a6ed-41bb-b988-e321ecaa6ded"}},{"resource":{"resourceType":"MeasureReport","id":"e46e6347-c30c-4288-a4e3-ec6f7ae9be57","meta":{"profile":["http://hl7.org/fhir/us/cqfmeasures/StructureDefinition/test-case-cqfm"]},"contained":[{"resourceType":"Parameters","id":"7de23c25-12ca-44cc-b0f9-659b26377264-parameters","parameter":[{"name":"subject","valueString":"6c1a8557-73be-4026-9ec6-f0699bfcbfda"}]}],"extension":[{"url":"http://hl7.org/fhir/StructureDefinition/cqf-inputParameters","valueReference":{"reference":"#7de23c25-12ca-44cc-b0f9-659b26377264-parameters"}},{"url":"http://hl7.org/fhir/us/cqfmeasures/StructureDefinition/cqfm-testCaseDescription","valueMarkdown":"Patient with cancer diagnosis that starts after office visit and chemotherapy. \n"}],"modifierExtension":[{"url":"http://hl7.org/fhir/us/cqfmeasures/StructureDefinition/cqfm-isTestCase","valueBoolean":true}],"status":"complete","type":"individual","measure":"https://madie.cms.gov/Measure/OncologyPainIntensityQuantifiedFHIR","period":{"start":"2026-01-01","end":"2026-12-31"},"group":[{"id":"Group_1","population":[{"id":"InitialPopulation_1","code":{"coding":[{"system":"http://terminology.hl7.org/CodeSystem/measure-population","code":"initial-population","display":"Initial Population"}]},"count":0},{"id":"Denominator_1","code":{"coding":[{"system":"http://terminology.hl7.org/CodeSystem/measure-population","code":"denominator","display":"Denominator"}]},"count":0},{"id":"Numerator_1","code":{"coding":[{"system":"http://terminology.hl7.org/CodeSystem/measure-population","code":"numerator","display":"Numerator"}]},"count":0}],"measureScore":{"value":0.0}},{"id":"Group_2","population":[{"id":"InitialPopulation_2","code":{"coding":[{"system":"http://terminology.hl7.org/CodeSystem/measure-population","code":"initial-population","display":"Initial Population"}]},"count":0},{"id":"Denominator_2","code":{"coding":[{"system":"http://terminology.hl7.org/CodeSystem/measure-population","code":"denominator","display":"Denominator"}]},"count":0},{"id":"Numerator_2","code":{"coding":[{"system":"http://terminology.hl7.org/CodeSystem/measure-population","code":"numerator","display":"Numerator"}]},"count":0}],"measureScore":{"value":0.0}}],"evaluatedResource":[{"reference":"Patient/6c1a8557-73be-4026-9ec6-f0699bfcbfda"},{"reference":"Condition/cae13729-ecb4-4ce2-a4ab-0eaf36f0c823"},{"reference":"Encounter/d14e3cd2-479a-4795-ab5e-6931be791293"},{"reference":"Coverage/6e49fbcf-e7c1-4b02-8f1b-34486df76039"},{"reference":"Procedure/d8cce7d0-1a47-4a63-a34a-d4b871819f89"},{"reference":"Procedure/fcd09c92-a666-4ef9-899b-7aa677cc2050"},{"reference":"Organization/45c064b9-a6ed-41bb-b988-e321ecaa6ded"},{"reference":"Practitioner/47ba0dc8-9c6c-42e3-8574-3b32961808c3"}]},"request":{"method":"PUT","url":"MeasureReport/e46e6347-c30c-4288-a4e3-ec6f7ae9be57"}},{"resource":{"resourceType":"Condition","id":"cae13729-ecb4-4ce2-a4ab-0eaf36f0c823","meta":{"profile":["http://hl7.org/fhir/us/qicore/StructureDefinition/qicore-condition"]},"clinicalStatus":{"coding":[{"system":"http://terminology.hl7.org/CodeSystem/condition-clinical","code":"active","display":"active"}]},"verificationStatus":{"coding":[{"system":"http://terminology.hl7.org/CodeSystem/condition-ver-status","code":"confirmed","display":"Confirmed"}]},"category":[{"coding":[{"system":"http://terminology.hl7.org/CodeSystem/condition-category","code":"problem-list-item","display":"Problem List Item"}]}],"code":{"coding":[{"system":"http://hl7.org/fhir/sid/icd-10-cm","code":"C00.0"}]},"subject":{"reference":"Patient/6c1a8557-73be-4026-9ec6-f0699bfcbfda"},"onsetDateTime":"2025-11-24T08:00:00.000Z"},"request":{"method":"PUT","url":"Condition/cae13729-ecb4-4ce2-a4ab-0eaf36f0c823"}},{"resource":{"resourceType":"Measure","id":"OncologyPainIntensityQuantifiedFHIR","meta":{"profile":["http://hl7.org/fhir/uv/crmi/StructureDefinition/crmi-shareablemeasure","http://hl7.org/fhir/us/cqfmeasures/StructureDefinition/computable-measure-cqfm","http://hl7.org/fhir/us/cqfmeasures/StructureDefinition/publishable-measure-cqfm","http://hl7.org/fhir/us/cqfmeasures/StructureDefinition/executable-measure-cqfm","http://hl7.org/fhir/us/cqfmeasures/StructureDefinition/cql-measure-cqfm","http://hl7.org/fhir/us/cqfmeasures/StructureDefinition/elm-measure-cqfm","http://hl7.org/fhir/us/cqfmeasures/StructureDefinition/proportion-measure-cqfm"]},"contained":[{"resourceType":"Library","id":"effective-data-requirements","extension":[{"url":"http://hl7.org/fhir/us/cqfmeasures/StructureDefinition/cqfm-directReferenceCode","valueCoding":{"system":"http://terminology.hl7.org/CodeSystem/condition-clinical","code":"active","display":"Active"}},{"url":"http://hl7.org/fhir/us/cqfmeasures/StructureDefinition/cqfm-directReferenceCode","valueCoding":{"system":"http://terminology.hl7.org/CodeSystem/condition-clinical","code":"recurrence","display":"Recurrence"}},{"url":"http://hl7.org/fhir/us/cqfmeasures/StructureDefinition/cqfm-directReferenceCode","valueCoding":{"system":"http://terminology.hl7.org/CodeSystem/condition-clinical","code":"relapse","display":"Relapse"}},{"url":"http://hl7.org/fhir/us/cqfmeasures/StructureDefinition/cqfm-directReferenceCode","valueCoding":{"system":"http://www.ama-assn.org/go/cpt","code":"77427","display":"Radiation treatment management, 5 treatments"}},{"url":"http://hl7.org/fhir/us/cqfmeasures/StructureDefinition/cqfm-logicDefinition","extension":[{"url":"libraryName","valueString":"OncologyPainIntensityQuantifiedFHIR"},{"url":"name","valueString":"Radiation Treatment Management During Measurement Period with Cancer Diagnosis"},{"url":"statement","valueString":"define \"Radiation Treatment Management During Measurement Period with Cancer Diagnosis\":\n  ( [Encounter: \"Radiation Treatment Management\"] ) RadiationTreatmentManagement\n    with [ConditionProblemsHealthConcerns: \"Cancer\"] CancerDx\n      such that CancerDx.isActive ( )\n        and CancerDx.prevalenceInterval ( ) overlaps RadiationTreatmentManagement.period\n    where RadiationTreatmentManagement.period during \"Measurement Period\"\n      and RadiationTreatmentManagement.status = 'finished'"},{"url":"displaySequence","valueInteger":0}]},{"url":"http://hl7.org/fhir/us/cqfmeasures/StructureDefinition/cqfm-logicDefinition","extension":[{"url":"libraryName","valueString":"OncologyPainIntensityQuantifiedFHIR"},{"url":"name","valueString":"Initial Population 2"},{"url":"statement","valueString":"define \"Initial Population 2\":\n  \"Radiation Treatment Management During Measurement Period with Cancer Diagnosis\""},{"url":"displaySequence","valueInteger":1}]},{"url":"http://hl7.org/fhir/us/cqfmeasures/StructureDefinition/cqfm-logicDefinition","extension":[{"url":"libraryName","valueString":"OncologyPainIntensityQuantifiedFHIR"},{"url":"name","valueString":"Denominator 2"},{"url":"statement","valueString":"define \"Denominator 2\":\n  \"Initial Population 2\""},{"url":"displaySequence","valueInteger":2}]},{"url":"http://hl7.org/fhir/us/cqfmeasures/StructureDefinition/cqfm-logicDefinition","extension":[{"url":"libraryName","valueString":"OncologyPainIntensityQuantifiedFHIR"},{"url":"name","valueString":"Chemotherapy Within 31 Days Prior and During Measurement Period"},{"url":"statement","valueString":"define \"Chemotherapy Within 31 Days Prior and During Measurement Period\":\n  [Procedure: \"Chemotherapy Administration\"] ChemoAdministration\n    where ChemoAdministration.performed.toInterval ( ) during Interval[start of \"Measurement Period\" - 31 days, end of \"Measurement Period\"]\n      and ChemoAdministration.status = 'completed'"},{"url":"displaySequence","valueInteger":3}]},{"url":"http://hl7.org/fhir/us/cqfmeasures/StructureDefinition/cqfm-logicDefinition","extension":[{"url":"libraryName","valueString":"OncologyPainIntensityQuantifiedFHIR"},{"url":"name","valueString":"Face to Face or Telehealth Encounter with Ongoing Chemotherapy"},{"url":"statement","valueString":"define \"Face to Face or Telehealth Encounter with Ongoing Chemotherapy\":\n  from\n    ( [Encounter: \"Office Visit\"]\n      union [Encounter: \"Audio Visual Telehealth Encounter\"] ) FaceToFaceOrTelehealthEncounter,\n    \"Chemotherapy Within 31 Days Prior and During Measurement Period\" ChemoBeforeEncounter,\n    \"Chemotherapy Within 31 Days Prior and During Measurement Period\" ChemoAfterEncounter,\n    [ConditionProblemsHealthConcerns: \"Cancer\"] CancerDx\n    where CancerDx.prevalenceInterval ( ) overlaps FaceToFaceOrTelehealthEncounter.period\n      and ChemoBeforeEncounter.performed.toInterval ( ) starts 30 days or less on or before day of end of FaceToFaceOrTelehealthEncounter.period\n      and ChemoAfterEncounter.performed.toInterval ( ) starts 30 days or less on or after day of end of FaceToFaceOrTelehealthEncounter.period\n      and not ( ChemoAfterEncounter.performed.toInterval ( ) same day as ChemoBeforeEncounter.performed.toInterval ( ) )\n      and FaceToFaceOrTelehealthEncounter.period during \"Measurement Period\"\n      and FaceToFaceOrTelehealthEncounter.status = 'finished'\n    return FaceToFaceOrTelehealthEncounter"},{"url":"displaySequence","valueInteger":4}]},{"url":"http://hl7.org/fhir/us/cqfmeasures/StructureDefinition/cqfm-logicDefinition","extension":[{"url":"libraryName","valueString":"OncologyPainIntensityQuantifiedFHIR"},{"url":"name","valueString":"Standard Pain Assessment with Result"},{"url":"statement","valueString":"define \"Standard Pain Assessment with Result\":\n  [ObservationScreeningAssessment: \"Standardized Pain Assessment Tool\"] AssessedPain\n    where AssessedPain.value is not null\n      and AssessedPain.status = 'final'"},{"url":"displaySequence","valueInteger":5}]},{"url":"http://hl7.org/fhir/us/cqfmeasures/StructureDefinition/cqfm-logicDefinition","extension":[{"url":"libraryName","valueString":"OncologyPainIntensityQuantifiedFHIR"},{"url":"name","valueString":"Numerator 1"},{"url":"statement","valueString":"define \"Numerator 1\":\n  \"Face to Face or Telehealth Encounter with Ongoing Chemotherapy\" FaceToFaceOrTelehealthEncounterWithChemo\n    with \"Standard Pain Assessment with Result\" PainAssessed\n      such that PainAssessed.effective.toInterval ( ) during FaceToFaceOrTelehealthEncounterWithChemo.period"},{"url":"displaySequence","valueInteger":6}]},{"url":"http://hl7.org/fhir/us/cqfmeasures/StructureDefinition/cqfm-logicDefinition","extension":[{"url":"libraryName","valueString":"OncologyPainIntensityQuantifiedFHIR"},{"url":"name","valueString":"Numerator 2"},{"url":"statement","valueString":"define \"Numerator 2\":\n  \"Radiation Treatment Management During Measurement Period with Cancer Diagnosis\" RadiationManagementEncounter\n    with \"Standard Pain Assessment with Result\" PainAssessed\n      such that case\n        when exists ( ( RadiationManagementEncounter.type ) RadiationManagement\n            where RadiationManagement ~ \"Radiation treatment management, 5 treatments\"\n        ) then PainAssessed.effective.toInterval ( ) 6 days or less on or before day of start of RadiationManagementEncounter.period \n        else PainAssessed.effective.toInterval ( ) during day of RadiationManagementEncounter.period end"},{"url":"displaySequence","valueInteger":7}]},{"url":"http://hl7.org/fhir/us/cqfmeasures/StructureDefinition/cqfm-logicDefinition","extension":[{"url":"libraryName","valueString":"OncologyPainIntensityQuantifiedFHIR"},{"url":"name","valueString":"Initial Population 1"},{"url":"statement","valueString":"define \"Initial Population 1\":\n  \"Face to Face or Telehealth Encounter with Ongoing Chemotherapy\""},{"url":"displaySequence","valueInteger":8}]},{"url":"http://hl7.org/fhir/us/cqfmeasures/StructureDefinition/cqfm-logicDefinition","extension":[{"url":"libraryName","valueString":"OncologyPainIntensityQuantifiedFHIR"},{"url":"name","valueString":"Initial Population 2"},{"url":"statement","valueString":"define \"Initial Population 2\":\n  \"Radiation Treatment Management During Measurement Period with Cancer Diagnosis\""},{"url":"displaySequence","valueInteger":9}]},{"url":"http://hl7.org/fhir/us/cqfmeasures/StructureDefinition/cqfm-logicDefinition","extension":[{"url":"libraryName","valueString":"OncologyPainIntensityQuantifiedFHIR"},{"url":"name","valueString":"Initial Population 1"},{"url":"statement","valueString":"define \"Initial Population 1\":\n  \"Face to Face or Telehealth Encounter with Ongoing Chemotherapy\""},{"url":"displaySequence","valueInteger":10}]},{"url":"http://hl7.org/fhir/us/cqfmeasures/StructureDefinition/cqfm-logicDefinition","extension":[{"url":"libraryName","valueString":"OncologyPainIntensityQuantifiedFHIR"},{"url":"name","valueString":"Denominator 1"},{"url":"statement","valueString":"define \"Denominator 1\":\n  \"Initial Population 1\""},{"url":"displaySequence","valueInteger":11}]},{"url":"http://hl7.org/fhir/us/cqfmeasures/StructureDefinition/cqfm-logicDefinition","extension":[{"url":"libraryName","valueString":"QICoreCommon"},{"url":"name","valueString":"isActive"},{"url":"statement","valueString":"/* Candidates for FHIRCommon */\n\n/*\n@description: Returns true if the given condition has a clinical status of active, recurrence, or relapse\n*/\ndefine fluent function isActive(condition Choice<\"ConditionEncounterDiagnosis\", \"ConditionProblemsHealthConcerns\">):\n  condition.clinicalStatus ~ \"active\"\n    or condition.clinicalStatus ~ \"recurrence\"\n    or condition.clinicalStatus ~ \"relapse\""},{"url":"displaySequence","valueInteger":12}]},{"url":"http://hl7.org/fhir/us/cqfmeasures/StructureDefinition/cqfm-logicDefinition","extension":[{"url":"libraryName","valueString":"QICoreCommon"},{"url":"name","valueString":"prevalenceInterval"},{"url":"statement","valueString":"/*\n@description: Returns an interval representing the normalized prevalence period of a given Condition.\n@comment: Uses the ToInterval and ToAbatementInterval functions to determine the widest potential interval from\nonset to abatement as specified in the given Condition. If the condition is active, or has an abatement date the resulting \ninterval will have a closed ending boundary. Otherwise, the resulting interval will have an open ending boundary.\n*/\ndefine fluent function prevalenceInterval(condition Choice<\"ConditionEncounterDiagnosis\", \"ConditionProblemsHealthConcerns\">):\nif condition.clinicalStatus ~ \"active\"\n  or condition.clinicalStatus ~ \"recurrence\"\n  or condition.clinicalStatus ~ \"relapse\" then\n  Interval[start of condition.onset.toInterval(), end of condition.abatementInterval()]\nelse\n    (end of condition.abatementInterval()) abatementDate\n    return if abatementDate is null then\n      Interval[start of condition.onset.toInterval(), abatementDate)\n    else\n      Interval[start of condition.onset.toInterval(), abatementDate]"},{"url":"displaySequence","valueInteger":13}]},{"url":"http://hl7.org/fhir/us/cqfmeasures/StructureDefinition/cqfm-logicDefinition","extension":[{"url":"libraryName","valueString":"QICoreCommon"},{"url":"name","valueString":"abatementInterval"},{"url":"statement","valueString":"/*\n@description: Returns an interval representing the normalized abatement of a given Condition.\n@comment: If the abatement element of the Condition is represented as a DateTime, the result\nis an interval beginning and ending on that DateTime.\nIf the abatement is represented as a Quantity, the quantity is expected to be a calendar-duration and is interpreted as the age of the patient. The\nresult is an interval from the date the patient turned that age to immediately before one year later.\nIf the abatement is represented as a Quantity Interval, the quantities are expected to be calendar-durations and are interpreted as an age range during\nwhich the abatement occurred. The result is an interval from the date the patient turned the starting age of the quantity interval, and ending immediately\nbefore one year later than the date the patient turned the ending age of the quantity interval.\n*/\ndefine fluent function abatementInterval(condition Choice<\"ConditionEncounterDiagnosis\", \"ConditionProblemsHealthConcerns\">):\n\tif condition.abatement is DateTime then\n\t  Interval[condition.abatement as DateTime, condition.abatement as DateTime]\n\telse if condition.abatement is Quantity then\n\t\tInterval[Patient.birthDate + (condition.abatement as Quantity),\n\t\t\tPatient.birthDate + (condition.abatement as Quantity) + 1 year)\n\telse if condition.abatement is Interval<Quantity> then\n\t  Interval[Patient.birthDate + (condition.abatement.low as Quantity),\n\t\t  Patient.birthDate + (condition.abatement.high as Quantity) + 1 year)\n\telse if condition.abatement is Interval<DateTime> then\n\t  Interval[condition.abatement.low, condition.abatement.high)\n\telse null as Interval<DateTime>"},{"url":"displaySequence","valueInteger":14}]},{"url":"http://hl7.org/fhir/us/cqfmeasures/StructureDefinition/cqfm-logicDefinition","extension":[{"url":"libraryName","valueString":"FHIRHelpers"},{"url":"name","valueString":"ToInterval"},{"url":"statement","valueString":"/*\n@description: Converts the given [Period](https://hl7.org/fhir/datatypes.html#Period)\nvalue to a CQL DateTime Interval\n@comment: If the start value of the given period is unspecified, the starting\nboundary of the resulting interval will be open (meaning the start of the interval\nis unknown, as opposed to interpreted as the beginning of time).\n*/\ndefine function ToInterval(period FHIR.Period):\n    if period is null then\n        null\n    else\n        if period.\"start\" is null then\n            Interval(period.\"start\".value, period.\"end\".value]\n        else\n            Interval[period.\"start\".value, period.\"end\".value]"},{"url":"displaySequence","valueInteger":15}]},{"url":"http://hl7.org/fhir/us/cqfmeasures/StructureDefinition/cqfm-logicDefinition","extension":[{"url":"libraryName","valueString":"QICoreCommon"},{"url":"name","valueString":"toInterval"},{"url":"statement","valueString":"/*\n@description: Normalizes a value that is a choice of timing-valued types to an equivalent interval\n@comment: Normalizes a choice type of DateTime, Quanitty, Interval<DateTime>, or Interval<Quantity> types\nto an equivalent interval. This selection of choice types is a superset of the majority of choice types that are used as possible\nrepresentations for timing-valued elements in QICore, allowing this function to be used across any resource.\nThe input can be provided as a DateTime, Quantity, Interval<DateTime> or Interval<Quantity>.\nThe intent of this function is to provide a clear and concise mechanism to treat single\nelements that have multiple possible representations as intervals so that logic doesn't have to account\nfor the variability. More complex calculations (such as medication request period or dispense period\ncalculation) need specific guidance and consideration. That guidance may make use of this function, but\nthe focus of this function is on single element calculations where the semantics are unambiguous.\nIf the input is a DateTime, the result a DateTime Interval beginning and ending on that DateTime.\nIf the input is a Quantity, the quantity is expected to be a calendar-duration interpreted as an Age,\nand the result is a DateTime Interval beginning on the Date the patient turned that age and ending immediately before one year later.\nIf the input is a DateTime Interval, the result is the input.\nIf the input is a Quantity Interval, the quantities are expected to be calendar-durations interpreted as an Age, and the result\nis a DateTime Interval beginning on the date the patient turned the age given as the start of the quantity interval, and ending\nimmediately before one year later than the date the patient turned the age given as the end of the quantity interval.\nIf the input is a Timing, an error will be thrown indicating that Timing calculations are not implemented. Any other input will reslt in a null DateTime Interval\n*/\ndefine fluent function toInterval(choice Choice<DateTime, Quantity, Interval<DateTime>, Interval<Quantity>, Timing>):\n  case\n\t  when choice is DateTime then\n    \tInterval[choice as DateTime, choice as DateTime]\n\t\twhen choice is Interval<DateTime> then\n  \t\tchoice as Interval<DateTime>\n\t\twhen choice is Quantity then\n\t\t  Interval[Patient.birthDate + (choice as Quantity),\n\t\t\t  Patient.birthDate + (choice as Quantity) + 1 year)\n\t\twhen choice is Interval<Quantity> then\n\t\t  Interval[Patient.birthDate + (choice.low as Quantity),\n\t\t\t  Patient.birthDate + (choice.high as Quantity) + 1 year)\n\t\twhen choice is Timing then\n      Message(null, true, 'NOT_IMPLEMENTED', 'Error', 'Calculation of an interval from a Timing value is not supported') as Interval<DateTime>\n\t\telse\n\t\t\tnull as Interval<DateTime>\n\tend"},{"url":"displaySequence","valueInteger":16}]},{"url":"http://hl7.org/fhir/us/cqfmeasures/StructureDefinition/cqfm-logicDefinition","extension":[{"url":"libraryName","valueString":"FHIRHelpers"},{"url":"name","valueString":"ToConcept"},{"url":"statement","valueString":"/*\n@description: Converts the given FHIR [CodeableConcept](https://hl7.org/fhir/datatypes.html#CodeableConcept) value to a CQL Concept.\n*/\ndefine function ToConcept(concept FHIR.CodeableConcept):\n    if concept is null then\n        null\n    else\n        System.Concept {\n            codes: concept.coding C return ToCode(C),\n            display: concept.text.value\n        }"},{"url":"displaySequence","valueInteger":17}]},{"url":"http://hl7.org/fhir/us/cqfmeasures/StructureDefinition/cqfm-logicDefinition","extension":[{"url":"libraryName","valueString":"FHIRHelpers"},{"url":"name","valueString":"ToCode"},{"url":"statement","valueString":"/*\n@description: Converts the given FHIR [Coding](https://hl7.org/fhir/datatypes.html#Coding) value to a CQL Code.\n*/\ndefine function ToCode(coding FHIR.Coding):\n    if coding is null then\n        null\n    else\n        System.Code {\n          code: coding.code.value,\n          system: coding.system.value,\n          version: coding.version.value,\n          display: coding.display.value\n        }"},{"url":"displaySequence","valueInteger":18}]}],"name":"EffectiveDataRequirements","status":"active","type":{"coding":[{"system":"http://terminology.hl7.org/CodeSystem/library-type","code":"module-definition"}]},"relatedArtifact":[{"type":"depends-on","display":"Library QICoreCommon","resource":"Library/QICoreCommon|4.0.000"},{"type":"depends-on","display":"Library FHIRHelpers","resource":"Library/FHIRHelpers|4.4.000"},{"type":"depends-on","display":"Library FHIRHelpers","resource":"Library/FHIRHelpers|4.4.000"},{"type":"depends-on","display":"Code system ConditionClinicalStatusCodes","resource":"http://terminology.hl7.org/CodeSystem/condition-clinical"},{"type":"depends-on","display":"Code system CPT","resource":"http://www.ama-assn.org/go/cpt"},{"type":"depends-on","display":"Value set Radiation Treatment Management","resource":"http://cts.nlm.nih.gov/fhir/ValueSet/2.16.840.1.113883.3.526.3.1026"},{"type":"depends-on","display":"Value set Cancer","resource":"http://cts.nlm.nih.gov/fhir/ValueSet/2.16.840.1.113883.3.526.3.1010"},{"type":"depends-on","display":"Value set Office Visit","resource":"http://cts.nlm.nih.gov/fhir/ValueSet/2.16.840.1.113883.3.464.1003.101.12.1001"},{"type":"depends-on","display":"Value set Audio Visual Telehealth Encounter","resource":"http://cts.nlm.nih.gov/fhir/ValueSet/2.16.840.1.113883.3.1444.5.215"},{"type":"depends-on","display":"Value set Chemotherapy Administration","resource":"http://cts.nlm.nih.gov/fhir/ValueSet/2.16.840.1.113883.3.526.3.1027"},{"type":"depends-on","display":"Value set Standardized Pain Assessment Tool","resource":"http://cts.nlm.nih.gov/fhir/ValueSet/2.16.840.1.113883.3.526.3.1028"}],"parameter":[{"name":"Measurement Period","use":"in","min":0,"max":"1","type":"Period"},{"name":"Denominator 2","use":"out","min":0,"max":"*","type":"Resource"},{"name":"Numerator 1","use":"out","min":0,"max":"*","type":"Resource"},{"name":"Numerator 2","use":"out","min":0,"max":"*","type":"Resource"},{"name":"Initial Population 1","use":"out","min":0,"max":"*","type":"Resource"},{"name":"Initial Population 2","use":"out","min":0,"max":"*","type":"Resource"},{"name":"Denominator 1","use":"out","min":0,"max":"*","type":"Resource"}],"dataRequirement":[{"type":"Patient","profile":["http://hl7.org/fhir/us/qicore/StructureDefinition/qicore-patient"]},{"type":"Encounter","profile":["http://hl7.org/fhir/us/qicore/StructureDefinition/qicore-encounter"],"mustSupport":["type","period","status","status.value"],"codeFilter":[{"path":"type","valueSet":"http://cts.nlm.nih.gov/fhir/ValueSet/2.16.840.1.113883.3.526.3.1026"}]},{"type":"Condition","profile":["http://hl7.org/fhir/us/qicore/StructureDefinition/qicore-condition-problems-health-concerns"],"mustSupport":["code"],"codeFilter":[{"path":"code","valueSet":"http://cts.nlm.nih.gov/fhir/ValueSet/2.16.840.1.113883.3.526.3.1010"}]},{"type":"Procedure","profile":["http://hl7.org/fhir/us/qicore/StructureDefinition/qicore-procedure"],"mustSupport":["code","performed","status","status.value"],"codeFilter":[{"path":"code","valueSet":"http://cts.nlm.nih.gov/fhir/ValueSet/2.16.840.1.113883.3.526.3.1027"}]},{"type":"Encounter","profile":["http://hl7.org/fhir/us/qicore/StructureDefinition/qicore-encounter"],"mustSupport":["type"],"codeFilter":[{"path":"type","valueSet":"http://cts.nlm.nih.gov/fhir/ValueSet/2.16.840.1.113883.3.464.1003.101.12.1001"}]},{"type":"Encounter","profile":["http://hl7.org/fhir/us/qicore/StructureDefinition/qicore-encounter"],"mustSupport":["type"],"codeFilter":[{"path":"type","valueSet":"http://cts.nlm.nih.gov/fhir/ValueSet/2.16.840.1.113883.3.1444.5.215"}]},{"type":"Condition","profile":["http://hl7.org/fhir/us/qicore/StructureDefinition/qicore-condition-problems-health-concerns"],"mustSupport":["code"],"codeFilter":[{"path":"code","valueSet":"http://cts.nlm.nih.gov/fhir/ValueSet/2.16.840.1.113883.3.526.3.1010"}]},{"type":"Procedure","profile":["http://hl7.org/fhir/us/qicore/StructureDefinition/qicore-procedure"],"mustSupport":["code","performed","status","status.value"],"codeFilter":[{"path":"code","valueSet":"http://cts.nlm.nih.gov/fhir/ValueSet/2.16.840.1.113883.3.526.3.1027"}]},{"type":"Procedure","profile":["http://hl7.org/fhir/us/qicore/StructureDefinition/qicore-procedure"],"mustSupport":["code","performed","status","status.value"],"codeFilter":[{"path":"code","valueSet":"http://cts.nlm.nih.gov/fhir/ValueSet/2.16.840.1.113883.3.526.3.1027"}]},{"type":"Observation","profile":["http://hl7.org/fhir/us/qicore/StructureDefinition/qicore-observation-screening-assessment"],"mustSupport":["code","value","status","status.value"],"codeFilter":[{"path":"code","valueSet":"http://cts.nlm.nih.gov/fhir/ValueSet/2.16.840.1.113883.3.526.3.1028"}]},{"type":"Observation","profile":["http://hl7.org/fhir/us/qicore/StructureDefinition/qicore-observation-screening-assessment"],"mustSupport":["code","value","status","status.value","effective"],"codeFilter":[{"path":"code","valueSet":"http://cts.nlm.nih.gov/fhir/ValueSet/2.16.840.1.113883.3.526.3.1028"}]},{"type":"Observation","profile":["http://hl7.org/fhir/us/qicore/StructureDefinition/qicore-observation-screening-assessment"],"mustSupport":["code","value","status","status.value","effective"],"codeFilter":[{"path":"code","valueSet":"http://cts.nlm.nih.gov/fhir/ValueSet/2.16.840.1.113883.3.526.3.1028"}]}]}],"extension":[{"url":"http://hl7.org/fhir/uv/crmi/StructureDefinition/crmi-effectiveDataRequirements","valueCanonical":"#effective-data-requirements"},{"id":"effective-data-requirements","url":"http://hl7.org/fhir/us/cqfmeasures/StructureDefinition/cqfm-effectiveDataRequirements","valueReference":{"reference":"#effective-data-requirements"}},{"url":"http://hl7.org/fhir/uv/crmi/StructureDefinition/crmi-softwaresystem","valueReference":{"reference":"Device/cqf-tooling"}}],"url":"https://madie.cms.gov/Measure/OncologyPainIntensityQuantifiedFHIR","identifier":[{"use":"usual","type":{"coding":[{"system":"http://terminology.hl7.org/CodeSystem/artifact-identifier-type","code":"short-name","display":"Short Name"}]},"system":"https://madie.cms.gov/measure/shortName","value":"CMS157FHIR"},{"use":"official","type":{"coding":[{"system":"http://terminology.hl7.org/CodeSystem/artifact-identifier-type","code":"version-independent","display":"Version Independent"}]},"system":"urn:ietf:rfc:3986","value":"urn:uuid:b7b487bf-bc27-48c9-994f-6d095ff84500"},{"use":"official","type":{"coding":[{"system":"http://terminology.hl7.org/CodeSystem/artifact-identifier-type","code":"version-specific","display":"Version Specific"}]},"system":"urn:ietf:rfc:3986","value":"urn:uuid:e8aea214-73a5-4b6c-89d1-e1d901c69386"},{"use":"official","type":{"coding":[{"system":"http://terminology.hl7.org/CodeSystem/artifact-identifier-type","code":"endorser","display":"Endorser"}]},"system":"https://madie.cms.gov/measure/cbeId","value":"0384e","assigner":{"display":"CMS Consensus Based Entity"}},{"use":"official","type":{"coding":[{"system":"http://terminology.hl7.org/CodeSystem/artifact-identifier-type","code":"publisher","display":"Publisher"}]},"system":"https://madie.cms.gov/measure/cmsId","value":"157FHIR","assigner":{"display":"CMS"}}],"version":"0.3.000","name":"OncologyPainIntensityQuantifiedFHIR","title":"Oncology: Medical and Radiation Pain Intensity QuantifiedFHIR","status":"active","experimental":false,"date":"2025-06-26T19:30:10+00:00","publisher":"American Society of Clinical Oncology","contact":[{"telecom":[{"system":"url","value":"www.asco.org"}]}],"description":"Percentage of patient visits, regardless of patient age, with a diagnosis of cancer currently receiving chemotherapy or radiation therapy in which pain intensity is quantified","usage":"This eCQM is an episode-based measure. An episode is defined as each eligible encounter for patients with a diagnosis of cancer who are also currently receiving chemotherapy or radiation therapy during the measurement period. \n\nFor patients receiving radiation therapy, pain intensity should be quantified at each radiation treatment management encounter where the patient and physician have a face-to-face interaction. Due to the nature of some applicable coding related to radiation therapy (e.g., delivered in multiple fractions), the billing date for certain codes may or may not be the same as the face-to-face encounter date. In this instance, for the reporting purposes of this measure, the billing date should be used to pull the appropriate patients into the initial population. It is expected, though, that the numerator criteria would be performed at the time of the actual face-to-face encounter during the series of treatments. A lookback (retrospective) period of 7 days, including the billing date, may be used to identify the actual face-to-face encounter, which is required to assess the numerator. Therefore, pain intensity should be quantified during the face-to-face encounter occurring on the actual billing date or within the 6 days prior to the billing date.\n\nFor patients receiving chemotherapy, pain intensity should be quantified at each face-to-face or telehealth encounter with the physician while the patient is currently receiving chemotherapy. For purposes of identifying eligible encounters, patients \"currently receiving chemotherapy\" refers to patients administered chemotherapy on the same day as the encounter or during the 30 days before the date of the encounter AND during the 30 days after the date of the encounter.\n\nPain intensity should be quantified using a standard instrument, such as a 0-10 numerical rating scale, visual analog scale, a categorical scale, or pictorial scale. Examples include the Faces Pain Rating Scale and the Brief Pain Inventory (BPI).\n\nThis FHIR-based measure has been derived from the QDM-based measure: CMS157v14.\n\nPlease refer to the HL7 QI-Core Implementation Guide (https://hl7.org/fhir/us/qicore/) for more information on QI-Core and mapping recommendations from QDM to QI-Core (https://hl7.org/fhir/us/qicore/qdm-to-qicore.html).","copyright":"Copyright 2025 American Society of Clinical Oncology. All Rights Reserved.","effectivePeriod":{"start":"2026-01-01","end":"2026-12-31"},"author":[{"name":"American Society of Clinical Oncology","telecom":[{"system":"url","value":"www.asco.org"}]}],"library":["https://madie.cms.gov/Library/OncologyPainIntensityQuantifiedFHIR"],"disclaimer":"The Measure is not a clinical guideline, does not establish a standard of medical care, and has not been tested for all potential applications. \n\nThe Measure, while copyrighted, can be reproduced and distributed, without modification, for noncommercial purposes, e.g., use by health care providers in connection with their practices. Commercial use is defined as the sale, license, or distribution of the Measure for commercial gain, or incorporation of the Measure into a product or service that is sold, licensed or distributed for commercial gain. \n\nCommercial uses of the Measure require a license agreement between the user and American Society of Clinical Oncology (ASCO) and prior written approval of ASCO. Contact measurement@asco.org for licensing this measure. Neither ASCO nor its members shall be responsible for any use of the Measure.\n\nThe PCPIs and American Medical Associations significant past efforts and contributions to the development and updating of the Measures are acknowledged. \n\nASCO is solely responsible for the review and enhancement (\"Maintenance\") of the Measure as of June 2020. \n\nASCO encourages the use of the Measure by other health care professionals, where appropriate. \n\nTHE MEASURE AND SPECIFICATIONS ARE PROVIDED \"AS IS\" WITHOUT WARRANTY OF ANY KIND.\n\nLimited proprietary coding may be contained in the Measure specifications for convenience. A license agreement must be entered prior to a third partys use of Current Procedural Terminology (CPT[R]) or other proprietary code set contained in the Measures. Any other use of CPT or other coding by the third party is strictly prohibited. ASCO and its members disclaim all liability for use or accuracy of any CPT or other coding contained in the specifications. \n\nCPT(R) contained in the Measure specifications is copyright 2004-2024 American Medical Association. LOINC(R) is copyright 2004-2024 Regenstrief Institute, Inc. This material contains SNOMED Clinical Terms(R) (SNOMED CT[R]) copyright 2004-2024 International Health Terminology Standards Development Organisation. ICD-10 is copyright 2024 World Health Organization. All Rights Reserved.\n\nDue to technical limitations, registered trademarks are indicated by (R) or [R].","rationale":"Pain is a commonly occurring symptom for cancer patients as 30% to 50% (510,000 to 850,000 each year based on current statistics) will experience moderate to severe pain (Wiffen, Wee, Derry, Bell, & Moore, 2017). Initial and ongoing pain assessments are essential to determine the pathophysiology of pain and ensure proper pain management. According to the National Comprehensive Cancer Network (NCCN, 2024), undertreatment of pain remains a problem among a significant subset of cancer patients, survival is linked with symptom control and pain management, and pain management contributes to broad quality of life improvement. Furthermore, NCCN notes that formal pain reevaluation is required at each contact to ensure that pain management therapies are successfully meeting patient-specific goals for comfort, function, and safety. Cancer patients have reported that pain interferes with their mood, work, relationships with other people, sleep and overall enjoyment of life (Moryl et al., 2018). Pain management is an essential part of oncologic management and contributes to a patients overall function and quality of life (NCCN, 2024).  \n\nA recent analysis of registry data for chronic pain cancer patients found average pain intensity reported as mild (24.6% of patients), moderate (41.5%), and severe (33.9%). The study also indicated that patient report of pain relief is inversely related to the average pain intensity reported (Moryl et al., 2018). These data suggest that assessing and managing a cancer patients pain is critical and there remains significant room for improvement in assessing and mitigating cancer-related pain. A prospective study of changes in pain severity of cancer patients found that, at initial assessment, 47% of patients reported pain. At follow-up, the patients with pain at initial assessment reported reduced pain (32.2%), stable pain (48.2%) and worse pain (19.6%). Of the 53% of patients reporting no pain at initial assessment, 82.6% reported stable pain and 17.4% reported worse pain at follow-up assessment (Zhao et al., 2014). This study highlights the importance of initial and ongoing assessments of pain to identify gaps and ensure proper pain management.","clinicalRecommendationStatement":"-Screen all patients for pain at each contact. \n\n-Routinely quantify and document pain intensity and quality as characterized by the patient (whenever possible). Include patient reporting of breakthrough pain, treatments used and their impact on pain, satisfaction with pain relief, pain interference, provider assessment of impact on function, and any special issues for the patient relevant to pain treatment and access to care. If necessary, get additional information from caregiver regarding pain and impact on function. \n\n-Perform comprehensive pain assessment if new or worsening pain is present and regularly for persisting pain.\n\nVarious methods and tools exist to assess pain severity. Intensity of pain should be quantified using a numerical rating scale (i.e., 0-10), visual analog scale, categorical scale, or pictorial scale (e.g., The Faces Pain Rating Scale) (Category 2A) (National Comprehensive Cancer Network, 2024).","guidance":"This eCQM is an episode-based measure. An episode is defined as each eligible encounter for patients with a diagnosis of cancer who are also currently receiving chemotherapy or radiation therapy during the measurement period. \n\nFor patients receiving radiation therapy, pain intensity should be quantified at each radiation treatment management encounter where the patient and physician have a face-to-face interaction. Due to the nature of some applicable coding related to radiation therapy (e.g., delivered in multiple fractions), the billing date for certain codes may or may not be the same as the face-to-face encounter date. In this instance, for the reporting purposes of this measure, the billing date should be used to pull the appropriate patients into the initial population. It is expected, though, that the numerator criteria would be performed at the time of the actual face-to-face encounter during the series of treatments. A lookback (retrospective) period of 7 days, including the billing date, may be used to identify the actual face-to-face encounter, which is required to assess the numerator. Therefore, pain intensity should be quantified during the face-to-face encounter occurring on the actual billing date or within the 6 days prior to the billing date.\n\nFor patients receiving chemotherapy, pain intensity should be quantified at each face-to-face or telehealth encounter with the physician while the patient is currently receiving chemotherapy. For purposes of identifying eligible encounters, patients \"currently receiving chemotherapy\" refers to patients administered chemotherapy on the same day as the encounter or during the 30 days before the date of the encounter AND during the 30 days after the date of the encounter.\n\nPain intensity should be quantified using a standard instrument, such as a 0-10 numerical rating scale, visual analog scale, a categorical scale, or pictorial scale. Examples include the Faces Pain Rating Scale and the Brief Pain Inventory (BPI).\n\nThis FHIR-based measure has been derived from the QDM-based measure: CMS157v14.\n\nPlease refer to the HL7 QI-Core Implementation Guide (https://hl7.org/fhir/us/qicore/) for more information on QI-Core and mapping recommendations from QDM to QI-Core (https://hl7.org/fhir/us/qicore/qdm-to-qicore.html).","group":[{"id":"Group_1","extension":[{"url":"http://hl7.org/fhir/us/cqfmeasures/StructureDefinition/cqfm-scoring","valueCodeableConcept":{"coding":[{"system":"http://terminology.hl7.org/CodeSystem/measure-scoring","code":"proportion","display":"Proportion"}]}},{"url":"http://hl7.org/fhir/us/cqfmeasures/StructureDefinition/cqfm-populationBasis","valueCode":"Encounter"},{"url":"http://hl7.org/fhir/us/cqfmeasures/StructureDefinition/cqfm-type","valueCodeableConcept":{"coding":[{"system":"http://terminology.hl7.org/CodeSystem/measure-type","code":"process","display":"Process"}]}},{"url":"http://hl7.org/fhir/us/cqfmeasures/StructureDefinition/cqfm-rateAggregation","valueCode":"This measure is intended to have one reporting rate, which aggregates the following populations into a single performance rate for reporting purposes: \n- Population 1: Visits for patients with a diagnosis of cancer who are currently receiving chemotherapy \n- Population 2: Visits for patients with a diagnosis of cancer who are currently receiving radiation therapy\n\nFor the purposes of this measure, a single performance rate can be calculated as follows:\nPerformance Rate = (Numerator 1 + Numerator 2)/ (Denominator 1 + Denominator 2)"},{"url":"http://hl7.org/fhir/us/cqfmeasures/StructureDefinition/cqfm-improvementNotation","valueCodeableConcept":{"coding":[{"system":"http://terminology.hl7.org/CodeSystem/measure-improvement-notation","code":"increase","display":"Increased score indicates improvement"}]}}],"description":"Percentage of patient visits, regardless of patient age, with a diagnosis of cancer currently receiving chemotherapy in which pain intensity is quantified","population":[{"id":"InitialPopulation_1","code":{"coding":[{"system":"http://terminology.hl7.org/CodeSystem/measure-population","code":"initial-population","display":"Initial Population"}]},"description":"All patient visits, regardless of patient age, with a diagnosis of cancer currently receiving chemotherapy ","criteria":{"language":"text/cql-identifier","expression":"Initial Population 1"}},{"id":"Denominator_1","code":{"coding":[{"system":"http://terminology.hl7.org/CodeSystem/measure-population","code":"denominator","display":"Denominator"}]},"description":"Equals Initial Population","criteria":{"language":"text/cql-identifier","expression":"Denominator 1"}},{"id":"Numerator_1","code":{"coding":[{"system":"http://terminology.hl7.org/CodeSystem/measure-population","code":"numerator","display":"Numerator"}]},"description":"Patient visits in which pain intensity is quantified","criteria":{"language":"text/cql-identifier","expression":"Numerator 1"}}]},{"id":"Group_2","extension":[{"url":"http://hl7.org/fhir/us/cqfmeasures/StructureDefinition/cqfm-scoring","valueCodeableConcept":{"coding":[{"system":"http://terminology.hl7.org/CodeSystem/measure-scoring","code":"proportion","display":"Proportion"}]}},{"url":"http://hl7.org/fhir/us/cqfmeasures/StructureDefinition/cqfm-populationBasis","valueCode":"Encounter"},{"url":"http://hl7.org/fhir/us/cqfmeasures/StructureDefinition/cqfm-type","valueCodeableConcept":{"coding":[{"system":"http://terminology.hl7.org/CodeSystem/measure-type","code":"process","display":"Process"}]}},{"url":"http://hl7.org/fhir/us/cqfmeasures/StructureDefinition/cqfm-rateAggregation","valueCode":"This measure is intended to have one reporting rate, which aggregates the following populations into a single performance rate for reporting purposes: \n- Population 1: Visits for patients with a diagnosis of cancer who are currently receiving chemotherapy \n- Population 2: Visits for patients with a diagnosis of cancer who are currently receiving radiation therapy\n\nFor the purposes of this measure, a single performance rate can be calculated as follows:\nPerformance Rate = (Numerator 1 + Numerator 2)/ (Denominator 1 + Denominator 2)"},{"url":"http://hl7.org/fhir/us/cqfmeasures/StructureDefinition/cqfm-improvementNotation","valueCodeableConcept":{"coding":[{"system":"http://terminology.hl7.org/CodeSystem/measure-improvement-notation","code":"increase","display":"Increased score indicates improvement"}]}}],"description":"Percentage of patient visits, regardless of patient age, with a diagnosis of cancer currently radiation therapy in which pain intensity is quantified","population":[{"id":"InitialPopulation_2","code":{"coding":[{"system":"http://terminology.hl7.org/CodeSystem/measure-population","code":"initial-population","display":"Initial Population"}]},"description":"All patient visits, regardless of patient age, with a diagnosis of cancer currently receiving radiation therapy","criteria":{"language":"text/cql-identifier","expression":"Initial Population 2"}},{"id":"Denominator_2","code":{"coding":[{"system":"http://terminology.hl7.org/CodeSystem/measure-population","code":"denominator","display":"Denominator"}]},"description":"Equals Initial Population","criteria":{"language":"text/cql-identifier","expression":"Denominator 2"}},{"id":"Numerator_2","code":{"coding":[{"system":"http://terminology.hl7.org/CodeSystem/measure-population","code":"numerator","display":"Numerator"}]},"description":"Patient visits in which pain intensity is quantified","criteria":{"language":"text/cql-identifier","expression":"Numerator 2"}}]}]},"request":{"method":"PUT","url":"Measure/OncologyPainIntensityQuantifiedFHIR"}}]}