{"resourceType":"Bundle","id":"tests-c3f55d79-b10c-4d2b-8699-a7538867159d-bundle","type":"transaction","entry":[{"fullUrl":"MeasureReport/9636d46e-46ed-447a-80b4-d3d4a87d1e66","resource":{"resourceType":"MeasureReport","id":"9636d46e-46ed-447a-80b4-d3d4a87d1e66","meta":{"profile":["http://hl7.org/fhir/us/cqfmeasures/StructureDefinition/test-case-cqfm"]},"contained":[{"resourceType":"Parameters","id":"69ceca15-0b5b-4a3e-9b52-bf109c66a8af-parameters","parameter":[{"name":"subject","valueString":"c3f55d79-b10c-4d2b-8699-a7538867159d"}]}],"extension":[{"url":"http://hl7.org/fhir/StructureDefinition/cqf-inputParameters","valueReference":{"reference":"#69ceca15-0b5b-4a3e-9b52-bf109c66a8af-parameters"}},{"url":"http://hl7.org/fhir/us/cqfmeasures/StructureDefinition/cqfm-testCaseDescription","valueMarkdown":"Enc 1/1  0800-0845 during MP, BP 140/90, follow up in 1 day, alcohol consumption for rehab/detox, \n2nd Enc 12/31 @1000-1045 BP 160/90, f/u in 2 -3 mo. EKG, lifestyle changes recommended, medication.\nBoth encounters are expected to pass the numerator"}],"modifierExtension":[{"url":"http://hl7.org/fhir/us/cqfmeasures/StructureDefinition/cqfm-isTestCase","valueBoolean":true}],"status":"complete","type":"individual","measure":"https://madie.cms.gov/Measure/CMS22FHIRPCSBPScreeningFollowUp","period":{"start":"2026-01-01","end":"2026-12-31"},"group":[{"id":"Group_1","population":[{"id":"InitialPopulation_1","code":{"coding":[{"system":"http://terminology.hl7.org/CodeSystem/measure-population","code":"initial-population","display":"Initial Population"}]},"count":2},{"id":"Denominator_1","code":{"coding":[{"system":"http://terminology.hl7.org/CodeSystem/measure-population","code":"denominator","display":"Denominator"}]},"count":2},{"id":"DenominatorExclusion_1","code":{"coding":[{"system":"http://terminology.hl7.org/CodeSystem/measure-population","code":"denominator-exclusion","display":"Denominator Exclusion"}]},"count":0},{"id":"Numerator_1","code":{"coding":[{"system":"http://terminology.hl7.org/CodeSystem/measure-population","code":"numerator","display":"Numerator"}]},"count":2},{"id":"DenominatorException_1","code":{"coding":[{"system":"http://terminology.hl7.org/CodeSystem/measure-population","code":"denominator-exception","display":"Denominator Exception"}]},"count":0}],"measureScore":{"value":0.0}}],"evaluatedResource":[{"reference":"Patient/c3f55d79-b10c-4d2b-8699-a7538867159d"},{"reference":"Encounter/dbb4d319-8519-46c5-93b8-6d23497fb572"},{"reference":"ServiceRequest/e23cafae-446c-4254-b67a-9c81c52b2ffe"},{"reference":"Encounter/7177e69b-03d2-4843-98a9-d881b138835b"},{"reference":"ServiceRequest/288b37fb-3dff-4195-af64-ab09ecb9f6bc"},{"reference":"ServiceRequest/8c20959f-8d15-4e4d-b6f1-69ce9df8ddfc"},{"reference":"ServiceRequest/2cb742d5-e09b-4ca4-97ec-2d07b8f7e166"},{"reference":"ServiceRequest/8e8ecef9-6554-4914-a313-539e894c18bd"},{"reference":"MedicationRequest/1f6e1714-eaee-44cc-b1e3-8ac46a5ba268"},{"reference":"Observation/3885b8af-be17-4363-9e0d-a7826e3a087f"},{"reference":"Observation/589c4e0f-12c3-476d-84ca-5c65411a951f"},{"reference":"Coverage/3d94aca0-962f-4041-834e-fb69b955a5f1"},{"reference":"Organization/85331ac8-f2c6-4903-b526-076a4a9b7a2d"}]},"request":{"method":"PUT","url":"MeasureReport/9636d46e-46ed-447a-80b4-d3d4a87d1e66"}},{"fullUrl":"Coverage/3d94aca0-962f-4041-834e-fb69b955a5f1","resource":{"resourceType":"Coverage","id":"3d94aca0-962f-4041-834e-fb69b955a5f1","meta":{"profile":["http://hl7.org/fhir/us/qicore/StructureDefinition/qicore-coverage"]},"status":"active","beneficiary":{"reference":"Patient/c3f55d79-b10c-4d2b-8699-a7538867159d"},"payor":[{"reference":"Organization/85331ac8-f2c6-4903-b526-076a4a9b7a2d"}]},"request":{"method":"PUT","url":"Coverage/3d94aca0-962f-4041-834e-fb69b955a5f1"}},{"fullUrl":"ServiceRequest/8c20959f-8d15-4e4d-b6f1-69ce9df8ddfc","resource":{"resourceType":"ServiceRequest","id":"8c20959f-8d15-4e4d-b6f1-69ce9df8ddfc","meta":{"profile":["http://hl7.org/fhir/us/qicore/StructureDefinition/qicore-servicerequest"]},"status":"active","intent":"order","code":{"coding":[{"system":"http://snomed.info/sct","version":"2022-03","code":"20093000","display":"Alcohol rehabilitation and detoxification (regime/therapy)","userSelected":true}]},"subject":{"reference":"Patient/c3f55d79-b10c-4d2b-8699-a7538867159d"},"authoredOn":"2026-01-01T08:30:00.000+00:00"},"request":{"method":"PUT","url":"ServiceRequest/8c20959f-8d15-4e4d-b6f1-69ce9df8ddfc"}},{"fullUrl":"Observation/589c4e0f-12c3-476d-84ca-5c65411a951f","resource":{"resourceType":"Observation","id":"589c4e0f-12c3-476d-84ca-5c65411a951f","meta":{"profile":["http://hl7.org/fhir/us/core/StructureDefinition/us-core-blood-pressure"]},"status":"final","category":[{"coding":[{"system":"http://terminology.hl7.org/CodeSystem/observation-category","code":"vital-signs","display":"Vital Signs"}],"text":"Vital Signs"}],"code":{"coding":[{"system":"http://loinc.org","code":"85354-9","display":"Blood pressure panel"}]},"subject":{"reference":"Patient/c3f55d79-b10c-4d2b-8699-a7538867159d"},"effectiveDateTime":"2026-12-31T10:05:00.000+00:00","component":[{"code":{"coding":[{"system":"http://loinc.org","code":"8480-6","display":"Systolic blood pressure"}]},"valueQuantity":{"value":160,"unit":"mmHg","system":"http://unitsofmeasure.org","code":"mm[Hg]"}},{"code":{"coding":[{"system":"http://loinc.org","code":"8462-4","display":"Diastolic blood pressure"}]},"valueQuantity":{"value":90,"unit":"mmHg","system":"http://unitsofmeasure.org","code":"mm[Hg]"}}]},"request":{"method":"PUT","url":"Observation/589c4e0f-12c3-476d-84ca-5c65411a951f"}},{"fullUrl":"ServiceRequest/2cb742d5-e09b-4ca4-97ec-2d07b8f7e166","resource":{"resourceType":"ServiceRequest","id":"2cb742d5-e09b-4ca4-97ec-2d07b8f7e166","meta":{"profile":["http://hl7.org/fhir/us/qicore/StructureDefinition/qicore-servicerequest"]},"status":"active","intent":"order","code":{"coding":[{"system":"http://loinc.org","code":"34534-8","display":"EKG 12 channel panel","userSelected":true}]},"subject":{"reference":"Patient/c3f55d79-b10c-4d2b-8699-a7538867159d"},"authoredOn":"2026-12-31T10:10:00.000+00:00"},"request":{"method":"PUT","url":"ServiceRequest/2cb742d5-e09b-4ca4-97ec-2d07b8f7e166"}},{"fullUrl":"Bundle/SecondHighBPECGMedsNonPharm","resource":{"resourceType":"Bundle","id":"SecondHighBPECGMedsNonPharm","type":"transaction","entry":[{"fullUrl":"https://madie.cms.gov/Patient/c3f55d79-b10c-4d2b-8699-a7538867159d","resource":{"resourceType":"Patient","id":"c3f55d79-b10c-4d2b-8699-a7538867159d","meta":{"profile":["http://hl7.org/fhir/us/qicore/StructureDefinition/qicore-patient"]},"extension":[{"url":"http://hl7.org/fhir/us/core/StructureDefinition/us-core-race","extension":[{"url":"ombCategory","valueCoding":{"system":"urn:oid:2.16.840.1.113883.6.238","code":"1002-5","display":"American Indian or Alaska Native","userSelected":true}},{"url":"text","valueString":"American Indian or Alaska Native"}]},{"url":"http://hl7.org/fhir/us/core/StructureDefinition/us-core-ethnicity","extension":[{"url":"ombCategory","valueCoding":{"system":"urn:oid:2.16.840.1.113883.6.238","code":"2135-2","display":"Hispanic or Latino","userSelected":true}},{"url":"text","valueString":"Hispanic or Latino"}]}],"identifier":[{"type":{"coding":[{"system":"http://terminology.hl7.org/CodeSystem/v2-0203","code":"MR"}]},"system":"https://bonnie-fhir.healthit.gov/","value":"SecondHighBPECGMedsNonPharm"}],"name":[{"family":"NUMERPass","given":["SecondHighBPECGMedsNonPharm"]}],"gender":"male","birthDate":"1976-12-31"},"request":{"method":"PUT","url":"Patient/c3f55d79-b10c-4d2b-8699-a7538867159d"}},{"fullUrl":"https://madie.cms.gov/Encounter/dbb4d319-8519-46c5-93b8-6d23497fb572","resource":{"resourceType":"Encounter","id":"dbb4d319-8519-46c5-93b8-6d23497fb572","meta":{"profile":["http://hl7.org/fhir/us/qicore/StructureDefinition/qicore-encounter"]},"status":"finished","class":{"system":"http://terminology.hl7.org/CodeSystem/v3-ActCode","code":"AMB","display":"ambulatory"},"type":[{"coding":[{"system":"http://snomed.info/sct","version":"2022-03","code":"103705002","display":"Patient status observation (procedure)","userSelected":true}]}],"subject":{"reference":"Patient/c3f55d79-b10c-4d2b-8699-a7538867159d"},"period":{"start":"2026-01-01T08:00:00.000+00:00","end":"2026-01-01T08:45:00.000+00:00"}},"request":{"method":"PUT","url":"Encounter/dbb4d319-8519-46c5-93b8-6d23497fb572"}},{"fullUrl":"https://madie.cms.gov/ServiceRequest/e23cafae-446c-4254-b67a-9c81c52b2ffe","resource":{"resourceType":"ServiceRequest","id":"e23cafae-446c-4254-b67a-9c81c52b2ffe","meta":{"profile":["http://hl7.org/fhir/us/qicore/StructureDefinition/qicore-servicerequest"]},"status":"active","intent":"order","code":{"coding":[{"system":"http://snomed.info/sct","version":"2022-03","code":"183617005","display":"Follow-up 1 day (finding)","userSelected":true}]},"subject":{"reference":"Patient/c3f55d79-b10c-4d2b-8699-a7538867159d"},"authoredOn":"2026-01-01T08:30:00.000+00:00"},"request":{"method":"PUT","url":"ServiceRequest/e23cafae-446c-4254-b67a-9c81c52b2ffe"}},{"fullUrl":"https://madie.cms.gov/Encounter/7177e69b-03d2-4843-98a9-d881b138835b","resource":{"resourceType":"Encounter","id":"7177e69b-03d2-4843-98a9-d881b138835b","meta":{"profile":["http://hl7.org/fhir/us/qicore/StructureDefinition/qicore-encounter"]},"status":"finished","class":{"system":"http://terminology.hl7.org/CodeSystem/v3-ActCode","code":"AMB","display":"ambulatory"},"type":[{"coding":[{"system":"http://snomed.info/sct","version":"2022-03","code":"103705002","display":"Patient status observation (procedure)","userSelected":true}]}],"subject":{"reference":"Patient/c3f55d79-b10c-4d2b-8699-a7538867159d"},"period":{"start":"2026-12-31T10:00:00.000+00:00","end":"2026-12-31T10:45:00.000+00:00"}},"request":{"method":"PUT","url":"Encounter/7177e69b-03d2-4843-98a9-d881b138835b"}},{"fullUrl":"https://madie.cms.gov/ServiceRequest/288b37fb-3dff-4195-af64-ab09ecb9f6bc","resource":{"resourceType":"ServiceRequest","id":"288b37fb-3dff-4195-af64-ab09ecb9f6bc","meta":{"profile":["http://hl7.org/fhir/us/qicore/StructureDefinition/qicore-servicerequest"]},"status":"active","intent":"order","code":{"coding":[{"system":"http://snomed.info/sct","version":"2022-03","code":"183620002","display":"Follow-up 1 week (finding)","userSelected":true}]},"subject":{"reference":"Patient/c3f55d79-b10c-4d2b-8699-a7538867159d"},"authoredOn":"2026-12-31T10:10:00.000+00:00"},"request":{"method":"PUT","url":"ServiceRequest/288b37fb-3dff-4195-af64-ab09ecb9f6bc"}},{"fullUrl":"https://madie.cms.gov/ServiceRequest/8c20959f-8d15-4e4d-b6f1-69ce9df8ddfc","resource":{"resourceType":"ServiceRequest","id":"8c20959f-8d15-4e4d-b6f1-69ce9df8ddfc","meta":{"profile":["http://hl7.org/fhir/us/qicore/StructureDefinition/qicore-servicerequest"]},"status":"active","intent":"order","code":{"coding":[{"system":"http://snomed.info/sct","version":"2022-03","code":"20093000","display":"Alcohol rehabilitation and detoxification (regime/therapy)","userSelected":true}]},"subject":{"reference":"Patient/c3f55d79-b10c-4d2b-8699-a7538867159d"},"authoredOn":"2026-01-01T08:30:00.000+00:00"},"request":{"method":"PUT","url":"ServiceRequest/8c20959f-8d15-4e4d-b6f1-69ce9df8ddfc"}},{"fullUrl":"https://madie.cms.gov/ServiceRequest/2cb742d5-e09b-4ca4-97ec-2d07b8f7e166","resource":{"resourceType":"ServiceRequest","id":"2cb742d5-e09b-4ca4-97ec-2d07b8f7e166","meta":{"profile":["http://hl7.org/fhir/us/qicore/StructureDefinition/qicore-servicerequest"]},"status":"active","intent":"order","code":{"coding":[{"system":"http://loinc.org","code":"34534-8","display":"EKG 12 channel panel","userSelected":true}]},"subject":{"reference":"Patient/c3f55d79-b10c-4d2b-8699-a7538867159d"},"authoredOn":"2026-12-31T10:10:00.000+00:00"},"request":{"method":"PUT","url":"ServiceRequest/2cb742d5-e09b-4ca4-97ec-2d07b8f7e166"}},{"fullUrl":"https://madie.cms.gov/ServiceRequest/8e8ecef9-6554-4914-a313-539e894c18bd","resource":{"resourceType":"ServiceRequest","id":"8e8ecef9-6554-4914-a313-539e894c18bd","meta":{"profile":["http://hl7.org/fhir/us/qicore/StructureDefinition/qicore-servicerequest"]},"status":"active","intent":"order","code":{"coding":[{"system":"http://snomed.info/sct","version":"2022-03","code":"313204009","display":"Lifestyle education (procedure)","userSelected":true}]},"subject":{"reference":"Patient/c3f55d79-b10c-4d2b-8699-a7538867159d"},"authoredOn":"2026-12-31T10:10:00.000+00:00"},"request":{"method":"PUT","url":"ServiceRequest/8e8ecef9-6554-4914-a313-539e894c18bd"}},{"fullUrl":"https://madie.cms.gov/MedicationRequest/1f6e1714-eaee-44cc-b1e3-8ac46a5ba268","resource":{"resourceType":"MedicationRequest","id":"1f6e1714-eaee-44cc-b1e3-8ac46a5ba268","meta":{"profile":["http://hl7.org/fhir/us/qicore/StructureDefinition/qicore-medicationrequest"]},"status":"active","intent":"order","medicationCodeableConcept":{"coding":[{"system":"http://www.nlm.nih.gov/research/umls/rxnorm","code":"1000001","display":"amlodipine 5 MG / hydrochlorothiazide 25 MG / olmesartan medoxomil 40 MG Oral Tablet","userSelected":true}]},"subject":{"reference":"Patient/c3f55d79-b10c-4d2b-8699-a7538867159d"},"authoredOn":"2026-12-31T10:10:00.000+00:00","requester":{"reference":"Practitioner/f007","display":"Patrick Pump"}},"request":{"method":"PUT","url":"MedicationRequest/1f6e1714-eaee-44cc-b1e3-8ac46a5ba268"}},{"fullUrl":"https://madie.cms.gov/Observation/3885b8af-be17-4363-9e0d-a7826e3a087f","resource":{"resourceType":"Observation","id":"3885b8af-be17-4363-9e0d-a7826e3a087f","meta":{"profile":["http://hl7.org/fhir/us/core/StructureDefinition/us-core-blood-pressure"]},"status":"final","category":[{"coding":[{"system":"http://terminology.hl7.org/CodeSystem/observation-category","code":"vital-signs","display":"Vital Signs"}],"text":"Vital Signs"}],"code":{"coding":[{"system":"http://loinc.org","code":"85354-9","display":"Blood pressure panel"}]},"subject":{"reference":"Patient/c3f55d79-b10c-4d2b-8699-a7538867159d"},"effectiveDateTime":"2026-01-01T08:05:00.000+00:00","component":[{"code":{"coding":[{"system":"http://loinc.org","code":"8480-6","display":"Systolic blood pressure"}]},"valueQuantity":{"value":140,"unit":"mmHg","system":"http://unitsofmeasure.org","code":"mm[Hg]"}},{"code":{"coding":[{"system":"http://loinc.org","code":"8462-4","display":"Diastolic blood pressure"}]},"valueQuantity":{"value":90,"unit":"mmHg","system":"http://unitsofmeasure.org","code":"mm[Hg]"}}]},"request":{"method":"PUT","url":"Observation/3885b8af-be17-4363-9e0d-a7826e3a087f"}},{"fullUrl":"https://madie.cms.gov/Observation/589c4e0f-12c3-476d-84ca-5c65411a951f","resource":{"resourceType":"Observation","id":"589c4e0f-12c3-476d-84ca-5c65411a951f","meta":{"profile":["http://hl7.org/fhir/us/core/StructureDefinition/us-core-blood-pressure"]},"status":"final","category":[{"coding":[{"system":"http://terminology.hl7.org/CodeSystem/observation-category","code":"vital-signs","display":"Vital Signs"}],"text":"Vital Signs"}],"code":{"coding":[{"system":"http://loinc.org","code":"85354-9","display":"Blood pressure panel"}]},"subject":{"reference":"Patient/c3f55d79-b10c-4d2b-8699-a7538867159d"},"effectiveDateTime":"2026-12-31T10:05:00.000+00:00","component":[{"code":{"coding":[{"system":"http://loinc.org","code":"8480-6","display":"Systolic blood pressure"}]},"valueQuantity":{"value":160,"unit":"mmHg","system":"http://unitsofmeasure.org","code":"mm[Hg]"}},{"code":{"coding":[{"system":"http://loinc.org","code":"8462-4","display":"Diastolic blood pressure"}]},"valueQuantity":{"value":90,"unit":"mmHg","system":"http://unitsofmeasure.org","code":"mm[Hg]"}}]},"request":{"method":"PUT","url":"Observation/589c4e0f-12c3-476d-84ca-5c65411a951f"}},{"fullUrl":"https://madie.cms.gov/Coverage/3d94aca0-962f-4041-834e-fb69b955a5f1","resource":{"resourceType":"Coverage","id":"3d94aca0-962f-4041-834e-fb69b955a5f1","meta":{"profile":["http://hl7.org/fhir/us/qicore/StructureDefinition/qicore-coverage"]},"status":"active","beneficiary":{"reference":"Patient/c3f55d79-b10c-4d2b-8699-a7538867159d"},"payor":[{"reference":"Organization/85331ac8-f2c6-4903-b526-076a4a9b7a2d"}]},"request":{"method":"PUT","url":"Coverage/3d94aca0-962f-4041-834e-fb69b955a5f1"}},{"fullUrl":"https://madie.cms.gov/Organization/85331ac8-f2c6-4903-b526-076a4a9b7a2d","resource":{"resourceType":"Organization","id":"85331ac8-f2c6-4903-b526-076a4a9b7a2d","meta":{"profile":["http://hl7.org/fhir/us/qicore/StructureDefinition/qicore-organization"]},"identifier":[{"use":"temp","system":"urn:oid:2.16.840.1.113883.4.4","value":"21-3259825"}],"active":true,"type":[{"coding":[{"system":"http://terminology.hl7.org/CodeSystem/organization-type","code":"pay","display":"Payer"}]}],"name":"Blue Cross Blue Shield of Texas","telecom":[{"system":"phone","value":"(+1) 972-766-6900"}],"address":[{"use":"billing","type":"postal","line":["P.O. Box 660044"],"city":"Dallas","state":"TX","postalCode":"75266-0044","country":"USA"}]},"request":{"method":"PUT","url":"Organization/85331ac8-f2c6-4903-b526-076a4a9b7a2d"}},{"fullUrl":"https://madie.cms.gov/MeasureReport/9636d46e-46ed-447a-80b4-d3d4a87d1e66","resource":{"resourceType":"MeasureReport","id":"9636d46e-46ed-447a-80b4-d3d4a87d1e66","meta":{"profile":["http://hl7.org/fhir/us/cqfmeasures/StructureDefinition/test-case-cqfm"]},"contained":[{"resourceType":"Parameters","id":"69ceca15-0b5b-4a3e-9b52-bf109c66a8af-parameters","parameter":[{"name":"subject","valueString":"c3f55d79-b10c-4d2b-8699-a7538867159d"}]}],"extension":[{"url":"http://hl7.org/fhir/StructureDefinition/cqf-inputParameters","valueReference":{"reference":"#69ceca15-0b5b-4a3e-9b52-bf109c66a8af-parameters"}},{"url":"http://hl7.org/fhir/us/cqfmeasures/StructureDefinition/cqfm-testCaseDescription","valueMarkdown":"Enc 1/1  0800-0845 during MP, BP 140/90, follow up in 1 day, alcohol consumption for rehab/detox, \n2nd Enc 12/31 @1000-1045 BP 160/90, f/u in 2 -3 mo. EKG, lifestyle changes recommended, medication.\nBoth encounters are expected to pass the numerator"}],"modifierExtension":[{"url":"http://hl7.org/fhir/us/cqfmeasures/StructureDefinition/cqfm-isTestCase","valueBoolean":true}],"status":"complete","type":"individual","measure":"https://madie.cms.gov/Measure/CMS22FHIRPCSBPScreeningFollowUp","period":{"start":"2026-01-01","end":"2026-12-31"},"group":[{"id":"Group_1","population":[{"id":"InitialPopulation_1","code":{"coding":[{"system":"http://terminology.hl7.org/CodeSystem/measure-population","code":"initial-population","display":"Initial Population"}]},"count":2},{"id":"Denominator_1","code":{"coding":[{"system":"http://terminology.hl7.org/CodeSystem/measure-population","code":"denominator","display":"Denominator"}]},"count":2},{"id":"DenominatorExclusion_1","code":{"coding":[{"system":"http://terminology.hl7.org/CodeSystem/measure-population","code":"denominator-exclusion","display":"Denominator Exclusion"}]},"count":0},{"id":"Numerator_1","code":{"coding":[{"system":"http://terminology.hl7.org/CodeSystem/measure-population","code":"numerator","display":"Numerator"}]},"count":2},{"id":"DenominatorException_1","code":{"coding":[{"system":"http://terminology.hl7.org/CodeSystem/measure-population","code":"denominator-exception","display":"Denominator Exception"}]},"count":0}],"measureScore":{"value":0.0}}],"evaluatedResource":[{"reference":"Patient/c3f55d79-b10c-4d2b-8699-a7538867159d"},{"reference":"Encounter/dbb4d319-8519-46c5-93b8-6d23497fb572"},{"reference":"ServiceRequest/e23cafae-446c-4254-b67a-9c81c52b2ffe"},{"reference":"Encounter/7177e69b-03d2-4843-98a9-d881b138835b"},{"reference":"ServiceRequest/288b37fb-3dff-4195-af64-ab09ecb9f6bc"},{"reference":"ServiceRequest/8c20959f-8d15-4e4d-b6f1-69ce9df8ddfc"},{"reference":"ServiceRequest/2cb742d5-e09b-4ca4-97ec-2d07b8f7e166"},{"reference":"ServiceRequest/8e8ecef9-6554-4914-a313-539e894c18bd"},{"reference":"MedicationRequest/1f6e1714-eaee-44cc-b1e3-8ac46a5ba268"},{"reference":"Observation/3885b8af-be17-4363-9e0d-a7826e3a087f"},{"reference":"Observation/589c4e0f-12c3-476d-84ca-5c65411a951f"},{"reference":"Coverage/3d94aca0-962f-4041-834e-fb69b955a5f1"},{"reference":"Organization/85331ac8-f2c6-4903-b526-076a4a9b7a2d"}]},"request":{"method":"PUT","url":"MeasureReport/9636d46e-46ed-447a-80b4-d3d4a87d1e66"}}]},"request":{"method":"PUT","url":"Bundle/SecondHighBPECGMedsNonPharm"}},{"fullUrl":"MedicationRequest/1f6e1714-eaee-44cc-b1e3-8ac46a5ba268","resource":{"resourceType":"MedicationRequest","id":"1f6e1714-eaee-44cc-b1e3-8ac46a5ba268","meta":{"profile":["http://hl7.org/fhir/us/qicore/StructureDefinition/qicore-medicationrequest"]},"status":"active","intent":"order","medicationCodeableConcept":{"coding":[{"system":"http://www.nlm.nih.gov/research/umls/rxnorm","code":"1000001","display":"amlodipine 5 MG / hydrochlorothiazide 25 MG / olmesartan medoxomil 40 MG Oral Tablet","userSelected":true}]},"subject":{"reference":"Patient/c3f55d79-b10c-4d2b-8699-a7538867159d"},"authoredOn":"2026-12-31T10:10:00.000+00:00","requester":{"reference":"Practitioner/f007","display":"Patrick Pump"}},"request":{"method":"PUT","url":"MedicationRequest/1f6e1714-eaee-44cc-b1e3-8ac46a5ba268"}},{"fullUrl":"Encounter/dbb4d319-8519-46c5-93b8-6d23497fb572","resource":{"resourceType":"Encounter","id":"dbb4d319-8519-46c5-93b8-6d23497fb572","meta":{"profile":["http://hl7.org/fhir/us/qicore/StructureDefinition/qicore-encounter"]},"status":"finished","class":{"system":"http://terminology.hl7.org/CodeSystem/v3-ActCode","code":"AMB","display":"ambulatory"},"type":[{"coding":[{"system":"http://snomed.info/sct","version":"2022-03","code":"103705002","display":"Patient status observation (procedure)","userSelected":true}]}],"subject":{"reference":"Patient/c3f55d79-b10c-4d2b-8699-a7538867159d"},"period":{"start":"2026-01-01T08:00:00.000+00:00","end":"2026-01-01T08:45:00.000+00:00"}},"request":{"method":"PUT","url":"Encounter/dbb4d319-8519-46c5-93b8-6d23497fb572"}},{"fullUrl":"ServiceRequest/e23cafae-446c-4254-b67a-9c81c52b2ffe","resource":{"resourceType":"ServiceRequest","id":"e23cafae-446c-4254-b67a-9c81c52b2ffe","meta":{"profile":["http://hl7.org/fhir/us/qicore/StructureDefinition/qicore-servicerequest"]},"status":"active","intent":"order","code":{"coding":[{"system":"http://snomed.info/sct","version":"2022-03","code":"183617005","display":"Follow-up 1 day (finding)","userSelected":true}]},"subject":{"reference":"Patient/c3f55d79-b10c-4d2b-8699-a7538867159d"},"authoredOn":"2026-01-01T08:30:00.000+00:00"},"request":{"method":"PUT","url":"ServiceRequest/e23cafae-446c-4254-b67a-9c81c52b2ffe"}},{"fullUrl":"ServiceRequest/8e8ecef9-6554-4914-a313-539e894c18bd","resource":{"resourceType":"ServiceRequest","id":"8e8ecef9-6554-4914-a313-539e894c18bd","meta":{"profile":["http://hl7.org/fhir/us/qicore/StructureDefinition/qicore-servicerequest"]},"status":"active","intent":"order","code":{"coding":[{"system":"http://snomed.info/sct","version":"2022-03","code":"313204009","display":"Lifestyle education (procedure)","userSelected":true}]},"subject":{"reference":"Patient/c3f55d79-b10c-4d2b-8699-a7538867159d"},"authoredOn":"2026-12-31T10:10:00.000+00:00"},"request":{"method":"PUT","url":"ServiceRequest/8e8ecef9-6554-4914-a313-539e894c18bd"}},{"fullUrl":"Organization/85331ac8-f2c6-4903-b526-076a4a9b7a2d","resource":{"resourceType":"Organization","id":"85331ac8-f2c6-4903-b526-076a4a9b7a2d","meta":{"profile":["http://hl7.org/fhir/us/qicore/StructureDefinition/qicore-organization"]},"identifier":[{"use":"temp","system":"urn:oid:2.16.840.1.113883.4.4","value":"21-3259825"}],"active":true,"type":[{"coding":[{"system":"http://terminology.hl7.org/CodeSystem/organization-type","code":"pay","display":"Payer"}]}],"name":"Blue Cross Blue Shield of Texas","telecom":[{"system":"phone","value":"(+1) 972-766-6900"}],"address":[{"use":"billing","type":"postal","line":["P.O. Box 660044"],"city":"Dallas","state":"TX","postalCode":"75266-0044","country":"USA"}]},"request":{"method":"PUT","url":"Organization/85331ac8-f2c6-4903-b526-076a4a9b7a2d"}},{"fullUrl":"Encounter/7177e69b-03d2-4843-98a9-d881b138835b","resource":{"resourceType":"Encounter","id":"7177e69b-03d2-4843-98a9-d881b138835b","meta":{"profile":["http://hl7.org/fhir/us/qicore/StructureDefinition/qicore-encounter"]},"status":"finished","class":{"system":"http://terminology.hl7.org/CodeSystem/v3-ActCode","code":"AMB","display":"ambulatory"},"type":[{"coding":[{"system":"http://snomed.info/sct","version":"2022-03","code":"103705002","display":"Patient status observation (procedure)","userSelected":true}]}],"subject":{"reference":"Patient/c3f55d79-b10c-4d2b-8699-a7538867159d"},"period":{"start":"2026-12-31T10:00:00.000+00:00","end":"2026-12-31T10:45:00.000+00:00"}},"request":{"method":"PUT","url":"Encounter/7177e69b-03d2-4843-98a9-d881b138835b"}},{"fullUrl":"ServiceRequest/288b37fb-3dff-4195-af64-ab09ecb9f6bc","resource":{"resourceType":"ServiceRequest","id":"288b37fb-3dff-4195-af64-ab09ecb9f6bc","meta":{"profile":["http://hl7.org/fhir/us/qicore/StructureDefinition/qicore-servicerequest"]},"status":"active","intent":"order","code":{"coding":[{"system":"http://snomed.info/sct","version":"2022-03","code":"183620002","display":"Follow-up 1 week (finding)","userSelected":true}]},"subject":{"reference":"Patient/c3f55d79-b10c-4d2b-8699-a7538867159d"},"authoredOn":"2026-12-31T10:10:00.000+00:00"},"request":{"method":"PUT","url":"ServiceRequest/288b37fb-3dff-4195-af64-ab09ecb9f6bc"}},{"fullUrl":"Observation/3885b8af-be17-4363-9e0d-a7826e3a087f","resource":{"resourceType":"Observation","id":"3885b8af-be17-4363-9e0d-a7826e3a087f","meta":{"profile":["http://hl7.org/fhir/us/core/StructureDefinition/us-core-blood-pressure"]},"status":"final","category":[{"coding":[{"system":"http://terminology.hl7.org/CodeSystem/observation-category","code":"vital-signs","display":"Vital Signs"}],"text":"Vital Signs"}],"code":{"coding":[{"system":"http://loinc.org","code":"85354-9","display":"Blood pressure panel"}]},"subject":{"reference":"Patient/c3f55d79-b10c-4d2b-8699-a7538867159d"},"effectiveDateTime":"2026-01-01T08:05:00.000+00:00","component":[{"code":{"coding":[{"system":"http://loinc.org","code":"8480-6","display":"Systolic blood pressure"}]},"valueQuantity":{"value":140,"unit":"mmHg","system":"http://unitsofmeasure.org","code":"mm[Hg]"}},{"code":{"coding":[{"system":"http://loinc.org","code":"8462-4","display":"Diastolic blood pressure"}]},"valueQuantity":{"value":90,"unit":"mmHg","system":"http://unitsofmeasure.org","code":"mm[Hg]"}}]},"request":{"method":"PUT","url":"Observation/3885b8af-be17-4363-9e0d-a7826e3a087f"}},{"fullUrl":"Patient/c3f55d79-b10c-4d2b-8699-a7538867159d","resource":{"resourceType":"Patient","id":"c3f55d79-b10c-4d2b-8699-a7538867159d","meta":{"profile":["http://hl7.org/fhir/us/qicore/StructureDefinition/qicore-patient"]},"extension":[{"url":"http://hl7.org/fhir/us/core/StructureDefinition/us-core-race","extension":[{"url":"ombCategory","valueCoding":{"system":"urn:oid:2.16.840.1.113883.6.238","code":"1002-5","display":"American Indian or Alaska Native","userSelected":true}},{"url":"text","valueString":"American Indian or Alaska Native"}]},{"url":"http://hl7.org/fhir/us/core/StructureDefinition/us-core-ethnicity","extension":[{"url":"ombCategory","valueCoding":{"system":"urn:oid:2.16.840.1.113883.6.238","code":"2135-2","display":"Hispanic or Latino","userSelected":true}},{"url":"text","valueString":"Hispanic or Latino"}]}],"identifier":[{"type":{"coding":[{"system":"http://terminology.hl7.org/CodeSystem/v2-0203","code":"MR"}]},"system":"https://bonnie-fhir.healthit.gov/","value":"SecondHighBPECGMedsNonPharm"}],"name":[{"family":"NUMERPass","given":["SecondHighBPECGMedsNonPharm"]}],"gender":"male","birthDate":"1976-12-31"},"request":{"method":"PUT","url":"Patient/c3f55d79-b10c-4d2b-8699-a7538867159d"}}]}