{
  "resourceType": "Bundle",
  "id": "6129131802c62a011f2e5ad8",
  "type": "transaction",
  "entry": [ {
    "fullUrl": "https://madie.cms.gov/Patient/348471db-5aaa-4bf3-a280-75222f20d599",
    "resource": {
      "resourceType": "Patient",
      "id": "348471db-5aaa-4bf3-a280-75222f20d599",
      "meta": {
        "profile": [ "http://hl7.org/fhir/us/qicore/StructureDefinition/qicore-patient" ]
      },
      "text": {
        "status": "generated",
        "div": "<div xmlns=\"http://www.w3.org/1999/xhtml\"><div class=\"hapiHeaderText\">3Enc2WithAntithrombotic2WithExcep <b>NUMER&amp;DENEXCEPPASS- LCG </b></div><table class=\"hapiPropertyTable\"><tbody><tr><td>Identifier</td><td>be14f222c0646cc5d7ac050774528f5e42a5a6df28c00c64454006e7ac2a1af3</td></tr><tr><td>Date of birth</td><td><span>31 May 1989</span></td></tr></tbody></table></div>"
      },
      "extension": [ {
        "url": "http://hl7.org/fhir/us/core/StructureDefinition/us-core-race",
        "extension": [ {
          "url": "ombCategory",
          "valueCoding": {
            "system": "urn:oid:2.16.840.1.113883.6.238",
            "code": "1002-5",
            "display": "American Indian or Alaska Native",
            "userSelected": true
          }
        }, {
          "url": "text",
          "valueString": "American Indian or Alaska Native"
        } ]
      }, {
        "url": "http://hl7.org/fhir/us/core/StructureDefinition/us-core-ethnicity",
        "extension": [ {
          "url": "ombCategory",
          "valueCoding": {
            "system": "urn:oid:2.16.840.1.113883.6.238",
            "code": "2135-2",
            "display": "Hispanic or Latino",
            "userSelected": true
          }
        }, {
          "url": "text",
          "valueString": "Hispanic or Latino"
        } ]
      } ],
      "identifier": [ {
        "type": {
          "coding": [ {
            "system": "http://terminology.hl7.org/CodeSystem/v2-0203",
            "code": "MR"
          } ]
        },
        "system": "https://bonnie-fhir.healthit.gov/",
        "value": "6129131802c62a011f2e5ad8"
      } ],
      "active": true,
      "name": [ {
        "use": "usual",
        "family": "NUMER&DENEXCEPPass- LCG",
        "given": [ "3Enc2WithAntithrombotic2WithExcep" ]
      } ],
      "gender": "male",
      "birthDate": "1999-05-30"
    },
    "request": {
      "method": "PUT",
      "url": "Patient/348471db-5aaa-4bf3-a280-75222f20d599"
    }
  }, {
    "fullUrl": "https://madie.cms.gov/Encounter/ab1e172b-f9ac-43c0-b527-84908664e7d8",
    "resource": {
      "resourceType": "Encounter",
      "id": "ab1e172b-f9ac-43c0-b527-84908664e7d8",
      "meta": {
        "profile": [ "http://hl7.org/fhir/us/qicore/StructureDefinition/qicore-encounter" ]
      },
      "status": "finished",
      "class": {
        "system": "http://terminology.hl7.org/CodeSystem/v3-ActCode",
        "code": "IMP",
        "display": "inpatient encounter",
        "userSelected": true
      },
      "type": [ {
        "coding": [ {
          "system": "http://snomed.info/sct",
          "code": "183452005"
        } ]
      } ],
      "subject": {
        "reference": "Patient/348471db-5aaa-4bf3-a280-75222f20d599"
      },
      "period": {
        "start": "2026-06-14T09:30:00Z",
        "end": "2026-06-25T10:30:00.000+00:00"
      },
      "length": {
        "value": 0,
        "unit": "days"
      },
      "diagnosis": [ {
        "condition": {
          "reference": "Condition/01e79797-dd74-4695-b468-e0266b2e2b36"
        },
        "use": {
          "coding": [ {
            "system": "http://terminology.hl7.org/CodeSystem/diagnosis-role",
            "code": "billing",
            "display": "Billing"
          } ]
        },
        "rank": 1
      } ]
    },
    "request": {
      "method": "PUT",
      "url": "Encounter/ab1e172b-f9ac-43c0-b527-84908664e7d8"
    }
  }, {
    "fullUrl": "https://madie.cms.gov/Encounter/3b766f86-3566-41e5-a32f-cd4e4fa96453",
    "resource": {
      "resourceType": "Encounter",
      "id": "3b766f86-3566-41e5-a32f-cd4e4fa96453",
      "meta": {
        "profile": [ "http://hl7.org/fhir/us/qicore/StructureDefinition/qicore-encounter" ]
      },
      "status": "finished",
      "class": {
        "system": "http://terminology.hl7.org/CodeSystem/v3-ActCode",
        "code": "IMP",
        "display": "inpatient encounter",
        "userSelected": true
      },
      "type": [ {
        "coding": [ {
          "system": "http://snomed.info/sct",
          "code": "32485007"
        } ]
      } ],
      "subject": {
        "reference": "Patient/348471db-5aaa-4bf3-a280-75222f20d599"
      },
      "period": {
        "start": "2026-06-15T09:30:00Z",
        "end": "2026-10-12T10:30:00.000+00:00"
      },
      "length": {
        "value": 119,
        "unit": "days"
      },
      "diagnosis": [ {
        "condition": {
          "reference": "Condition/2b2e3f7e-35b7-4cfc-8eb7-f4fb925426ac"
        },
        "use": {
          "coding": [ {
            "system": "http://terminology.hl7.org/CodeSystem/diagnosis-role",
            "code": "billing",
            "display": "Billing"
          } ]
        },
        "rank": 1
      } ]
    },
    "request": {
      "method": "PUT",
      "url": "Encounter/3b766f86-3566-41e5-a32f-cd4e4fa96453"
    }
  }, {
    "fullUrl": "https://madie.cms.gov/Encounter/ad148e49-a1b2-4eb5-be27-9513756ef612",
    "resource": {
      "resourceType": "Encounter",
      "id": "ad148e49-a1b2-4eb5-be27-9513756ef612",
      "meta": {
        "profile": [ "http://hl7.org/fhir/us/qicore/StructureDefinition/qicore-encounter" ]
      },
      "status": "finished",
      "class": {
        "system": "http://terminology.hl7.org/CodeSystem/v3-ActCode",
        "code": "IMP",
        "display": "inpatient encounter",
        "userSelected": true
      },
      "type": [ {
        "coding": [ {
          "system": "http://snomed.info/sct",
          "code": "183452005"
        } ]
      } ],
      "subject": {
        "reference": "Patient/348471db-5aaa-4bf3-a280-75222f20d599"
      },
      "period": {
        "start": "2026-01-15T11:00:00Z",
        "end": "2026-01-20T22:15:00.000+00:00"
      },
      "diagnosis": [ {
        "condition": {
          "reference": "Condition/21cdf7b9-6870-41d4-acf2-fa2bcb12433a"
        },
        "use": {
          "coding": [ {
            "system": "http://terminology.hl7.org/CodeSystem/diagnosis-role",
            "code": "billing",
            "display": "Billing"
          } ]
        },
        "rank": 1
      } ]
    },
    "request": {
      "method": "PUT",
      "url": "Encounter/ad148e49-a1b2-4eb5-be27-9513756ef612"
    }
  }, {
    "fullUrl": "https://madie.cms.gov/Procedure/e7740e52-2d6e-4c90-b7f8-4d10fc4a04d3",
    "resource": {
      "resourceType": "Procedure",
      "id": "e7740e52-2d6e-4c90-b7f8-4d10fc4a04d3",
      "meta": {
        "profile": [ "http://hl7.org/fhir/us/qicore/StructureDefinition/qicore-procedure" ]
      },
      "extension": [ {
        "url": "http://hl7.org/fhir/us/qicore/StructureDefinition/qicore-recorded",
        "valueDateTime": "2013-06-14T09:30:00Z"
      } ],
      "status": "completed",
      "code": {
        "coding": [ {
          "system": "http://snomed.info/sct",
          "code": "133918004"
        } ]
      },
      "subject": {
        "reference": "Patient/348471db-5aaa-4bf3-a280-75222f20d599"
      },
      "performedPeriod": {
        "start": "2026-06-14T09:30:00Z",
        "end": "2026-06-25T10:30:00.000+00:00"
      }
    },
    "request": {
      "method": "PUT",
      "url": "Procedure/e7740e52-2d6e-4c90-b7f8-4d10fc4a04d3"
    }
  }, {
    "fullUrl": "https://madie.cms.gov/MedicationRequest/741d7cbe-6b1e-4d1e-8d40-e7975c022467",
    "resource": {
      "resourceType": "MedicationRequest",
      "id": "741d7cbe-6b1e-4d1e-8d40-e7975c022467",
      "meta": {
        "profile": [ "http://hl7.org/fhir/us/qicore/StructureDefinition/qicore-medicationrequest" ]
      },
      "status": "active",
      "intent": "order",
      "category": [ {
        "coding": [ {
          "system": "http://terminology.hl7.org/CodeSystem/medicationrequest-category",
          "code": "discharge",
          "display": "Discharge",
          "userSelected": true
        } ]
      } ],
      "medicationCodeableConcept": {
        "coding": [ {
          "system": "http://www.nlm.nih.gov/research/umls/rxnorm",
          "code": "1037045"
        } ]
      },
      "subject": {
        "reference": "Patient/348471db-5aaa-4bf3-a280-75222f20d599"
      },
      "authoredOn": "2026-10-10T10:00:00Z",
      "requester": {
        "reference": "Practitioner/example"
      }
    },
    "request": {
      "method": "PUT",
      "url": "MedicationRequest/741d7cbe-6b1e-4d1e-8d40-e7975c022467"
    }
  }, {
    "fullUrl": "https://madie.cms.gov/MedicationRequest/6b944d20-f795-4e3d-8a50-e19b509a526a",
    "resource": {
      "resourceType": "MedicationRequest",
      "id": "6b944d20-f795-4e3d-8a50-e19b509a526a",
      "meta": {
        "profile": [ "http://hl7.org/fhir/us/qicore/StructureDefinition/qicore-medicationrequest" ]
      },
      "status": "active",
      "intent": "order",
      "category": [ {
        "coding": [ {
          "system": "http://terminology.hl7.org/CodeSystem/medicationrequest-category",
          "code": "discharge",
          "display": "Discharge",
          "userSelected": true
        } ]
      } ],
      "medicationCodeableConcept": {
        "coding": [ {
          "system": "http://www.nlm.nih.gov/research/umls/rxnorm",
          "code": "1037045"
        } ]
      },
      "subject": {
        "reference": "Patient/348471db-5aaa-4bf3-a280-75222f20d599"
      },
      "authoredOn": "2026-06-14T09:30:00Z",
      "requester": {
        "reference": "Practitioner/example"
      }
    },
    "request": {
      "method": "PUT",
      "url": "MedicationRequest/6b944d20-f795-4e3d-8a50-e19b509a526a"
    }
  }, {
    "fullUrl": "https://madie.cms.gov/MedicationRequest/7a1d7488-cfc2-4fe2-8f3c-2528a092fad6",
    "resource": {
      "resourceType": "MedicationRequest",
      "id": "7a1d7488-cfc2-4fe2-8f3c-2528a092fad6",
      "meta": {
        "profile": [ "http://hl7.org/fhir/us/qicore/StructureDefinition/qicore-medicationrequest" ]
      },
      "status": "active",
      "intent": "order",
      "category": [ {
        "coding": [ {
          "system": "http://terminology.hl7.org/CodeSystem/medicationrequest-category",
          "code": "discharge",
          "display": "Discharge",
          "userSelected": true
        } ]
      } ],
      "doNotPerform": false,
      "medicationCodeableConcept": {
        "coding": [ {
          "system": "http://www.nlm.nih.gov/research/umls/rxnorm",
          "code": "855812",
          "display": "prasugrel 10 MG Oral Tablet",
          "userSelected": true
        } ]
      },
      "subject": {
        "reference": "Patient/348471db-5aaa-4bf3-a280-75222f20d599"
      },
      "authoredOn": "2026-01-15T11:00:00Z",
      "requester": {
        "reference": "Practitioner/example"
      }
    },
    "request": {
      "method": "PUT",
      "url": "MedicationRequest/7a1d7488-cfc2-4fe2-8f3c-2528a092fad6"
    }
  }, {
    "fullUrl": "https://madie.cms.gov/Condition/01e79797-dd74-4695-b468-e0266b2e2b36",
    "resource": {
      "resourceType": "Condition",
      "id": "01e79797-dd74-4695-b468-e0266b2e2b36",
      "meta": {
        "profile": [ "http://hl7.org/fhir/us/qicore/StructureDefinition/qicore-condition" ]
      },
      "clinicalStatus": {
        "coding": [ {
          "system": "http://terminology.hl7.org/CodeSystem/condition-clinical",
          "code": "active"
        } ]
      },
      "verificationStatus": {
        "coding": [ {
          "system": "http://terminology.hl7.org/CodeSystem/condition-ver-status",
          "code": "confirmed"
        } ]
      },
      "category": [ {
        "coding": [ {
          "system": "http://terminology.hl7.org/CodeSystem/condition-category",
          "code": "encounter-diagnosis",
          "display": "Encounter Diagnosis"
        } ]
      } ],
      "code": {
        "coding": [ {
          "system": "http://snomed.info/sct",
          "version": "2020-09",
          "code": "111297002",
          "display": "Nonparalytic stroke (disorder)",
          "userSelected": true
        } ]
      },
      "subject": {
        "reference": "Patient/348471db-5aaa-4bf3-a280-75222f20d599"
      },
      "recordedDate": "2026-07-15T08:00:00Z"
    },
    "request": {
      "method": "PUT",
      "url": "Condition/01e79797-dd74-4695-b468-e0266b2e2b36"
    }
  }, {
    "fullUrl": "https://madie.cms.gov/Condition/21cdf7b9-6870-41d4-acf2-fa2bcb12433a",
    "resource": {
      "resourceType": "Condition",
      "id": "21cdf7b9-6870-41d4-acf2-fa2bcb12433a",
      "meta": {
        "profile": [ "http://hl7.org/fhir/us/qicore/StructureDefinition/qicore-condition" ]
      },
      "clinicalStatus": {
        "coding": [ {
          "system": "http://terminology.hl7.org/CodeSystem/condition-clinical",
          "code": "active"
        } ]
      },
      "verificationStatus": {
        "coding": [ {
          "system": "http://terminology.hl7.org/CodeSystem/condition-ver-status",
          "code": "confirmed"
        } ]
      },
      "category": [ {
        "coding": [ {
          "system": "http://terminology.hl7.org/CodeSystem/condition-category",
          "code": "encounter-diagnosis",
          "display": "Encounter Diagnosis"
        } ]
      } ],
      "code": {
        "coding": [ {
          "system": "http://snomed.info/sct",
          "version": "2020-09",
          "code": "111297002",
          "display": "Nonparalytic stroke (disorder)",
          "userSelected": true
        } ]
      },
      "subject": {
        "reference": "Patient/348471db-5aaa-4bf3-a280-75222f20d599"
      },
      "recordedDate": "2026-07-15T08:00:00Z"
    },
    "request": {
      "method": "PUT",
      "url": "Condition/21cdf7b9-6870-41d4-acf2-fa2bcb12433a"
    }
  }, {
    "fullUrl": "https://madie.cms.gov/Condition/2b2e3f7e-35b7-4cfc-8eb7-f4fb925426ac",
    "resource": {
      "resourceType": "Condition",
      "id": "2b2e3f7e-35b7-4cfc-8eb7-f4fb925426ac",
      "meta": {
        "profile": [ "http://hl7.org/fhir/us/qicore/StructureDefinition/qicore-condition" ]
      },
      "clinicalStatus": {
        "coding": [ {
          "system": "http://terminology.hl7.org/CodeSystem/condition-clinical",
          "code": "active"
        } ]
      },
      "verificationStatus": {
        "coding": [ {
          "system": "http://terminology.hl7.org/CodeSystem/condition-ver-status",
          "code": "confirmed"
        } ]
      },
      "category": [ {
        "coding": [ {
          "system": "http://terminology.hl7.org/CodeSystem/condition-category",
          "code": "encounter-diagnosis",
          "display": "Encounter Diagnosis"
        } ]
      } ],
      "code": {
        "coding": [ {
          "system": "http://snomed.info/sct",
          "version": "2020-09",
          "code": "111297002",
          "display": "Nonparalytic stroke (disorder)",
          "userSelected": true
        } ]
      },
      "subject": {
        "reference": "Patient/348471db-5aaa-4bf3-a280-75222f20d599"
      },
      "recordedDate": "2026-07-15T08:00:00Z"
    },
    "request": {
      "method": "PUT",
      "url": "Condition/2b2e3f7e-35b7-4cfc-8eb7-f4fb925426ac"
    }
  }, {
    "fullUrl": "https://madie.cms.gov/claim/5ca62962b8484628b8de1ec5",
    "resource": {
      "resourceType": "Claim",
      "id": "5ca62962b8484628b8de1ec5",
      "meta": {
        "profile": [ "http://hl7.org/fhir/us/qicore/StructureDefinition/qicore-claim" ]
      },
      "status": "active",
      "type": {
        "coding": [ {
          "system": "http://terminology.hl7.org/CodeSystem/claim-type",
          "code": "institutional"
        } ]
      },
      "use": "claim",
      "patient": {
        "reference": "Patient/d170a0a8-b5ad-4303-b6df-e304dd5f92ad"
      },
      "created": "2026-12-01",
      "provider": {
        "reference": "Practitioner/practitioner-123456"
      },
      "priority": {
        "coding": [ {
          "system": "http://terminology.hl7.org/CodeSystem/processpriority",
          "code": "normal"
        } ]
      },
      "diagnosis": [ {
        "sequence": 1,
        "diagnosisCodeableConcept": {
          "coding": [ {
            "system": "http://hl7.org/fhir/sid/icd-10-cm",
            "code": "I63.00"
          } ]
        },
        "type": [ {
          "coding": [ {
            "system": "http://terminology.hl7.org/CodeSystem/ex-diagnosistype",
            "code": "principal"
          } ]
        } ]
      } ],
      "insurance": [ {
        "sequence": 1,
        "focal": true,
        "coverage": {
          "reference": "Coverage/5fa041661c76ba66d9959367"
        }
      } ],
      "item": [ {
        "sequence": 1,
        "diagnosisSequence": [ 1 ],
        "productOrService": {
          "coding": [ {
            "system": "http://terminology.hl7.org/CodeSystem/ex-USCLS",
            "code": "99555"
          } ]
        },
        "encounter": [ {
          "reference": "Encounter/ab1e172b-f9ac-43c0-b527-84908664e7d8"
        } ]
      } ]
    },
    "request": {
      "method": "PUT",
      "url": "Claim/5ca62962b8484628b8de1ec5"
    }
  }, {
    "fullUrl": "https://madie.cms.gov/claim/5ca62962b8484628b8de1ec5",
    "resource": {
      "resourceType": "Claim",
      "id": "5ca62962b8484628b8de1ec5",
      "meta": {
        "profile": [ "http://hl7.org/fhir/us/qicore/StructureDefinition/qicore-claim" ]
      },
      "status": "active",
      "type": {
        "coding": [ {
          "system": "http://terminology.hl7.org/CodeSystem/claim-type",
          "code": "institutional"
        } ]
      },
      "use": "claim",
      "patient": {
        "reference": "Patient/d170a0a8-b5ad-4303-b6df-e304dd5f92ad"
      },
      "created": "2026-12-01",
      "provider": {
        "reference": "Practitioner/practitioner-123456"
      },
      "priority": {
        "coding": [ {
          "system": "http://terminology.hl7.org/CodeSystem/processpriority",
          "code": "normal"
        } ]
      },
      "diagnosis": [ {
        "sequence": 1,
        "diagnosisCodeableConcept": {
          "coding": [ {
            "system": "http://hl7.org/fhir/sid/icd-10-cm",
            "code": "I63.00"
          } ]
        },
        "type": [ {
          "coding": [ {
            "system": "http://terminology.hl7.org/CodeSystem/ex-diagnosistype",
            "code": "principal"
          } ]
        } ]
      } ],
      "insurance": [ {
        "sequence": 1,
        "focal": true,
        "coverage": {
          "reference": "Coverage/5fa041661c76ba66d9959367"
        }
      } ],
      "item": [ {
        "sequence": 1,
        "diagnosisSequence": [ 1 ],
        "productOrService": {
          "coding": [ {
            "system": "http://terminology.hl7.org/CodeSystem/ex-USCLS",
            "code": "99555"
          } ]
        },
        "encounter": [ {
          "reference": "Encounter/3b766f86-3566-41e5-a32f-cd4e4fa96453"
        } ]
      } ]
    },
    "request": {
      "method": "PUT",
      "url": "Claim/5ca62962b8484628b8de1ec5"
    }
  }, {
    "fullUrl": "https://madie.cms.gov/claim/5ca62962b8484628b8de1ec5",
    "resource": {
      "resourceType": "Claim",
      "id": "5ca62962b8484628b8de1ec5",
      "meta": {
        "profile": [ "http://hl7.org/fhir/us/qicore/StructureDefinition/qicore-claim" ]
      },
      "status": "active",
      "type": {
        "coding": [ {
          "system": "http://terminology.hl7.org/CodeSystem/claim-type",
          "code": "institutional"
        } ]
      },
      "use": "claim",
      "patient": {
        "reference": "Patient/d170a0a8-b5ad-4303-b6df-e304dd5f92ad"
      },
      "created": "2026-12-01",
      "provider": {
        "reference": "Practitioner/practitioner-123456"
      },
      "priority": {
        "coding": [ {
          "system": "http://terminology.hl7.org/CodeSystem/processpriority",
          "code": "normal"
        } ]
      },
      "diagnosis": [ {
        "sequence": 1,
        "diagnosisCodeableConcept": {
          "coding": [ {
            "system": "http://hl7.org/fhir/sid/icd-10-cm",
            "code": "I63.00"
          } ]
        },
        "type": [ {
          "coding": [ {
            "system": "http://terminology.hl7.org/CodeSystem/ex-diagnosistype",
            "code": "principal"
          } ]
        } ]
      } ],
      "insurance": [ {
        "sequence": 1,
        "focal": true,
        "coverage": {
          "reference": "Coverage/5fa041661c76ba66d9959367"
        }
      } ],
      "item": [ {
        "sequence": 1,
        "diagnosisSequence": [ 1 ],
        "productOrService": {
          "coding": [ {
            "system": "http://terminology.hl7.org/CodeSystem/ex-USCLS",
            "code": "99555"
          } ]
        },
        "encounter": [ {
          "reference": "Encounter/ad148e49-a1b2-4eb5-be27-9513756ef612"
        } ]
      } ]
    },
    "request": {
      "method": "PUT",
      "url": "Claim/5ca62962b8484628b8de1ec5"
    }
  }, {
    "fullUrl": "https://madie.cms.gov/Coverage/e7f684d2-2b07-443f-b2d8-77fdba3ebf34",
    "resource": {
      "resourceType": "Coverage",
      "id": "e7f684d2-2b07-443f-b2d8-77fdba3ebf34",
      "meta": {
        "profile": [ "http://hl7.org/fhir/us/qicore/StructureDefinition/qicore-coverage" ]
      },
      "status": "active",
      "beneficiary": {
        "reference": "Patient/348471db-5aaa-4bf3-a280-75222f20d599"
      },
      "payor": [ {
        "reference": "Organization/1af302c3-6cd6-4c76-abd7-38dd1269e54c"
      } ]
    },
    "request": {
      "method": "PUT",
      "url": "Coverage/e7f684d2-2b07-443f-b2d8-77fdba3ebf34"
    }
  }, {
    "fullUrl": "https://madie.cms.gov/Organization/1af302c3-6cd6-4c76-abd7-38dd1269e54c",
    "resource": {
      "resourceType": "Organization",
      "id": "1af302c3-6cd6-4c76-abd7-38dd1269e54c",
      "meta": {
        "profile": [ "http://hl7.org/fhir/us/qicore/StructureDefinition/qicore-organization" ]
      },
      "identifier": [ {
        "use": "temp",
        "system": "urn:oid:2.16.840.1.113883.4.4",
        "value": "21-3259825"
      } ],
      "active": true,
      "type": [ {
        "coding": [ {
          "system": "http://terminology.hl7.org/CodeSystem/organization-type",
          "code": "pay",
          "display": "Payer"
        } ]
      } ],
      "name": "Blue Cross Blue Shield of Texas",
      "telecom": [ {
        "system": "phone",
        "value": "(+1) 972-766-6900"
      } ],
      "address": [ {
        "use": "billing",
        "type": "postal",
        "line": [ "P.O. Box 660044" ],
        "city": "Dallas",
        "state": "TX",
        "postalCode": "75266-0044",
        "country": "USA"
      } ]
    },
    "request": {
      "method": "PUT",
      "url": "Organization/1af302c3-6cd6-4c76-abd7-38dd1269e54c"
    }
  }, {
    "fullUrl": "https://madie.cms.gov/MeasureReport/93aaf761-945b-4f94-8e67-1035be7d74f3",
    "resource": {
      "resourceType": "MeasureReport",
      "id": "93aaf761-945b-4f94-8e67-1035be7d74f3",
      "meta": {
        "profile": [ "http://hl7.org/fhir/us/cqfmeasures/StructureDefinition/test-case-cqfm" ]
      },
      "contained": [ {
        "resourceType": "Parameters",
        "id": "887fd97f-165b-4b42-9c89-6c93e30cde76-parameters",
        "parameter": [ {
          "name": "subject",
          "valueString": "348471db-5aaa-4bf3-a280-75222f20d599"
        } ]
      } ],
      "extension": [ {
        "url": "http://hl7.org/fhir/StructureDefinition/cqf-inputParameters",
        "valueReference": {
          "reference": "#887fd97f-165b-4b42-9c89-6c93e30cde76-parameters"
        }
      }, {
        "url": "http://hl7.org/fhir/us/cqfmeasures/StructureDefinition/cqfm-testCaseDescription",
        "valueMarkdown": "Patient is GT 18 with 2 Non-Elective Inpatient Encounter with principal diagnosis of ischemic stroke ends during MP received antithrombotic during both IP encounter. \n"
      } ],
      "modifierExtension": [ {
        "url": "http://hl7.org/fhir/us/cqfmeasures/StructureDefinition/cqfm-isTestCase",
        "valueBoolean": true
      } ],
      "status": "complete",
      "type": "individual",
      "measure": "https://madie.cms.gov/Measure/CMS104FHIRSTKDCAntithrombotic",
      "period": {
        "start": "2026-01-01",
        "end": "2026-12-31"
      },
      "group": [ {
        "id": "Group_1",
        "population": [ {
          "id": "InitialPopulation_1",
          "code": {
            "coding": [ {
              "system": "http://terminology.hl7.org/CodeSystem/measure-population",
              "code": "initial-population",
              "display": "Initial Population"
            } ]
          },
          "count": 3
        }, {
          "id": "Denominator_1",
          "code": {
            "coding": [ {
              "system": "http://terminology.hl7.org/CodeSystem/measure-population",
              "code": "denominator",
              "display": "Denominator"
            } ]
          },
          "count": 3
        }, {
          "id": "DenominatorExclusion_1",
          "code": {
            "coding": [ {
              "system": "http://terminology.hl7.org/CodeSystem/measure-population",
              "code": "denominator-exclusion",
              "display": "Denominator Exclusion"
            } ]
          },
          "count": 1
        }, {
          "id": "Numerator_1",
          "code": {
            "coding": [ {
              "system": "http://terminology.hl7.org/CodeSystem/measure-population",
              "code": "numerator",
              "display": "Numerator"
            } ]
          },
          "count": 1
        }, {
          "id": "DenominatorException_1",
          "code": {
            "coding": [ {
              "system": "http://terminology.hl7.org/CodeSystem/measure-population",
              "code": "denominator-exception",
              "display": "Denominator Exception"
            } ]
          },
          "count": 1
        } ],
        "measureScore": {
          "value": 0.0
        }
      } ],
      "evaluatedResource": [ {
        "reference": "Patient/348471db-5aaa-4bf3-a280-75222f20d599"
      }, {
        "reference": "Encounter/ab1e172b-f9ac-43c0-b527-84908664e7d8"
      }, {
        "reference": "Encounter/3b766f86-3566-41e5-a32f-cd4e4fa96453"
      }, {
        "reference": "Encounter/ad148e49-a1b2-4eb5-be27-9513756ef612"
      }, {
        "reference": "Procedure/e7740e52-2d6e-4c90-b7f8-4d10fc4a04d3"
      }, {
        "reference": "MedicationRequest/741d7cbe-6b1e-4d1e-8d40-e7975c022467"
      }, {
        "reference": "MedicationRequest/6b944d20-f795-4e3d-8a50-e19b509a526a"
      }, {
        "reference": "MedicationRequest/7a1d7488-cfc2-4fe2-8f3c-2528a092fad6"
      }, {
        "reference": "Condition/01e79797-dd74-4695-b468-e0266b2e2b36"
      }, {
        "reference": "Condition/21cdf7b9-6870-41d4-acf2-fa2bcb12433a"
      }, {
        "reference": "Condition/2b2e3f7e-35b7-4cfc-8eb7-f4fb925426ac"
      }, {
        "reference": "Claim/5ca62962b8484628b8de1ec5"
      }, {
        "reference": "Claim/5ca62962b8484628b8de1ec5"
      }, {
        "reference": "Claim/5ca62962b8484628b8de1ec5"
      }, {
        "reference": "Coverage/e7f684d2-2b07-443f-b2d8-77fdba3ebf34"
      }, {
        "reference": "Organization/1af302c3-6cd6-4c76-abd7-38dd1269e54c"
      } ]
    },
    "request": {
      "method": "PUT",
      "url": "MeasureReport/93aaf761-945b-4f94-8e67-1035be7d74f3"
    }
  } ]
}