{
  "resourceType": "Bundle",
  "id": "61095b0998086b53805591a5",
  "type": "transaction",
  "entry": [ {
    "fullUrl": "https://madie.cms.gov/Patient/94ddaee0-1b05-44aa-8298-9fd53c8e8144",
    "resource": {
      "resourceType": "Patient",
      "id": "94ddaee0-1b05-44aa-8298-9fd53c8e8144",
      "meta": {
        "profile": [ "http://hl7.org/fhir/us/qicore/StructureDefinition/qicore-patient" ]
      },
      "text": {
        "status": "generated",
        "div": "<div xmlns=\"http://www.w3.org/1999/xhtml\"><div class=\"hapiHeaderText\">Age@18 <b>DENOMPASS </b></div><table class=\"hapiPropertyTable\"><tbody><tr><td>Identifier</td><td>67f3e33acf17bcb386e754d726ed064ccd48ba21ff0ffb2eb678740a684398be</td></tr><tr><td>Date of birth</td><td><span>01 January 1994</span></td></tr></tbody></table></div>"
      },
      "extension": [ {
        "url": "http://hl7.org/fhir/us/core/StructureDefinition/us-core-race",
        "extension": [ {
          "url": "ombCategory",
          "valueCoding": {
            "system": "urn:oid:2.16.840.1.113883.6.238",
            "code": "1002-5",
            "display": "American Indian or Alaska Native",
            "userSelected": true
          }
        }, {
          "url": "text",
          "valueString": "American Indian or Alaska Native"
        } ]
      }, {
        "url": "http://hl7.org/fhir/us/core/StructureDefinition/us-core-ethnicity",
        "extension": [ {
          "url": "ombCategory",
          "valueCoding": {
            "system": "urn:oid:2.16.840.1.113883.6.238",
            "code": "2135-2",
            "display": "Hispanic or Latino",
            "userSelected": true
          }
        }, {
          "url": "text",
          "valueString": "Hispanic or Latino"
        } ]
      } ],
      "identifier": [ {
        "type": {
          "coding": [ {
            "system": "http://terminology.hl7.org/CodeSystem/v2-0203",
            "code": "MR"
          } ]
        },
        "system": "https://bonnie-fhir.healthit.gov/",
        "value": "61095b0998086b53805591a5"
      } ],
      "active": true,
      "name": [ {
        "use": "usual",
        "family": "IPFail",
        "given": [ "LessThan18" ]
      } ],
      "gender": "female",
      "birthDate": "2007-01-01"
    },
    "request": {
      "method": "PUT",
      "url": "Patient/94ddaee0-1b05-44aa-8298-9fd53c8e8144"
    }
  }, {
    "fullUrl": "https://madie.cms.gov/Observation/0a589240-cfdb-435b-8e08-dcc39d42c3aa",
    "resource": {
      "resourceType": "Observation",
      "id": "0a589240-cfdb-435b-8e08-dcc39d42c3aa",
      "meta": {
        "profile": [ "http://hl7.org/fhir/us/qicore/StructureDefinition/qicore-observation-clinical-result" ]
      },
      "status": "final",
      "category": [ {
        "coding": [ {
          "system": "http://terminology.hl7.org/CodeSystem/observation-category",
          "code": "exam",
          "display": "exam"
        } ]
      } ],
      "code": {
        "coding": [ {
          "system": "http://snomed.info/sct",
          "code": "419775003"
        } ]
      },
      "subject": {
        "reference": "Patient/94ddaee0-1b05-44aa-8298-9fd53c8e8144"
      },
      "effectivePeriod": {
        "start": "2025-03-13T09:00:00+00:00",
        "end": "2025-03-13T09:30:00+00:00"
      }
    },
    "request": {
      "method": "PUT",
      "url": "Observation/0a589240-cfdb-435b-8e08-dcc39d42c3aa"
    }
  }, {
    "fullUrl": "https://madie.cms.gov/Procedure/c09c0c0a-eff2-4498-b04c-1a3a7a62b89b",
    "resource": {
      "resourceType": "Procedure",
      "id": "c09c0c0a-eff2-4498-b04c-1a3a7a62b89b",
      "meta": {
        "profile": [ "http://hl7.org/fhir/us/qicore/StructureDefinition/qicore-procedure" ]
      },
      "extension": [ {
        "url": "http://hl7.org/fhir/us/qicore/StructureDefinition/qicore-recorded",
        "valueDateTime": "2025-03-05T09:35:00-04:00"
      } ],
      "status": "completed",
      "code": {
        "coding": [ {
          "system": "http://snomed.info/sct",
          "code": "84149000"
        } ]
      },
      "subject": {
        "reference": "Patient/94ddaee0-1b05-44aa-8298-9fd53c8e8144"
      },
      "performedPeriod": {
        "start": "2025-03-05T09:20:00-04:00",
        "end": "2025-04-05T10:30:00-04:00"
      }
    },
    "request": {
      "method": "PUT",
      "url": "Procedure/c09c0c0a-eff2-4498-b04c-1a3a7a62b89b"
    }
  }, {
    "fullUrl": "https://madie.cms.gov/Coverage/abbd4fff-a746-402d-b48d-7522c59c4d7a",
    "resource": {
      "resourceType": "Coverage",
      "id": "abbd4fff-a746-402d-b48d-7522c59c4d7a",
      "meta": {
        "profile": [ "http://hl7.org/fhir/us/qicore/StructureDefinition/qicore-coverage" ]
      },
      "status": "active",
      "beneficiary": {
        "reference": "Patient/94ddaee0-1b05-44aa-8298-9fd53c8e8144"
      },
      "payor": [ {
        "reference": "Organization/de52402c-6373-4fe9-ae5b-8a6e47a2d984"
      } ]
    },
    "request": {
      "method": "PUT",
      "url": "Coverage/abbd4fff-a746-402d-b48d-7522c59c4d7a"
    }
  }, {
    "fullUrl": "https://madie.cms.gov/Organization/de52402c-6373-4fe9-ae5b-8a6e47a2d984",
    "resource": {
      "resourceType": "Organization",
      "id": "de52402c-6373-4fe9-ae5b-8a6e47a2d984",
      "meta": {
        "profile": [ "http://hl7.org/fhir/us/qicore/StructureDefinition/qicore-organization" ]
      },
      "identifier": [ {
        "use": "temp",
        "system": "urn:oid:2.16.840.1.113883.4.4",
        "value": "21-3259825"
      } ],
      "active": true,
      "type": [ {
        "coding": [ {
          "system": "http://terminology.hl7.org/CodeSystem/organization-type",
          "code": "pay",
          "display": "Payer"
        } ]
      } ],
      "name": "Blue Cross Blue Shield of Texas",
      "telecom": [ {
        "system": "phone",
        "value": "(+1) 972-766-6900"
      } ],
      "address": [ {
        "use": "billing",
        "type": "postal",
        "line": [ "P.O. Box 660044" ],
        "city": "Dallas",
        "state": "TX",
        "postalCode": "75266-0044",
        "country": "USA"
      } ]
    },
    "request": {
      "method": "PUT",
      "url": "Organization/de52402c-6373-4fe9-ae5b-8a6e47a2d984"
    }
  }, {
    "fullUrl": "https://madie.cms.gov/Practitioner/4ad6b614-39bf-4dd8-8c45-a8e7eb597ad4",
    "resource": {
      "resourceType": "Practitioner",
      "id": "4ad6b614-39bf-4dd8-8c45-a8e7eb597ad4",
      "meta": {
        "profile": [ "http://hl7.org/fhir/us/qicore/StructureDefinition/qicore-practitioner" ]
      },
      "identifier": [ {
        "system": "http://hl7.org/fhir/sid/us-npi",
        "value": "123456"
      } ],
      "name": [ {
        "family": "Evil",
        "prefix": [ "Dr" ]
      } ]
    },
    "request": {
      "method": "PUT",
      "url": "Practitioner/4ad6b614-39bf-4dd8-8c45-a8e7eb597ad4"
    }
  }, {
    "fullUrl": "https://madie.cms.gov/MeasureReport/f1bae92e-435e-418b-a9b4-2023df6371ee",
    "resource": {
      "resourceType": "MeasureReport",
      "id": "f1bae92e-435e-418b-a9b4-2023df6371ee",
      "meta": {
        "profile": [ "http://hl7.org/fhir/us/cqfmeasures/StructureDefinition/test-case-cqfm" ]
      },
      "contained": [ {
        "resourceType": "Parameters",
        "id": "ef377e9a-73b5-440b-8aa8-5b703f8effa7-parameters",
        "parameter": [ {
          "name": "subject",
          "valueString": "94ddaee0-1b05-44aa-8298-9fd53c8e8144"
        } ]
      } ],
      "extension": [ {
        "url": "http://hl7.org/fhir/StructureDefinition/cqf-inputParameters",
        "valueReference": {
          "reference": "#ef377e9a-73b5-440b-8aa8-5b703f8effa7-parameters"
        }
      }, {
        "url": "http://hl7.org/fhir/us/cqfmeasures/StructureDefinition/cqfm-testCaseDescription",
        "valueMarkdown": "Patient 17 years old."
      } ],
      "modifierExtension": [ {
        "url": "http://hl7.org/fhir/us/cqfmeasures/StructureDefinition/cqfm-isTestCase",
        "valueBoolean": true
      } ],
      "status": "complete",
      "type": "individual",
      "measure": "https://madie.cms.gov/Measure/CMS133FHIRCataracts2040BCVAwithin90Days",
      "period": {
        "start": "2026-01-01",
        "end": "2026-12-31"
      },
      "group": [ {
        "id": "Group_1",
        "population": [ {
          "id": "InitialPopulation_1",
          "code": {
            "coding": [ {
              "system": "http://terminology.hl7.org/CodeSystem/measure-population",
              "code": "initial-population",
              "display": "Initial Population"
            } ]
          },
          "count": 0
        }, {
          "id": "Denominator_1",
          "code": {
            "coding": [ {
              "system": "http://terminology.hl7.org/CodeSystem/measure-population",
              "code": "denominator",
              "display": "Denominator"
            } ]
          },
          "count": 0
        }, {
          "id": "DenominatorExclusion_1",
          "code": {
            "coding": [ {
              "system": "http://terminology.hl7.org/CodeSystem/measure-population",
              "code": "denominator-exclusion",
              "display": "Denominator Exclusion"
            } ]
          },
          "count": 0
        }, {
          "id": "Numerator_1",
          "code": {
            "coding": [ {
              "system": "http://terminology.hl7.org/CodeSystem/measure-population",
              "code": "numerator",
              "display": "Numerator"
            } ]
          },
          "count": 0
        } ],
        "measureScore": {
          "value": 0.0
        }
      } ],
      "evaluatedResource": [ {
        "reference": "Patient/94ddaee0-1b05-44aa-8298-9fd53c8e8144"
      }, {
        "reference": "Observation/0a589240-cfdb-435b-8e08-dcc39d42c3aa"
      }, {
        "reference": "Procedure/c09c0c0a-eff2-4498-b04c-1a3a7a62b89b"
      }, {
        "reference": "Coverage/abbd4fff-a746-402d-b48d-7522c59c4d7a"
      }, {
        "reference": "Organization/de52402c-6373-4fe9-ae5b-8a6e47a2d984"
      }, {
        "reference": "Practitioner/4ad6b614-39bf-4dd8-8c45-a8e7eb597ad4"
      } ]
    },
    "request": {
      "method": "PUT",
      "url": "MeasureReport/f1bae92e-435e-418b-a9b4-2023df6371ee"
    }
  } ]
}