{
  "resourceType": "Bundle",
  "id": "60f82c2f98086b570510e2bb",
  "type": "transaction",
  "entry": [ {
    "fullUrl": "https://madie.cms.gov/Patient/cb7c95fc-6d6b-4e07-81e8-a79385142b94",
    "resource": {
      "resourceType": "Patient",
      "id": "cb7c95fc-6d6b-4e07-81e8-a79385142b94",
      "meta": {
        "profile": [ "http://hl7.org/fhir/us/qicore/StructureDefinition/qicore-patient" ]
      },
      "text": {
        "status": "generated",
        "div": "<div xmlns=\"http://www.w3.org/1999/xhtml\"><div class=\"hapiHeaderText\">3Enc2WithAntithrombic1WithtPA <b>NUMER&amp;DENEXPASS-LCG </b></div><table class=\"hapiPropertyTable\"><tbody><tr><td>Identifier</td><td>020dc4464ac8810d734b6702e424d7c5d535f8554cec1d7976a2fc68ac0b3268</td></tr><tr><td>Date of birth</td><td><span>26 September 1975</span></td></tr></tbody></table></div>"
      },
      "extension": [ {
        "url": "http://hl7.org/fhir/us/core/StructureDefinition/us-core-race",
        "extension": [ {
          "url": "ombCategory",
          "valueCoding": {
            "system": "urn:oid:2.16.840.1.113883.6.238",
            "code": "2054-5",
            "display": "Black or African American",
            "userSelected": true
          }
        }, {
          "url": "text",
          "valueString": "Black or African American"
        } ]
      }, {
        "url": "http://hl7.org/fhir/us/core/StructureDefinition/us-core-ethnicity",
        "extension": [ {
          "url": "ombCategory",
          "valueCoding": {
            "system": "urn:oid:2.16.840.1.113883.6.238",
            "code": "2186-5",
            "display": "Not Hispanic or Latino",
            "userSelected": true
          }
        }, {
          "url": "text",
          "valueString": "Not Hispanic or Latino"
        } ]
      } ],
      "identifier": [ {
        "type": {
          "coding": [ {
            "system": "http://terminology.hl7.org/CodeSystem/v2-0203",
            "code": "MR"
          } ]
        },
        "system": "https://bonnie-fhir.healthit.gov/",
        "value": "60f82c2f98086b570510e2bb"
      } ],
      "active": true,
      "name": [ {
        "use": "usual",
        "family": "NUMER&DENEXPass-LCG",
        "given": [ "3Enc2WithAntithrombic1WithtPA" ]
      } ],
      "gender": "female",
      "birthDate": "1976-09-26"
    },
    "request": {
      "method": "PUT",
      "url": "Patient/cb7c95fc-6d6b-4e07-81e8-a79385142b94"
    }
  }, {
    "fullUrl": "https://madie.cms.gov/Encounter/85712150-134c-42e9-a932-7c353ce14a21",
    "resource": {
      "resourceType": "Encounter",
      "id": "85712150-134c-42e9-a932-7c353ce14a21",
      "meta": {
        "profile": [ "http://hl7.org/fhir/us/qicore/StructureDefinition/qicore-encounter" ]
      },
      "status": "finished",
      "class": {
        "system": "http://terminology.hl7.org/CodeSystem/v3-ActCode",
        "code": "IMP",
        "display": "inpatient encounter"
      },
      "type": [ {
        "coding": [ {
          "system": "http://snomed.info/sct",
          "code": "183452005"
        } ]
      } ],
      "subject": {
        "reference": "Patient/cb7c95fc-6d6b-4e07-81e8-a79385142b94"
      },
      "period": {
        "start": "2026-09-09T09:00:00Z",
        "end": "2026-09-12T11:15:00.000+00:00"
      },
      "length": {
        "value": 0,
        "unit": "days"
      },
      "reasonReference": [ {
        "reference": "Condition/4dcc13a5-3d1f-48f1-a3cb-b2188336eb2f"
      } ]
    },
    "request": {
      "method": "PUT",
      "url": "Encounter/85712150-134c-42e9-a932-7c353ce14a21"
    }
  }, {
    "fullUrl": "https://madie.cms.gov/claim/5ca62962b8484628b8de1ec5",
    "resource": {
      "resourceType": "Claim",
      "id": "5ca62962b8484628b8de1ec5",
      "meta": {
        "profile": [ "http://hl7.org/fhir/us/qicore/StructureDefinition/qicore-claim" ]
      },
      "status": "active",
      "type": {
        "coding": [ {
          "system": "http://terminology.hl7.org/CodeSystem/claim-type",
          "code": "institutional"
        } ]
      },
      "use": "claim",
      "patient": {
        "reference": "Patient/d170a0a8-b5ad-4303-b6df-e304dd5f92ad"
      },
      "created": "2026-12-01",
      "provider": {
        "reference": "Practitioner/607ed907-68b2-40a4-9b02-4bd6149b1450"
      },
      "priority": {
        "coding": [ {
          "system": "http://terminology.hl7.org/CodeSystem/processpriority",
          "code": "normal"
        } ]
      },
      "diagnosis": [ {
        "sequence": 1,
        "diagnosisCodeableConcept": {
          "coding": [ {
            "system": "http://hl7.org/fhir/sid/icd-10-cm",
            "code": "I63.00"
          } ]
        },
        "type": [ {
          "coding": [ {
            "system": "http://terminology.hl7.org/CodeSystem/ex-diagnosistype",
            "code": "principal"
          } ]
        } ]
      } ],
      "insurance": [ {
        "sequence": 1,
        "focal": true,
        "coverage": {
          "reference": "Coverage/5fa041661c76ba66d9959367"
        }
      } ],
      "item": [ {
        "sequence": 1,
        "diagnosisSequence": [ 1 ],
        "productOrService": {
          "coding": [ {
            "system": "http://terminology.hl7.org/CodeSystem/ex-USCLS",
            "code": "99555"
          } ]
        },
        "encounter": [ {
          "reference": "Encounter/85712150-134c-42e9-a932-7c353ce14a21"
        } ]
      } ]
    },
    "request": {
      "method": "PUT",
      "url": "Claim/5ca62962b8484628b8de1ec5"
    }
  }, {
    "fullUrl": "https://madie.cms.gov/Encounter/642fec18-0907-4cc7-bdf5-8ae814acb63f",
    "resource": {
      "resourceType": "Encounter",
      "id": "642fec18-0907-4cc7-bdf5-8ae814acb63f",
      "meta": {
        "profile": [ "http://hl7.org/fhir/us/qicore/StructureDefinition/qicore-encounter" ]
      },
      "status": "finished",
      "class": {
        "system": "http://terminology.hl7.org/CodeSystem/v3-ActCode",
        "code": "IMP",
        "display": "inpatient encounter"
      },
      "type": [ {
        "coding": [ {
          "system": "http://snomed.info/sct",
          "code": "32485007"
        } ]
      } ],
      "subject": {
        "reference": "Patient/cb7c95fc-6d6b-4e07-81e8-a79385142b94"
      },
      "period": {
        "start": "2026-10-10T09:00:00Z",
        "end": "2026-10-12T11:15:00.000+00:00"
      },
      "length": {
        "value": 2,
        "unit": "days"
      },
      "reasonReference": [ {
        "reference": "Condition/2ce1c676-e4cb-4864-ac86-5fdce9cbf26a"
      } ]
    },
    "request": {
      "method": "PUT",
      "url": "Encounter/642fec18-0907-4cc7-bdf5-8ae814acb63f"
    }
  }, {
    "fullUrl": "https://madie.cms.gov/claim/5ca62962b8484628b8de1ec5",
    "resource": {
      "resourceType": "Claim",
      "id": "5ca62962b8484628b8de1ec5",
      "meta": {
        "profile": [ "http://hl7.org/fhir/us/qicore/StructureDefinition/qicore-claim" ]
      },
      "status": "active",
      "type": {
        "coding": [ {
          "system": "http://terminology.hl7.org/CodeSystem/claim-type",
          "code": "institutional"
        } ]
      },
      "use": "claim",
      "patient": {
        "reference": "Patient/d170a0a8-b5ad-4303-b6df-e304dd5f92ad"
      },
      "created": "2026-12-01",
      "provider": {
        "reference": "Practitioner/607ed907-68b2-40a4-9b02-4bd6149b1450"
      },
      "priority": {
        "coding": [ {
          "system": "http://terminology.hl7.org/CodeSystem/processpriority",
          "code": "normal"
        } ]
      },
      "diagnosis": [ {
        "sequence": 1,
        "diagnosisCodeableConcept": {
          "coding": [ {
            "system": "http://hl7.org/fhir/sid/icd-10-cm",
            "code": "I63.00"
          } ]
        },
        "type": [ {
          "coding": [ {
            "system": "http://terminology.hl7.org/CodeSystem/ex-diagnosistype",
            "code": "principal"
          } ]
        } ]
      } ],
      "insurance": [ {
        "sequence": 1,
        "focal": true,
        "coverage": {
          "reference": "Coverage/5fa041661c76ba66d9959367"
        }
      } ],
      "item": [ {
        "sequence": 1,
        "diagnosisSequence": [ 1 ],
        "productOrService": {
          "coding": [ {
            "system": "http://terminology.hl7.org/CodeSystem/ex-USCLS",
            "code": "99555"
          } ]
        },
        "encounter": [ {
          "reference": "Encounter/642fec18-0907-4cc7-bdf5-8ae814acb63f"
        } ]
      } ]
    },
    "request": {
      "method": "PUT",
      "url": "Claim/5ca62962b8484628b8de1ec5"
    }
  }, {
    "fullUrl": "https://madie.cms.gov/Encounter/25099d90-04be-41a5-818e-a8d4d447b66d",
    "resource": {
      "resourceType": "Encounter",
      "id": "25099d90-04be-41a5-818e-a8d4d447b66d",
      "meta": {
        "profile": [ "http://hl7.org/fhir/us/qicore/StructureDefinition/qicore-encounter" ]
      },
      "status": "finished",
      "class": {
        "system": "http://terminology.hl7.org/CodeSystem/v3-ActCode",
        "code": "IMP",
        "display": "inpatient encounter"
      },
      "type": [ {
        "coding": [ {
          "system": "http://snomed.info/sct",
          "code": "183452005"
        } ]
      } ],
      "subject": {
        "reference": "Patient/cb7c95fc-6d6b-4e07-81e8-a79385142b94"
      },
      "period": {
        "start": "2026-07-09T09:00:00Z",
        "end": "2026-07-17T11:15:00.000+00:00"
      },
      "reasonReference": [ {
        "reference": "Condition/447e9c7a-4a33-48e5-a853-c713c72ba4db"
      } ]
    },
    "request": {
      "method": "PUT",
      "url": "Encounter/25099d90-04be-41a5-818e-a8d4d447b66d"
    }
  }, {
    "fullUrl": "https://madie.cms.gov/claim/5ca62962b8484628b8de1ec5",
    "resource": {
      "resourceType": "Claim",
      "id": "5ca62962b8484628b8de1ec5",
      "meta": {
        "profile": [ "http://hl7.org/fhir/us/qicore/StructureDefinition/qicore-claim" ]
      },
      "status": "active",
      "type": {
        "coding": [ {
          "system": "http://terminology.hl7.org/CodeSystem/claim-type",
          "code": "institutional"
        } ]
      },
      "use": "claim",
      "patient": {
        "reference": "Patient/d170a0a8-b5ad-4303-b6df-e304dd5f92ad"
      },
      "created": "2026-12-01",
      "provider": {
        "reference": "Practitioner/607ed907-68b2-40a4-9b02-4bd6149b1450"
      },
      "priority": {
        "coding": [ {
          "system": "http://terminology.hl7.org/CodeSystem/processpriority",
          "code": "normal"
        } ]
      },
      "diagnosis": [ {
        "sequence": 1,
        "diagnosisCodeableConcept": {
          "coding": [ {
            "system": "http://hl7.org/fhir/sid/icd-10-cm",
            "code": "I63.00"
          } ]
        },
        "type": [ {
          "coding": [ {
            "system": "http://terminology.hl7.org/CodeSystem/ex-diagnosistype",
            "code": "principal"
          } ]
        } ]
      } ],
      "insurance": [ {
        "sequence": 1,
        "focal": true,
        "coverage": {
          "reference": "Coverage/5fa041661c76ba66d9959367"
        }
      } ],
      "item": [ {
        "sequence": 1,
        "diagnosisSequence": [ 1 ],
        "productOrService": {
          "coding": [ {
            "system": "http://terminology.hl7.org/CodeSystem/ex-USCLS",
            "code": "99555"
          } ]
        },
        "encounter": [ {
          "reference": "Encounter/25099d90-04be-41a5-818e-a8d4d447b66d"
        } ]
      } ]
    },
    "request": {
      "method": "PUT",
      "url": "Claim/5ca62962b8484628b8de1ec5"
    }
  }, {
    "fullUrl": "https://madie.cms.gov/MedicationAdministration/f7cae561-2e3e-401b-9483-89599878db66",
    "resource": {
      "resourceType": "MedicationAdministration",
      "id": "f7cae561-2e3e-401b-9483-89599878db66",
      "meta": {
        "profile": [ "http://hl7.org/fhir/us/qicore/StructureDefinition/qicore-medicationadministration" ]
      },
      "status": "completed",
      "medicationCodeableConcept": {
        "coding": [ {
          "system": "http://www.nlm.nih.gov/research/umls/rxnorm",
          "code": "1037045"
        } ]
      },
      "subject": {
        "reference": "Patient/cb7c95fc-6d6b-4e07-81e8-a79385142b94"
      },
      "effectivePeriod": {
        "start": "2026-09-09T11:00:00Z"
      }
    },
    "request": {
      "method": "PUT",
      "url": "MedicationAdministration/f7cae561-2e3e-401b-9483-89599878db66"
    }
  }, {
    "fullUrl": "https://madie.cms.gov/MedicationAdministration/63078c84-cf3b-4e12-ac54-c8bec88c516b",
    "resource": {
      "resourceType": "MedicationAdministration",
      "id": "63078c84-cf3b-4e12-ac54-c8bec88c516b",
      "meta": {
        "profile": [ "http://hl7.org/fhir/us/qicore/StructureDefinition/qicore-medicationadministration" ]
      },
      "extension": [ {
        "url": "http://hl7.org/fhir/us/qicore/StructureDefinition/qicore-recorded",
        "valueDateTime": "2026-10-10T09:00:00Z"
      } ],
      "status": "completed",
      "medicationCodeableConcept": {
        "coding": [ {
          "system": "http://www.nlm.nih.gov/research/umls/rxnorm",
          "code": "1037045"
        } ]
      },
      "subject": {
        "reference": "Patient/cb7c95fc-6d6b-4e07-81e8-a79385142b94"
      },
      "effectivePeriod": {
        "start": "2026-10-10T09:00:00Z",
        "end": "2026-10-12T11:15:00.000+00:00"
      }
    },
    "request": {
      "method": "PUT",
      "url": "MedicationAdministration/63078c84-cf3b-4e12-ac54-c8bec88c516b"
    }
  }, {
    "fullUrl": "https://madie.cms.gov/Coverage/866561c3-da44-4cf0-af60-44f9e266e6fb",
    "resource": {
      "resourceType": "Coverage",
      "id": "866561c3-da44-4cf0-af60-44f9e266e6fb",
      "status": "active",
      "subscriberId": "523435",
      "beneficiary": {
        "reference": "Patient/cb7c95fc-6d6b-4e07-81e8-a79385142b94"
      },
      "relationship": {
        "coding": [ {
          "system": "http://terminology.hl7.org/CodeSystem/subscriber-relationship",
          "code": "self"
        } ]
      },
      "period": {
        "start": "1976-09-26T08:00:00Z"
      },
      "payor": [ {
        "reference": "Organization/cd8e166e-eb0a-441d-b528-36337ea47814"
      } ]
    },
    "request": {
      "method": "PUT",
      "url": "Coverage/866561c3-da44-4cf0-af60-44f9e266e6fb"
    }
  }, {
    "fullUrl": "https://madie.cms.gov/Procedure/296be14b-8402-4048-bc8d-97bd0354e926",
    "resource": {
      "resourceType": "Procedure",
      "id": "296be14b-8402-4048-bc8d-97bd0354e926",
      "meta": {
        "profile": [ "http://hl7.org/fhir/us/qicore/StructureDefinition/qicore-procedure" ]
      },
      "extension": [ {
        "url": "http://hl7.org/fhir/us/qicore/StructureDefinition/qicore-recorded",
        "valueDateTime": "2026-11-19T13:35:00Z"
      } ],
      "status": "completed",
      "code": {
        "coding": [ {
          "system": "http://snomed.info/sct",
          "code": "307521008"
        } ]
      },
      "subject": {
        "reference": "Patient/cb7c95fc-6d6b-4e07-81e8-a79385142b94"
      },
      "performedPeriod": {
        "start": "2026-07-10T09:00:00Z"
      }
    },
    "request": {
      "method": "PUT",
      "url": "Procedure/296be14b-8402-4048-bc8d-97bd0354e926"
    }
  }, {
    "fullUrl": "https://madie.cms.gov/Condition/4dcc13a5-3d1f-48f1-a3cb-b2188336eb2f",
    "resource": {
      "resourceType": "Condition",
      "id": "4dcc13a5-3d1f-48f1-a3cb-b2188336eb2f",
      "meta": {
        "profile": [ "http://hl7.org/fhir/us/qicore/StructureDefinition/qicore-condition-problems-health-concerns" ]
      },
      "clinicalStatus": {
        "coding": [ {
          "system": "http://terminology.hl7.org/CodeSystem/condition-clinical",
          "code": "active"
        } ]
      },
      "verificationStatus": {
        "coding": [ {
          "system": "http://terminology.hl7.org/CodeSystem/condition-ver-status",
          "code": "confirmed"
        } ]
      },
      "category": [ {
        "coding": [ {
          "system": "http://terminology.hl7.org/CodeSystem/condition-category",
          "code": "encounter-diagnosis",
          "display": "Encounter Diagnosis"
        } ]
      } ],
      "code": {
        "coding": [ {
          "system": "http://snomed.info/sct",
          "version": "2020-09",
          "code": "111297002",
          "display": "Nonparalytic stroke (disorder)",
          "userSelected": true
        } ]
      },
      "subject": {
        "reference": "Patient/cb7c95fc-6d6b-4e07-81e8-a79385142b94"
      },
      "recordedDate": "2026-08-16T08:00:00Z"
    },
    "request": {
      "method": "PUT",
      "url": "Condition/4dcc13a5-3d1f-48f1-a3cb-b2188336eb2f"
    }
  }, {
    "fullUrl": "https://madie.cms.gov/Condition/2ce1c676-e4cb-4864-ac86-5fdce9cbf26a",
    "resource": {
      "resourceType": "Condition",
      "id": "2ce1c676-e4cb-4864-ac86-5fdce9cbf26a",
      "meta": {
        "profile": [ "http://hl7.org/fhir/us/qicore/StructureDefinition/qicore-condition-problems-health-concerns" ]
      },
      "clinicalStatus": {
        "coding": [ {
          "system": "http://terminology.hl7.org/CodeSystem/condition-clinical",
          "code": "active"
        } ]
      },
      "verificationStatus": {
        "coding": [ {
          "system": "http://terminology.hl7.org/CodeSystem/condition-ver-status",
          "code": "confirmed"
        } ]
      },
      "category": [ {
        "coding": [ {
          "system": "http://terminology.hl7.org/CodeSystem/condition-category",
          "code": "encounter-diagnosis",
          "display": "Encounter Diagnosis"
        } ]
      } ],
      "code": {
        "coding": [ {
          "system": "http://snomed.info/sct",
          "version": "2020-09",
          "code": "111297002",
          "display": "Nonparalytic stroke (disorder)",
          "userSelected": true
        } ]
      },
      "subject": {
        "reference": "Patient/cb7c95fc-6d6b-4e07-81e8-a79385142b94"
      },
      "recordedDate": "2026-08-16T08:00:00Z"
    },
    "request": {
      "method": "PUT",
      "url": "Condition/2ce1c676-e4cb-4864-ac86-5fdce9cbf26a"
    }
  }, {
    "fullUrl": "https://madie.cms.gov/Condition/447e9c7a-4a33-48e5-a853-c713c72ba4db",
    "resource": {
      "resourceType": "Condition",
      "id": "447e9c7a-4a33-48e5-a853-c713c72ba4db",
      "meta": {
        "profile": [ "http://hl7.org/fhir/us/qicore/StructureDefinition/qicore-condition-problems-health-concerns" ]
      },
      "clinicalStatus": {
        "coding": [ {
          "system": "http://terminology.hl7.org/CodeSystem/condition-clinical",
          "code": "active"
        } ]
      },
      "verificationStatus": {
        "coding": [ {
          "system": "http://terminology.hl7.org/CodeSystem/condition-ver-status",
          "code": "confirmed"
        } ]
      },
      "category": [ {
        "coding": [ {
          "system": "http://terminology.hl7.org/CodeSystem/condition-category",
          "code": "encounter-diagnosis",
          "display": "Encounter Diagnosis"
        } ]
      } ],
      "code": {
        "coding": [ {
          "system": "http://snomed.info/sct",
          "version": "2020-09",
          "code": "111297002",
          "display": "Nonparalytic stroke (disorder)",
          "userSelected": true
        } ]
      },
      "subject": {
        "reference": "Patient/cb7c95fc-6d6b-4e07-81e8-a79385142b94"
      },
      "recordedDate": "2026-08-16T08:00:00Z"
    },
    "request": {
      "method": "PUT",
      "url": "Condition/447e9c7a-4a33-48e5-a853-c713c72ba4db"
    }
  }, {
    "fullUrl": "https://madie.cms.gov/Organization/cd8e166e-eb0a-441d-b528-36337ea47814",
    "resource": {
      "resourceType": "Organization",
      "id": "cd8e166e-eb0a-441d-b528-36337ea47814",
      "meta": {
        "profile": [ "http://hl7.org/fhir/us/qicore/StructureDefinition/qicore-organization" ]
      },
      "identifier": [ {
        "use": "temp",
        "system": "urn:oid:2.16.840.1.113883.4.4",
        "value": "21-3259825"
      } ],
      "active": true,
      "type": [ {
        "coding": [ {
          "system": "http://terminology.hl7.org/CodeSystem/organization-type",
          "code": "pay",
          "display": "Payer"
        } ]
      } ],
      "name": "Blue Cross Blue Shield of Texas",
      "telecom": [ {
        "system": "phone",
        "value": "(+1) 972-766-6900"
      } ],
      "address": [ {
        "use": "billing",
        "type": "postal",
        "line": [ "P.O. Box 660044" ],
        "city": "Dallas",
        "state": "TX",
        "postalCode": "75266-0044",
        "country": "USA"
      } ]
    },
    "request": {
      "method": "PUT",
      "url": "Organization/cd8e166e-eb0a-441d-b528-36337ea47814"
    }
  }, {
    "fullUrl": "https://madie.cms.gov/Practitioner/607ed907-68b2-40a4-9b02-4bd6149b1450",
    "resource": {
      "resourceType": "Practitioner",
      "id": "607ed907-68b2-40a4-9b02-4bd6149b1450",
      "meta": {
        "profile": [ "http://hl7.org/fhir/us/qicore/StructureDefinition/qicore-practitioner" ]
      },
      "identifier": [ {
        "system": "http://hl7.org/fhir/sid/us-npi",
        "value": "9999999896"
      } ],
      "name": [ {
        "family": "Evil",
        "prefix": [ "Dr" ]
      } ]
    },
    "request": {
      "method": "PUT",
      "url": "Practitioner/607ed907-68b2-40a4-9b02-4bd6149b1450"
    }
  }, {
    "fullUrl": "https://madie.cms.gov/MeasureReport/04bc3af6-3be9-48d8-8551-9691c7167c1b",
    "resource": {
      "resourceType": "MeasureReport",
      "id": "04bc3af6-3be9-48d8-8551-9691c7167c1b",
      "meta": {
        "profile": [ "http://hl7.org/fhir/us/cqfmeasures/StructureDefinition/test-case-cqfm" ]
      },
      "contained": [ {
        "resourceType": "Parameters",
        "id": "e209e2dd-191a-483c-a3a1-67861e564613-parameters",
        "parameter": [ {
          "name": "subject",
          "valueString": "cb7c95fc-6d6b-4e07-81e8-a79385142b94"
        } ]
      } ],
      "extension": [ {
        "url": "http://hl7.org/fhir/StructureDefinition/cqf-inputParameters",
        "valueReference": {
          "reference": "#e209e2dd-191a-483c-a3a1-67861e564613-parameters"
        }
      }, {
        "url": "http://hl7.org/fhir/us/cqfmeasures/StructureDefinition/cqfm-testCaseDescription",
        "valueMarkdown": "Patient receives tPA in first encounter and antithrombotics in last 2 encounters. Testing to ensure medications without end dates do not interfere with encounters that follow. Executes as expected. \n"
      } ],
      "modifierExtension": [ {
        "url": "http://hl7.org/fhir/us/cqfmeasures/StructureDefinition/cqfm-isTestCase",
        "valueBoolean": true
      } ],
      "status": "complete",
      "type": "individual",
      "measure": "https://madie.cms.gov/Measure/CMS72FHIRSTKAntithromboticDay2",
      "period": {
        "start": "2026-01-01",
        "end": "2026-12-31"
      },
      "group": [ {
        "id": "Group_1",
        "population": [ {
          "id": "InitialPopulation_1",
          "code": {
            "coding": [ {
              "system": "http://terminology.hl7.org/CodeSystem/measure-population",
              "code": "initial-population",
              "display": "Initial Population"
            } ]
          },
          "count": 3
        }, {
          "id": "Denominator_1",
          "code": {
            "coding": [ {
              "system": "http://terminology.hl7.org/CodeSystem/measure-population",
              "code": "denominator",
              "display": "Denominator"
            } ]
          },
          "count": 3
        }, {
          "id": "DenominatorExclusion_1",
          "code": {
            "coding": [ {
              "system": "http://terminology.hl7.org/CodeSystem/measure-population",
              "code": "denominator-exclusion",
              "display": "Denominator Exclusion"
            } ]
          },
          "count": 1
        }, {
          "id": "Numerator_1",
          "code": {
            "coding": [ {
              "system": "http://terminology.hl7.org/CodeSystem/measure-population",
              "code": "numerator",
              "display": "Numerator"
            } ]
          },
          "count": 2
        }, {
          "id": "DenominatorException_1",
          "code": {
            "coding": [ {
              "system": "http://terminology.hl7.org/CodeSystem/measure-population",
              "code": "denominator-exception",
              "display": "Denominator Exception"
            } ]
          },
          "count": 0
        } ],
        "measureScore": {
          "value": 0.0
        }
      } ],
      "evaluatedResource": [ {
        "reference": "Patient/cb7c95fc-6d6b-4e07-81e8-a79385142b94"
      }, {
        "reference": "Encounter/85712150-134c-42e9-a932-7c353ce14a21"
      }, {
        "reference": "Claim/5ca62962b8484628b8de1ec5"
      }, {
        "reference": "Encounter/642fec18-0907-4cc7-bdf5-8ae814acb63f"
      }, {
        "reference": "Claim/5ca62962b8484628b8de1ec5"
      }, {
        "reference": "Encounter/25099d90-04be-41a5-818e-a8d4d447b66d"
      }, {
        "reference": "Claim/5ca62962b8484628b8de1ec5"
      }, {
        "reference": "MedicationAdministration/f7cae561-2e3e-401b-9483-89599878db66"
      }, {
        "reference": "MedicationAdministration/63078c84-cf3b-4e12-ac54-c8bec88c516b"
      }, {
        "reference": "Coverage/866561c3-da44-4cf0-af60-44f9e266e6fb"
      }, {
        "reference": "Procedure/296be14b-8402-4048-bc8d-97bd0354e926"
      }, {
        "reference": "Condition/4dcc13a5-3d1f-48f1-a3cb-b2188336eb2f"
      }, {
        "reference": "Condition/2ce1c676-e4cb-4864-ac86-5fdce9cbf26a"
      }, {
        "reference": "Condition/447e9c7a-4a33-48e5-a853-c713c72ba4db"
      }, {
        "reference": "Organization/cd8e166e-eb0a-441d-b528-36337ea47814"
      }, {
        "reference": "Practitioner/607ed907-68b2-40a4-9b02-4bd6149b1450"
      } ]
    },
    "request": {
      "method": "PUT",
      "url": "MeasureReport/04bc3af6-3be9-48d8-8551-9691c7167c1b"
    }
  } ]
}