{
    "entry": [
        {
            "request": {
                "method": "PUT",
                "url": "Patient/ef9a58ac-e252-480a-bed8-2309c503587d"
            },
            "resource": {
                "identifier": [{
                    "system": "https://bonnie-fhir.healthit.gov/",
                    "type": {"coding": [{
                        "system": "http://terminology.hl7.org/CodeSystem/v2-0203",
                        "code": "MR"
                    }]},
                    "value": "62d94d31f0347d1abcae6c00"
                }],
                "extension": [
                    {
                        "extension": [
                            {
                                "valueCoding": {
                                    "system": "urn:oid:2.16.840.1.113883.6.238",
                                    "code": "2054-5",
                                    "userSelected": true,
                                    "display": "Black or African American"
                                },
                                "url": "ombCategory"
                            },
                            {
                                "valueString": "Black or African American",
                                "url": "text"
                            }
                        ],
                        "url": "http://hl7.org/fhir/us/core/StructureDefinition/us-core-race"
                    },
                    {
                        "extension": [
                            {
                                "valueCoding": {
                                    "system": "urn:oid:2.16.840.1.113883.6.238",
                                    "code": "2135-2",
                                    "userSelected": true,
                                    "display": "Hispanic or Latino"
                                },
                                "url": "ombCategory"
                            },
                            {
                                "valueString": "Hispanic or Latino",
                                "url": "text"
                            }
                        ],
                        "url": "http://hl7.org/fhir/us/core/StructureDefinition/us-core-ethnicity"
                    }
                ],
                "gender": "female",
                "meta": {"profile": ["http://hl7.org/fhir/us/qicore/StructureDefinition/qicore-patient"]},
                "name": [{
                    "given": ["ElevatedBP4to6FUDeclined"],
                    "family": "DENEXCEPPass"
                }],
                "id": "ef9a58ac-e252-480a-bed8-2309c503587d",
                "birthDate": "2006-01-01",
                "resourceType": "Patient"
            },
            "fullUrl": "https://madie.cms.gov/Patient/ef9a58ac-e252-480a-bed8-2309c503587d"
        },
        {
            "request": {
                "method": "PUT",
                "url": "Encounter/33c085a3-456f-4353-b5b2-c399850e9ec9"
            },
            "resource": {
                "period": {
                    "start": "2026-12-31T08:00:00.000+00:00",
                    "end": "2026-12-31T08:30:00.000+00:00"
                },
                "meta": {"profile": ["http://hl7.org/fhir/us/qicore/StructureDefinition/qicore-encounter"]},
                "subject": {"reference": "Patient/ef9a58ac-e252-480a-bed8-2309c503587d"},
                "id": "33c085a3-456f-4353-b5b2-c399850e9ec9",
                "type": [{"coding": [{
                    "system": "http://snomed.info/sct",
                    "code": "103705002",
                    "userSelected": true,
                    "display": "Patient status observation (procedure)",
                    "version": "2022-03"
                }]}],
                "class": {
                    "system": "http://terminology.hl7.org/CodeSystem/v3-ActCode",
                    "code": "AMB",
                    "display": "ambulatory"
                },
                "resourceType": "Encounter",
                "status": "finished"
            },
            "fullUrl": "https://madie.cms.gov/Encounter/33c085a3-456f-4353-b5b2-c399850e9ec9"
        },
        {
            "request": {
                "method": "PUT",
                "url": "Observation/5ef6cf49-697d-41f4-9b04-8b9903750430"
            },
            "resource": {
                "component": [
                    {
                        "code": {"coding": [{
                            "system": "http://loinc.org",
                            "code": "8480-6",
                            "display": "Systolic blood pressure"
                        }]},
                        "valueQuantity": {
                            "unit": "mmHg",
                            "system": "http://unitsofmeasure.org",
                            "code": "mm[Hg]",
                            "value": 120
                        }
                    },
                    {
                        "code": {"coding": [{
                            "system": "http://loinc.org",
                            "code": "8462-4",
                            "display": "Diastolic blood pressure"
                        }]},
                        "valueQuantity": {
                            "unit": "mmHg",
                            "system": "http://unitsofmeasure.org",
                            "code": "mm[Hg]",
                            "value": 79
                        }
                    }
                ],
                "code": {"coding": [{
                    "system": "http://loinc.org",
                    "code": "85354-9",
                    "display": "Blood pressure panel"
                }]},
                "effectiveDateTime": "2026-12-31T08:05:00.000+00:00",
                "meta": {"profile": ["http://hl7.org/fhir/us/core/StructureDefinition/us-core-blood-pressure"]},
                "subject": {"reference": "Patient/ef9a58ac-e252-480a-bed8-2309c503587d"},
                "id": "5ef6cf49-697d-41f4-9b04-8b9903750430",
                "category": [{
                    "coding": [{
                        "system": "http://terminology.hl7.org/CodeSystem/observation-category",
                        "code": "vital-signs",
                        "display": "Vital Signs"
                    }],
                    "text": "Vital Signs"
                }],
                "resourceType": "Observation",
                "status": "final"
            },
            "fullUrl": "https://madie.cms.gov/Observation/5ef6cf49-697d-41f4-9b04-8b9903750430"
        },
        {
            "request": {
                "method": "PUT",
                "url": "ServiceRequest/5319621f-88dd-41e1-b905-7d6eca9bb463"
            },
            "resource": {
                "extension": [{
                    "valueCodeableConcept": {"coding": [{
                        "system": "http://snomed.info/sct",
                        "code": "183945002",
                        "userSelected": true,
                        "display": "Procedure declined for religious reason (situation)",
                        "version": "2022-03"
                    }]},
                    "url": "http://hl7.org/fhir/us/qicore/StructureDefinition/qicore-doNotPerformReason"
                }],
                "code": {"coding": [{
                    "system": "http://snomed.info/sct",
                    "code": "183625007",
                    "userSelected": true,
                    "display": "Follow-up 4-6 months (finding)"
                }]},
                "authoredOn": "2026-12-31T08:25:00.000+00:00",
                "meta": {"profile": ["http://hl7.org/fhir/us/qicore/StructureDefinition/qicore-servicenotrequested"]},
                "subject": {"reference": "Patient/ef9a58ac-e252-480a-bed8-2309c503587d"},
                "id": "5319621f-88dd-41e1-b905-7d6eca9bb463",
                "doNotPerform": true,
                "intent": "order",
                "resourceType": "ServiceRequest",
                "status": "completed"
            },
            "fullUrl": "https://madie.cms.gov/ServiceRequest/5319621f-88dd-41e1-b905-7d6eca9bb463"
        },
        {
            "request": {
                "method": "PUT",
                "url": "Coverage/119b4db9-bfd3-4753-a621-724ebf089633"
            },
            "resource": {
                "payor": [{"reference": "Organization/33e574bf-30fe-43d5-8781-d4c6b5e3e236"}],
                "beneficiary": {"reference": "Patient/ef9a58ac-e252-480a-bed8-2309c503587d"},
                "meta": {"profile": ["http://hl7.org/fhir/us/qicore/StructureDefinition/qicore-coverage"]},
                "id": "119b4db9-bfd3-4753-a621-724ebf089633",
                "resourceType": "Coverage",
                "status": "active"
            },
            "fullUrl": "https://madie.cms.gov/Coverage/119b4db9-bfd3-4753-a621-724ebf089633"
        },
        {
            "request": {
                "method": "PUT",
                "url": "Organization/33e574bf-30fe-43d5-8781-d4c6b5e3e236"
            },
            "resource": {
                "identifier": [{
                    "system": "urn:oid:2.16.840.1.113883.4.4",
                    "use": "temp",
                    "value": "21-3259825"
                }],
                "address": [{
                    "country": "USA",
                    "city": "Dallas",
                    "use": "billing",
                    "line": ["P.O. Box 660044"],
                    "postalCode": "75266-0044",
                    "state": "TX",
                    "type": "postal"
                }],
                "meta": {"profile": ["http://hl7.org/fhir/us/qicore/StructureDefinition/qicore-organization"]},
                "name": "Blue Cross Blue Shield of Texas",
                "active": true,
                "telecom": [{
                    "system": "phone",
                    "value": "(+1) 972-766-6900"
                }],
                "id": "33e574bf-30fe-43d5-8781-d4c6b5e3e236",
                "type": [{"coding": [{
                    "system": "http://terminology.hl7.org/CodeSystem/organization-type",
                    "code": "pay",
                    "display": "Payer"
                }]}],
                "resourceType": "Organization"
            },
            "fullUrl": "https://madie.cms.gov/Organization/33e574bf-30fe-43d5-8781-d4c6b5e3e236"
        },
        {
            "request": {
                "method": "PUT",
                "url": "Practitioner/41c4d768-6dae-4362-a190-4c4965dca54e"
            },
            "resource": {
                "identifier": [{
                    "system": "http://hl7.org/fhir/sid/us-npi",
                    "value": "123456"
                }],
                "meta": {"profile": ["http://hl7.org/fhir/us/qicore/StructureDefinition/qicore-practitioner"]},
                "name": [{
                    "prefix": ["Dr"],
                    "family": "Evil"
                }],
                "id": "41c4d768-6dae-4362-a190-4c4965dca54e",
                "resourceType": "Practitioner"
            },
            "fullUrl": "https://madie.cms.gov/Practitioner/41c4d768-6dae-4362-a190-4c4965dca54e"
        },
        {
            "request": {
                "method": "PUT",
                "url": "MeasureReport/63db4491-ed05-4ccc-aba7-087793cda842"
            },
            "resource": {
                "contained": [{
                    "parameter": [{
                        "valueString": "ef9a58ac-e252-480a-bed8-2309c503587d",
                        "name": "subject"
                    }],
                    "id": "600b7b03-6b9e-4bf3-a5c5-a8182414426a-parameters",
                    "resourceType": "Parameters"
                }],
                "extension": [
                    {
                        "valueReference": {"reference": "#600b7b03-6b9e-4bf3-a5c5-a8182414426a-parameters"},
                        "url": "http://hl7.org/fhir/StructureDefinition/cqf-inputParameters"
                    },
                    {
                        "valueMarkdown": "Enc. 12/31 0800-0830 during MP, age 20, BP 120/79, declined f/u in 4-6 mo for religious reasons",
                        "url": "http://hl7.org/fhir/us/cqfmeasures/StructureDefinition/cqfm-testCaseDescription"
                    }
                ],
                "period": {
                    "start": "2026-01-01",
                    "end": "2026-12-31"
                },
                "measure": "https://madie.cms.gov/Measure/CMS22FHIRPCSBPScreeningFollowUp",
                "meta": {"profile": ["http://hl7.org/fhir/us/cqfmeasures/StructureDefinition/test-case-cqfm"]},
                "modifierExtension": [{
                    "valueBoolean": true,
                    "url": "http://hl7.org/fhir/us/cqfmeasures/StructureDefinition/cqfm-isTestCase"
                }],
                "id": "63db4491-ed05-4ccc-aba7-087793cda842",
                "evaluatedResource": [
                    {"reference": "Patient/ef9a58ac-e252-480a-bed8-2309c503587d"},
                    {"reference": "Encounter/33c085a3-456f-4353-b5b2-c399850e9ec9"},
                    {"reference": "Observation/5ef6cf49-697d-41f4-9b04-8b9903750430"},
                    {"reference": "ServiceRequest/5319621f-88dd-41e1-b905-7d6eca9bb463"},
                    {"reference": "Coverage/119b4db9-bfd3-4753-a621-724ebf089633"},
                    {"reference": "Organization/33e574bf-30fe-43d5-8781-d4c6b5e3e236"},
                    {"reference": "Practitioner/41c4d768-6dae-4362-a190-4c4965dca54e"}
                ],
                "type": "individual",
                "resourceType": "MeasureReport",
                "status": "complete",
                "group": [{
                    "id": "Group_1",
                    "measureScore": {"value": 0},
                    "population": [
                        {
                            "code": {"coding": [{
                                "system": "http://terminology.hl7.org/CodeSystem/measure-population",
                                "code": "initial-population",
                                "display": "Initial Population"
                            }]},
                            "count": 1,
                            "id": "InitialPopulation_1"
                        },
                        {
                            "code": {"coding": [{
                                "system": "http://terminology.hl7.org/CodeSystem/measure-population",
                                "code": "denominator",
                                "display": "Denominator"
                            }]},
                            "count": 1,
                            "id": "Denominator_1"
                        },
                        {
                            "code": {"coding": [{
                                "system": "http://terminology.hl7.org/CodeSystem/measure-population",
                                "code": "denominator-exclusion",
                                "display": "Denominator Exclusion"
                            }]},
                            "count": 0,
                            "id": "DenominatorExclusion_1"
                        },
                        {
                            "code": {"coding": [{
                                "system": "http://terminology.hl7.org/CodeSystem/measure-population",
                                "code": "numerator",
                                "display": "Numerator"
                            }]},
                            "count": 0,
                            "id": "Numerator_1"
                        },
                        {
                            "code": {"coding": [{
                                "system": "http://terminology.hl7.org/CodeSystem/measure-population",
                                "code": "denominator-exception",
                                "display": "Denominator Exception"
                            }]},
                            "count": 1,
                            "id": "DenominatorException_1"
                        }
                    ]
                }]
            },
            "fullUrl": "https://madie.cms.gov/MeasureReport/63db4491-ed05-4ccc-aba7-087793cda842"
        }
    ],
    "id": "62d94d31f0347d1abcae6c00",
    "type": "transaction",
    "resourceType": "Bundle"
}