{
  "resourceType": "Bundle",
  "id": "6129132f02c62a011f2e63de",
  "type": "transaction",
  "entry": [ {
    "fullUrl": "https://madie.cms.gov/Patient/a7b90108-4f50-4164-87b9-73817e9fdac2",
    "resource": {
      "resourceType": "Patient",
      "id": "a7b90108-4f50-4164-87b9-73817e9fdac2",
      "meta": {
        "profile": [ "http://hl7.org/fhir/us/qicore/StructureDefinition/qicore-patient" ]
      },
      "text": {
        "status": "generated",
        "div": "<div xmlns=\"http://www.w3.org/1999/xhtml\"><div class=\"hapiHeaderText\"> CMOdurEnc_ED=1hrNoObsBFEnc <b>DENEXPASS </b></div><table class=\"hapiPropertyTable\"><tbody><tr><td>Identifier</td><td>4e1a5626cff3e4a56f143ab3c086f2d1</td></tr><tr><td>Date of birth</td><td><span>21 August 1994</span></td></tr></tbody></table></div>"
      },
      "extension": [ {
        "url": "http://hl7.org/fhir/us/core/StructureDefinition/us-core-race",
        "extension": [ {
          "url": "ombCategory",
          "valueCoding": {
            "system": "urn:oid:2.16.840.1.113883.6.238",
            "code": "1002-5",
            "display": "American Indian or Alaska Native",
            "userSelected": true
          }
        }, {
          "url": "text",
          "valueString": "American Indian or Alaska Native"
        } ]
      }, {
        "url": "http://hl7.org/fhir/us/core/StructureDefinition/us-core-ethnicity",
        "extension": [ {
          "url": "ombCategory",
          "valueCoding": {
            "system": "urn:oid:2.16.840.1.113883.6.238",
            "code": "2135-2",
            "display": "Hispanic or Latino",
            "userSelected": true
          }
        }, {
          "url": "text",
          "valueString": "Hispanic or Latino"
        } ]
      } ],
      "identifier": [ {
        "type": {
          "coding": [ {
            "system": "http://terminology.hl7.org/CodeSystem/v2-0203",
            "code": "MR"
          } ]
        },
        "system": "https://bonnie-fhir.healthit.gov/",
        "value": "6129132f02c62a011f2e63de"
      } ],
      "active": true,
      "name": [ {
        "use": "usual",
        "family": "DENEXPass",
        "given": [ "CMOdurEnc_ED=1hrNoObsBFEnc" ]
      } ],
      "gender": "male",
      "birthDate": "1995-08-21"
    },
    "request": {
      "method": "PUT",
      "url": "Patient/a7b90108-4f50-4164-87b9-73817e9fdac2"
    }
  }, {
    "fullUrl": "https://madie.cms.gov/Encounter/b70a3932-3f81-4086-87a8-e31fa66fee68",
    "resource": {
      "resourceType": "Encounter",
      "id": "b70a3932-3f81-4086-87a8-e31fa66fee68",
      "meta": {
        "profile": [ "http://hl7.org/fhir/us/qicore/StructureDefinition/qicore-encounter" ]
      },
      "status": "finished",
      "class": {
        "system": "http://terminology.hl7.org/CodeSystem/v3-ActCode",
        "code": "EMER",
        "display": "emergency",
        "userSelected": true
      },
      "type": [ {
        "coding": [ {
          "system": "http://snomed.info/sct",
          "code": "4525004"
        } ]
      } ],
      "subject": {
        "reference": "Patient/a7b90108-4f50-4164-87b9-73817e9fdac2"
      },
      "period": {
        "start": "2026-10-10T10:30:00+00:00",
        "end": "2026-10-10T11:30:00.000+00:00"
      },
      "length": {
        "value": 0,
        "unit": "days"
      }
    },
    "request": {
      "method": "PUT",
      "url": "Encounter/b70a3932-3f81-4086-87a8-e31fa66fee68"
    }
  }, {
    "fullUrl": "https://madie.cms.gov/Encounter/30a606f9-2af0-4a7c-8bdd-b7f007ca229d",
    "resource": {
      "resourceType": "Encounter",
      "id": "30a606f9-2af0-4a7c-8bdd-b7f007ca229d",
      "meta": {
        "profile": [ "http://hl7.org/fhir/us/qicore/StructureDefinition/qicore-encounter" ]
      },
      "status": "finished",
      "class": {
        "system": "http://terminology.hl7.org/CodeSystem/v3-ActCode",
        "code": "IMP",
        "display": "inpatient encounter",
        "userSelected": true
      },
      "type": [ {
        "coding": [ {
          "system": "http://snomed.info/sct",
          "code": "32485007"
        } ]
      } ],
      "subject": {
        "reference": "Patient/a7b90108-4f50-4164-87b9-73817e9fdac2"
      },
      "period": {
        "start": "2026-10-10T12:30:00+00:00",
        "end": "2026-10-12T11:30:00.000+00:00"
      },
      "length": {
        "value": 2,
        "unit": "days"
      },
      "diagnosis": [ {
        "condition": {
          "reference": "Condition/92db8dd1-318e-4cde-9de2-c49fdfcf1448"
        },
        "use": {
          "coding": [ {
            "system": "http://terminology.hl7.org/CodeSystem/diagnosis-role",
            "code": "billing",
            "display": "Billing"
          } ]
        },
        "rank": 1
      } ]
    },
    "request": {
      "method": "PUT",
      "url": "Encounter/30a606f9-2af0-4a7c-8bdd-b7f007ca229d"
    }
  }, {
    "fullUrl": "https://madie.cms.gov/claim/5ca62962b8484628b8de1ec5",
    "resource": {
      "resourceType": "Claim",
      "id": "5ca62962b8484628b8de1ec5",
      "meta": {
        "profile": [ "http://hl7.org/fhir/us/qicore/StructureDefinition/qicore-claim" ]
      },
      "status": "active",
      "type": {
        "coding": [ {
          "system": "http://terminology.hl7.org/CodeSystem/claim-type",
          "code": "institutional"
        } ]
      },
      "use": "claim",
      "patient": {
        "reference": "Patient/d170a0a8-b5ad-4303-b6df-e304dd5f92ad"
      },
      "created": "2026-12-01",
      "provider": {
        "reference": "Practitioner/practitioner-123456"
      },
      "priority": {
        "coding": [ {
          "system": "http://terminology.hl7.org/CodeSystem/processpriority",
          "code": "normal"
        } ]
      },
      "diagnosis": [ {
        "sequence": 1,
        "diagnosisCodeableConcept": {
          "coding": [ {
            "system": "http://hl7.org/fhir/sid/icd-10-cm",
            "code": "I63.00"
          } ]
        },
        "type": [ {
          "coding": [ {
            "system": "http://terminology.hl7.org/CodeSystem/ex-diagnosistype",
            "code": "principal"
          } ]
        } ]
      } ],
      "insurance": [ {
        "sequence": 1,
        "focal": true,
        "coverage": {
          "reference": "Coverage/5fa041661c76ba66d9959367"
        }
      } ],
      "item": [ {
        "sequence": 1,
        "diagnosisSequence": [ 1 ],
        "productOrService": {
          "coding": [ {
            "system": "http://terminology.hl7.org/CodeSystem/ex-USCLS",
            "code": "99555"
          } ]
        },
        "encounter": [ {
          "reference": "Encounter/30a606f9-2af0-4a7c-8bdd-b7f007ca229d"
        } ]
      } ]
    },
    "request": {
      "method": "PUT",
      "url": "Claim/5ca62962b8484628b8de1ec5"
    }
  }, {
    "fullUrl": "https://madie.cms.gov/ServiceRequest/b02912d0-c31b-4688-ad9b-e67c1c2a77b3",
    "resource": {
      "resourceType": "ServiceRequest",
      "id": "b02912d0-c31b-4688-ad9b-e67c1c2a77b3",
      "meta": {
        "profile": [ "http://hl7.org/fhir/us/qicore/StructureDefinition/qicore-servicerequest" ]
      },
      "status": "active",
      "intent": "order",
      "code": {
        "coding": [ {
          "system": "http://snomed.info/sct",
          "code": "133918004"
        } ]
      },
      "subject": {
        "reference": "Patient/a7b90108-4f50-4164-87b9-73817e9fdac2"
      },
      "authoredOn": "2026-10-10T12:31:00+00:00"
    },
    "request": {
      "method": "PUT",
      "url": "ServiceRequest/b02912d0-c31b-4688-ad9b-e67c1c2a77b3"
    }
  }, {
    "fullUrl": "https://madie.cms.gov/Condition/92db8dd1-318e-4cde-9de2-c49fdfcf1448",
    "resource": {
      "resourceType": "Condition",
      "id": "92db8dd1-318e-4cde-9de2-c49fdfcf1448",
      "meta": {
        "profile": [ "http://hl7.org/fhir/us/qicore/StructureDefinition/qicore-condition" ]
      },
      "clinicalStatus": {
        "coding": [ {
          "system": "http://terminology.hl7.org/CodeSystem/condition-clinical",
          "code": "active"
        } ]
      },
      "verificationStatus": {
        "coding": [ {
          "system": "http://terminology.hl7.org/CodeSystem/condition-ver-status",
          "code": "confirmed"
        } ]
      },
      "category": [ {
        "coding": [ {
          "system": "http://terminology.hl7.org/CodeSystem/condition-category",
          "code": "encounter-diagnosis",
          "display": "Encounter Diagnosis"
        } ]
      } ],
      "code": {
        "coding": [ {
          "system": "http://snomed.info/sct",
          "version": "2020-09",
          "code": "111297002",
          "display": "Nonparalytic stroke (disorder)",
          "userSelected": true
        } ]
      },
      "subject": {
        "reference": "Patient/a7b90108-4f50-4164-87b9-73817e9fdac2"
      },
      "recordedDate": "2026-07-14T08:00:00+00:00"
    },
    "request": {
      "method": "PUT",
      "url": "Condition/92db8dd1-318e-4cde-9de2-c49fdfcf1448"
    }
  }, {
    "fullUrl": "https://madie.cms.gov/Coverage/9e13002c-2c63-41f0-b5de-a96b051beee7",
    "resource": {
      "resourceType": "Coverage",
      "id": "9e13002c-2c63-41f0-b5de-a96b051beee7",
      "meta": {
        "profile": [ "http://hl7.org/fhir/us/qicore/StructureDefinition/qicore-coverage" ]
      },
      "status": "active",
      "beneficiary": {
        "reference": "Patient/a7b90108-4f50-4164-87b9-73817e9fdac2"
      },
      "payor": [ {
        "reference": "Organization/496e5529-59c0-402b-adeb-afdaff9aa2d6"
      } ]
    },
    "request": {
      "method": "PUT",
      "url": "Coverage/9e13002c-2c63-41f0-b5de-a96b051beee7"
    }
  }, {
    "fullUrl": "https://madie.cms.gov/Organization/496e5529-59c0-402b-adeb-afdaff9aa2d6",
    "resource": {
      "resourceType": "Organization",
      "id": "496e5529-59c0-402b-adeb-afdaff9aa2d6",
      "meta": {
        "profile": [ "http://hl7.org/fhir/us/qicore/StructureDefinition/qicore-organization" ]
      },
      "identifier": [ {
        "use": "temp",
        "system": "urn:oid:2.16.840.1.113883.4.4",
        "value": "21-3259825"
      } ],
      "active": true,
      "type": [ {
        "coding": [ {
          "system": "http://terminology.hl7.org/CodeSystem/organization-type",
          "code": "pay",
          "display": "Payer"
        } ]
      } ],
      "name": "Blue Cross Blue Shield of Texas",
      "telecom": [ {
        "system": "phone",
        "value": "(+1) 972-766-6900"
      } ],
      "address": [ {
        "use": "billing",
        "type": "postal",
        "line": [ "P.O. Box 660044" ],
        "city": "Dallas",
        "state": "TX",
        "postalCode": "75266-0044",
        "country": "USA"
      } ]
    },
    "request": {
      "method": "PUT",
      "url": "Organization/496e5529-59c0-402b-adeb-afdaff9aa2d6"
    }
  }, {
    "fullUrl": "https://madie.cms.gov/MeasureReport/07893bbc-f4bf-445b-8ebd-921ca0abde74",
    "resource": {
      "resourceType": "MeasureReport",
      "id": "07893bbc-f4bf-445b-8ebd-921ca0abde74",
      "meta": {
        "profile": [ "http://hl7.org/fhir/us/cqfmeasures/StructureDefinition/test-case-cqfm" ]
      },
      "contained": [ {
        "resourceType": "Parameters",
        "id": "75cd9a81-1829-47ae-8bae-dd205a3ef22c-parameters",
        "parameter": [ {
          "name": "subject",
          "valueString": "a7b90108-4f50-4164-87b9-73817e9fdac2"
        } ]
      } ],
      "extension": [ {
        "url": "http://hl7.org/fhir/StructureDefinition/cqf-inputParameters",
        "valueReference": {
          "reference": "#75cd9a81-1829-47ae-8bae-dd205a3ef22c-parameters"
        }
      }, {
        "url": "http://hl7.org/fhir/us/cqfmeasures/StructureDefinition/cqfm-testCaseDescription",
        "valueMarkdown": "Patient receives CMO during inpatient encounter. ED ends 60 minutes before inpatient encounter start. No Observation. Testing HospitalizationWithObservation function."
      } ],
      "modifierExtension": [ {
        "url": "http://hl7.org/fhir/us/cqfmeasures/StructureDefinition/cqfm-isTestCase",
        "valueBoolean": true
      } ],
      "status": "complete",
      "type": "individual",
      "measure": "https://madie.cms.gov/Measure/CMS104FHIRSTKDCAntithrombotic",
      "period": {
        "start": "2026-01-01",
        "end": "2026-12-31"
      },
      "group": [ {
        "id": "Group_1",
        "population": [ {
          "id": "InitialPopulation_1",
          "code": {
            "coding": [ {
              "system": "http://terminology.hl7.org/CodeSystem/measure-population",
              "code": "initial-population",
              "display": "Initial Population"
            } ]
          },
          "count": 1
        }, {
          "id": "Denominator_1",
          "code": {
            "coding": [ {
              "system": "http://terminology.hl7.org/CodeSystem/measure-population",
              "code": "denominator",
              "display": "Denominator"
            } ]
          },
          "count": 1
        }, {
          "id": "DenominatorExclusion_1",
          "code": {
            "coding": [ {
              "system": "http://terminology.hl7.org/CodeSystem/measure-population",
              "code": "denominator-exclusion",
              "display": "Denominator Exclusion"
            } ]
          },
          "count": 1
        }, {
          "id": "Numerator_1",
          "code": {
            "coding": [ {
              "system": "http://terminology.hl7.org/CodeSystem/measure-population",
              "code": "numerator",
              "display": "Numerator"
            } ]
          },
          "count": 0
        }, {
          "id": "DenominatorException_1",
          "code": {
            "coding": [ {
              "system": "http://terminology.hl7.org/CodeSystem/measure-population",
              "code": "denominator-exception",
              "display": "Denominator Exception"
            } ]
          },
          "count": 0
        } ],
        "measureScore": {
          "value": 0.0
        }
      } ],
      "evaluatedResource": [ {
        "reference": "Patient/a7b90108-4f50-4164-87b9-73817e9fdac2"
      }, {
        "reference": "Encounter/b70a3932-3f81-4086-87a8-e31fa66fee68"
      }, {
        "reference": "Encounter/30a606f9-2af0-4a7c-8bdd-b7f007ca229d"
      }, {
        "reference": "Claim/5ca62962b8484628b8de1ec5"
      }, {
        "reference": "ServiceRequest/b02912d0-c31b-4688-ad9b-e67c1c2a77b3"
      }, {
        "reference": "Condition/92db8dd1-318e-4cde-9de2-c49fdfcf1448"
      }, {
        "reference": "Coverage/9e13002c-2c63-41f0-b5de-a96b051beee7"
      }, {
        "reference": "Organization/496e5529-59c0-402b-adeb-afdaff9aa2d6"
      } ]
    },
    "request": {
      "method": "PUT",
      "url": "MeasureReport/07893bbc-f4bf-445b-8ebd-921ca0abde74"
    }
  } ]
}