{
  "resourceType": "Bundle",
  "id": "63487c2d0968f8012254014c",
  "type": "transaction",
  "entry": [ {
    "fullUrl": "https://madie.cms.gov/Patient/8d2b169f-2590-4dc3-ade9-20ee0aa17eea",
    "resource": {
      "resourceType": "Patient",
      "id": "8d2b169f-2590-4dc3-ade9-20ee0aa17eea",
      "meta": {
        "profile": [ "http://hl7.org/fhir/us/qicore/StructureDefinition/qicore-patient" ]
      },
      "text": {
        "status": "generated",
        "div": "<div xmlns=\"http://www.w3.org/1999/xhtml\"><div class=\"hapiHeaderText\">ProcDelivStartAfterEncInpEnd<b>IPOPFail</b></div><table class=\"hapiPropertyTable\"><tbody><tr><td>Identifier</td><td>8feb75fb0b87d407a78ff5992b319da07b86b88c054236dab2f11601028d7a21</td></tr><tr><td>Date of birth</td><td><span>14 February 1985</span></td></tr></tbody></table></div>"
      },
      "extension": [ {
        "url": "http://hl7.org/fhir/us/core/StructureDefinition/us-core-race",
        "extension": [ {
          "url": "ombCategory",
          "valueCoding": {
            "system": "urn:oid:2.16.840.1.113883.6.238",
            "code": "1002-5",
            "display": "American Indian or Alaska Native",
            "userSelected": true
          }
        }, {
          "url": "text",
          "valueString": "American Indian or Alaska Native"
        } ]
      }, {
        "url": "http://hl7.org/fhir/us/core/StructureDefinition/us-core-ethnicity",
        "extension": [ {
          "url": "ombCategory",
          "valueCoding": {
            "system": "urn:oid:2.16.840.1.113883.6.238",
            "code": "2135-2",
            "display": "Hispanic or Latino",
            "userSelected": true
          }
        }, {
          "url": "text",
          "valueString": "Hispanic or Latino"
        } ]
      } ],
      "identifier": [ {
        "type": {
          "coding": [ {
            "system": "http://terminology.hl7.org/CodeSystem/v2-0203",
            "code": "MR"
          } ]
        },
        "system": "https://bonnie-fhir.healthit.gov/",
        "value": "63487c2d0968f8012254014c"
      } ],
      "active": true,
      "name": [ {
        "use": "usual",
        "family": "IPOPFail",
        "given": [ "ProcDelivStartDayAfterEncInpEnd" ]
      } ],
      "gender": "female",
      "birthDate": "1986-02-14"
    },
    "request": {
      "method": "PUT",
      "url": "Patient/8d2b169f-2590-4dc3-ade9-20ee0aa17eea"
    }
  }, {
    "fullUrl": "https://madie.cms.gov/Encounter/d1d94bd0-bddd-4608-9cc7-2703533f877d",
    "resource": {
      "resourceType": "Encounter",
      "id": "d1d94bd0-bddd-4608-9cc7-2703533f877d",
      "meta": {
        "profile": [ "http://hl7.org/fhir/us/qicore/StructureDefinition/qicore-encounter" ]
      },
      "status": "finished",
      "class": {
        "system": "http://terminology.hl7.org/CodeSystem/v3-ActCode",
        "code": "IMP",
        "display": "inpatient encounter"
      },
      "type": [ {
        "coding": [ {
          "system": "http://snomed.info/sct",
          "code": "8715000"
        } ]
      } ],
      "subject": {
        "reference": "Patient/8d2b169f-2590-4dc3-ade9-20ee0aa17eea"
      },
      "period": {
        "start": "2026-11-28T08:00:00.000+00:00",
        "end": "2026-11-30T08:15:00.000+00:00"
      },
      "length": {
        "value": 2,
        "unit": "days"
      },
      "diagnosis": [ {
        "condition": {
          "reference": "Condition/Condition-2"
        },
        "use": {
          "coding": [ {
            "system": "http://snomed.info/sct",
            "code": "169826009",
            "display": "Single live birth from singleton pregnancy (finding)"
          } ]
        }
      } ]
    },
    "request": {
      "method": "PUT",
      "url": "Encounter/d1d94bd0-bddd-4608-9cc7-2703533f877d"
    }
  }, {
    "fullUrl": "https://madie.cms.gov/Procedure/f157d619-50fe-4b41-8e29-bbd0e8c5a31a",
    "resource": {
      "resourceType": "Procedure",
      "id": "f157d619-50fe-4b41-8e29-bbd0e8c5a31a",
      "meta": {
        "profile": [ "http://hl7.org/fhir/us/qicore/StructureDefinition/qicore-procedure" ]
      },
      "extension": [ {
        "url": "http://hl7.org/fhir/us/qicore/StructureDefinition/qicore-recorded",
        "valueDateTime": "2014-04-05T13:35:00.000+00:00"
      } ],
      "status": "completed",
      "code": {
        "coding": [ {
          "system": "http://www.cms.gov/Medicare/Coding/ICD10",
          "code": "10D00Z0",
          "userSelected": true
        } ]
      },
      "subject": {
        "reference": "Patient/8d2b169f-2590-4dc3-ade9-20ee0aa17eea"
      },
      "performedDateTime": "2026-12-01T00:01:00.000+00:00"
    },
    "request": {
      "method": "PUT",
      "url": "Procedure/f157d619-50fe-4b41-8e29-bbd0e8c5a31a"
    }
  }, {
    "fullUrl": "https://madie.cms.gov/Coverage/a345dadb-1ff1-43b4-a369-d43ff096189b",
    "resource": {
      "resourceType": "Coverage",
      "id": "a345dadb-1ff1-43b4-a369-d43ff096189b",
      "meta": {
        "profile": [ "http://hl7.org/fhir/us/qicore/StructureDefinition/qicore-coverage" ]
      },
      "status": "active",
      "subscriberId": "523435",
      "beneficiary": {
        "reference": "Patient/8d2b169f-2590-4dc3-ade9-20ee0aa17eea"
      },
      "relationship": {
        "coding": [ {
          "system": "http://terminology.hl7.org/CodeSystem/subscriber-relationship",
          "code": "self"
        } ]
      },
      "payor": [ {
        "reference": "Organization/fb97eb2c-356e-4c6e-9cfd-1b372425d951"
      } ]
    },
    "request": {
      "method": "PUT",
      "url": "Coverage/a345dadb-1ff1-43b4-a369-d43ff096189b"
    }
  }, {
    "fullUrl": "https://madie.cms.gov/Organization/fb97eb2c-356e-4c6e-9cfd-1b372425d951",
    "resource": {
      "resourceType": "Organization",
      "id": "fb97eb2c-356e-4c6e-9cfd-1b372425d951",
      "meta": {
        "profile": [ "http://hl7.org/fhir/us/qicore/StructureDefinition/qicore-organization" ]
      },
      "identifier": [ {
        "use": "temp",
        "system": "urn:oid:2.16.840.1.113883.4.4",
        "value": "21-3259825"
      } ],
      "active": true,
      "type": [ {
        "coding": [ {
          "system": "http://terminology.hl7.org/CodeSystem/organization-type",
          "code": "pay",
          "display": "Payer"
        } ]
      } ],
      "name": "Blue Cross Blue Shield of Texas",
      "telecom": [ {
        "system": "phone",
        "value": "(+1) 972-766-6900"
      } ],
      "address": [ {
        "use": "billing",
        "type": "postal",
        "line": [ "P.O. Box 660044" ],
        "city": "Dallas",
        "state": "TX",
        "postalCode": "75266-0044",
        "country": "USA"
      } ]
    },
    "request": {
      "method": "PUT",
      "url": "Organization/fb97eb2c-356e-4c6e-9cfd-1b372425d951"
    }
  }, {
    "fullUrl": "https://madie.cms.gov/Practitioner/172a5e19-b788-44bc-9c62-9c8f6026229c",
    "resource": {
      "resourceType": "Practitioner",
      "id": "172a5e19-b788-44bc-9c62-9c8f6026229c",
      "identifier": [ {
        "system": "http://hl7.org/fhir/sid/us-npi",
        "value": "123456"
      } ],
      "name": [ {
        "family": "Evil",
        "prefix": [ "Dr" ]
      } ]
    },
    "request": {
      "method": "PUT",
      "url": "Practitioner/172a5e19-b788-44bc-9c62-9c8f6026229c"
    }
  }, {
    "fullUrl": "https://madie.cms.gov/MeasureReport/92a8edb1-9c57-4776-b6c1-5e84f2b2ac57",
    "resource": {
      "resourceType": "MeasureReport",
      "id": "92a8edb1-9c57-4776-b6c1-5e84f2b2ac57",
      "meta": {
        "profile": [ "http://hl7.org/fhir/us/cqfmeasures/StructureDefinition/test-case-cqfm" ]
      },
      "contained": [ {
        "resourceType": "Parameters",
        "id": "21c2eccf-afb4-4b99-a129-85c944348aa5-parameters",
        "parameter": [ {
          "name": "subject",
          "valueString": "8d2b169f-2590-4dc3-ade9-20ee0aa17eea"
        } ]
      } ],
      "extension": [ {
        "url": "http://hl7.org/fhir/StructureDefinition/cqf-inputParameters",
        "valueReference": {
          "reference": "#21c2eccf-afb4-4b99-a129-85c944348aa5-parameters"
        }
      }, {
        "url": "http://hl7.org/fhir/us/cqfmeasures/StructureDefinition/cqfm-testCaseDescription",
        "valueMarkdown": "\"Fail IPP, ProcDelivStartAfter IP  end\n DEN, NUM. Parity result 0 (auth at 42 weeks) EGA 40 weeks;   Tests \"\"DeliveryProcedures.relevantPeriod starts during QualifyingEncounters.relevantPeriod\"\".\"\n"
      } ],
      "modifierExtension": [ {
        "url": "http://hl7.org/fhir/us/cqfmeasures/StructureDefinition/cqfm-isTestCase",
        "valueBoolean": true
      } ],
      "status": "complete",
      "type": "individual",
      "measure": "https://madie.cms.gov/Measure/CMS0334FHIRPCCesareanBirth",
      "period": {
        "start": "2026-01-01",
        "end": "2026-12-31"
      },
      "group": [ {
        "id": "Group_1",
        "population": [ {
          "id": "InitialPopulation_1",
          "code": {
            "coding": [ {
              "system": "http://terminology.hl7.org/CodeSystem/measure-population",
              "code": "initial-population",
              "display": "Initial Population"
            } ]
          },
          "count": 0
        }, {
          "id": "Denominator_1",
          "code": {
            "coding": [ {
              "system": "http://terminology.hl7.org/CodeSystem/measure-population",
              "code": "denominator",
              "display": "Denominator"
            } ]
          },
          "count": 0
        }, {
          "id": "DenominatorExclusion_1",
          "code": {
            "coding": [ {
              "system": "http://terminology.hl7.org/CodeSystem/measure-population",
              "code": "denominator-exclusion",
              "display": "Denominator Exclusion"
            } ]
          },
          "count": 0
        }, {
          "id": "Numerator_1",
          "code": {
            "coding": [ {
              "system": "http://terminology.hl7.org/CodeSystem/measure-population",
              "code": "numerator",
              "display": "Numerator"
            } ]
          },
          "count": 0
        } ],
        "measureScore": {
          "value": 0.0
        }
      } ],
      "evaluatedResource": [ {
        "reference": "Patient/8d2b169f-2590-4dc3-ade9-20ee0aa17eea"
      }, {
        "reference": "Encounter/d1d94bd0-bddd-4608-9cc7-2703533f877d"
      }, {
        "reference": "Procedure/f157d619-50fe-4b41-8e29-bbd0e8c5a31a"
      }, {
        "reference": "Coverage/a345dadb-1ff1-43b4-a369-d43ff096189b"
      }, {
        "reference": "Organization/fb97eb2c-356e-4c6e-9cfd-1b372425d951"
      }, {
        "reference": "Practitioner/172a5e19-b788-44bc-9c62-9c8f6026229c"
      } ]
    },
    "request": {
      "method": "PUT",
      "url": "MeasureReport/92a8edb1-9c57-4776-b6c1-5e84f2b2ac57"
    }
  } ]
}