{
  "resourceType": "Bundle",
  "id": "612e6aab02c62a011f2ead9b",
  "type": "transaction",
  "entry": [ {
    "fullUrl": "https://madie.cms.gov/Patient/f82746cf-f6cd-4fcc-bc9e-7e569ae26211",
    "resource": {
      "resourceType": "Patient",
      "id": "f82746cf-f6cd-4fcc-bc9e-7e569ae26211",
      "meta": {
        "profile": [ "http://hl7.org/fhir/us/qicore/StructureDefinition/qicore-patient" ]
      },
      "text": {
        "status": "generated",
        "div": "<div xmlns=\"http://www.w3.org/1999/xhtml\"><div class=\"hapiHeaderText\">MedReasonMALDUHepDAGCSDuringED <b>NUMERPASS </b></div><table class=\"hapiPropertyTable\"><tbody><tr><td>Identifier</td><td>020df11163b665120eb01e83e644f1da</td></tr><tr><td>Date of birth</td><td><span>02 January 1974</span></td></tr></tbody></table></div>"
      },
      "extension": [ {
        "url": "http://hl7.org/fhir/us/core/StructureDefinition/us-core-race",
        "extension": [ {
          "url": "ombCategory",
          "valueCoding": {
            "system": "urn:oid:2.16.840.1.113883.6.238",
            "code": "1002-5",
            "display": "American Indian or Alaska Native",
            "userSelected": true
          }
        }, {
          "url": "text",
          "valueString": "American Indian or Alaska Native"
        } ]
      }, {
        "url": "http://hl7.org/fhir/us/core/StructureDefinition/us-core-ethnicity",
        "extension": [ {
          "url": "ombCategory",
          "valueCoding": {
            "system": "urn:oid:2.16.840.1.113883.6.238",
            "code": "2135-2",
            "display": "Hispanic or Latino",
            "userSelected": true
          }
        }, {
          "url": "text",
          "valueString": "Hispanic or Latino"
        } ]
      } ],
      "identifier": [ {
        "type": {
          "coding": [ {
            "system": "http://terminology.hl7.org/CodeSystem/v2-0203",
            "code": "MR"
          } ]
        },
        "system": "https://bonnie-fhir.healthit.gov/",
        "value": "612e6aab02c62a011f2ead9b"
      } ],
      "active": true,
      "name": [ {
        "use": "usual",
        "family": "NUMERPass",
        "given": [ "MedReasonMALDUHepDAGCSDuringED" ]
      } ],
      "gender": "male",
      "birthDate": "1975-01-02"
    },
    "request": {
      "method": "PUT",
      "url": "Patient/f82746cf-f6cd-4fcc-bc9e-7e569ae26211"
    }
  }, {
    "fullUrl": "https://madie.cms.gov/Encounter/8a0924b7-cdbc-4b20-983f-081d6530db4d",
    "resource": {
      "resourceType": "Encounter",
      "id": "8a0924b7-cdbc-4b20-983f-081d6530db4d",
      "meta": {
        "profile": [ "http://hl7.org/fhir/us/qicore/StructureDefinition/qicore-encounter" ]
      },
      "status": "finished",
      "class": {
        "system": "http://terminology.hl7.org/CodeSystem/v3-ActCode",
        "code": "EMER",
        "display": "emergency"
      },
      "type": [ {
        "coding": [ {
          "system": "http://snomed.info/sct",
          "code": "4525004"
        } ]
      } ],
      "subject": {
        "reference": "Patient/f82746cf-f6cd-4fcc-bc9e-7e569ae26211"
      },
      "period": {
        "start": "2026-10-31T05:00:00.000+00:00",
        "end": "2026-11-01T07:15:00.000+00:00"
      },
      "length": {
        "value": 1,
        "unit": "days"
      }
    },
    "request": {
      "method": "PUT",
      "url": "Encounter/8a0924b7-cdbc-4b20-983f-081d6530db4d"
    }
  }, {
    "fullUrl": "https://madie.cms.gov/Encounter/75f41366-d2ac-4f2e-a798-dbe62f30d87b",
    "resource": {
      "resourceType": "Encounter",
      "id": "75f41366-d2ac-4f2e-a798-dbe62f30d87b",
      "meta": {
        "profile": [ "http://hl7.org/fhir/us/qicore/StructureDefinition/qicore-encounter" ]
      },
      "status": "finished",
      "class": {
        "system": "http://terminology.hl7.org/CodeSystem/v3-ActCode",
        "code": "IMP",
        "display": "inpatient encounter"
      },
      "type": [ {
        "coding": [ {
          "system": "http://snomed.info/sct",
          "code": "8715000"
        } ]
      } ],
      "subject": {
        "reference": "Patient/f82746cf-f6cd-4fcc-bc9e-7e569ae26211"
      },
      "period": {
        "start": "2026-11-01T08:00:00.000+00:00",
        "end": "2026-11-26T08:15:00.000+00:00"
      },
      "length": {
        "value": 25,
        "unit": "days"
      },
      "location": [ {
        "location": {
          "reference": "Location/30a315f3-7c76-4092-a41a-3bf873bd6415"
        },
        "period": {
          "start": "2026-11-01T09:00:00.000+00:00",
          "end": "2026-11-10T08:15:00.000+00:00"
        }
      } ]
    },
    "request": {
      "method": "PUT",
      "url": "Encounter/75f41366-d2ac-4f2e-a798-dbe62f30d87b"
    }
  }, {
    "fullUrl": "https://madie.cms.gov/Coverage/0c5dc092-8249-4a13-a152-b320562f139a",
    "resource": {
      "resourceType": "Coverage",
      "id": "0c5dc092-8249-4a13-a152-b320562f139a",
      "status": "active",
      "beneficiary": {
        "reference": "Patient/f82746cf-f6cd-4fcc-bc9e-7e569ae26211"
      },
      "period": {
        "start": "1975-01-02T08:00:00.000+00:00"
      },
      "payor": [ {
        "reference": "Organization/8d68541d-7fd5-4830-86bd-3544c25f70cb"
      } ]
    },
    "request": {
      "method": "PUT",
      "url": "Coverage/0c5dc092-8249-4a13-a152-b320562f139a"
    }
  }, {
    "fullUrl": "https://madie.cms.gov/MedicationAdministration/0c26a3b4-ab36-455a-b8be-8683010ab016",
    "resource": {
      "resourceType": "MedicationAdministration",
      "id": "0c26a3b4-ab36-455a-b8be-8683010ab016",
      "meta": {
        "profile": [ "http://hl7.org/fhir/us/qicore/StructureDefinition/qicore-medicationadministrationnotdone" ]
      },
      "extension": [ {
        "url": "http://hl7.org/fhir/us/qicore/StructureDefinition/qicore-recorded",
        "valueDateTime": "2026-11-01T07:00:00.000+00:00"
      } ],
      "status": "not-done",
      "statusReason": [ {
        "coding": [ {
          "system": "http://snomed.info/sct",
          "code": "183932001",
          "display": "Procedure contraindicated (situation)"
        } ]
      } ],
      "medicationCodeableConcept": {
        "coding": [ {
          "system": "http://www.nlm.nih.gov/research/umls/rxnorm",
          "code": "1361574"
        } ]
      },
      "subject": {
        "reference": "Patient/f82746cf-f6cd-4fcc-bc9e-7e569ae26211"
      },
      "effectivePeriod": {
        "start": "2026-11-01T07:00:00.000+00:00"
      }
    },
    "request": {
      "method": "PUT",
      "url": "MedicationAdministration/0c26a3b4-ab36-455a-b8be-8683010ab016"
    }
  }, {
    "fullUrl": "https://madie.cms.gov/Procedure/987cecdb-54dc-4ece-ac75-2160e8dd1b40",
    "resource": {
      "resourceType": "Procedure",
      "id": "987cecdb-54dc-4ece-ac75-2160e8dd1b40",
      "meta": {
        "profile": [ "http://hl7.org/fhir/us/qicore/StructureDefinition/qicore-procedurenotdone" ]
      },
      "extension": [ {
        "url": "http://hl7.org/fhir/us/qicore/StructureDefinition/qicore-recorded",
        "valueDateTime": "2026-11-01T07:00:00.000+00:00"
      } ],
      "status": "not-done",
      "statusReason": {
        "coding": [ {
          "system": "http://snomed.info/sct",
          "code": "183932001",
          "display": "Procedure contraindicated (situation)",
          "userSelected": true
        } ]
      },
      "code": {
        "coding": [ {
          "system": "http://snomed.info/sct",
          "code": "229511001",
          "display": "Application of graduated compression garment (procedure)",
          "userSelected": true
        } ]
      },
      "subject": {
        "reference": "Patient/f82746cf-f6cd-4fcc-bc9e-7e569ae26211"
      },
      "_performedDateTime": {
        "extension": [ {
          "url": "http://hl7.org/fhir/StructureDefinition/data-absent-reason",
          "valueCode": "not-performed"
        } ]
      }
    },
    "request": {
      "method": "PUT",
      "url": "Procedure/987cecdb-54dc-4ece-ac75-2160e8dd1b40"
    }
  }, {
    "fullUrl": "https://madie.cms.gov/Location/30a315f3-7c76-4092-a41a-3bf873bd6415",
    "resource": {
      "resourceType": "Location",
      "id": "30a315f3-7c76-4092-a41a-3bf873bd6415",
      "meta": {
        "profile": [ "http://hl7.org/fhir/us/qicore/StructureDefinition/qicore-location" ]
      },
      "identifier": [ {
        "use": "usual",
        "system": "http://exampleoflocation.com",
        "value": "B1-S.F2"
      } ],
      "name": "Medical Surgical East, first floor",
      "type": [ {
        "coding": [ {
          "system": "https://www.cdc.gov/nhsn/cdaportal/terminology/codesystem/hsloc.html",
          "code": "1025-6",
          "display": "Trauma Critical Care",
          "userSelected": true
        } ]
      } ]
    },
    "request": {
      "method": "PUT",
      "url": "Location/30a315f3-7c76-4092-a41a-3bf873bd6415"
    }
  }, {
    "fullUrl": "https://madie.cms.gov/Organization/8d68541d-7fd5-4830-86bd-3544c25f70cb",
    "resource": {
      "resourceType": "Organization",
      "id": "8d68541d-7fd5-4830-86bd-3544c25f70cb",
      "meta": {
        "profile": [ "http://hl7.org/fhir/us/qicore/StructureDefinition/qicore-organization" ]
      },
      "identifier": [ {
        "use": "temp",
        "system": "urn:oid:2.16.840.1.113883.4.4",
        "value": "21-3259825"
      } ],
      "active": true,
      "type": [ {
        "coding": [ {
          "system": "http://terminology.hl7.org/CodeSystem/organization-type",
          "code": "pay",
          "display": "Payer"
        } ]
      } ],
      "name": "Blue Cross Blue Shield of Texas",
      "telecom": [ {
        "system": "phone",
        "value": "(+1) 972-766-6900"
      } ],
      "address": [ {
        "use": "billing",
        "type": "postal",
        "line": [ "P.O. Box 660044" ],
        "city": "Dallas",
        "state": "TX",
        "postalCode": "75266-0044",
        "country": "USA"
      } ]
    },
    "request": {
      "method": "PUT",
      "url": "Organization/8d68541d-7fd5-4830-86bd-3544c25f70cb"
    }
  }, {
    "fullUrl": "https://madie.cms.gov/Practitioner/5eed94b5-bd7a-4c04-b3ba-312c940267e5",
    "resource": {
      "resourceType": "Practitioner",
      "id": "5eed94b5-bd7a-4c04-b3ba-312c940267e5",
      "identifier": [ {
        "system": "http://hl7.org/fhir/sid/us-npi",
        "value": "123456"
      } ],
      "name": [ {
        "family": "Evil",
        "prefix": [ "Dr" ]
      } ]
    },
    "request": {
      "method": "PUT",
      "url": "Practitioner/5eed94b5-bd7a-4c04-b3ba-312c940267e5"
    }
  }, {
    "fullUrl": "https://madie.cms.gov/MeasureReport/b7e7e923-ae6c-4825-9892-20b282957ed0",
    "resource": {
      "resourceType": "MeasureReport",
      "id": "b7e7e923-ae6c-4825-9892-20b282957ed0",
      "meta": {
        "profile": [ "http://hl7.org/fhir/us/cqfmeasures/StructureDefinition/test-case-cqfm" ]
      },
      "contained": [ {
        "resourceType": "Parameters",
        "id": "c7e15d54-eba8-47a3-804b-3abde8a2677e-parameters",
        "parameter": [ {
          "name": "subject",
          "valueString": "f82746cf-f6cd-4fcc-bc9e-7e569ae26211"
        } ]
      } ],
      "extension": [ {
        "url": "http://hl7.org/fhir/StructureDefinition/cqf-inputParameters",
        "valueReference": {
          "reference": "#c7e15d54-eba8-47a3-804b-3abde8a2677e-parameters"
        }
      }, {
        "url": "http://hl7.org/fhir/us/cqfmeasures/StructureDefinition/cqfm-testCaseDescription",
        "valueMarkdown": "meets IPP, meets Denominator, GCS ordered not done MedRsn and Order Unfractionated Heparin not done MedRsn - during ED\n"
      } ],
      "modifierExtension": [ {
        "url": "http://hl7.org/fhir/us/cqfmeasures/StructureDefinition/cqfm-isTestCase",
        "valueBoolean": true
      } ],
      "status": "complete",
      "type": "individual",
      "measure": "https://madie.cms.gov/Measure/CMS190VTEProphylaxisICUFHIR",
      "period": {
        "start": "2026-01-01",
        "end": "2026-12-31"
      },
      "group": [ {
        "id": "Group_1",
        "population": [ {
          "id": "InitialPopulation_1",
          "code": {
            "coding": [ {
              "system": "http://terminology.hl7.org/CodeSystem/measure-population",
              "code": "initial-population",
              "display": "Initial Population"
            } ]
          },
          "count": 1
        }, {
          "id": "Denominator_1",
          "code": {
            "coding": [ {
              "system": "http://terminology.hl7.org/CodeSystem/measure-population",
              "code": "denominator",
              "display": "Denominator"
            } ]
          },
          "count": 1
        }, {
          "id": "DenominatorExclusion_1",
          "code": {
            "coding": [ {
              "system": "http://terminology.hl7.org/CodeSystem/measure-population",
              "code": "denominator-exclusion",
              "display": "Denominator Exclusion"
            } ]
          },
          "count": 0
        }, {
          "id": "Numerator_1",
          "code": {
            "coding": [ {
              "system": "http://terminology.hl7.org/CodeSystem/measure-population",
              "code": "numerator",
              "display": "Numerator"
            } ]
          },
          "count": 1
        }, {
          "id": "DenominatorException_1",
          "code": {
            "coding": [ {
              "system": "http://terminology.hl7.org/CodeSystem/measure-population",
              "code": "denominator-exception",
              "display": "Denominator Exception"
            } ]
          },
          "count": 0
        } ],
        "measureScore": {
          "value": 0.0
        }
      } ],
      "evaluatedResource": [ {
        "reference": "Patient/f82746cf-f6cd-4fcc-bc9e-7e569ae26211"
      }, {
        "reference": "Encounter/8a0924b7-cdbc-4b20-983f-081d6530db4d"
      }, {
        "reference": "Encounter/75f41366-d2ac-4f2e-a798-dbe62f30d87b"
      }, {
        "reference": "Coverage/0c5dc092-8249-4a13-a152-b320562f139a"
      }, {
        "reference": "MedicationAdministration/0c26a3b4-ab36-455a-b8be-8683010ab016"
      }, {
        "reference": "Procedure/987cecdb-54dc-4ece-ac75-2160e8dd1b40"
      }, {
        "reference": "Location/30a315f3-7c76-4092-a41a-3bf873bd6415"
      }, {
        "reference": "Organization/8d68541d-7fd5-4830-86bd-3544c25f70cb"
      }, {
        "reference": "Practitioner/5eed94b5-bd7a-4c04-b3ba-312c940267e5"
      } ]
    },
    "request": {
      "method": "PUT",
      "url": "MeasureReport/b7e7e923-ae6c-4825-9892-20b282957ed0"
    }
  } ]
}