{
  "resourceType": "Bundle",
  "id": "646461684986856546863",
  "type": "transaction",
  "entry": [ {
    "fullUrl": "https://madie.cms.gov/Patient/b472b9b5-419f-4e40-81c7-2086b4b3962d",
    "resource": {
      "resourceType": "Patient",
      "id": "b472b9b5-419f-4e40-81c7-2086b4b3962d",
      "meta": {
        "profile": [ "http://hl7.org/fhir/us/qicore/StructureDefinition/qicore-patient" ]
      },
      "extension": [ {
        "url": "http://hl7.org/fhir/us/core/StructureDefinition/us-core-race",
        "extension": [ {
          "url": "ombCategory",
          "valueCoding": {
            "system": "urn:oid:2.16.840.1.113883.6.238",
            "code": "1002-5",
            "display": "American Indian or Alaska Native"
          }
        }, {
          "url": "text",
          "valueString": "American Indian or Alaska Native"
        } ]
      }, {
        "url": "http://hl7.org/fhir/us/core/StructureDefinition/us-core-ethnicity",
        "extension": [ {
          "url": "ombCategory",
          "valueCoding": {
            "system": "urn:oid:2.16.840.1.113883.6.238",
            "code": "2186-5",
            "display": "Not Hispanic or Latino"
          }
        }, {
          "url": "text",
          "valueString": "Not Hispanic or Latino"
        } ]
      } ],
      "identifier": [ {
        "type": {
          "coding": [ {
            "system": "http://terminology.hl7.org/CodeSystem/v2-0203",
            "code": "MR"
          } ]
        },
        "system": "https://bonnie-fhir.healthit.gov/",
        "value": "62d99a52aa9f5c6ec34ff3c2"
      } ],
      "active": true,
      "name": [ {
        "use": "usual",
        "family": "DENEXCEPPop1Fail",
        "given": [ "AtrioBlockCardiacPacerPx" ]
      } ],
      "gender": "female",
      "birthDate": "1983-06-28"
    },
    "request": {
      "method": "PUT",
      "url": "Patient/b472b9b5-419f-4e40-81c7-2086b4b3962d"
    }
  }, {
    "fullUrl": "https://madie.cms.gov/Encounter/268197e9-97ec-4323-b4e4-e42109df2d18",
    "resource": {
      "resourceType": "Encounter",
      "id": "268197e9-97ec-4323-b4e4-e42109df2d18",
      "meta": {
        "profile": [ "http://hl7.org/fhir/us/qicore/StructureDefinition/qicore-encounter" ]
      },
      "status": "finished",
      "class": {
        "system": "http://terminology.hl7.org/CodeSystem/v3-ActCode",
        "code": "AMB",
        "display": "ambulatory encounter"
      },
      "type": [ {
        "coding": [ {
          "system": "http://www.ama-assn.org/go/cpt",
          "version": "2024",
          "code": "99205"
        } ]
      } ],
      "subject": {
        "reference": "Patient/b472b9b5-419f-4e40-81c7-2086b4b3962d"
      },
      "period": {
        "start": "2026-01-23T11:00:00.000+00:00",
        "end": "2026-01-23T11:15:00.000+00:00"
      }
    },
    "request": {
      "method": "PUT",
      "url": "Encounter/268197e9-97ec-4323-b4e4-e42109df2d18"
    }
  }, {
    "fullUrl": "https://madie.cms.gov/Encounter/67bac25b-2127-47ad-998f-d40113a9745c",
    "resource": {
      "resourceType": "Encounter",
      "id": "67bac25b-2127-47ad-998f-d40113a9745c",
      "meta": {
        "profile": [ "http://hl7.org/fhir/us/qicore/StructureDefinition/qicore-encounter" ]
      },
      "status": "finished",
      "class": {
        "system": "http://terminology.hl7.org/CodeSystem/v3-ActCode",
        "code": "AMB",
        "display": "ambulatory encounter"
      },
      "type": [ {
        "coding": [ {
          "system": "http://snomed.info/sct",
          "version": "http://snomed.info/sct/731000124108/version/20230901",
          "code": "185320006",
          "display": "Encounter by computer link (procedure)"
        } ]
      } ],
      "subject": {
        "reference": "Patient/b472b9b5-419f-4e40-81c7-2086b4b3962d"
      },
      "period": {
        "start": "2026-02-25T13:15:00.000+00:00",
        "end": "2026-02-25T14:15:00.000+00:00"
      }
    },
    "request": {
      "method": "PUT",
      "url": "Encounter/67bac25b-2127-47ad-998f-d40113a9745c"
    }
  }, {
    "fullUrl": "https://madie.cms.gov/Condition/f7bc21a3-9079-4ac5-9b01-96f5355b751a",
    "resource": {
      "resourceType": "Condition",
      "id": "f7bc21a3-9079-4ac5-9b01-96f5355b751a",
      "meta": {
        "profile": [ "http://hl7.org/fhir/us/qicore/StructureDefinition/qicore-condition-problems-health-concerns" ]
      },
      "clinicalStatus": {
        "coding": [ {
          "system": "http://terminology.hl7.org/CodeSystem/condition-clinical",
          "code": "active",
          "display": "Active"
        } ]
      },
      "verificationStatus": {
        "coding": [ {
          "system": "http://terminology.hl7.org/CodeSystem/condition-ver-status",
          "code": "confirmed",
          "display": "Confirmed"
        } ]
      },
      "category": [ {
        "coding": [ {
          "system": "http://terminology.hl7.org/CodeSystem/condition-category",
          "code": "problem-list-item",
          "display": "Problem List Item"
        } ]
      } ],
      "code": {
        "coding": [ {
          "system": "http://hl7.org/fhir/sid/icd-10-cm",
          "version": "2024",
          "code": "I44.1"
        } ]
      },
      "subject": {
        "reference": "Patient/b472b9b5-419f-4e40-81c7-2086b4b3962d"
      },
      "onsetPeriod": {
        "start": "2026-01-24T15:00:00.000+00:00"
      }
    },
    "request": {
      "method": "PUT",
      "url": "Condition/f7bc21a3-9079-4ac5-9b01-96f5355b751a"
    }
  }, {
    "fullUrl": "https://madie.cms.gov/Observation/ccf2c0c9-2049-4ff8-af51-ebbf250f6277",
    "resource": {
      "resourceType": "Observation",
      "id": "ccf2c0c9-2049-4ff8-af51-ebbf250f6277",
      "meta": {
        "profile": [ "http://hl7.org/fhir/StructureDefinition/heartrate" ]
      },
      "status": "final",
      "category": [ {
        "coding": [ {
          "system": "http://terminology.hl7.org/CodeSystem/observation-category",
          "code": "vital-signs",
          "display": "Vital Signs"
        } ]
      } ],
      "code": {
        "coding": [ {
          "system": "http://loinc.org",
          "version": "2.76",
          "code": "8867-4"
        } ]
      },
      "subject": {
        "reference": "Patient/b472b9b5-419f-4e40-81c7-2086b4b3962d"
      },
      "effectiveDateTime": "2026-02-25T13:15:00.000+00:00",
      "valueQuantity": {
        "value": 25,
        "unit": "/min",
        "system": "http://unitsofmeasure.org",
        "code": "/min"
      }
    },
    "request": {
      "method": "PUT",
      "url": "Observation/ccf2c0c9-2049-4ff8-af51-ebbf250f6277"
    }
  }, {
    "fullUrl": "https://madie.cms.gov/Observation/c445c543-fda6-43a6-a273-84e9be8f964d",
    "resource": {
      "resourceType": "Observation",
      "id": "c445c543-fda6-43a6-a273-84e9be8f964d",
      "meta": {
        "profile": [ "http://hl7.org/fhir/StructureDefinition/heartrate" ]
      },
      "status": "final",
      "category": [ {
        "coding": [ {
          "system": "http://terminology.hl7.org/CodeSystem/observation-category",
          "code": "vital-signs",
          "display": "Vital Signs"
        } ]
      } ],
      "code": {
        "coding": [ {
          "system": "http://loinc.org",
          "version": "2.76",
          "code": "8867-4"
        } ]
      },
      "subject": {
        "reference": "Patient/b472b9b5-419f-4e40-81c7-2086b4b3962d"
      },
      "effectiveDateTime": "2026-02-25T18:15:00.000+00:00",
      "valueQuantity": {
        "value": 20,
        "unit": "/min",
        "system": "http://unitsofmeasure.org",
        "code": "/min"
      }
    },
    "request": {
      "method": "PUT",
      "url": "Observation/c445c543-fda6-43a6-a273-84e9be8f964d"
    }
  }, {
    "fullUrl": "https://madie.cms.gov/Condition/256487c0-5e8c-4ef5-ad7b-bd4e360ff56b",
    "resource": {
      "resourceType": "Condition",
      "id": "256487c0-5e8c-4ef5-ad7b-bd4e360ff56b",
      "meta": {
        "profile": [ "http://hl7.org/fhir/us/qicore/StructureDefinition/qicore-condition-problems-health-concerns" ]
      },
      "clinicalStatus": {
        "coding": [ {
          "system": "http://terminology.hl7.org/CodeSystem/condition-clinical",
          "code": "active",
          "display": "Active"
        } ]
      },
      "verificationStatus": {
        "coding": [ {
          "system": "http://terminology.hl7.org/CodeSystem/condition-ver-status",
          "code": "confirmed",
          "display": "Confirmed"
        } ]
      },
      "category": [ {
        "coding": [ {
          "system": "http://terminology.hl7.org/CodeSystem/condition-category",
          "code": "problem-list-item",
          "display": "Problem List Item"
        } ]
      } ],
      "code": {
        "coding": [ {
          "system": "http://snomed.info/sct",
          "version": "http://snomed.info/sct/731000124108/version/20240301",
          "code": "981000124106",
          "display": "Moderate left ventricular systolic dysfunction (disorder)"
        } ]
      },
      "subject": {
        "reference": "Patient/b472b9b5-419f-4e40-81c7-2086b4b3962d"
      },
      "onsetPeriod": {
        "start": "2026-01-05T17:00:00.000+00:00",
        "end": "2026-02-02T17:00:00.000+00:00"
      }
    },
    "request": {
      "method": "PUT",
      "url": "Condition/256487c0-5e8c-4ef5-ad7b-bd4e360ff56b"
    }
  }, {
    "fullUrl": "https://madie.cms.gov/Condition/fba3c7f3-c96b-46a5-a713-9010861034e0",
    "resource": {
      "resourceType": "Condition",
      "id": "fba3c7f3-c96b-46a5-a713-9010861034e0",
      "meta": {
        "profile": [ "http://hl7.org/fhir/us/qicore/StructureDefinition/qicore-condition-problems-health-concerns" ]
      },
      "clinicalStatus": {
        "coding": [ {
          "system": "http://terminology.hl7.org/CodeSystem/condition-clinical",
          "code": "active",
          "display": "Active"
        } ]
      },
      "verificationStatus": {
        "coding": [ {
          "system": "http://terminology.hl7.org/CodeSystem/condition-ver-status",
          "code": "confirmed",
          "display": "Confirmed"
        } ]
      },
      "category": [ {
        "coding": [ {
          "system": "http://terminology.hl7.org/CodeSystem/condition-category",
          "code": "problem-list-item",
          "display": "Problem List Item"
        } ]
      } ],
      "code": {
        "coding": [ {
          "system": "http://snomed.info/sct",
          "version": "http://snomed.info/sct/731000124108/version/20240301",
          "code": "10365005",
          "display": "Right main coronary artery thrombosis (disorder)"
        } ]
      },
      "subject": {
        "reference": "Patient/b472b9b5-419f-4e40-81c7-2086b4b3962d"
      },
      "onsetDateTime": "2026-01-23T11:00:00.000+00:00"
    },
    "request": {
      "method": "PUT",
      "url": "Condition/fba3c7f3-c96b-46a5-a713-9010861034e0"
    }
  }, {
    "fullUrl": "https://madie.cms.gov/Procedure/3f7a950a-a9cc-47c7-a1b4-ed6d3ab55230",
    "resource": {
      "resourceType": "Procedure",
      "id": "3f7a950a-a9cc-47c7-a1b4-ed6d3ab55230",
      "meta": {
        "profile": [ "http://hl7.org/fhir/us/qicore/StructureDefinition/qicore-procedure" ]
      },
      "extension": [ {
        "url": "http://hl7.org/fhir/us/qicore/StructureDefinition/qicore-recorded",
        "valueDateTime": "2026-01-22T08:00:00.000+00:00"
      } ],
      "status": "completed",
      "code": {
        "coding": [ {
          "system": "http://snomed.info/sct",
          "version": "http://snomed.info/sct/731000124108/version/20240301",
          "code": "1231779006",
          "display": "Implantation of leadless cardiac pacemaker (procedure)"
        } ]
      },
      "subject": {
        "reference": "Patient/b472b9b5-419f-4e40-81c7-2086b4b3962d"
      },
      "performedPeriod": {
        "start": "2026-01-22T08:00:00.000+00:00",
        "end": "2026-01-22T08:30:00.000+00:00"
      }
    },
    "request": {
      "method": "PUT",
      "url": "Procedure/3f7a950a-a9cc-47c7-a1b4-ed6d3ab55230"
    }
  }, {
    "fullUrl": "https://madie.cms.gov/MeasureReport/1d0d1ad3-1247-4270-b716-ae69ac1d8f79",
    "resource": {
      "resourceType": "MeasureReport",
      "id": "1d0d1ad3-1247-4270-b716-ae69ac1d8f79",
      "meta": {
        "profile": [ "http://hl7.org/fhir/us/cqfmeasures/StructureDefinition/test-case-cqfm" ]
      },
      "contained": [ {
        "resourceType": "Parameters",
        "id": "8fa8ce3a-9eda-47f7-92b6-228888101100-parameters",
        "parameter": [ {
          "name": "subject",
          "valueString": "b472b9b5-419f-4e40-81c7-2086b4b3962d"
        } ]
      } ],
      "extension": [ {
        "url": "http://hl7.org/fhir/StructureDefinition/cqf-inputParameters",
        "valueReference": {
          "reference": "#8fa8ce3a-9eda-47f7-92b6-228888101100-parameters"
        }
      }, {
        "url": "http://hl7.org/fhir/us/cqfmeasures/StructureDefinition/cqfm-testCaseDescription",
        "valueMarkdown": "Pt > 18, 2 visits in MP, AV block onset after 1st visit b4 2nd visit, pulse of 25 bpm during 2nd visit, a pulse of 20 bpm after 2nd visit, moderate LVSD onset b4 1st visit, CAD Dx onset during 2nd visit, and Cardiac Pacer Px during MP b4 1st visit"
      } ],
      "modifierExtension": [ {
        "url": "http://hl7.org/fhir/us/cqfmeasures/StructureDefinition/cqfm-isTestCase",
        "valueBoolean": true
      } ],
      "status": "complete",
      "type": "individual",
      "measure": "https://madie.cms.gov/Measure/CMS145FHIRCADBetaBlockerTherapyPriorMIorLVSD",
      "period": {
        "start": "2026-01-01",
        "end": "2026-12-31"
      },
      "group": [ {
        "id": "Group_1",
        "population": [ {
          "id": "InitialPopulation_1",
          "code": {
            "coding": [ {
              "system": "http://terminology.hl7.org/CodeSystem/measure-population",
              "code": "initial-population",
              "display": "Initial Population"
            } ]
          },
          "count": 1
        }, {
          "id": "Denominator_1",
          "code": {
            "coding": [ {
              "system": "http://terminology.hl7.org/CodeSystem/measure-population",
              "code": "denominator",
              "display": "Denominator"
            } ]
          },
          "count": 1
        }, {
          "id": "Numerator_1",
          "code": {
            "coding": [ {
              "system": "http://terminology.hl7.org/CodeSystem/measure-population",
              "code": "numerator",
              "display": "Numerator"
            } ]
          },
          "count": 0
        }, {
          "id": "DenominatorException_1",
          "code": {
            "coding": [ {
              "system": "http://terminology.hl7.org/CodeSystem/measure-population",
              "code": "denominator-exception",
              "display": "Denominator Exception"
            } ]
          },
          "count": 0
        } ],
        "measureScore": {
          "value": 1.0
        }
      }, {
        "id": "Group_2",
        "population": [ {
          "id": "InitialPopulation_2",
          "code": {
            "coding": [ {
              "system": "http://terminology.hl7.org/CodeSystem/measure-population",
              "code": "initial-population",
              "display": "Initial Population"
            } ]
          },
          "count": 1
        }, {
          "id": "Denominator_2",
          "code": {
            "coding": [ {
              "system": "http://terminology.hl7.org/CodeSystem/measure-population",
              "code": "denominator",
              "display": "Denominator"
            } ]
          },
          "count": 0
        }, {
          "id": "Numerator_2",
          "code": {
            "coding": [ {
              "system": "http://terminology.hl7.org/CodeSystem/measure-population",
              "code": "numerator",
              "display": "Numerator"
            } ]
          },
          "count": 0
        }, {
          "id": "DenominatorException_2",
          "code": {
            "coding": [ {
              "system": "http://terminology.hl7.org/CodeSystem/measure-population",
              "code": "denominator-exception",
              "display": "Denominator Exception"
            } ]
          },
          "count": 0
        } ],
        "measureScore": {
          "value": 1.0
        }
      } ],
      "evaluatedResource": [ {
        "reference": "Patient/b472b9b5-419f-4e40-81c7-2086b4b3962d"
      }, {
        "reference": "Encounter/268197e9-97ec-4323-b4e4-e42109df2d18"
      }, {
        "reference": "Encounter/67bac25b-2127-47ad-998f-d40113a9745c"
      }, {
        "reference": "Condition/f7bc21a3-9079-4ac5-9b01-96f5355b751a"
      }, {
        "reference": "Observation/ccf2c0c9-2049-4ff8-af51-ebbf250f6277"
      }, {
        "reference": "Observation/c445c543-fda6-43a6-a273-84e9be8f964d"
      }, {
        "reference": "Condition/256487c0-5e8c-4ef5-ad7b-bd4e360ff56b"
      }, {
        "reference": "Condition/fba3c7f3-c96b-46a5-a713-9010861034e0"
      }, {
        "reference": "Procedure/3f7a950a-a9cc-47c7-a1b4-ed6d3ab55230"
      } ]
    },
    "request": {
      "method": "PUT",
      "url": "MeasureReport/1d0d1ad3-1247-4270-b716-ae69ac1d8f79"
    }
  } ]
}