{
  "resourceType": "Bundle",
  "id": "654113513131034154613",
  "type": "transaction",
  "entry": [ {
    "fullUrl": "https://madie.cms.gov/Patient/79e4e453-f52d-41a1-a86b-4229a89733c4",
    "resource": {
      "resourceType": "Patient",
      "id": "79e4e453-f52d-41a1-a86b-4229a89733c4",
      "meta": {
        "profile": [ "http://hl7.org/fhir/us/qicore/StructureDefinition/qicore-patient" ]
      },
      "extension": [ {
        "url": "http://hl7.org/fhir/us/core/StructureDefinition/us-core-race",
        "extension": [ {
          "url": "ombCategory",
          "valueCoding": {
            "system": "urn:oid:2.16.840.1.113883.6.238",
            "code": "1002-5",
            "display": "American Indian or Alaska Native"
          }
        }, {
          "url": "text",
          "valueString": "American Indian or Alaska Native"
        } ]
      }, {
        "url": "http://hl7.org/fhir/us/core/StructureDefinition/us-core-ethnicity",
        "extension": [ {
          "url": "ombCategory",
          "valueCoding": {
            "system": "urn:oid:2.16.840.1.113883.6.238",
            "code": "2186-5",
            "display": "Not Hispanic or Latino"
          }
        }, {
          "url": "text",
          "valueString": "Not Hispanic or Latino"
        } ]
      } ],
      "identifier": [ {
        "type": {
          "coding": [ {
            "system": "http://terminology.hl7.org/CodeSystem/v2-0203",
            "code": "MR"
          } ]
        },
        "system": "https://bonnie-fhir.healthit.gov/",
        "value": "684613146846131"
      } ],
      "active": true,
      "name": [ {
        "use": "usual",
        "family": "DENOMPop1Pass",
        "given": [ "LVSD" ]
      } ],
      "gender": "female",
      "birthDate": "1958-11-01"
    },
    "request": {
      "method": "PUT",
      "url": "Patient/79e4e453-f52d-41a1-a86b-4229a89733c4"
    }
  }, {
    "fullUrl": "https://madie.cms.gov/Encounter/cdb50400-8507-4199-992e-84d1e870a87d",
    "resource": {
      "resourceType": "Encounter",
      "id": "cdb50400-8507-4199-992e-84d1e870a87d",
      "meta": {
        "profile": [ "http://hl7.org/fhir/us/qicore/StructureDefinition/qicore-encounter" ]
      },
      "status": "finished",
      "class": {
        "system": "http://terminology.hl7.org/CodeSystem/v3-ActCode",
        "code": "AMB",
        "display": "ambulatory"
      },
      "type": [ {
        "coding": [ {
          "system": "http://www.ama-assn.org/go/cpt",
          "version": "2024",
          "code": "99202",
          "display": "Office or other outpatient visit for the evaluation and management of a new patient, which requires a medically appropriate history and/or examination and straightforward medical decision making. When using time for code selection, 15-29 minutes of total time is spent on the date of the encounter."
        } ]
      } ],
      "subject": {
        "reference": "Patient/79e4e453-f52d-41a1-a86b-4229a89733c4"
      },
      "period": {
        "start": "2026-01-22T11:30:00.000+00:00",
        "end": "2026-01-22T12:30:00.000+00:00"
      },
      "length": {
        "value": 0,
        "unit": "days"
      }
    },
    "request": {
      "method": "PUT",
      "url": "Encounter/cdb50400-8507-4199-992e-84d1e870a87d"
    }
  }, {
    "fullUrl": "https://madie.cms.gov/Encounter/7e148e7c-5898-4c5c-98f0-08656fc0f0d3",
    "resource": {
      "resourceType": "Encounter",
      "id": "7e148e7c-5898-4c5c-98f0-08656fc0f0d3",
      "meta": {
        "profile": [ "http://hl7.org/fhir/us/qicore/StructureDefinition/qicore-encounter" ]
      },
      "status": "finished",
      "class": {
        "system": "http://terminology.hl7.org/CodeSystem/v3-ActCode",
        "code": "AMB",
        "display": "ambulatory"
      },
      "type": [ {
        "coding": [ {
          "system": "http://www.ama-assn.org/go/cpt",
          "version": "2024",
          "code": "99212",
          "display": "Office or other outpatient visit for the evaluation and management of an established patient, which requires a medically appropriate history and/or examination and straightforward medical decision making. When using time for code selection, 10-19 minutes of total time is spent on the date of the encounter."
        } ]
      } ],
      "subject": {
        "reference": "Patient/79e4e453-f52d-41a1-a86b-4229a89733c4"
      },
      "period": {
        "start": "2026-11-22T07:30:00.000+00:00",
        "end": "2026-11-22T08:30:00.000+00:00"
      },
      "length": {
        "value": 0,
        "unit": "days"
      }
    },
    "request": {
      "method": "PUT",
      "url": "Encounter/7e148e7c-5898-4c5c-98f0-08656fc0f0d3"
    }
  }, {
    "fullUrl": "https://madie.cms.gov/Condition/8b2e7b25-585a-4bca-a553-639b4607cbd5",
    "resource": {
      "resourceType": "Condition",
      "id": "8b2e7b25-585a-4bca-a553-639b4607cbd5",
      "meta": {
        "profile": [ "http://hl7.org/fhir/us/qicore/StructureDefinition/qicore-condition-problems-health-concerns" ]
      },
      "clinicalStatus": {
        "coding": [ {
          "system": "http://terminology.hl7.org/CodeSystem/condition-clinical",
          "code": "active",
          "display": "Active"
        } ]
      },
      "verificationStatus": {
        "coding": [ {
          "system": "http://terminology.hl7.org/CodeSystem/condition-ver-status",
          "code": "confirmed",
          "display": "Confirmed"
        } ]
      },
      "category": [ {
        "coding": [ {
          "system": "http://terminology.hl7.org/CodeSystem/condition-category",
          "code": "problem-list-item",
          "display": "Problem List Item"
        } ]
      } ],
      "severity": {
        "coding": [ {
          "system": "http://snomed.info/sct",
          "version": "http://snomed.info/sct/731000124108/version/20240301",
          "code": "24484000",
          "display": "Severe (severity modifier) (qualifier value)"
        } ]
      },
      "code": {
        "coding": [ {
          "system": "http://snomed.info/sct",
          "version": "http://snomed.info/sct/731000124108/version/20240301",
          "code": "134401001"
        } ]
      },
      "subject": {
        "reference": "Patient/79e4e453-f52d-41a1-a86b-4229a89733c4"
      },
      "onsetPeriod": {
        "start": "2026-01-22T11:30:00.000+00:00",
        "end": "2026-01-22T11:30:00.000+00:00"
      }
    },
    "request": {
      "method": "PUT",
      "url": "Condition/8b2e7b25-585a-4bca-a553-639b4607cbd5"
    }
  }, {
    "fullUrl": "https://madie.cms.gov/Condition/b0fb52d0-1d8d-45ec-87e4-8d974e1aa347",
    "resource": {
      "resourceType": "Condition",
      "id": "b0fb52d0-1d8d-45ec-87e4-8d974e1aa347",
      "meta": {
        "profile": [ "http://hl7.org/fhir/us/qicore/StructureDefinition/qicore-condition-problems-health-concerns" ]
      },
      "clinicalStatus": {
        "coding": [ {
          "system": "http://terminology.hl7.org/CodeSystem/condition-clinical",
          "code": "active",
          "display": "Active"
        } ]
      },
      "verificationStatus": {
        "coding": [ {
          "system": "http://terminology.hl7.org/CodeSystem/condition-ver-status",
          "code": "confirmed",
          "display": "Confirmed"
        } ]
      },
      "category": [ {
        "coding": [ {
          "system": "http://terminology.hl7.org/CodeSystem/condition-category",
          "code": "problem-list-item",
          "display": "Problem List Item"
        } ]
      } ],
      "code": {
        "coding": [ {
          "system": "http://snomed.info/sct",
          "version": "http://snomed.info/sct/731000124108/version/20240301",
          "code": "10365005",
          "display": "Right main coronary artery thrombosis (disorder)"
        } ]
      },
      "subject": {
        "reference": "Patient/79e4e453-f52d-41a1-a86b-4229a89733c4"
      },
      "onsetPeriod": {
        "start": "2026-01-21T07:00:00.000+00:00"
      }
    },
    "request": {
      "method": "PUT",
      "url": "Condition/b0fb52d0-1d8d-45ec-87e4-8d974e1aa347"
    }
  }, {
    "fullUrl": "https://madie.cms.gov/Condition/226f7b7f-1a68-4d34-911e-01f0d21781df",
    "resource": {
      "resourceType": "Condition",
      "id": "226f7b7f-1a68-4d34-911e-01f0d21781df",
      "meta": {
        "profile": [ "http://hl7.org/fhir/us/qicore/StructureDefinition/qicore-condition-problems-health-concerns" ]
      },
      "clinicalStatus": {
        "coding": [ {
          "system": "http://terminology.hl7.org/CodeSystem/condition-clinical",
          "code": "active",
          "display": "Active"
        } ]
      },
      "category": [ {
        "coding": [ {
          "system": "http://terminology.hl7.org/CodeSystem/condition-category",
          "code": "problem-list-item",
          "display": "Problem List Item"
        } ]
      } ],
      "code": {
        "coding": [ {
          "system": "http://snomed.info/sct",
          "version": "http://snomed.info/sct/731000124108/version/20240301",
          "code": "981000124106",
          "display": "Moderate left ventricular systolic dysfunction (disorder)"
        } ]
      },
      "subject": {
        "reference": "Patient/79e4e453-f52d-41a1-a86b-4229a89733c4"
      },
      "onsetPeriod": {
        "start": "2026-01-22T11:30:00.000+00:00",
        "end": "2026-01-22T11:30:00.000+00:00"
      }
    },
    "request": {
      "method": "PUT",
      "url": "Condition/226f7b7f-1a68-4d34-911e-01f0d21781df"
    }
  }, {
    "fullUrl": "https://madie.cms.gov/MeasureReport/2b80ebee-8104-401b-a251-bd73157c4928",
    "resource": {
      "resourceType": "MeasureReport",
      "id": "2b80ebee-8104-401b-a251-bd73157c4928",
      "meta": {
        "profile": [ "http://hl7.org/fhir/us/cqfmeasures/StructureDefinition/test-case-cqfm" ]
      },
      "contained": [ {
        "resourceType": "Parameters",
        "id": "af3fdbc3-83ee-478c-936e-43498034927f-parameters",
        "parameter": [ {
          "name": "subject",
          "valueString": "79e4e453-f52d-41a1-a86b-4229a89733c4"
        } ]
      } ],
      "extension": [ {
        "url": "http://hl7.org/fhir/StructureDefinition/cqf-inputParameters",
        "valueReference": {
          "reference": "#af3fdbc3-83ee-478c-936e-43498034927f-parameters"
        }
      }, {
        "url": "http://hl7.org/fhir/us/cqfmeasures/StructureDefinition/cqfm-testCaseDescription",
        "valueMarkdown": "Pt > 18, two ambulatory visits during MP, a CAD Dx with onset before first visit, and onset of moderate LVSD Dx'd during first visit"
      } ],
      "modifierExtension": [ {
        "url": "http://hl7.org/fhir/us/cqfmeasures/StructureDefinition/cqfm-isTestCase",
        "valueBoolean": true
      } ],
      "status": "complete",
      "type": "individual",
      "measure": "https://madie.cms.gov/Measure/CMS145FHIRCADBetaBlockerTherapyPriorMIorLVSD",
      "period": {
        "start": "2026-01-01",
        "end": "2026-12-31"
      },
      "group": [ {
        "id": "Group_1",
        "population": [ {
          "id": "InitialPopulation_1",
          "code": {
            "coding": [ {
              "system": "http://terminology.hl7.org/CodeSystem/measure-population",
              "code": "initial-population",
              "display": "Initial Population"
            } ]
          },
          "count": 1
        }, {
          "id": "Denominator_1",
          "code": {
            "coding": [ {
              "system": "http://terminology.hl7.org/CodeSystem/measure-population",
              "code": "denominator",
              "display": "Denominator"
            } ]
          },
          "count": 1
        }, {
          "id": "Numerator_1",
          "code": {
            "coding": [ {
              "system": "http://terminology.hl7.org/CodeSystem/measure-population",
              "code": "numerator",
              "display": "Numerator"
            } ]
          },
          "count": 0
        }, {
          "id": "DenominatorException_1",
          "code": {
            "coding": [ {
              "system": "http://terminology.hl7.org/CodeSystem/measure-population",
              "code": "denominator-exception",
              "display": "Denominator Exception"
            } ]
          },
          "count": 0
        } ],
        "measureScore": {
          "value": 1.0
        }
      }, {
        "id": "Group_2",
        "population": [ {
          "id": "InitialPopulation_2",
          "code": {
            "coding": [ {
              "system": "http://terminology.hl7.org/CodeSystem/measure-population",
              "code": "initial-population",
              "display": "Initial Population"
            } ]
          },
          "count": 1
        }, {
          "id": "Denominator_2",
          "code": {
            "coding": [ {
              "system": "http://terminology.hl7.org/CodeSystem/measure-population",
              "code": "denominator",
              "display": "Denominator"
            } ]
          },
          "count": 0
        }, {
          "id": "Numerator_2",
          "code": {
            "coding": [ {
              "system": "http://terminology.hl7.org/CodeSystem/measure-population",
              "code": "numerator",
              "display": "Numerator"
            } ]
          },
          "count": 0
        }, {
          "id": "DenominatorException_2",
          "code": {
            "coding": [ {
              "system": "http://terminology.hl7.org/CodeSystem/measure-population",
              "code": "denominator-exception",
              "display": "Denominator Exception"
            } ]
          },
          "count": 0
        } ],
        "measureScore": {
          "value": 1.0
        }
      } ],
      "evaluatedResource": [ {
        "reference": "Patient/79e4e453-f52d-41a1-a86b-4229a89733c4"
      }, {
        "reference": "Encounter/cdb50400-8507-4199-992e-84d1e870a87d"
      }, {
        "reference": "Encounter/7e148e7c-5898-4c5c-98f0-08656fc0f0d3"
      }, {
        "reference": "Condition/8b2e7b25-585a-4bca-a553-639b4607cbd5"
      }, {
        "reference": "Condition/b0fb52d0-1d8d-45ec-87e4-8d974e1aa347"
      }, {
        "reference": "Condition/226f7b7f-1a68-4d34-911e-01f0d21781df"
      } ]
    },
    "request": {
      "method": "PUT",
      "url": "MeasureReport/2b80ebee-8104-401b-a251-bd73157c4928"
    }
  } ]
}