{"resourceType":"Bundle","id":"tests-6919fd23-aa69-4a1a-a07e-4752cdc53f46-bundle","type":"transaction","entry":[{"resource":{"resourceType":"MeasureReport","id":"c7049016-6cdd-4841-9bdf-a27651844940","meta":{"profile":["http://hl7.org/fhir/us/cqfmeasures/StructureDefinition/test-case-cqfm"]},"contained":[{"resourceType":"Parameters","id":"0d06e79a-21cb-49f0-9107-cf320fe18538-parameters","parameter":[{"name":"subject","valueString":"6919fd23-aa69-4a1a-a07e-4752cdc53f46"}]}],"extension":[{"url":"http://hl7.org/fhir/StructureDefinition/cqf-inputParameters","valueReference":{"reference":"#0d06e79a-21cb-49f0-9107-cf320fe18538-parameters"}},{"url":"http://hl7.org/fhir/us/cqfmeasures/StructureDefinition/cqfm-testCaseDescription","valueMarkdown":"Pt > 18, 2 amb. visits during MP, an MI and a CAD Dx (both with onset during 1st visit), and a Bradycardia Dx with onset during 1st visit"}],"modifierExtension":[{"url":"http://hl7.org/fhir/us/cqfmeasures/StructureDefinition/cqfm-isTestCase","valueBoolean":true}],"status":"complete","type":"individual","measure":"https://madie.cms.gov/Measure/CMS145FHIRCADBetaBlockerTherapyPriorMIorLVSD","period":{"start":"2026-01-01","end":"2026-12-31"},"group":[{"id":"Group_1","population":[{"id":"InitialPopulation_1","code":{"coding":[{"system":"http://terminology.hl7.org/CodeSystem/measure-population","code":"initial-population","display":"Initial Population"}]},"count":1},{"id":"Denominator_1","code":{"coding":[{"system":"http://terminology.hl7.org/CodeSystem/measure-population","code":"denominator","display":"Denominator"}]},"count":0},{"id":"Numerator_1","code":{"coding":[{"system":"http://terminology.hl7.org/CodeSystem/measure-population","code":"numerator","display":"Numerator"}]},"count":0},{"id":"DenominatorException_1","code":{"coding":[{"system":"http://terminology.hl7.org/CodeSystem/measure-population","code":"denominator-exception","display":"Denominator Exception"}]},"count":0}],"measureScore":{"value":1.0}},{"id":"Group_2","population":[{"id":"InitialPopulation_2","code":{"coding":[{"system":"http://terminology.hl7.org/CodeSystem/measure-population","code":"initial-population","display":"Initial Population"}]},"count":1},{"id":"Denominator_2","code":{"coding":[{"system":"http://terminology.hl7.org/CodeSystem/measure-population","code":"denominator","display":"Denominator"}]},"count":1},{"id":"Numerator_2","code":{"coding":[{"system":"http://terminology.hl7.org/CodeSystem/measure-population","code":"numerator","display":"Numerator"}]},"count":0},{"id":"DenominatorException_2","code":{"coding":[{"system":"http://terminology.hl7.org/CodeSystem/measure-population","code":"denominator-exception","display":"Denominator Exception"}]},"count":1}],"measureScore":{"value":1.0}}],"evaluatedResource":[{"reference":"Patient/6919fd23-aa69-4a1a-a07e-4752cdc53f46"},{"reference":"Encounter/838ba568-aee5-44c5-a1c2-ee58241794f4"},{"reference":"Encounter/4a1f0c66-77a9-4603-bee0-2318a67024c0"},{"reference":"Condition/e0d9b1fd-0eb2-4a74-842a-a32283c48664"},{"reference":"Condition/111273ec-e176-4e43-aa65-29d40e98d788"},{"reference":"Condition/762b8ce3-23ca-423e-81bf-b5242e9ccfaa"}]},"request":{"method":"PUT","url":"MeasureReport/c7049016-6cdd-4841-9bdf-a27651844940"}},{"resource":{"resourceType":"Condition","id":"762b8ce3-23ca-423e-81bf-b5242e9ccfaa","meta":{"profile":["http://hl7.org/fhir/us/qicore/StructureDefinition/qicore-condition-problems-health-concerns"]},"clinicalStatus":{"coding":[{"system":"http://terminology.hl7.org/CodeSystem/condition-clinical","code":"active","display":"Active"}]},"verificationStatus":{"coding":[{"system":"http://terminology.hl7.org/CodeSystem/condition-ver-status","code":"confirmed","display":"Confirmed"}]},"category":[{"coding":[{"system":"http://terminology.hl7.org/CodeSystem/condition-category","code":"problem-list-item","display":"Problem List Item"}]}],"code":{"coding":[{"system":"http://snomed.info/sct","version":"http://snomed.info/sct/731000124108/version/20240301","code":"29894000"}]},"subject":{"reference":"Patient/6919fd23-aa69-4a1a-a07e-4752cdc53f46"},"onsetDateTime":"2026-04-05T06:00:00.000+00:00"},"request":{"method":"PUT","url":"Condition/762b8ce3-23ca-423e-81bf-b5242e9ccfaa"}},{"resource":{"resourceType":"Condition","id":"111273ec-e176-4e43-aa65-29d40e98d788","meta":{"profile":["http://hl7.org/fhir/us/qicore/StructureDefinition/qicore-condition-problems-health-concerns"]},"clinicalStatus":{"coding":[{"system":"http://terminology.hl7.org/CodeSystem/condition-clinical","code":"active","display":"Active"}]},"verificationStatus":{"coding":[{"system":"http://terminology.hl7.org/CodeSystem/condition-ver-status","code":"confirmed","display":"Confirmed"}]},"category":[{"coding":[{"system":"http://terminology.hl7.org/CodeSystem/condition-category","code":"problem-list-item","display":"Problem List Item"}]}],"code":{"coding":[{"system":"http://snomed.info/sct","version":"http://snomed.info/sct/731000124108/version/20240301","code":"10365005","display":"Right main coronary artery thrombosis (disorder)"}]},"subject":{"reference":"Patient/6919fd23-aa69-4a1a-a07e-4752cdc53f46"},"onsetPeriod":{"start":"2026-04-05T06:00:00.000+00:00"}},"request":{"method":"PUT","url":"Condition/111273ec-e176-4e43-aa65-29d40e98d788"}},{"resource":{"resourceType":"Encounter","id":"838ba568-aee5-44c5-a1c2-ee58241794f4","meta":{"profile":["http://hl7.org/fhir/us/qicore/StructureDefinition/qicore-encounter"]},"status":"finished","class":{"system":"http://terminology.hl7.org/CodeSystem/v3-ActCode","code":"AMB","display":"ambulatory encounter"},"type":[{"coding":[{"system":"http://www.ama-assn.org/go/cpt","version":"2024","code":"99205"}]}],"subject":{"reference":"Patient/6919fd23-aa69-4a1a-a07e-4752cdc53f46"},"period":{"start":"2026-04-05T06:00:00.000+00:00","end":"2026-04-05T07:00:00.000+00:00"}},"request":{"method":"PUT","url":"Encounter/838ba568-aee5-44c5-a1c2-ee58241794f4"}},{"resource":{"resourceType":"Condition","id":"e0d9b1fd-0eb2-4a74-842a-a32283c48664","meta":{"profile":["http://hl7.org/fhir/us/qicore/StructureDefinition/qicore-condition-problems-health-concerns"]},"clinicalStatus":{"coding":[{"system":"http://terminology.hl7.org/CodeSystem/condition-clinical","code":"active","display":"Active"}]},"verificationStatus":{"coding":[{"system":"http://terminology.hl7.org/CodeSystem/condition-ver-status","code":"confirmed","display":"Confirmed"}]},"category":[{"coding":[{"system":"http://terminology.hl7.org/CodeSystem/condition-category","code":"problem-list-item","display":"Problem List Item"}]}],"code":{"coding":[{"system":"http://hl7.org/fhir/sid/icd-10-cm","version":"2024","code":"I21.09"}]},"subject":{"reference":"Patient/6919fd23-aa69-4a1a-a07e-4752cdc53f46"},"onsetPeriod":{"start":"2026-04-05T06:00:00.000+00:00"}},"request":{"method":"PUT","url":"Condition/e0d9b1fd-0eb2-4a74-842a-a32283c48664"}},{"resource":{"resourceType":"Encounter","id":"4a1f0c66-77a9-4603-bee0-2318a67024c0","meta":{"profile":["http://hl7.org/fhir/us/qicore/StructureDefinition/qicore-encounter"]},"status":"finished","class":{"system":"http://terminology.hl7.org/CodeSystem/v3-ActCode","code":"AMB","display":"ambulatory encounter"},"type":[{"coding":[{"system":"http://www.ama-assn.org/go/cpt","version":"2024","code":"99205"}]}],"subject":{"reference":"Patient/6919fd23-aa69-4a1a-a07e-4752cdc53f46"},"period":{"start":"2026-07-08T09:00:00.000+00:00","end":"2026-07-08T09:00:00.000+00:00"}},"request":{"method":"PUT","url":"Encounter/4a1f0c66-77a9-4603-bee0-2318a67024c0"}},{"resource":{"resourceType":"Patient","id":"6919fd23-aa69-4a1a-a07e-4752cdc53f46","meta":{"profile":["http://hl7.org/fhir/us/qicore/StructureDefinition/qicore-patient"]},"extension":[{"url":"http://hl7.org/fhir/us/core/StructureDefinition/us-core-race","extension":[{"url":"ombCategory","valueCoding":{"system":"urn:oid:2.16.840.1.113883.6.238","code":"1002-5","display":"American Indian or Alaska Native"}},{"url":"text","valueString":"American Indian or Alaska Native"}]},{"url":"http://hl7.org/fhir/us/core/StructureDefinition/us-core-ethnicity","extension":[{"url":"ombCategory","valueCoding":{"system":"urn:oid:2.16.840.1.113883.6.238","code":"2186-5","display":"Not Hispanic or Latino"}},{"url":"text","valueString":"Not Hispanic or Latino"}]}],"identifier":[{"type":{"coding":[{"system":"http://terminology.hl7.org/CodeSystem/v2-0203","code":"MR"}]},"system":"https://bonnie-fhir.healthit.gov/","value":"984685135164568103"}],"active":true,"name":[{"use":"usual","family":"DENEXCEPPop2Pass","given":["Bradycardia "]}],"gender":"female","birthDate":"1923-03-24"},"request":{"method":"PUT","url":"Patient/6919fd23-aa69-4a1a-a07e-4752cdc53f46"}},{"resource":{"resourceType":"Bundle","id":"87946516518320323","type":"transaction","entry":[{"fullUrl":"https://madie.cms.gov/Patient/6919fd23-aa69-4a1a-a07e-4752cdc53f46","resource":{"resourceType":"Patient","id":"6919fd23-aa69-4a1a-a07e-4752cdc53f46","meta":{"profile":["http://hl7.org/fhir/us/qicore/StructureDefinition/qicore-patient"]},"extension":[{"url":"http://hl7.org/fhir/us/core/StructureDefinition/us-core-race","extension":[{"url":"ombCategory","valueCoding":{"system":"urn:oid:2.16.840.1.113883.6.238","code":"1002-5","display":"American Indian or Alaska Native"}},{"url":"text","valueString":"American Indian or Alaska Native"}]},{"url":"http://hl7.org/fhir/us/core/StructureDefinition/us-core-ethnicity","extension":[{"url":"ombCategory","valueCoding":{"system":"urn:oid:2.16.840.1.113883.6.238","code":"2186-5","display":"Not Hispanic or Latino"}},{"url":"text","valueString":"Not Hispanic or Latino"}]}],"identifier":[{"type":{"coding":[{"system":"http://terminology.hl7.org/CodeSystem/v2-0203","code":"MR"}]},"system":"https://bonnie-fhir.healthit.gov/","value":"984685135164568103"}],"active":true,"name":[{"use":"usual","family":"DENEXCEPPop2Pass","given":["Bradycardia "]}],"gender":"female","birthDate":"1923-03-24"},"request":{"method":"PUT","url":"Patient/6919fd23-aa69-4a1a-a07e-4752cdc53f46"}},{"fullUrl":"https://madie.cms.gov/Encounter/838ba568-aee5-44c5-a1c2-ee58241794f4","resource":{"resourceType":"Encounter","id":"838ba568-aee5-44c5-a1c2-ee58241794f4","meta":{"profile":["http://hl7.org/fhir/us/qicore/StructureDefinition/qicore-encounter"]},"status":"finished","class":{"system":"http://terminology.hl7.org/CodeSystem/v3-ActCode","code":"AMB","display":"ambulatory encounter"},"type":[{"coding":[{"system":"http://www.ama-assn.org/go/cpt","version":"2024","code":"99205"}]}],"subject":{"reference":"Patient/6919fd23-aa69-4a1a-a07e-4752cdc53f46"},"period":{"start":"2026-04-05T06:00:00.000+00:00","end":"2026-04-05T07:00:00.000+00:00"}},"request":{"method":"PUT","url":"Encounter/838ba568-aee5-44c5-a1c2-ee58241794f4"}},{"fullUrl":"https://madie.cms.gov/Encounter/4a1f0c66-77a9-4603-bee0-2318a67024c0","resource":{"resourceType":"Encounter","id":"4a1f0c66-77a9-4603-bee0-2318a67024c0","meta":{"profile":["http://hl7.org/fhir/us/qicore/StructureDefinition/qicore-encounter"]},"status":"finished","class":{"system":"http://terminology.hl7.org/CodeSystem/v3-ActCode","code":"AMB","display":"ambulatory encounter"},"type":[{"coding":[{"system":"http://www.ama-assn.org/go/cpt","version":"2024","code":"99205"}]}],"subject":{"reference":"Patient/6919fd23-aa69-4a1a-a07e-4752cdc53f46"},"period":{"start":"2026-07-08T09:00:00.000+00:00","end":"2026-07-08T09:00:00.000+00:00"}},"request":{"method":"PUT","url":"Encounter/4a1f0c66-77a9-4603-bee0-2318a67024c0"}},{"fullUrl":"https://madie.cms.gov/Condition/e0d9b1fd-0eb2-4a74-842a-a32283c48664","resource":{"resourceType":"Condition","id":"e0d9b1fd-0eb2-4a74-842a-a32283c48664","meta":{"profile":["http://hl7.org/fhir/us/qicore/StructureDefinition/qicore-condition-problems-health-concerns"]},"clinicalStatus":{"coding":[{"system":"http://terminology.hl7.org/CodeSystem/condition-clinical","code":"active","display":"Active"}]},"verificationStatus":{"coding":[{"system":"http://terminology.hl7.org/CodeSystem/condition-ver-status","code":"confirmed","display":"Confirmed"}]},"category":[{"coding":[{"system":"http://terminology.hl7.org/CodeSystem/condition-category","code":"problem-list-item","display":"Problem List Item"}]}],"code":{"coding":[{"system":"http://hl7.org/fhir/sid/icd-10-cm","version":"2024","code":"I21.09"}]},"subject":{"reference":"Patient/6919fd23-aa69-4a1a-a07e-4752cdc53f46"},"onsetPeriod":{"start":"2026-04-05T06:00:00.000+00:00"}},"request":{"method":"PUT","url":"Condition/e0d9b1fd-0eb2-4a74-842a-a32283c48664"}},{"fullUrl":"https://madie.cms.gov/Condition/111273ec-e176-4e43-aa65-29d40e98d788","resource":{"resourceType":"Condition","id":"111273ec-e176-4e43-aa65-29d40e98d788","meta":{"profile":["http://hl7.org/fhir/us/qicore/StructureDefinition/qicore-condition-problems-health-concerns"]},"clinicalStatus":{"coding":[{"system":"http://terminology.hl7.org/CodeSystem/condition-clinical","code":"active","display":"Active"}]},"verificationStatus":{"coding":[{"system":"http://terminology.hl7.org/CodeSystem/condition-ver-status","code":"confirmed","display":"Confirmed"}]},"category":[{"coding":[{"system":"http://terminology.hl7.org/CodeSystem/condition-category","code":"problem-list-item","display":"Problem List Item"}]}],"code":{"coding":[{"system":"http://snomed.info/sct","version":"http://snomed.info/sct/731000124108/version/20240301","code":"10365005","display":"Right main coronary artery thrombosis (disorder)"}]},"subject":{"reference":"Patient/6919fd23-aa69-4a1a-a07e-4752cdc53f46"},"onsetPeriod":{"start":"2026-04-05T06:00:00.000+00:00"}},"request":{"method":"PUT","url":"Condition/111273ec-e176-4e43-aa65-29d40e98d788"}},{"fullUrl":"https://madie.cms.gov/Condition/762b8ce3-23ca-423e-81bf-b5242e9ccfaa","resource":{"resourceType":"Condition","id":"762b8ce3-23ca-423e-81bf-b5242e9ccfaa","meta":{"profile":["http://hl7.org/fhir/us/qicore/StructureDefinition/qicore-condition-problems-health-concerns"]},"clinicalStatus":{"coding":[{"system":"http://terminology.hl7.org/CodeSystem/condition-clinical","code":"active","display":"Active"}]},"verificationStatus":{"coding":[{"system":"http://terminology.hl7.org/CodeSystem/condition-ver-status","code":"confirmed","display":"Confirmed"}]},"category":[{"coding":[{"system":"http://terminology.hl7.org/CodeSystem/condition-category","code":"problem-list-item","display":"Problem List Item"}]}],"code":{"coding":[{"system":"http://snomed.info/sct","version":"http://snomed.info/sct/731000124108/version/20240301","code":"29894000"}]},"subject":{"reference":"Patient/6919fd23-aa69-4a1a-a07e-4752cdc53f46"},"onsetDateTime":"2026-04-05T06:00:00.000+00:00"},"request":{"method":"PUT","url":"Condition/762b8ce3-23ca-423e-81bf-b5242e9ccfaa"}},{"fullUrl":"https://madie.cms.gov/MeasureReport/c7049016-6cdd-4841-9bdf-a27651844940","resource":{"resourceType":"MeasureReport","id":"c7049016-6cdd-4841-9bdf-a27651844940","meta":{"profile":["http://hl7.org/fhir/us/cqfmeasures/StructureDefinition/test-case-cqfm"]},"contained":[{"resourceType":"Parameters","id":"0d06e79a-21cb-49f0-9107-cf320fe18538-parameters","parameter":[{"name":"subject","valueString":"6919fd23-aa69-4a1a-a07e-4752cdc53f46"}]}],"extension":[{"url":"http://hl7.org/fhir/StructureDefinition/cqf-inputParameters","valueReference":{"reference":"#0d06e79a-21cb-49f0-9107-cf320fe18538-parameters"}},{"url":"http://hl7.org/fhir/us/cqfmeasures/StructureDefinition/cqfm-testCaseDescription","valueMarkdown":"Pt > 18, 2 amb. visits during MP, an MI and a CAD Dx (both with onset during 1st visit), and a Bradycardia Dx with onset during 1st visit"}],"modifierExtension":[{"url":"http://hl7.org/fhir/us/cqfmeasures/StructureDefinition/cqfm-isTestCase","valueBoolean":true}],"status":"complete","type":"individual","measure":"https://madie.cms.gov/Measure/CMS145FHIRCADBetaBlockerTherapyPriorMIorLVSD","period":{"start":"2026-01-01","end":"2026-12-31"},"group":[{"id":"Group_1","population":[{"id":"InitialPopulation_1","code":{"coding":[{"system":"http://terminology.hl7.org/CodeSystem/measure-population","code":"initial-population","display":"Initial Population"}]},"count":1},{"id":"Denominator_1","code":{"coding":[{"system":"http://terminology.hl7.org/CodeSystem/measure-population","code":"denominator","display":"Denominator"}]},"count":0},{"id":"Numerator_1","code":{"coding":[{"system":"http://terminology.hl7.org/CodeSystem/measure-population","code":"numerator","display":"Numerator"}]},"count":0},{"id":"DenominatorException_1","code":{"coding":[{"system":"http://terminology.hl7.org/CodeSystem/measure-population","code":"denominator-exception","display":"Denominator Exception"}]},"count":0}],"measureScore":{"value":1.0}},{"id":"Group_2","population":[{"id":"InitialPopulation_2","code":{"coding":[{"system":"http://terminology.hl7.org/CodeSystem/measure-population","code":"initial-population","display":"Initial Population"}]},"count":1},{"id":"Denominator_2","code":{"coding":[{"system":"http://terminology.hl7.org/CodeSystem/measure-population","code":"denominator","display":"Denominator"}]},"count":1},{"id":"Numerator_2","code":{"coding":[{"system":"http://terminology.hl7.org/CodeSystem/measure-population","code":"numerator","display":"Numerator"}]},"count":0},{"id":"DenominatorException_2","code":{"coding":[{"system":"http://terminology.hl7.org/CodeSystem/measure-population","code":"denominator-exception","display":"Denominator Exception"}]},"count":1}],"measureScore":{"value":1.0}}],"evaluatedResource":[{"reference":"Patient/6919fd23-aa69-4a1a-a07e-4752cdc53f46"},{"reference":"Encounter/838ba568-aee5-44c5-a1c2-ee58241794f4"},{"reference":"Encounter/4a1f0c66-77a9-4603-bee0-2318a67024c0"},{"reference":"Condition/e0d9b1fd-0eb2-4a74-842a-a32283c48664"},{"reference":"Condition/111273ec-e176-4e43-aa65-29d40e98d788"},{"reference":"Condition/762b8ce3-23ca-423e-81bf-b5242e9ccfaa"}]},"request":{"method":"PUT","url":"MeasureReport/c7049016-6cdd-4841-9bdf-a27651844940"}}]},"request":{"method":"PUT","url":"Bundle/87946516518320323"}}]}