{"resourceType":"Bundle","id":"tests-f929563b-a5a0-4d55-9613-d75d383d3c6a-bundle","type":"transaction","entry":[{"resource":{"resourceType":"Bundle","id":"987941156498435135145","type":"transaction","entry":[{"fullUrl":"https://madie.cms.gov/Patient/f929563b-a5a0-4d55-9613-d75d383d3c6a","resource":{"resourceType":"Patient","id":"f929563b-a5a0-4d55-9613-d75d383d3c6a","meta":{"profile":["http://hl7.org/fhir/us/qicore/StructureDefinition/qicore-patient"]},"extension":[{"url":"http://hl7.org/fhir/us/core/StructureDefinition/us-core-race","extension":[{"url":"ombCategory","valueCoding":{"system":"urn:oid:2.16.840.1.113883.6.238","code":"1002-5","display":"American Indian or Alaska Native"}},{"url":"text","valueString":"American Indian or Alaska Native"}]},{"url":"http://hl7.org/fhir/us/core/StructureDefinition/us-core-ethnicity","extension":[{"url":"ombCategory","valueCoding":{"system":"urn:oid:2.16.840.1.113883.6.238","code":"2186-5","display":"Not Hispanic or Latino"}},{"url":"text","valueString":"Not Hispanic or Latino"}]}],"identifier":[{"type":{"coding":[{"system":"http://terminology.hl7.org/CodeSystem/v2-0203","code":"MR"}]},"system":"https://bonnie-fhir.healthit.gov/","value":"4513216841616563513"}],"active":true,"name":[{"use":"usual","family":"DENEXCEPPop1Pass","given":["AtrioBlock"]}],"gender":"female","birthDate":"1983-06-28"},"request":{"method":"PUT","url":"Patient/f929563b-a5a0-4d55-9613-d75d383d3c6a"}},{"fullUrl":"https://madie.cms.gov/Encounter/39d28a41-1be3-48ca-8c27-4650d7db21f4","resource":{"resourceType":"Encounter","id":"39d28a41-1be3-48ca-8c27-4650d7db21f4","meta":{"profile":["http://hl7.org/fhir/us/qicore/StructureDefinition/qicore-encounter"]},"status":"finished","class":{"system":"http://terminology.hl7.org/CodeSystem/v3-ActCode","code":"AMB","display":"ambulatory encounter"},"type":[{"coding":[{"system":"http://www.ama-assn.org/go/cpt","version":"2024","code":"99205"}]}],"subject":{"reference":"Patient/f929563b-a5a0-4d55-9613-d75d383d3c6a"},"period":{"start":"2026-01-23T11:00:00.000+00:00","end":"2026-01-23T11:15:00.000+00:00"}},"request":{"method":"PUT","url":"Encounter/39d28a41-1be3-48ca-8c27-4650d7db21f4"}},{"fullUrl":"https://madie.cms.gov/Encounter/e5a6fa71-c1da-4323-8b91-1e481769db26","resource":{"resourceType":"Encounter","id":"e5a6fa71-c1da-4323-8b91-1e481769db26","meta":{"profile":["http://hl7.org/fhir/us/qicore/StructureDefinition/qicore-encounter"]},"status":"finished","class":{"system":"http://terminology.hl7.org/CodeSystem/v3-ActCode","code":"AMB","display":"ambulatory encounter"},"type":[{"coding":[{"system":"http://www.ama-assn.org/go/cpt","version":"2024","code":"99203"}]}],"subject":{"reference":"Patient/f929563b-a5a0-4d55-9613-d75d383d3c6a"},"period":{"start":"2026-02-25T13:15:00.000+00:00","end":"2026-02-25T14:15:00.000+00:00"}},"request":{"method":"PUT","url":"Encounter/e5a6fa71-c1da-4323-8b91-1e481769db26"}},{"fullUrl":"https://madie.cms.gov/Observation/413e3be0-92dd-46cb-8e87-cc8770cda352","resource":{"resourceType":"Observation","id":"413e3be0-92dd-46cb-8e87-cc8770cda352","meta":{"profile":["http://hl7.org/fhir/StructureDefinition/heartrate"]},"status":"final","category":[{"coding":[{"system":"http://terminology.hl7.org/CodeSystem/observation-category","code":"vital-signs","display":"Vital Signs"}]}],"code":{"coding":[{"system":"http://loinc.org","version":"2.76","code":"8867-4"}]},"subject":{"reference":"Patient/f929563b-a5a0-4d55-9613-d75d383d3c6a"},"effectiveDateTime":"2026-02-25T13:15:00.000+00:00","valueQuantity":{"value":25,"unit":"/min","system":"http://unitsofmeasure.org","code":"/min"}},"request":{"method":"PUT","url":"Observation/413e3be0-92dd-46cb-8e87-cc8770cda352"}},{"fullUrl":"https://madie.cms.gov/Observation/93013ea3-2a0e-4833-900a-c4743d4224a3","resource":{"resourceType":"Observation","id":"93013ea3-2a0e-4833-900a-c4743d4224a3","meta":{"profile":["http://hl7.org/fhir/StructureDefinition/heartrate"]},"status":"final","category":[{"coding":[{"system":"http://terminology.hl7.org/CodeSystem/observation-category","code":"vital-signs","display":"Vital Signs"}]}],"code":{"coding":[{"system":"http://loinc.org","version":"2.76","code":"8867-4"}]},"subject":{"reference":"Patient/f929563b-a5a0-4d55-9613-d75d383d3c6a"},"effectiveDateTime":"2026-02-25T18:15:00.000+00:00","valueQuantity":{"value":20,"unit":"/min","system":"http://unitsofmeasure.org","code":"/min"}},"request":{"method":"PUT","url":"Observation/93013ea3-2a0e-4833-900a-c4743d4224a3"}},{"fullUrl":"https://madie.cms.gov/Condition/4b2f0abe-aa3c-4132-9697-c00b7b54925e","resource":{"resourceType":"Condition","id":"4b2f0abe-aa3c-4132-9697-c00b7b54925e","meta":{"profile":["http://hl7.org/fhir/us/qicore/StructureDefinition/qicore-condition-problems-health-concerns"]},"clinicalStatus":{"coding":[{"system":"http://terminology.hl7.org/CodeSystem/condition-clinical","code":"active","display":"Active"}]},"verificationStatus":{"coding":[{"system":"http://terminology.hl7.org/CodeSystem/condition-ver-status","code":"confirmed","display":"Confirmed"}]},"category":[{"coding":[{"system":"http://terminology.hl7.org/CodeSystem/condition-category","code":"problem-list-item","display":"Problem List Item"}]}],"code":{"coding":[{"system":"http://snomed.info/sct","version":"http://snomed.info/sct/731000124108/version/20240301","code":"981000124106","display":"Moderate left ventricular systolic dysfunction (disorder)"}]},"subject":{"reference":"Patient/f929563b-a5a0-4d55-9613-d75d383d3c6a"},"onsetPeriod":{"start":"2026-01-05T17:00:00.000+00:00","end":"2026-02-02T17:00:00.000+00:00"}},"request":{"method":"PUT","url":"Condition/4b2f0abe-aa3c-4132-9697-c00b7b54925e"}},{"fullUrl":"https://madie.cms.gov/Condition/e053ce02-2b21-4a2a-a8e3-46d55c223aa3","resource":{"resourceType":"Condition","id":"e053ce02-2b21-4a2a-a8e3-46d55c223aa3","meta":{"profile":["http://hl7.org/fhir/us/qicore/StructureDefinition/qicore-condition-problems-health-concerns"]},"clinicalStatus":{"coding":[{"system":"http://terminology.hl7.org/CodeSystem/condition-clinical","code":"active","display":"Active"}]},"verificationStatus":{"coding":[{"system":"http://terminology.hl7.org/CodeSystem/condition-ver-status","code":"confirmed","display":"Confirmed"}]},"category":[{"coding":[{"system":"http://terminology.hl7.org/CodeSystem/condition-category","code":"problem-list-item","display":"Problem List Item"}]}],"code":{"coding":[{"system":"http://snomed.info/sct","version":"http://snomed.info/sct/731000124108/version/20240301","code":"10365005","display":"Right main coronary artery thrombosis (disorder)"}]},"subject":{"reference":"Patient/f929563b-a5a0-4d55-9613-d75d383d3c6a"},"onsetPeriod":{"start":"2026-02-25T13:15:00.000+00:00","end":"2026-02-25T13:15:00.000+00:00"}},"request":{"method":"PUT","url":"Condition/e053ce02-2b21-4a2a-a8e3-46d55c223aa3"}},{"fullUrl":"https://madie.cms.gov/Condition/4835660f-0612-40f4-8c7c-dc5257f53379","resource":{"resourceType":"Condition","id":"4835660f-0612-40f4-8c7c-dc5257f53379","meta":{"profile":["http://hl7.org/fhir/us/qicore/StructureDefinition/qicore-condition-problems-health-concerns"]},"clinicalStatus":{"coding":[{"system":"http://terminology.hl7.org/CodeSystem/condition-clinical","code":"active","display":"Active"}]},"verificationStatus":{"coding":[{"system":"http://terminology.hl7.org/CodeSystem/condition-ver-status","code":"confirmed","display":"Confirmed"}]},"category":[{"coding":[{"system":"http://terminology.hl7.org/CodeSystem/condition-category","code":"problem-list-item","display":"Problem List Item"}]}],"code":{"coding":[{"system":"http://hl7.org/fhir/sid/icd-10-cm","version":"2024","code":"I44.1"}]},"subject":{"reference":"Patient/f929563b-a5a0-4d55-9613-d75d383d3c6a"},"onsetPeriod":{"start":"2026-01-23T15:00:00.000+00:00"}},"request":{"method":"PUT","url":"Condition/4835660f-0612-40f4-8c7c-dc5257f53379"}},{"fullUrl":"https://madie.cms.gov/MeasureReport/dcf9d29e-f5ca-4578-bc92-33c90b78fd86","resource":{"resourceType":"MeasureReport","id":"dcf9d29e-f5ca-4578-bc92-33c90b78fd86","meta":{"profile":["http://hl7.org/fhir/us/cqfmeasures/StructureDefinition/test-case-cqfm"]},"contained":[{"resourceType":"Parameters","id":"eecc8ec1-8299-4539-bbc2-5483e03c7593-parameters","parameter":[{"name":"subject","valueString":"f929563b-a5a0-4d55-9613-d75d383d3c6a"}]}],"extension":[{"url":"http://hl7.org/fhir/StructureDefinition/cqf-inputParameters","valueReference":{"reference":"#eecc8ec1-8299-4539-bbc2-5483e03c7593-parameters"}},{"url":"http://hl7.org/fhir/us/cqfmeasures/StructureDefinition/cqfm-testCaseDescription","valueMarkdown":"Pt > 18, 2 visits in MP, 2 heart rate checks during day of 2nd visit (earlier pulse 25 bpm, later pulse 20 bpm), moderate LVSD (onset b4 1st visit), CAD onset during 2nd visit,  AV Block after but day of 1st visit"}],"modifierExtension":[{"url":"http://hl7.org/fhir/us/cqfmeasures/StructureDefinition/cqfm-isTestCase","valueBoolean":true}],"status":"complete","type":"individual","measure":"https://madie.cms.gov/Measure/CMS145FHIRCADBetaBlockerTherapyPriorMIorLVSD","period":{"start":"2026-01-01","end":"2026-12-31"},"group":[{"id":"Group_1","population":[{"id":"InitialPopulation_1","code":{"coding":[{"system":"http://terminology.hl7.org/CodeSystem/measure-population","code":"initial-population","display":"Initial Population"}]},"count":1},{"id":"Denominator_1","code":{"coding":[{"system":"http://terminology.hl7.org/CodeSystem/measure-population","code":"denominator","display":"Denominator"}]},"count":1},{"id":"Numerator_1","code":{"coding":[{"system":"http://terminology.hl7.org/CodeSystem/measure-population","code":"numerator","display":"Numerator"}]},"count":0},{"id":"DenominatorException_1","code":{"coding":[{"system":"http://terminology.hl7.org/CodeSystem/measure-population","code":"denominator-exception","display":"Denominator Exception"}]},"count":1}],"measureScore":{"value":1.0}},{"id":"Group_2","population":[{"id":"InitialPopulation_2","code":{"coding":[{"system":"http://terminology.hl7.org/CodeSystem/measure-population","code":"initial-population","display":"Initial Population"}]},"count":1},{"id":"Denominator_2","code":{"coding":[{"system":"http://terminology.hl7.org/CodeSystem/measure-population","code":"denominator","display":"Denominator"}]},"count":0},{"id":"Numerator_2","code":{"coding":[{"system":"http://terminology.hl7.org/CodeSystem/measure-population","code":"numerator","display":"Numerator"}]},"count":0},{"id":"DenominatorException_2","code":{"coding":[{"system":"http://terminology.hl7.org/CodeSystem/measure-population","code":"denominator-exception","display":"Denominator Exception"}]},"count":0}],"measureScore":{"value":1.0}}],"evaluatedResource":[{"reference":"Patient/f929563b-a5a0-4d55-9613-d75d383d3c6a"},{"reference":"Encounter/39d28a41-1be3-48ca-8c27-4650d7db21f4"},{"reference":"Encounter/e5a6fa71-c1da-4323-8b91-1e481769db26"},{"reference":"Observation/413e3be0-92dd-46cb-8e87-cc8770cda352"},{"reference":"Observation/93013ea3-2a0e-4833-900a-c4743d4224a3"},{"reference":"Condition/4b2f0abe-aa3c-4132-9697-c00b7b54925e"},{"reference":"Condition/e053ce02-2b21-4a2a-a8e3-46d55c223aa3"},{"reference":"Condition/4835660f-0612-40f4-8c7c-dc5257f53379"}]},"request":{"method":"PUT","url":"MeasureReport/dcf9d29e-f5ca-4578-bc92-33c90b78fd86"}}]},"request":{"method":"PUT","url":"Bundle/987941156498435135145"}},{"resource":{"resourceType":"Condition","id":"4b2f0abe-aa3c-4132-9697-c00b7b54925e","meta":{"profile":["http://hl7.org/fhir/us/qicore/StructureDefinition/qicore-condition-problems-health-concerns"]},"clinicalStatus":{"coding":[{"system":"http://terminology.hl7.org/CodeSystem/condition-clinical","code":"active","display":"Active"}]},"verificationStatus":{"coding":[{"system":"http://terminology.hl7.org/CodeSystem/condition-ver-status","code":"confirmed","display":"Confirmed"}]},"category":[{"coding":[{"system":"http://terminology.hl7.org/CodeSystem/condition-category","code":"problem-list-item","display":"Problem List Item"}]}],"code":{"coding":[{"system":"http://snomed.info/sct","version":"http://snomed.info/sct/731000124108/version/20240301","code":"981000124106","display":"Moderate left ventricular systolic dysfunction (disorder)"}]},"subject":{"reference":"Patient/f929563b-a5a0-4d55-9613-d75d383d3c6a"},"onsetPeriod":{"start":"2026-01-05T17:00:00.000+00:00","end":"2026-02-02T17:00:00.000+00:00"}},"request":{"method":"PUT","url":"Condition/4b2f0abe-aa3c-4132-9697-c00b7b54925e"}},{"resource":{"resourceType":"Encounter","id":"e5a6fa71-c1da-4323-8b91-1e481769db26","meta":{"profile":["http://hl7.org/fhir/us/qicore/StructureDefinition/qicore-encounter"]},"status":"finished","class":{"system":"http://terminology.hl7.org/CodeSystem/v3-ActCode","code":"AMB","display":"ambulatory encounter"},"type":[{"coding":[{"system":"http://www.ama-assn.org/go/cpt","version":"2024","code":"99203"}]}],"subject":{"reference":"Patient/f929563b-a5a0-4d55-9613-d75d383d3c6a"},"period":{"start":"2026-02-25T13:15:00.000+00:00","end":"2026-02-25T14:15:00.000+00:00"}},"request":{"method":"PUT","url":"Encounter/e5a6fa71-c1da-4323-8b91-1e481769db26"}},{"resource":{"resourceType":"Condition","id":"e053ce02-2b21-4a2a-a8e3-46d55c223aa3","meta":{"profile":["http://hl7.org/fhir/us/qicore/StructureDefinition/qicore-condition-problems-health-concerns"]},"clinicalStatus":{"coding":[{"system":"http://terminology.hl7.org/CodeSystem/condition-clinical","code":"active","display":"Active"}]},"verificationStatus":{"coding":[{"system":"http://terminology.hl7.org/CodeSystem/condition-ver-status","code":"confirmed","display":"Confirmed"}]},"category":[{"coding":[{"system":"http://terminology.hl7.org/CodeSystem/condition-category","code":"problem-list-item","display":"Problem List Item"}]}],"code":{"coding":[{"system":"http://snomed.info/sct","version":"http://snomed.info/sct/731000124108/version/20240301","code":"10365005","display":"Right main coronary artery thrombosis (disorder)"}]},"subject":{"reference":"Patient/f929563b-a5a0-4d55-9613-d75d383d3c6a"},"onsetPeriod":{"start":"2026-02-25T13:15:00.000+00:00","end":"2026-02-25T13:15:00.000+00:00"}},"request":{"method":"PUT","url":"Condition/e053ce02-2b21-4a2a-a8e3-46d55c223aa3"}},{"resource":{"resourceType":"Observation","id":"93013ea3-2a0e-4833-900a-c4743d4224a3","meta":{"profile":["http://hl7.org/fhir/StructureDefinition/heartrate"]},"status":"final","category":[{"coding":[{"system":"http://terminology.hl7.org/CodeSystem/observation-category","code":"vital-signs","display":"Vital Signs"}]}],"code":{"coding":[{"system":"http://loinc.org","version":"2.76","code":"8867-4"}]},"subject":{"reference":"Patient/f929563b-a5a0-4d55-9613-d75d383d3c6a"},"effectiveDateTime":"2026-02-25T18:15:00.000+00:00","valueQuantity":{"value":20,"unit":"/min","system":"http://unitsofmeasure.org","code":"/min"}},"request":{"method":"PUT","url":"Observation/93013ea3-2a0e-4833-900a-c4743d4224a3"}},{"resource":{"resourceType":"Encounter","id":"39d28a41-1be3-48ca-8c27-4650d7db21f4","meta":{"profile":["http://hl7.org/fhir/us/qicore/StructureDefinition/qicore-encounter"]},"status":"finished","class":{"system":"http://terminology.hl7.org/CodeSystem/v3-ActCode","code":"AMB","display":"ambulatory encounter"},"type":[{"coding":[{"system":"http://www.ama-assn.org/go/cpt","version":"2024","code":"99205"}]}],"subject":{"reference":"Patient/f929563b-a5a0-4d55-9613-d75d383d3c6a"},"period":{"start":"2026-01-23T11:00:00.000+00:00","end":"2026-01-23T11:15:00.000+00:00"}},"request":{"method":"PUT","url":"Encounter/39d28a41-1be3-48ca-8c27-4650d7db21f4"}},{"resource":{"resourceType":"Patient","id":"f929563b-a5a0-4d55-9613-d75d383d3c6a","meta":{"profile":["http://hl7.org/fhir/us/qicore/StructureDefinition/qicore-patient"]},"extension":[{"url":"http://hl7.org/fhir/us/core/StructureDefinition/us-core-race","extension":[{"url":"ombCategory","valueCoding":{"system":"urn:oid:2.16.840.1.113883.6.238","code":"1002-5","display":"American Indian or Alaska Native"}},{"url":"text","valueString":"American Indian or Alaska Native"}]},{"url":"http://hl7.org/fhir/us/core/StructureDefinition/us-core-ethnicity","extension":[{"url":"ombCategory","valueCoding":{"system":"urn:oid:2.16.840.1.113883.6.238","code":"2186-5","display":"Not Hispanic or Latino"}},{"url":"text","valueString":"Not Hispanic or Latino"}]}],"identifier":[{"type":{"coding":[{"system":"http://terminology.hl7.org/CodeSystem/v2-0203","code":"MR"}]},"system":"https://bonnie-fhir.healthit.gov/","value":"4513216841616563513"}],"active":true,"name":[{"use":"usual","family":"DENEXCEPPop1Pass","given":["AtrioBlock"]}],"gender":"female","birthDate":"1983-06-28"},"request":{"method":"PUT","url":"Patient/f929563b-a5a0-4d55-9613-d75d383d3c6a"}},{"resource":{"resourceType":"Observation","id":"413e3be0-92dd-46cb-8e87-cc8770cda352","meta":{"profile":["http://hl7.org/fhir/StructureDefinition/heartrate"]},"status":"final","category":[{"coding":[{"system":"http://terminology.hl7.org/CodeSystem/observation-category","code":"vital-signs","display":"Vital Signs"}]}],"code":{"coding":[{"system":"http://loinc.org","version":"2.76","code":"8867-4"}]},"subject":{"reference":"Patient/f929563b-a5a0-4d55-9613-d75d383d3c6a"},"effectiveDateTime":"2026-02-25T13:15:00.000+00:00","valueQuantity":{"value":25,"unit":"/min","system":"http://unitsofmeasure.org","code":"/min"}},"request":{"method":"PUT","url":"Observation/413e3be0-92dd-46cb-8e87-cc8770cda352"}},{"resource":{"resourceType":"MeasureReport","id":"dcf9d29e-f5ca-4578-bc92-33c90b78fd86","meta":{"profile":["http://hl7.org/fhir/us/cqfmeasures/StructureDefinition/test-case-cqfm"]},"contained":[{"resourceType":"Parameters","id":"eecc8ec1-8299-4539-bbc2-5483e03c7593-parameters","parameter":[{"name":"subject","valueString":"f929563b-a5a0-4d55-9613-d75d383d3c6a"}]}],"extension":[{"url":"http://hl7.org/fhir/StructureDefinition/cqf-inputParameters","valueReference":{"reference":"#eecc8ec1-8299-4539-bbc2-5483e03c7593-parameters"}},{"url":"http://hl7.org/fhir/us/cqfmeasures/StructureDefinition/cqfm-testCaseDescription","valueMarkdown":"Pt > 18, 2 visits in MP, 2 heart rate checks during day of 2nd visit (earlier pulse 25 bpm, later pulse 20 bpm), moderate LVSD (onset b4 1st visit), CAD onset during 2nd visit,  AV Block after but day of 1st visit"}],"modifierExtension":[{"url":"http://hl7.org/fhir/us/cqfmeasures/StructureDefinition/cqfm-isTestCase","valueBoolean":true}],"status":"complete","type":"individual","measure":"https://madie.cms.gov/Measure/CMS145FHIRCADBetaBlockerTherapyPriorMIorLVSD","period":{"start":"2026-01-01","end":"2026-12-31"},"group":[{"id":"Group_1","population":[{"id":"InitialPopulation_1","code":{"coding":[{"system":"http://terminology.hl7.org/CodeSystem/measure-population","code":"initial-population","display":"Initial Population"}]},"count":1},{"id":"Denominator_1","code":{"coding":[{"system":"http://terminology.hl7.org/CodeSystem/measure-population","code":"denominator","display":"Denominator"}]},"count":1},{"id":"Numerator_1","code":{"coding":[{"system":"http://terminology.hl7.org/CodeSystem/measure-population","code":"numerator","display":"Numerator"}]},"count":0},{"id":"DenominatorException_1","code":{"coding":[{"system":"http://terminology.hl7.org/CodeSystem/measure-population","code":"denominator-exception","display":"Denominator Exception"}]},"count":1}],"measureScore":{"value":1.0}},{"id":"Group_2","population":[{"id":"InitialPopulation_2","code":{"coding":[{"system":"http://terminology.hl7.org/CodeSystem/measure-population","code":"initial-population","display":"Initial Population"}]},"count":1},{"id":"Denominator_2","code":{"coding":[{"system":"http://terminology.hl7.org/CodeSystem/measure-population","code":"denominator","display":"Denominator"}]},"count":0},{"id":"Numerator_2","code":{"coding":[{"system":"http://terminology.hl7.org/CodeSystem/measure-population","code":"numerator","display":"Numerator"}]},"count":0},{"id":"DenominatorException_2","code":{"coding":[{"system":"http://terminology.hl7.org/CodeSystem/measure-population","code":"denominator-exception","display":"Denominator Exception"}]},"count":0}],"measureScore":{"value":1.0}}],"evaluatedResource":[{"reference":"Patient/f929563b-a5a0-4d55-9613-d75d383d3c6a"},{"reference":"Encounter/39d28a41-1be3-48ca-8c27-4650d7db21f4"},{"reference":"Encounter/e5a6fa71-c1da-4323-8b91-1e481769db26"},{"reference":"Observation/413e3be0-92dd-46cb-8e87-cc8770cda352"},{"reference":"Observation/93013ea3-2a0e-4833-900a-c4743d4224a3"},{"reference":"Condition/4b2f0abe-aa3c-4132-9697-c00b7b54925e"},{"reference":"Condition/e053ce02-2b21-4a2a-a8e3-46d55c223aa3"},{"reference":"Condition/4835660f-0612-40f4-8c7c-dc5257f53379"}]},"request":{"method":"PUT","url":"MeasureReport/dcf9d29e-f5ca-4578-bc92-33c90b78fd86"}},{"resource":{"resourceType":"Condition","id":"4835660f-0612-40f4-8c7c-dc5257f53379","meta":{"profile":["http://hl7.org/fhir/us/qicore/StructureDefinition/qicore-condition-problems-health-concerns"]},"clinicalStatus":{"coding":[{"system":"http://terminology.hl7.org/CodeSystem/condition-clinical","code":"active","display":"Active"}]},"verificationStatus":{"coding":[{"system":"http://terminology.hl7.org/CodeSystem/condition-ver-status","code":"confirmed","display":"Confirmed"}]},"category":[{"coding":[{"system":"http://terminology.hl7.org/CodeSystem/condition-category","code":"problem-list-item","display":"Problem List Item"}]}],"code":{"coding":[{"system":"http://hl7.org/fhir/sid/icd-10-cm","version":"2024","code":"I44.1"}]},"subject":{"reference":"Patient/f929563b-a5a0-4d55-9613-d75d383d3c6a"},"onsetPeriod":{"start":"2026-01-23T15:00:00.000+00:00"}},"request":{"method":"PUT","url":"Condition/4835660f-0612-40f4-8c7c-dc5257f53379"}}]}