{"resourceType":"Bundle","id":"tests-5fd0d626-e9c5-4e6c-a10d-1a1183fa7702-bundle","type":"transaction","entry":[{"fullUrl":"Condition/52095795-9c4d-400d-8a26-9f8ce4a10031","resource":{"resourceType":"Condition","id":"52095795-9c4d-400d-8a26-9f8ce4a10031","meta":{"profile":["http://hl7.org/fhir/us/qicore/StructureDefinition/qicore-condition-problems-health-concerns"]},"clinicalStatus":{"coding":[{"system":"http://terminology.hl7.org/CodeSystem/condition-clinical","code":"active","display":"Active"}]},"verificationStatus":{"coding":[{"system":"http://terminology.hl7.org/CodeSystem/condition-ver-status","code":"confirmed","display":"Confirmed"}]},"category":[{"coding":[{"system":"http://terminology.hl7.org/CodeSystem/condition-category","code":"problem-list-item","display":"Problem List Item"}]}],"code":{"coding":[{"system":"http://snomed.info/sct","version":"http://snomed.info/sct/731000124108/version/20240301","code":"293970004","display":"Allergy to metoprolol (finding)"}]},"subject":{"reference":"Patient/5fd0d626-e9c5-4e6c-a10d-1a1183fa7702"},"onsetPeriod":{"start":"2025-04-05T06:00:00.000+00:00"}},"request":{"method":"PUT","url":"Condition/52095795-9c4d-400d-8a26-9f8ce4a10031"}},{"fullUrl":"MeasureReport/e77d8c36-369e-44b1-b1c2-3d04a89208aa","resource":{"resourceType":"MeasureReport","id":"e77d8c36-369e-44b1-b1c2-3d04a89208aa","meta":{"profile":["http://hl7.org/fhir/us/cqfmeasures/StructureDefinition/test-case-cqfm"]},"contained":[{"resourceType":"Parameters","id":"c19e6c9a-00f7-4f43-9904-f939d07af42f-parameters","parameter":[{"name":"subject","valueString":"5fd0d626-e9c5-4e6c-a10d-1a1183fa7702"}]}],"extension":[{"url":"http://hl7.org/fhir/StructureDefinition/cqf-inputParameters","valueReference":{"reference":"#c19e6c9a-00f7-4f43-9904-f939d07af42f-parameters"}},{"url":"http://hl7.org/fhir/us/cqfmeasures/StructureDefinition/cqfm-testCaseDescription","valueMarkdown":"Pt > 18, 2 amb. visits during MP, moderate LVSD and CAD (both with onset during 1st visit), and a Beta Blocker allergy Dx with onset during 1st visit"}],"modifierExtension":[{"url":"http://hl7.org/fhir/us/cqfmeasures/StructureDefinition/cqfm-isTestCase","valueBoolean":true}],"status":"complete","type":"individual","measure":"https://madie.cms.gov/Measure/CMS145FHIRCADBetaBlockerTherapyPriorMIorLVSD","period":{"start":"2026-01-01","end":"2026-12-31"},"group":[{"id":"Group_1","population":[{"id":"InitialPopulation_1","code":{"coding":[{"system":"http://terminology.hl7.org/CodeSystem/measure-population","code":"initial-population","display":"Initial Population"}]},"count":1},{"id":"Denominator_1","code":{"coding":[{"system":"http://terminology.hl7.org/CodeSystem/measure-population","code":"denominator","display":"Denominator"}]},"count":1},{"id":"Numerator_1","code":{"coding":[{"system":"http://terminology.hl7.org/CodeSystem/measure-population","code":"numerator","display":"Numerator"}]},"count":0},{"id":"DenominatorException_1","code":{"coding":[{"system":"http://terminology.hl7.org/CodeSystem/measure-population","code":"denominator-exception","display":"Denominator Exception"}]},"count":1}],"measureScore":{"value":1.0}},{"id":"Group_2","population":[{"id":"InitialPopulation_2","code":{"coding":[{"system":"http://terminology.hl7.org/CodeSystem/measure-population","code":"initial-population","display":"Initial Population"}]},"count":1},{"id":"Denominator_2","code":{"coding":[{"system":"http://terminology.hl7.org/CodeSystem/measure-population","code":"denominator","display":"Denominator"}]},"count":0},{"id":"Numerator_2","code":{"coding":[{"system":"http://terminology.hl7.org/CodeSystem/measure-population","code":"numerator","display":"Numerator"}]},"count":0},{"id":"DenominatorException_2","code":{"coding":[{"system":"http://terminology.hl7.org/CodeSystem/measure-population","code":"denominator-exception","display":"Denominator Exception"}]},"count":0}],"measureScore":{"value":1.0}}],"evaluatedResource":[{"reference":"Patient/5fd0d626-e9c5-4e6c-a10d-1a1183fa7702"},{"reference":"Encounter/32bbb095-0e8a-405f-a4c2-ebf69c348c3a"},{"reference":"Encounter/2f001f14-353b-4b83-9e3a-1eaaca155193"},{"reference":"Condition/e429bee0-a3cc-4e31-9108-48de1247d254"},{"reference":"Condition/0b70f0a9-399a-4290-baeb-2f44b836abcb"},{"reference":"Condition/52095795-9c4d-400d-8a26-9f8ce4a10031"}]},"request":{"method":"PUT","url":"MeasureReport/e77d8c36-369e-44b1-b1c2-3d04a89208aa"}},{"fullUrl":"Bundle/6541684616416845161","resource":{"resourceType":"Bundle","id":"6541684616416845161","type":"transaction","entry":[{"fullUrl":"https://madie.cms.gov/Patient/5fd0d626-e9c5-4e6c-a10d-1a1183fa7702","resource":{"resourceType":"Patient","id":"5fd0d626-e9c5-4e6c-a10d-1a1183fa7702","meta":{"profile":["http://hl7.org/fhir/us/qicore/StructureDefinition/qicore-patient"]},"extension":[{"url":"http://hl7.org/fhir/us/core/StructureDefinition/us-core-race","extension":[{"url":"ombCategory","valueCoding":{"system":"urn:oid:2.16.840.1.113883.6.238","code":"1002-5","display":"American Indian or Alaska Native"}},{"url":"text","valueString":"American Indian or Alaska Native"}]},{"url":"http://hl7.org/fhir/us/core/StructureDefinition/us-core-ethnicity","extension":[{"url":"ombCategory","valueCoding":{"system":"urn:oid:2.16.840.1.113883.6.238","code":"2186-5","display":"Not Hispanic or Latino"}},{"url":"text","valueString":"Not Hispanic or Latino"}]}],"identifier":[{"type":{"coding":[{"system":"http://terminology.hl7.org/CodeSystem/v2-0203","code":"MR"}]},"system":"https://bonnie-fhir.healthit.gov/","value":"63516844554684641"}],"active":true,"name":[{"use":"usual","family":"DENEXCEPPop1Pass","given":["BetaBlockerAllergyDiagnosis"]}],"gender":"female","birthDate":"1923-03-24"},"request":{"method":"PUT","url":"Patient/5fd0d626-e9c5-4e6c-a10d-1a1183fa7702"}},{"fullUrl":"https://madie.cms.gov/Encounter/32bbb095-0e8a-405f-a4c2-ebf69c348c3a","resource":{"resourceType":"Encounter","id":"32bbb095-0e8a-405f-a4c2-ebf69c348c3a","meta":{"profile":["http://hl7.org/fhir/us/qicore/StructureDefinition/qicore-encounter"]},"status":"finished","class":{"system":"http://terminology.hl7.org/CodeSystem/v3-ActCode","code":"AMB","display":"ambulatory encounter"},"type":[{"coding":[{"system":"http://www.ama-assn.org/go/cpt","version":"2024","code":"99205"}]}],"subject":{"reference":"Patient/5fd0d626-e9c5-4e6c-a10d-1a1183fa7702"},"period":{"start":"2026-04-05T06:00:00.000+00:00","end":"2026-04-05T07:00:00.000+00:00"}},"request":{"method":"PUT","url":"Encounter/32bbb095-0e8a-405f-a4c2-ebf69c348c3a"}},{"fullUrl":"https://madie.cms.gov/Encounter/2f001f14-353b-4b83-9e3a-1eaaca155193","resource":{"resourceType":"Encounter","id":"2f001f14-353b-4b83-9e3a-1eaaca155193","meta":{"profile":["http://hl7.org/fhir/us/qicore/StructureDefinition/qicore-encounter"]},"status":"finished","class":{"system":"http://terminology.hl7.org/CodeSystem/v3-ActCode","code":"AMB","display":"ambulatory encounter"},"type":[{"coding":[{"system":"http://www.ama-assn.org/go/cpt","version":"2024","code":"99205"}]}],"subject":{"reference":"Patient/5fd0d626-e9c5-4e6c-a10d-1a1183fa7702"},"period":{"start":"2026-07-08T09:00:00.000+00:00","end":"2026-07-08T09:00:00.000+00:00"}},"request":{"method":"PUT","url":"Encounter/2f001f14-353b-4b83-9e3a-1eaaca155193"}},{"fullUrl":"https://madie.cms.gov/Condition/e429bee0-a3cc-4e31-9108-48de1247d254","resource":{"resourceType":"Condition","id":"e429bee0-a3cc-4e31-9108-48de1247d254","meta":{"profile":["http://hl7.org/fhir/us/qicore/StructureDefinition/qicore-condition-problems-health-concerns"]},"clinicalStatus":{"coding":[{"system":"http://terminology.hl7.org/CodeSystem/condition-clinical","code":"active","display":"Active"}]},"verificationStatus":{"coding":[{"system":"http://terminology.hl7.org/CodeSystem/condition-ver-status","code":"confirmed","display":"Confirmed"}]},"category":[{"coding":[{"system":"http://terminology.hl7.org/CodeSystem/condition-category","code":"problem-list-item","display":"Problem List Item"}]}],"code":{"coding":[{"system":"http://snomed.info/sct","version":"http://snomed.info/sct/731000124108/version/20240301","code":"981000124106","display":"Moderate left ventricular systolic dysfunction (disorder)"}]},"subject":{"reference":"Patient/5fd0d626-e9c5-4e6c-a10d-1a1183fa7702"},"onsetPeriod":{"start":"2026-04-05T06:00:00.000+00:00"}},"request":{"method":"PUT","url":"Condition/e429bee0-a3cc-4e31-9108-48de1247d254"}},{"fullUrl":"https://madie.cms.gov/Condition/0b70f0a9-399a-4290-baeb-2f44b836abcb","resource":{"resourceType":"Condition","id":"0b70f0a9-399a-4290-baeb-2f44b836abcb","meta":{"profile":["http://hl7.org/fhir/us/qicore/StructureDefinition/qicore-condition-problems-health-concerns"]},"clinicalStatus":{"coding":[{"system":"http://terminology.hl7.org/CodeSystem/condition-clinical","code":"active","display":"Active"}]},"verificationStatus":{"coding":[{"system":"http://terminology.hl7.org/CodeSystem/condition-ver-status","code":"confirmed","display":"Confirmed"}]},"category":[{"coding":[{"system":"http://terminology.hl7.org/CodeSystem/condition-category","code":"problem-list-item","display":"Problem List Item"}]}],"code":{"coding":[{"system":"http://snomed.info/sct","version":"http://snomed.info/sct/731000124108/version/20240301","code":"10365005","display":"Right main coronary artery thrombosis (disorder)"}]},"subject":{"reference":"Patient/5fd0d626-e9c5-4e6c-a10d-1a1183fa7702"},"onsetPeriod":{"start":"2026-04-05T06:00:00.000+00:00"}},"request":{"method":"PUT","url":"Condition/0b70f0a9-399a-4290-baeb-2f44b836abcb"}},{"fullUrl":"https://madie.cms.gov/Condition/52095795-9c4d-400d-8a26-9f8ce4a10031","resource":{"resourceType":"Condition","id":"52095795-9c4d-400d-8a26-9f8ce4a10031","meta":{"profile":["http://hl7.org/fhir/us/qicore/StructureDefinition/qicore-condition-problems-health-concerns"]},"clinicalStatus":{"coding":[{"system":"http://terminology.hl7.org/CodeSystem/condition-clinical","code":"active","display":"Active"}]},"verificationStatus":{"coding":[{"system":"http://terminology.hl7.org/CodeSystem/condition-ver-status","code":"confirmed","display":"Confirmed"}]},"category":[{"coding":[{"system":"http://terminology.hl7.org/CodeSystem/condition-category","code":"problem-list-item","display":"Problem List Item"}]}],"code":{"coding":[{"system":"http://snomed.info/sct","version":"http://snomed.info/sct/731000124108/version/20240301","code":"293970004","display":"Allergy to metoprolol (finding)"}]},"subject":{"reference":"Patient/5fd0d626-e9c5-4e6c-a10d-1a1183fa7702"},"onsetPeriod":{"start":"2025-04-05T06:00:00.000+00:00"}},"request":{"method":"PUT","url":"Condition/52095795-9c4d-400d-8a26-9f8ce4a10031"}},{"fullUrl":"https://madie.cms.gov/MeasureReport/e77d8c36-369e-44b1-b1c2-3d04a89208aa","resource":{"resourceType":"MeasureReport","id":"e77d8c36-369e-44b1-b1c2-3d04a89208aa","meta":{"profile":["http://hl7.org/fhir/us/cqfmeasures/StructureDefinition/test-case-cqfm"]},"contained":[{"resourceType":"Parameters","id":"c19e6c9a-00f7-4f43-9904-f939d07af42f-parameters","parameter":[{"name":"subject","valueString":"5fd0d626-e9c5-4e6c-a10d-1a1183fa7702"}]}],"extension":[{"url":"http://hl7.org/fhir/StructureDefinition/cqf-inputParameters","valueReference":{"reference":"#c19e6c9a-00f7-4f43-9904-f939d07af42f-parameters"}},{"url":"http://hl7.org/fhir/us/cqfmeasures/StructureDefinition/cqfm-testCaseDescription","valueMarkdown":"Pt > 18, 2 amb. visits during MP, moderate LVSD and CAD (both with onset during 1st visit), and a Beta Blocker allergy Dx with onset during 1st visit"}],"modifierExtension":[{"url":"http://hl7.org/fhir/us/cqfmeasures/StructureDefinition/cqfm-isTestCase","valueBoolean":true}],"status":"complete","type":"individual","measure":"https://madie.cms.gov/Measure/CMS145FHIRCADBetaBlockerTherapyPriorMIorLVSD","period":{"start":"2026-01-01","end":"2026-12-31"},"group":[{"id":"Group_1","population":[{"id":"InitialPopulation_1","code":{"coding":[{"system":"http://terminology.hl7.org/CodeSystem/measure-population","code":"initial-population","display":"Initial Population"}]},"count":1},{"id":"Denominator_1","code":{"coding":[{"system":"http://terminology.hl7.org/CodeSystem/measure-population","code":"denominator","display":"Denominator"}]},"count":1},{"id":"Numerator_1","code":{"coding":[{"system":"http://terminology.hl7.org/CodeSystem/measure-population","code":"numerator","display":"Numerator"}]},"count":0},{"id":"DenominatorException_1","code":{"coding":[{"system":"http://terminology.hl7.org/CodeSystem/measure-population","code":"denominator-exception","display":"Denominator Exception"}]},"count":1}],"measureScore":{"value":1.0}},{"id":"Group_2","population":[{"id":"InitialPopulation_2","code":{"coding":[{"system":"http://terminology.hl7.org/CodeSystem/measure-population","code":"initial-population","display":"Initial Population"}]},"count":1},{"id":"Denominator_2","code":{"coding":[{"system":"http://terminology.hl7.org/CodeSystem/measure-population","code":"denominator","display":"Denominator"}]},"count":0},{"id":"Numerator_2","code":{"coding":[{"system":"http://terminology.hl7.org/CodeSystem/measure-population","code":"numerator","display":"Numerator"}]},"count":0},{"id":"DenominatorException_2","code":{"coding":[{"system":"http://terminology.hl7.org/CodeSystem/measure-population","code":"denominator-exception","display":"Denominator Exception"}]},"count":0}],"measureScore":{"value":1.0}}],"evaluatedResource":[{"reference":"Patient/5fd0d626-e9c5-4e6c-a10d-1a1183fa7702"},{"reference":"Encounter/32bbb095-0e8a-405f-a4c2-ebf69c348c3a"},{"reference":"Encounter/2f001f14-353b-4b83-9e3a-1eaaca155193"},{"reference":"Condition/e429bee0-a3cc-4e31-9108-48de1247d254"},{"reference":"Condition/0b70f0a9-399a-4290-baeb-2f44b836abcb"},{"reference":"Condition/52095795-9c4d-400d-8a26-9f8ce4a10031"}]},"request":{"method":"PUT","url":"MeasureReport/e77d8c36-369e-44b1-b1c2-3d04a89208aa"}}]},"request":{"method":"PUT","url":"Bundle/6541684616416845161"}},{"fullUrl":"Encounter/2f001f14-353b-4b83-9e3a-1eaaca155193","resource":{"resourceType":"Encounter","id":"2f001f14-353b-4b83-9e3a-1eaaca155193","meta":{"profile":["http://hl7.org/fhir/us/qicore/StructureDefinition/qicore-encounter"]},"status":"finished","class":{"system":"http://terminology.hl7.org/CodeSystem/v3-ActCode","code":"AMB","display":"ambulatory encounter"},"type":[{"coding":[{"system":"http://www.ama-assn.org/go/cpt","version":"2024","code":"99205"}]}],"subject":{"reference":"Patient/5fd0d626-e9c5-4e6c-a10d-1a1183fa7702"},"period":{"start":"2026-07-08T09:00:00.000+00:00","end":"2026-07-08T09:00:00.000+00:00"}},"request":{"method":"PUT","url":"Encounter/2f001f14-353b-4b83-9e3a-1eaaca155193"}},{"fullUrl":"Encounter/32bbb095-0e8a-405f-a4c2-ebf69c348c3a","resource":{"resourceType":"Encounter","id":"32bbb095-0e8a-405f-a4c2-ebf69c348c3a","meta":{"profile":["http://hl7.org/fhir/us/qicore/StructureDefinition/qicore-encounter"]},"status":"finished","class":{"system":"http://terminology.hl7.org/CodeSystem/v3-ActCode","code":"AMB","display":"ambulatory encounter"},"type":[{"coding":[{"system":"http://www.ama-assn.org/go/cpt","version":"2024","code":"99205"}]}],"subject":{"reference":"Patient/5fd0d626-e9c5-4e6c-a10d-1a1183fa7702"},"period":{"start":"2026-04-05T06:00:00.000+00:00","end":"2026-04-05T07:00:00.000+00:00"}},"request":{"method":"PUT","url":"Encounter/32bbb095-0e8a-405f-a4c2-ebf69c348c3a"}},{"fullUrl":"Condition/0b70f0a9-399a-4290-baeb-2f44b836abcb","resource":{"resourceType":"Condition","id":"0b70f0a9-399a-4290-baeb-2f44b836abcb","meta":{"profile":["http://hl7.org/fhir/us/qicore/StructureDefinition/qicore-condition-problems-health-concerns"]},"clinicalStatus":{"coding":[{"system":"http://terminology.hl7.org/CodeSystem/condition-clinical","code":"active","display":"Active"}]},"verificationStatus":{"coding":[{"system":"http://terminology.hl7.org/CodeSystem/condition-ver-status","code":"confirmed","display":"Confirmed"}]},"category":[{"coding":[{"system":"http://terminology.hl7.org/CodeSystem/condition-category","code":"problem-list-item","display":"Problem List Item"}]}],"code":{"coding":[{"system":"http://snomed.info/sct","version":"http://snomed.info/sct/731000124108/version/20240301","code":"10365005","display":"Right main coronary artery thrombosis (disorder)"}]},"subject":{"reference":"Patient/5fd0d626-e9c5-4e6c-a10d-1a1183fa7702"},"onsetPeriod":{"start":"2026-04-05T06:00:00.000+00:00"}},"request":{"method":"PUT","url":"Condition/0b70f0a9-399a-4290-baeb-2f44b836abcb"}},{"fullUrl":"Patient/5fd0d626-e9c5-4e6c-a10d-1a1183fa7702","resource":{"resourceType":"Patient","id":"5fd0d626-e9c5-4e6c-a10d-1a1183fa7702","meta":{"profile":["http://hl7.org/fhir/us/qicore/StructureDefinition/qicore-patient"]},"extension":[{"url":"http://hl7.org/fhir/us/core/StructureDefinition/us-core-race","extension":[{"url":"ombCategory","valueCoding":{"system":"urn:oid:2.16.840.1.113883.6.238","code":"1002-5","display":"American Indian or Alaska Native"}},{"url":"text","valueString":"American Indian or Alaska Native"}]},{"url":"http://hl7.org/fhir/us/core/StructureDefinition/us-core-ethnicity","extension":[{"url":"ombCategory","valueCoding":{"system":"urn:oid:2.16.840.1.113883.6.238","code":"2186-5","display":"Not Hispanic or Latino"}},{"url":"text","valueString":"Not Hispanic or Latino"}]}],"identifier":[{"type":{"coding":[{"system":"http://terminology.hl7.org/CodeSystem/v2-0203","code":"MR"}]},"system":"https://bonnie-fhir.healthit.gov/","value":"63516844554684641"}],"active":true,"name":[{"use":"usual","family":"DENEXCEPPop1Pass","given":["BetaBlockerAllergyDiagnosis"]}],"gender":"female","birthDate":"1923-03-24"},"request":{"method":"PUT","url":"Patient/5fd0d626-e9c5-4e6c-a10d-1a1183fa7702"}},{"fullUrl":"Condition/e429bee0-a3cc-4e31-9108-48de1247d254","resource":{"resourceType":"Condition","id":"e429bee0-a3cc-4e31-9108-48de1247d254","meta":{"profile":["http://hl7.org/fhir/us/qicore/StructureDefinition/qicore-condition-problems-health-concerns"]},"clinicalStatus":{"coding":[{"system":"http://terminology.hl7.org/CodeSystem/condition-clinical","code":"active","display":"Active"}]},"verificationStatus":{"coding":[{"system":"http://terminology.hl7.org/CodeSystem/condition-ver-status","code":"confirmed","display":"Confirmed"}]},"category":[{"coding":[{"system":"http://terminology.hl7.org/CodeSystem/condition-category","code":"problem-list-item","display":"Problem List Item"}]}],"code":{"coding":[{"system":"http://snomed.info/sct","version":"http://snomed.info/sct/731000124108/version/20240301","code":"981000124106","display":"Moderate left ventricular systolic dysfunction (disorder)"}]},"subject":{"reference":"Patient/5fd0d626-e9c5-4e6c-a10d-1a1183fa7702"},"onsetPeriod":{"start":"2026-04-05T06:00:00.000+00:00"}},"request":{"method":"PUT","url":"Condition/e429bee0-a3cc-4e31-9108-48de1247d254"}}]}