{"resourceType":"Bundle","id":"tests-bfacfb96-e784-4346-bf29-a20359dc0ba5-bundle","type":"transaction","entry":[{"resource":{"resourceType":"Bundle","id":"564134616513516133","type":"transaction","entry":[{"fullUrl":"https://madie.cms.gov/Patient/bfacfb96-e784-4346-bf29-a20359dc0ba5","resource":{"resourceType":"Patient","id":"bfacfb96-e784-4346-bf29-a20359dc0ba5","meta":{"profile":["http://hl7.org/fhir/us/qicore/StructureDefinition/qicore-patient"]},"extension":[{"url":"http://hl7.org/fhir/us/core/StructureDefinition/us-core-race","extension":[{"url":"ombCategory","valueCoding":{"system":"urn:oid:2.16.840.1.113883.6.238","code":"1002-5","display":"American Indian or Alaska Native"}},{"url":"text","valueString":"American Indian or Alaska Native"}]},{"url":"http://hl7.org/fhir/us/core/StructureDefinition/us-core-ethnicity","extension":[{"url":"ombCategory","valueCoding":{"system":"urn:oid:2.16.840.1.113883.6.238","code":"2186-5","display":"Not Hispanic or Latino"}},{"url":"text","valueString":"Not Hispanic or Latino"}]}],"identifier":[{"type":{"coding":[{"system":"http://terminology.hl7.org/CodeSystem/v2-0203","code":"MR"}]},"system":"https://bonnie-fhir.healthit.gov/","value":"4987465161613131321"}],"active":true,"name":[{"use":"usual","family":"DENEXCEPPop1Pass","given":["BetaAdrenergicAllergy"]}],"gender":"female","birthDate":"1923-03-24"},"request":{"method":"PUT","url":"Patient/bfacfb96-e784-4346-bf29-a20359dc0ba5"}},{"fullUrl":"https://madie.cms.gov/Encounter/e7bd617f-9970-4568-be3c-147723ec2327","resource":{"resourceType":"Encounter","id":"e7bd617f-9970-4568-be3c-147723ec2327","meta":{"profile":["http://hl7.org/fhir/us/qicore/StructureDefinition/qicore-encounter"]},"status":"finished","class":{"system":"http://terminology.hl7.org/CodeSystem/v3-ActCode","code":"AMB","display":"ambulatory encounter"},"type":[{"coding":[{"system":"http://www.ama-assn.org/go/cpt","version":"2024","code":"99205"}]}],"subject":{"reference":"Patient/bfacfb96-e784-4346-bf29-a20359dc0ba5"},"period":{"start":"2026-04-05T06:00:00.000+00:00","end":"2026-04-05T07:00:00.000+00:00"}},"request":{"method":"PUT","url":"Encounter/e7bd617f-9970-4568-be3c-147723ec2327"}},{"fullUrl":"https://madie.cms.gov/Encounter/898d3d0b-cfea-4854-92f3-9db5fac60db8","resource":{"resourceType":"Encounter","id":"898d3d0b-cfea-4854-92f3-9db5fac60db8","meta":{"profile":["http://hl7.org/fhir/us/qicore/StructureDefinition/qicore-encounter"]},"status":"finished","class":{"system":"http://terminology.hl7.org/CodeSystem/v3-ActCode","code":"AMB","display":"ambulatory encounter"},"type":[{"coding":[{"system":"http://www.ama-assn.org/go/cpt","version":"2024","code":"99205"}]}],"subject":{"reference":"Patient/bfacfb96-e784-4346-bf29-a20359dc0ba5"},"period":{"start":"2026-07-08T09:00:00.000+00:00","end":"2026-07-08T09:00:00.000+00:00"}},"request":{"method":"PUT","url":"Encounter/898d3d0b-cfea-4854-92f3-9db5fac60db8"}},{"fullUrl":"https://madie.cms.gov/Condition/3c4b5564-ad63-41e1-8b60-5bc2404dbcf7","resource":{"resourceType":"Condition","id":"3c4b5564-ad63-41e1-8b60-5bc2404dbcf7","meta":{"profile":["http://hl7.org/fhir/us/qicore/StructureDefinition/qicore-condition-problems-health-concerns"]},"clinicalStatus":{"coding":[{"system":"http://terminology.hl7.org/CodeSystem/condition-clinical","code":"active","display":"Active"}]},"verificationStatus":{"coding":[{"system":"http://terminology.hl7.org/CodeSystem/condition-ver-status","code":"confirmed","display":"Confirmed"}]},"category":[{"coding":[{"system":"http://terminology.hl7.org/CodeSystem/condition-category","code":"problem-list-item","display":"Problem List Item"}]}],"code":{"coding":[{"system":"http://hl7.org/fhir/sid/icd-10-cm","version":"2024","code":"I21.01"}]},"subject":{"reference":"Patient/bfacfb96-e784-4346-bf29-a20359dc0ba5"},"onsetPeriod":{"start":"2023-11-22T07:30:00.000+00:00","end":"2023-11-22T08:30:00.000+00:00"}},"request":{"method":"PUT","url":"Condition/3c4b5564-ad63-41e1-8b60-5bc2404dbcf7"}},{"fullUrl":"https://madie.cms.gov/Condition/d0007f70-3fbe-4f3f-b727-22e2a0a7f7a7","resource":{"resourceType":"Condition","id":"d0007f70-3fbe-4f3f-b727-22e2a0a7f7a7","meta":{"profile":["http://hl7.org/fhir/us/qicore/StructureDefinition/qicore-condition-problems-health-concerns"]},"clinicalStatus":{"coding":[{"system":"http://terminology.hl7.org/CodeSystem/condition-clinical","code":"active","display":"Active"}]},"verificationStatus":{"coding":[{"system":"http://terminology.hl7.org/CodeSystem/condition-ver-status","code":"confirmed"}]},"category":[{"coding":[{"system":"http://terminology.hl7.org/CodeSystem/condition-category","code":"problem-list-item","display":"Problem List Item"}]}],"severity":{"coding":[{"system":"http://snomed.info/sct","version":"http://snomed.info/sct/731000124108/version/20240301","code":"24484000","display":"Severe (severity modifier) (qualifier value)"}]},"code":{"coding":[{"system":"http://snomed.info/sct","version":"http://snomed.info/sct/731000124108/version/20240301","code":"134401001"}]},"subject":{"reference":"Patient/bfacfb96-e784-4346-bf29-a20359dc0ba5"},"onsetPeriod":{"start":"2026-01-21T07:00:00.000+00:00"}},"request":{"method":"PUT","url":"Condition/d0007f70-3fbe-4f3f-b727-22e2a0a7f7a7"}},{"fullUrl":"https://madie.cms.gov/Condition/42b21a73-d293-4a05-a6f0-81ad24249424","resource":{"resourceType":"Condition","id":"42b21a73-d293-4a05-a6f0-81ad24249424","meta":{"profile":["http://hl7.org/fhir/us/qicore/StructureDefinition/qicore-condition-problems-health-concerns"]},"clinicalStatus":{"coding":[{"system":"http://terminology.hl7.org/CodeSystem/condition-clinical","code":"active","display":"Active"}]},"verificationStatus":{"coding":[{"system":"http://terminology.hl7.org/CodeSystem/condition-ver-status","code":"confirmed","display":"Confirmed"}]},"category":[{"coding":[{"system":"http://terminology.hl7.org/CodeSystem/condition-category","code":"problem-list-item","display":"Problem List Item"}]}],"code":{"coding":[{"system":"http://snomed.info/sct","version":"http://snomed.info/sct/731000124108/version/20240301","code":"10365005","display":"Right main coronary artery thrombosis (disorder)"}]},"subject":{"reference":"Patient/bfacfb96-e784-4346-bf29-a20359dc0ba5"},"onsetPeriod":{"start":"2026-07-06T00:00:00.000+00:00"}},"request":{"method":"PUT","url":"Condition/42b21a73-d293-4a05-a6f0-81ad24249424"}},{"fullUrl":"https://madie.cms.gov/AllergyIntolerance/6d84abd9-d882-4105-9dd0-0d65f18187ae","resource":{"resourceType":"AllergyIntolerance","id":"6d84abd9-d882-4105-9dd0-0d65f18187ae","meta":{"profile":["http://hl7.org/fhir/us/qicore/StructureDefinition/qicore-allergyintolerance"]},"clinicalStatus":{"coding":[{"system":"http://terminology.hl7.org/CodeSystem/allergyintolerance-clinical","code":"active"}]},"verificationStatus":{"coding":[{"system":"http://terminology.hl7.org/CodeSystem/allergyintolerance-verification","code":"confirmed"}]},"type":"allergy","criticality":"high","code":{"coding":[{"system":"http://snomed.info/sct","version":"http://snomed.info/sct/731000124108/version/20240301","code":"373254001","display":"Substance with beta adrenergic receptor antagonist mechanism of action (substance)"}]},"patient":{"reference":"Patient/bfacfb96-e784-4346-bf29-a20359dc0ba5"},"onsetDateTime":"2022-10-01","recordedDate":"2022-10-01T14:00:00.000+00:00"},"request":{"method":"PUT","url":"AllergyIntolerance/6d84abd9-d882-4105-9dd0-0d65f18187ae"}},{"fullUrl":"https://madie.cms.gov/MeasureReport/95b2b8ad-a5d8-4c47-a7e4-022ca2169413","resource":{"resourceType":"MeasureReport","id":"95b2b8ad-a5d8-4c47-a7e4-022ca2169413","meta":{"profile":["http://hl7.org/fhir/us/cqfmeasures/StructureDefinition/test-case-cqfm"]},"contained":[{"resourceType":"Parameters","id":"c37747df-1427-4fb5-9a9a-5dffc0bec858-parameters","parameter":[{"name":"subject","valueString":"bfacfb96-e784-4346-bf29-a20359dc0ba5"}]}],"extension":[{"url":"http://hl7.org/fhir/StructureDefinition/cqf-inputParameters","valueReference":{"reference":"#c37747df-1427-4fb5-9a9a-5dffc0bec858-parameters"}},{"url":"http://hl7.org/fhir/us/cqfmeasures/StructureDefinition/cqfm-testCaseDescription","valueMarkdown":"Pt > 18, 2 amb. visits during MP, an MI Dx with onset > 2 yrs before MP, an LVSD Dx with onset during MP but before 1st visit, a qualifying CAD Encounter, and a beta adrenergic receptor allergy start > 3 years before MP and ongoing"}],"modifierExtension":[{"url":"http://hl7.org/fhir/us/cqfmeasures/StructureDefinition/cqfm-isTestCase","valueBoolean":true}],"status":"complete","type":"individual","measure":"https://madie.cms.gov/Measure/CMS145FHIRCADBetaBlockerTherapyPriorMIorLVSD","period":{"start":"2026-01-01","end":"2026-12-31"},"group":[{"id":"Group_1","population":[{"id":"InitialPopulation_1","code":{"coding":[{"system":"http://terminology.hl7.org/CodeSystem/measure-population","code":"initial-population","display":"Initial Population"}]},"count":1},{"id":"Denominator_1","code":{"coding":[{"system":"http://terminology.hl7.org/CodeSystem/measure-population","code":"denominator","display":"Denominator"}]},"count":1},{"id":"Numerator_1","code":{"coding":[{"system":"http://terminology.hl7.org/CodeSystem/measure-population","code":"numerator","display":"Numerator"}]},"count":0},{"id":"DenominatorException_1","code":{"coding":[{"system":"http://terminology.hl7.org/CodeSystem/measure-population","code":"denominator-exception","display":"Denominator Exception"}]},"count":1}],"measureScore":{"value":1.0}},{"id":"Group_2","population":[{"id":"InitialPopulation_2","code":{"coding":[{"system":"http://terminology.hl7.org/CodeSystem/measure-population","code":"initial-population","display":"Initial Population"}]},"count":1},{"id":"Denominator_2","code":{"coding":[{"system":"http://terminology.hl7.org/CodeSystem/measure-population","code":"denominator","display":"Denominator"}]},"count":0},{"id":"Numerator_2","code":{"coding":[{"system":"http://terminology.hl7.org/CodeSystem/measure-population","code":"numerator","display":"Numerator"}]},"count":0},{"id":"DenominatorException_2","code":{"coding":[{"system":"http://terminology.hl7.org/CodeSystem/measure-population","code":"denominator-exception","display":"Denominator Exception"}]},"count":0}],"measureScore":{"value":1.0}}],"evaluatedResource":[{"reference":"Patient/bfacfb96-e784-4346-bf29-a20359dc0ba5"},{"reference":"Encounter/e7bd617f-9970-4568-be3c-147723ec2327"},{"reference":"Encounter/898d3d0b-cfea-4854-92f3-9db5fac60db8"},{"reference":"Condition/3c4b5564-ad63-41e1-8b60-5bc2404dbcf7"},{"reference":"Condition/d0007f70-3fbe-4f3f-b727-22e2a0a7f7a7"},{"reference":"Condition/42b21a73-d293-4a05-a6f0-81ad24249424"},{"reference":"AllergyIntolerance/6d84abd9-d882-4105-9dd0-0d65f18187ae"}]},"request":{"method":"PUT","url":"MeasureReport/95b2b8ad-a5d8-4c47-a7e4-022ca2169413"}}]},"request":{"method":"PUT","url":"Bundle/564134616513516133"}},{"resource":{"resourceType":"Condition","id":"d0007f70-3fbe-4f3f-b727-22e2a0a7f7a7","meta":{"profile":["http://hl7.org/fhir/us/qicore/StructureDefinition/qicore-condition-problems-health-concerns"]},"clinicalStatus":{"coding":[{"system":"http://terminology.hl7.org/CodeSystem/condition-clinical","code":"active","display":"Active"}]},"verificationStatus":{"coding":[{"system":"http://terminology.hl7.org/CodeSystem/condition-ver-status","code":"confirmed"}]},"category":[{"coding":[{"system":"http://terminology.hl7.org/CodeSystem/condition-category","code":"problem-list-item","display":"Problem List Item"}]}],"severity":{"coding":[{"system":"http://snomed.info/sct","version":"http://snomed.info/sct/731000124108/version/20240301","code":"24484000","display":"Severe (severity modifier) (qualifier value)"}]},"code":{"coding":[{"system":"http://snomed.info/sct","version":"http://snomed.info/sct/731000124108/version/20240301","code":"134401001"}]},"subject":{"reference":"Patient/bfacfb96-e784-4346-bf29-a20359dc0ba5"},"onsetPeriod":{"start":"2026-01-21T07:00:00.000+00:00"}},"request":{"method":"PUT","url":"Condition/d0007f70-3fbe-4f3f-b727-22e2a0a7f7a7"}},{"resource":{"resourceType":"Encounter","id":"898d3d0b-cfea-4854-92f3-9db5fac60db8","meta":{"profile":["http://hl7.org/fhir/us/qicore/StructureDefinition/qicore-encounter"]},"status":"finished","class":{"system":"http://terminology.hl7.org/CodeSystem/v3-ActCode","code":"AMB","display":"ambulatory encounter"},"type":[{"coding":[{"system":"http://www.ama-assn.org/go/cpt","version":"2024","code":"99205"}]}],"subject":{"reference":"Patient/bfacfb96-e784-4346-bf29-a20359dc0ba5"},"period":{"start":"2026-07-08T09:00:00.000+00:00","end":"2026-07-08T09:00:00.000+00:00"}},"request":{"method":"PUT","url":"Encounter/898d3d0b-cfea-4854-92f3-9db5fac60db8"}},{"resource":{"resourceType":"Patient","id":"bfacfb96-e784-4346-bf29-a20359dc0ba5","meta":{"profile":["http://hl7.org/fhir/us/qicore/StructureDefinition/qicore-patient"]},"extension":[{"url":"http://hl7.org/fhir/us/core/StructureDefinition/us-core-race","extension":[{"url":"ombCategory","valueCoding":{"system":"urn:oid:2.16.840.1.113883.6.238","code":"1002-5","display":"American Indian or Alaska Native"}},{"url":"text","valueString":"American Indian or Alaska Native"}]},{"url":"http://hl7.org/fhir/us/core/StructureDefinition/us-core-ethnicity","extension":[{"url":"ombCategory","valueCoding":{"system":"urn:oid:2.16.840.1.113883.6.238","code":"2186-5","display":"Not Hispanic or Latino"}},{"url":"text","valueString":"Not Hispanic or Latino"}]}],"identifier":[{"type":{"coding":[{"system":"http://terminology.hl7.org/CodeSystem/v2-0203","code":"MR"}]},"system":"https://bonnie-fhir.healthit.gov/","value":"4987465161613131321"}],"active":true,"name":[{"use":"usual","family":"DENEXCEPPop1Pass","given":["BetaAdrenergicAllergy"]}],"gender":"female","birthDate":"1923-03-24"},"request":{"method":"PUT","url":"Patient/bfacfb96-e784-4346-bf29-a20359dc0ba5"}},{"resource":{"resourceType":"AllergyIntolerance","id":"6d84abd9-d882-4105-9dd0-0d65f18187ae","meta":{"profile":["http://hl7.org/fhir/us/qicore/StructureDefinition/qicore-allergyintolerance"]},"clinicalStatus":{"coding":[{"system":"http://terminology.hl7.org/CodeSystem/allergyintolerance-clinical","code":"active"}]},"verificationStatus":{"coding":[{"system":"http://terminology.hl7.org/CodeSystem/allergyintolerance-verification","code":"confirmed"}]},"type":"allergy","criticality":"high","code":{"coding":[{"system":"http://snomed.info/sct","version":"http://snomed.info/sct/731000124108/version/20240301","code":"373254001","display":"Substance with beta adrenergic receptor antagonist mechanism of action (substance)"}]},"patient":{"reference":"Patient/bfacfb96-e784-4346-bf29-a20359dc0ba5"},"onsetDateTime":"2022-10-01","recordedDate":"2022-10-01T14:00:00.000+00:00"},"request":{"method":"PUT","url":"AllergyIntolerance/6d84abd9-d882-4105-9dd0-0d65f18187ae"}},{"resource":{"resourceType":"Condition","id":"42b21a73-d293-4a05-a6f0-81ad24249424","meta":{"profile":["http://hl7.org/fhir/us/qicore/StructureDefinition/qicore-condition-problems-health-concerns"]},"clinicalStatus":{"coding":[{"system":"http://terminology.hl7.org/CodeSystem/condition-clinical","code":"active","display":"Active"}]},"verificationStatus":{"coding":[{"system":"http://terminology.hl7.org/CodeSystem/condition-ver-status","code":"confirmed","display":"Confirmed"}]},"category":[{"coding":[{"system":"http://terminology.hl7.org/CodeSystem/condition-category","code":"problem-list-item","display":"Problem List Item"}]}],"code":{"coding":[{"system":"http://snomed.info/sct","version":"http://snomed.info/sct/731000124108/version/20240301","code":"10365005","display":"Right main coronary artery thrombosis (disorder)"}]},"subject":{"reference":"Patient/bfacfb96-e784-4346-bf29-a20359dc0ba5"},"onsetPeriod":{"start":"2026-07-06T00:00:00.000+00:00"}},"request":{"method":"PUT","url":"Condition/42b21a73-d293-4a05-a6f0-81ad24249424"}},{"resource":{"resourceType":"Encounter","id":"e7bd617f-9970-4568-be3c-147723ec2327","meta":{"profile":["http://hl7.org/fhir/us/qicore/StructureDefinition/qicore-encounter"]},"status":"finished","class":{"system":"http://terminology.hl7.org/CodeSystem/v3-ActCode","code":"AMB","display":"ambulatory encounter"},"type":[{"coding":[{"system":"http://www.ama-assn.org/go/cpt","version":"2024","code":"99205"}]}],"subject":{"reference":"Patient/bfacfb96-e784-4346-bf29-a20359dc0ba5"},"period":{"start":"2026-04-05T06:00:00.000+00:00","end":"2026-04-05T07:00:00.000+00:00"}},"request":{"method":"PUT","url":"Encounter/e7bd617f-9970-4568-be3c-147723ec2327"}},{"resource":{"resourceType":"Condition","id":"3c4b5564-ad63-41e1-8b60-5bc2404dbcf7","meta":{"profile":["http://hl7.org/fhir/us/qicore/StructureDefinition/qicore-condition-problems-health-concerns"]},"clinicalStatus":{"coding":[{"system":"http://terminology.hl7.org/CodeSystem/condition-clinical","code":"active","display":"Active"}]},"verificationStatus":{"coding":[{"system":"http://terminology.hl7.org/CodeSystem/condition-ver-status","code":"confirmed","display":"Confirmed"}]},"category":[{"coding":[{"system":"http://terminology.hl7.org/CodeSystem/condition-category","code":"problem-list-item","display":"Problem List Item"}]}],"code":{"coding":[{"system":"http://hl7.org/fhir/sid/icd-10-cm","version":"2024","code":"I21.01"}]},"subject":{"reference":"Patient/bfacfb96-e784-4346-bf29-a20359dc0ba5"},"onsetPeriod":{"start":"2023-11-22T07:30:00.000+00:00","end":"2023-11-22T08:30:00.000+00:00"}},"request":{"method":"PUT","url":"Condition/3c4b5564-ad63-41e1-8b60-5bc2404dbcf7"}},{"resource":{"resourceType":"MeasureReport","id":"95b2b8ad-a5d8-4c47-a7e4-022ca2169413","meta":{"profile":["http://hl7.org/fhir/us/cqfmeasures/StructureDefinition/test-case-cqfm"]},"contained":[{"resourceType":"Parameters","id":"c37747df-1427-4fb5-9a9a-5dffc0bec858-parameters","parameter":[{"name":"subject","valueString":"bfacfb96-e784-4346-bf29-a20359dc0ba5"}]}],"extension":[{"url":"http://hl7.org/fhir/StructureDefinition/cqf-inputParameters","valueReference":{"reference":"#c37747df-1427-4fb5-9a9a-5dffc0bec858-parameters"}},{"url":"http://hl7.org/fhir/us/cqfmeasures/StructureDefinition/cqfm-testCaseDescription","valueMarkdown":"Pt > 18, 2 amb. visits during MP, an MI Dx with onset > 2 yrs before MP, an LVSD Dx with onset during MP but before 1st visit, a qualifying CAD Encounter, and a beta adrenergic receptor allergy start > 3 years before MP and ongoing"}],"modifierExtension":[{"url":"http://hl7.org/fhir/us/cqfmeasures/StructureDefinition/cqfm-isTestCase","valueBoolean":true}],"status":"complete","type":"individual","measure":"https://madie.cms.gov/Measure/CMS145FHIRCADBetaBlockerTherapyPriorMIorLVSD","period":{"start":"2026-01-01","end":"2026-12-31"},"group":[{"id":"Group_1","population":[{"id":"InitialPopulation_1","code":{"coding":[{"system":"http://terminology.hl7.org/CodeSystem/measure-population","code":"initial-population","display":"Initial Population"}]},"count":1},{"id":"Denominator_1","code":{"coding":[{"system":"http://terminology.hl7.org/CodeSystem/measure-population","code":"denominator","display":"Denominator"}]},"count":1},{"id":"Numerator_1","code":{"coding":[{"system":"http://terminology.hl7.org/CodeSystem/measure-population","code":"numerator","display":"Numerator"}]},"count":0},{"id":"DenominatorException_1","code":{"coding":[{"system":"http://terminology.hl7.org/CodeSystem/measure-population","code":"denominator-exception","display":"Denominator Exception"}]},"count":1}],"measureScore":{"value":1.0}},{"id":"Group_2","population":[{"id":"InitialPopulation_2","code":{"coding":[{"system":"http://terminology.hl7.org/CodeSystem/measure-population","code":"initial-population","display":"Initial Population"}]},"count":1},{"id":"Denominator_2","code":{"coding":[{"system":"http://terminology.hl7.org/CodeSystem/measure-population","code":"denominator","display":"Denominator"}]},"count":0},{"id":"Numerator_2","code":{"coding":[{"system":"http://terminology.hl7.org/CodeSystem/measure-population","code":"numerator","display":"Numerator"}]},"count":0},{"id":"DenominatorException_2","code":{"coding":[{"system":"http://terminology.hl7.org/CodeSystem/measure-population","code":"denominator-exception","display":"Denominator Exception"}]},"count":0}],"measureScore":{"value":1.0}}],"evaluatedResource":[{"reference":"Patient/bfacfb96-e784-4346-bf29-a20359dc0ba5"},{"reference":"Encounter/e7bd617f-9970-4568-be3c-147723ec2327"},{"reference":"Encounter/898d3d0b-cfea-4854-92f3-9db5fac60db8"},{"reference":"Condition/3c4b5564-ad63-41e1-8b60-5bc2404dbcf7"},{"reference":"Condition/d0007f70-3fbe-4f3f-b727-22e2a0a7f7a7"},{"reference":"Condition/42b21a73-d293-4a05-a6f0-81ad24249424"},{"reference":"AllergyIntolerance/6d84abd9-d882-4105-9dd0-0d65f18187ae"}]},"request":{"method":"PUT","url":"MeasureReport/95b2b8ad-a5d8-4c47-a7e4-022ca2169413"}}]}