{"resourceType":"Bundle","id":"tests-a579d7e2-37c4-47ea-937d-524bba26ba2f-bundle","type":"transaction","entry":[{"resource":{"resourceType":"Patient","id":"a579d7e2-37c4-47ea-937d-524bba26ba2f","meta":{"profile":["http://hl7.org/fhir/us/qicore/StructureDefinition/qicore-patient"]},"extension":[{"url":"http://hl7.org/fhir/us/core/StructureDefinition/us-core-race","extension":[{"url":"ombCategory","valueCoding":{"system":"urn:oid:2.16.840.1.113883.6.238","code":"1002-5","display":"American Indian or Alaska Native"}},{"url":"text","valueString":"American Indian or Alaska Native"}]},{"url":"http://hl7.org/fhir/us/core/StructureDefinition/us-core-ethnicity","extension":[{"url":"ombCategory","valueCoding":{"system":"urn:oid:2.16.840.1.113883.6.238","code":"2186-5","display":"Not Hispanic or Latino"}},{"url":"text","valueString":"Not Hispanic or Latino"}]}],"identifier":[{"type":{"coding":[{"system":"http://terminology.hl7.org/CodeSystem/v2-0203","code":"MR"}]},"system":"https://bonnie-fhir.healthit.gov/","value":"4987465161613131321"}],"active":true,"name":[{"use":"usual","family":"DENEXCEPPop1Pass","given":["BetaAdrenergicAllergy"]}],"gender":"female","birthDate":"1923-03-24"},"request":{"method":"PUT","url":"Patient/a579d7e2-37c4-47ea-937d-524bba26ba2f"}},{"resource":{"resourceType":"Encounter","id":"b7db9469-2da3-414f-abe4-6aef0ff1fb29","meta":{"profile":["http://hl7.org/fhir/us/qicore/StructureDefinition/qicore-encounter"]},"status":"finished","class":{"system":"http://terminology.hl7.org/CodeSystem/v3-ActCode","code":"AMB","display":"ambulatory encounter"},"type":[{"coding":[{"system":"http://www.ama-assn.org/go/cpt","version":"2024","code":"99205"}]}],"subject":{"reference":"Patient/a579d7e2-37c4-47ea-937d-524bba26ba2f"},"period":{"start":"2026-04-05T06:00:00.000+00:00","end":"2026-04-05T07:00:00.000+00:00"}},"request":{"method":"PUT","url":"Encounter/b7db9469-2da3-414f-abe4-6aef0ff1fb29"}},{"resource":{"resourceType":"Bundle","id":"564134616513516133","type":"transaction","entry":[{"fullUrl":"https://madie.cms.gov/Patient/a579d7e2-37c4-47ea-937d-524bba26ba2f","resource":{"resourceType":"Patient","id":"a579d7e2-37c4-47ea-937d-524bba26ba2f","meta":{"profile":["http://hl7.org/fhir/us/qicore/StructureDefinition/qicore-patient"]},"extension":[{"url":"http://hl7.org/fhir/us/core/StructureDefinition/us-core-race","extension":[{"url":"ombCategory","valueCoding":{"system":"urn:oid:2.16.840.1.113883.6.238","code":"1002-5","display":"American Indian or Alaska Native"}},{"url":"text","valueString":"American Indian or Alaska Native"}]},{"url":"http://hl7.org/fhir/us/core/StructureDefinition/us-core-ethnicity","extension":[{"url":"ombCategory","valueCoding":{"system":"urn:oid:2.16.840.1.113883.6.238","code":"2186-5","display":"Not Hispanic or Latino"}},{"url":"text","valueString":"Not Hispanic or Latino"}]}],"identifier":[{"type":{"coding":[{"system":"http://terminology.hl7.org/CodeSystem/v2-0203","code":"MR"}]},"system":"https://bonnie-fhir.healthit.gov/","value":"4987465161613131321"}],"active":true,"name":[{"use":"usual","family":"DENEXCEPPop1Pass","given":["BetaAdrenergicAllergy"]}],"gender":"female","birthDate":"1923-03-24"},"request":{"method":"PUT","url":"Patient/a579d7e2-37c4-47ea-937d-524bba26ba2f"}},{"fullUrl":"https://madie.cms.gov/Encounter/b7db9469-2da3-414f-abe4-6aef0ff1fb29","resource":{"resourceType":"Encounter","id":"b7db9469-2da3-414f-abe4-6aef0ff1fb29","meta":{"profile":["http://hl7.org/fhir/us/qicore/StructureDefinition/qicore-encounter"]},"status":"finished","class":{"system":"http://terminology.hl7.org/CodeSystem/v3-ActCode","code":"AMB","display":"ambulatory encounter"},"type":[{"coding":[{"system":"http://www.ama-assn.org/go/cpt","version":"2024","code":"99205"}]}],"subject":{"reference":"Patient/a579d7e2-37c4-47ea-937d-524bba26ba2f"},"period":{"start":"2026-04-05T06:00:00.000+00:00","end":"2026-04-05T07:00:00.000+00:00"}},"request":{"method":"PUT","url":"Encounter/b7db9469-2da3-414f-abe4-6aef0ff1fb29"}},{"fullUrl":"https://madie.cms.gov/Encounter/401e2a21-127c-433a-91de-7c05af4fc20a","resource":{"resourceType":"Encounter","id":"401e2a21-127c-433a-91de-7c05af4fc20a","meta":{"profile":["http://hl7.org/fhir/us/qicore/StructureDefinition/qicore-encounter"]},"status":"finished","class":{"system":"http://terminology.hl7.org/CodeSystem/v3-ActCode","code":"AMB","display":"ambulatory encounter"},"type":[{"coding":[{"system":"http://www.ama-assn.org/go/cpt","version":"2024","code":"99205"}]}],"subject":{"reference":"Patient/a579d7e2-37c4-47ea-937d-524bba26ba2f"},"period":{"start":"2026-07-08T09:00:00.000+00:00","end":"2026-07-08T09:00:00.000+00:00"}},"request":{"method":"PUT","url":"Encounter/401e2a21-127c-433a-91de-7c05af4fc20a"}},{"fullUrl":"https://madie.cms.gov/Condition/1e460fc4-c5e7-4205-ace2-dbd5f6ca9b49","resource":{"resourceType":"Condition","id":"1e460fc4-c5e7-4205-ace2-dbd5f6ca9b49","meta":{"profile":["http://hl7.org/fhir/us/qicore/StructureDefinition/qicore-condition-problems-health-concerns"]},"clinicalStatus":{"coding":[{"system":"http://terminology.hl7.org/CodeSystem/condition-clinical","code":"active","display":"Active"}]},"verificationStatus":{"coding":[{"system":"http://terminology.hl7.org/CodeSystem/condition-ver-status","code":"confirmed","display":"Confirmed"}]},"category":[{"coding":[{"system":"http://terminology.hl7.org/CodeSystem/condition-category","code":"problem-list-item","display":"Problem List Item"}]}],"code":{"coding":[{"system":"http://hl7.org/fhir/sid/icd-10-cm","version":"2024","code":"I21.01"}]},"subject":{"reference":"Patient/a579d7e2-37c4-47ea-937d-524bba26ba2f"},"onsetPeriod":{"start":"2023-11-22T07:30:00.000+00:00","end":"2023-11-22T08:30:00.000+00:00"}},"request":{"method":"PUT","url":"Condition/1e460fc4-c5e7-4205-ace2-dbd5f6ca9b49"}},{"fullUrl":"https://madie.cms.gov/Condition/15d4a8a4-a8d2-4e3f-a189-08524344211b","resource":{"resourceType":"Condition","id":"15d4a8a4-a8d2-4e3f-a189-08524344211b","meta":{"profile":["http://hl7.org/fhir/us/qicore/StructureDefinition/qicore-condition-encounter-diagnosis"]},"clinicalStatus":{"coding":[{"system":"http://terminology.hl7.org/CodeSystem/condition-clinical","code":"active","display":"Active"}]},"verificationStatus":{"coding":[{"system":"http://terminology.hl7.org/CodeSystem/condition-ver-status","code":"confirmed"}]},"category":[{"coding":[{"system":"http://terminology.hl7.org/CodeSystem/condition-category","code":"encounter-diagnosis","display":"Encounter Diagnosis"}]}],"severity":{"coding":[{"system":"http://snomed.info/sct","version":"http://snomed.info/sct/731000124108/version/20240301","code":"24484000","display":"Severe (severity modifier) (qualifier value)"}]},"code":{"coding":[{"system":"http://snomed.info/sct","version":"http://snomed.info/sct/731000124108/version/20240301","code":"134401001"}]},"subject":{"reference":"Patient/a579d7e2-37c4-47ea-937d-524bba26ba2f"},"onsetPeriod":{"start":"2026-01-21T07:00:00.000+00:00"}},"request":{"method":"PUT","url":"Condition/15d4a8a4-a8d2-4e3f-a189-08524344211b"}},{"fullUrl":"https://madie.cms.gov/Condition/cb56de2f-cb5e-4ad5-b1d2-a92a17221a1b","resource":{"resourceType":"Condition","id":"cb56de2f-cb5e-4ad5-b1d2-a92a17221a1b","meta":{"profile":["http://hl7.org/fhir/us/qicore/StructureDefinition/qicore-condition-problems-health-concerns"]},"clinicalStatus":{"coding":[{"system":"http://terminology.hl7.org/CodeSystem/condition-clinical","code":"active","display":"Active"}]},"verificationStatus":{"coding":[{"system":"http://terminology.hl7.org/CodeSystem/condition-ver-status","code":"confirmed","display":"Confirmed"}]},"category":[{"coding":[{"system":"http://terminology.hl7.org/CodeSystem/condition-category","code":"problem-list-item","display":"Problem List Item"}]}],"code":{"coding":[{"system":"http://snomed.info/sct","version":"http://snomed.info/sct/731000124108/version/20240301","code":"10365005","display":"Right main coronary artery thrombosis (disorder)"}]},"subject":{"reference":"Patient/a579d7e2-37c4-47ea-937d-524bba26ba2f"},"onsetPeriod":{"start":"2026-07-06T00:00:00.000+00:00"}},"request":{"method":"PUT","url":"Condition/cb56de2f-cb5e-4ad5-b1d2-a92a17221a1b"}},{"fullUrl":"https://madie.cms.gov/AllergyIntolerance/a8381159-e044-4d9b-9c99-cd05548fbe17","resource":{"resourceType":"AllergyIntolerance","id":"a8381159-e044-4d9b-9c99-cd05548fbe17","meta":{"profile":["http://hl7.org/fhir/us/qicore/StructureDefinition/qicore-allergyintolerance"]},"clinicalStatus":{"coding":[{"system":"http://terminology.hl7.org/CodeSystem/allergyintolerance-clinical","code":"active"}]},"verificationStatus":{"coding":[{"system":"http://terminology.hl7.org/CodeSystem/allergyintolerance-verification","code":"confirmed"}]},"type":"allergy","criticality":"high","code":{"coding":[{"system":"http://snomed.info/sct","version":"http://snomed.info/sct/731000124108/version/20240301","code":"373254001","display":"Substance with beta adrenergic receptor antagonist mechanism of action (substance)"}]},"patient":{"reference":"Patient/a579d7e2-37c4-47ea-937d-524bba26ba2f"},"onsetDateTime":"2022-10-01","recordedDate":"2022-10-01T14:00:00.000+00:00"},"request":{"method":"PUT","url":"AllergyIntolerance/a8381159-e044-4d9b-9c99-cd05548fbe17"}},{"fullUrl":"https://madie.cms.gov/MeasureReport/4c39062c-6d97-4feb-9c54-e9e18a310ff0","resource":{"resourceType":"MeasureReport","id":"4c39062c-6d97-4feb-9c54-e9e18a310ff0","meta":{"profile":["http://hl7.org/fhir/us/cqfmeasures/StructureDefinition/test-case-cqfm"]},"contained":[{"resourceType":"Parameters","id":"ce5db30d-3738-4541-8d35-cf0bcc6bd753-parameters","parameter":[{"name":"subject","valueString":"a579d7e2-37c4-47ea-937d-524bba26ba2f"}]}],"extension":[{"url":"http://hl7.org/fhir/StructureDefinition/cqf-inputParameters","valueReference":{"reference":"#ce5db30d-3738-4541-8d35-cf0bcc6bd753-parameters"}},{"url":"http://hl7.org/fhir/us/cqfmeasures/StructureDefinition/cqfm-testCaseDescription","valueMarkdown":"Pt > 18, 2 amb. visits during MP, an MI Dx with onset > 2 yrs before MP, an LVSD Dx with onset during MP but before 1st visit, a qualifying CAD Encounter, and a beta adrenergic receptor allergy start > 3 years before MP and ongoing"}],"modifierExtension":[{"url":"http://hl7.org/fhir/us/cqfmeasures/StructureDefinition/cqfm-isTestCase","valueBoolean":true}],"status":"complete","type":"individual","measure":"https://madie.cms.gov/Measure/CMS145FHIRCADBetaBlockerTherapyPriorMIorLVSD","period":{"start":"2026-01-01","end":"2026-12-31"},"group":[{"id":"Group_1","population":[{"id":"InitialPopulation_1","code":{"coding":[{"system":"http://terminology.hl7.org/CodeSystem/measure-population","code":"initial-population","display":"Initial Population"}]},"count":1},{"id":"Denominator_1","code":{"coding":[{"system":"http://terminology.hl7.org/CodeSystem/measure-population","code":"denominator","display":"Denominator"}]},"count":1},{"id":"Numerator_1","code":{"coding":[{"system":"http://terminology.hl7.org/CodeSystem/measure-population","code":"numerator","display":"Numerator"}]},"count":0},{"id":"DenominatorException_1","code":{"coding":[{"system":"http://terminology.hl7.org/CodeSystem/measure-population","code":"denominator-exception","display":"Denominator Exception"}]},"count":1}],"measureScore":{"value":1.0}},{"id":"Group_2","population":[{"id":"InitialPopulation_2","code":{"coding":[{"system":"http://terminology.hl7.org/CodeSystem/measure-population","code":"initial-population","display":"Initial Population"}]},"count":1},{"id":"Denominator_2","code":{"coding":[{"system":"http://terminology.hl7.org/CodeSystem/measure-population","code":"denominator","display":"Denominator"}]},"count":0},{"id":"Numerator_2","code":{"coding":[{"system":"http://terminology.hl7.org/CodeSystem/measure-population","code":"numerator","display":"Numerator"}]},"count":0},{"id":"DenominatorException_2","code":{"coding":[{"system":"http://terminology.hl7.org/CodeSystem/measure-population","code":"denominator-exception","display":"Denominator Exception"}]},"count":0}],"measureScore":{"value":1.0}}],"evaluatedResource":[{"reference":"Patient/a579d7e2-37c4-47ea-937d-524bba26ba2f"},{"reference":"Encounter/b7db9469-2da3-414f-abe4-6aef0ff1fb29"},{"reference":"Encounter/401e2a21-127c-433a-91de-7c05af4fc20a"},{"reference":"Condition/1e460fc4-c5e7-4205-ace2-dbd5f6ca9b49"},{"reference":"Condition/15d4a8a4-a8d2-4e3f-a189-08524344211b"},{"reference":"Condition/cb56de2f-cb5e-4ad5-b1d2-a92a17221a1b"},{"reference":"AllergyIntolerance/a8381159-e044-4d9b-9c99-cd05548fbe17"}]},"request":{"method":"PUT","url":"MeasureReport/4c39062c-6d97-4feb-9c54-e9e18a310ff0"}}]},"request":{"method":"PUT","url":"Bundle/564134616513516133"}},{"resource":{"resourceType":"AllergyIntolerance","id":"a8381159-e044-4d9b-9c99-cd05548fbe17","meta":{"profile":["http://hl7.org/fhir/us/qicore/StructureDefinition/qicore-allergyintolerance"]},"clinicalStatus":{"coding":[{"system":"http://terminology.hl7.org/CodeSystem/allergyintolerance-clinical","code":"active"}]},"verificationStatus":{"coding":[{"system":"http://terminology.hl7.org/CodeSystem/allergyintolerance-verification","code":"confirmed"}]},"type":"allergy","criticality":"high","code":{"coding":[{"system":"http://snomed.info/sct","version":"http://snomed.info/sct/731000124108/version/20240301","code":"373254001","display":"Substance with beta adrenergic receptor antagonist mechanism of action (substance)"}]},"patient":{"reference":"Patient/a579d7e2-37c4-47ea-937d-524bba26ba2f"},"onsetDateTime":"2022-10-01","recordedDate":"2022-10-01T14:00:00.000+00:00"},"request":{"method":"PUT","url":"AllergyIntolerance/a8381159-e044-4d9b-9c99-cd05548fbe17"}},{"resource":{"resourceType":"Condition","id":"1e460fc4-c5e7-4205-ace2-dbd5f6ca9b49","meta":{"profile":["http://hl7.org/fhir/us/qicore/StructureDefinition/qicore-condition-problems-health-concerns"]},"clinicalStatus":{"coding":[{"system":"http://terminology.hl7.org/CodeSystem/condition-clinical","code":"active","display":"Active"}]},"verificationStatus":{"coding":[{"system":"http://terminology.hl7.org/CodeSystem/condition-ver-status","code":"confirmed","display":"Confirmed"}]},"category":[{"coding":[{"system":"http://terminology.hl7.org/CodeSystem/condition-category","code":"problem-list-item","display":"Problem List Item"}]}],"code":{"coding":[{"system":"http://hl7.org/fhir/sid/icd-10-cm","version":"2024","code":"I21.01"}]},"subject":{"reference":"Patient/a579d7e2-37c4-47ea-937d-524bba26ba2f"},"onsetPeriod":{"start":"2023-11-22T07:30:00.000+00:00","end":"2023-11-22T08:30:00.000+00:00"}},"request":{"method":"PUT","url":"Condition/1e460fc4-c5e7-4205-ace2-dbd5f6ca9b49"}},{"resource":{"resourceType":"Condition","id":"cb56de2f-cb5e-4ad5-b1d2-a92a17221a1b","meta":{"profile":["http://hl7.org/fhir/us/qicore/StructureDefinition/qicore-condition-problems-health-concerns"]},"clinicalStatus":{"coding":[{"system":"http://terminology.hl7.org/CodeSystem/condition-clinical","code":"active","display":"Active"}]},"verificationStatus":{"coding":[{"system":"http://terminology.hl7.org/CodeSystem/condition-ver-status","code":"confirmed","display":"Confirmed"}]},"category":[{"coding":[{"system":"http://terminology.hl7.org/CodeSystem/condition-category","code":"problem-list-item","display":"Problem List Item"}]}],"code":{"coding":[{"system":"http://snomed.info/sct","version":"http://snomed.info/sct/731000124108/version/20240301","code":"10365005","display":"Right main coronary artery thrombosis (disorder)"}]},"subject":{"reference":"Patient/a579d7e2-37c4-47ea-937d-524bba26ba2f"},"onsetPeriod":{"start":"2026-07-06T00:00:00.000+00:00"}},"request":{"method":"PUT","url":"Condition/cb56de2f-cb5e-4ad5-b1d2-a92a17221a1b"}},{"resource":{"resourceType":"MeasureReport","id":"4c39062c-6d97-4feb-9c54-e9e18a310ff0","meta":{"profile":["http://hl7.org/fhir/us/cqfmeasures/StructureDefinition/test-case-cqfm"]},"contained":[{"resourceType":"Parameters","id":"ce5db30d-3738-4541-8d35-cf0bcc6bd753-parameters","parameter":[{"name":"subject","valueString":"a579d7e2-37c4-47ea-937d-524bba26ba2f"}]}],"extension":[{"url":"http://hl7.org/fhir/StructureDefinition/cqf-inputParameters","valueReference":{"reference":"#ce5db30d-3738-4541-8d35-cf0bcc6bd753-parameters"}},{"url":"http://hl7.org/fhir/us/cqfmeasures/StructureDefinition/cqfm-testCaseDescription","valueMarkdown":"Pt > 18, 2 amb. visits during MP, an MI Dx with onset > 2 yrs before MP, an LVSD Dx with onset during MP but before 1st visit, a qualifying CAD Encounter, and a beta adrenergic receptor allergy start > 3 years before MP and ongoing"}],"modifierExtension":[{"url":"http://hl7.org/fhir/us/cqfmeasures/StructureDefinition/cqfm-isTestCase","valueBoolean":true}],"status":"complete","type":"individual","measure":"https://madie.cms.gov/Measure/CMS145FHIRCADBetaBlockerTherapyPriorMIorLVSD","period":{"start":"2026-01-01","end":"2026-12-31"},"group":[{"id":"Group_1","population":[{"id":"InitialPopulation_1","code":{"coding":[{"system":"http://terminology.hl7.org/CodeSystem/measure-population","code":"initial-population","display":"Initial Population"}]},"count":1},{"id":"Denominator_1","code":{"coding":[{"system":"http://terminology.hl7.org/CodeSystem/measure-population","code":"denominator","display":"Denominator"}]},"count":1},{"id":"Numerator_1","code":{"coding":[{"system":"http://terminology.hl7.org/CodeSystem/measure-population","code":"numerator","display":"Numerator"}]},"count":0},{"id":"DenominatorException_1","code":{"coding":[{"system":"http://terminology.hl7.org/CodeSystem/measure-population","code":"denominator-exception","display":"Denominator Exception"}]},"count":1}],"measureScore":{"value":1.0}},{"id":"Group_2","population":[{"id":"InitialPopulation_2","code":{"coding":[{"system":"http://terminology.hl7.org/CodeSystem/measure-population","code":"initial-population","display":"Initial Population"}]},"count":1},{"id":"Denominator_2","code":{"coding":[{"system":"http://terminology.hl7.org/CodeSystem/measure-population","code":"denominator","display":"Denominator"}]},"count":0},{"id":"Numerator_2","code":{"coding":[{"system":"http://terminology.hl7.org/CodeSystem/measure-population","code":"numerator","display":"Numerator"}]},"count":0},{"id":"DenominatorException_2","code":{"coding":[{"system":"http://terminology.hl7.org/CodeSystem/measure-population","code":"denominator-exception","display":"Denominator Exception"}]},"count":0}],"measureScore":{"value":1.0}}],"evaluatedResource":[{"reference":"Patient/a579d7e2-37c4-47ea-937d-524bba26ba2f"},{"reference":"Encounter/b7db9469-2da3-414f-abe4-6aef0ff1fb29"},{"reference":"Encounter/401e2a21-127c-433a-91de-7c05af4fc20a"},{"reference":"Condition/1e460fc4-c5e7-4205-ace2-dbd5f6ca9b49"},{"reference":"Condition/15d4a8a4-a8d2-4e3f-a189-08524344211b"},{"reference":"Condition/cb56de2f-cb5e-4ad5-b1d2-a92a17221a1b"},{"reference":"AllergyIntolerance/a8381159-e044-4d9b-9c99-cd05548fbe17"}]},"request":{"method":"PUT","url":"MeasureReport/4c39062c-6d97-4feb-9c54-e9e18a310ff0"}},{"resource":{"resourceType":"Condition","id":"15d4a8a4-a8d2-4e3f-a189-08524344211b","meta":{"profile":["http://hl7.org/fhir/us/qicore/StructureDefinition/qicore-condition-encounter-diagnosis"]},"clinicalStatus":{"coding":[{"system":"http://terminology.hl7.org/CodeSystem/condition-clinical","code":"active","display":"Active"}]},"verificationStatus":{"coding":[{"system":"http://terminology.hl7.org/CodeSystem/condition-ver-status","code":"confirmed"}]},"category":[{"coding":[{"system":"http://terminology.hl7.org/CodeSystem/condition-category","code":"encounter-diagnosis","display":"Encounter Diagnosis"}]}],"severity":{"coding":[{"system":"http://snomed.info/sct","version":"http://snomed.info/sct/731000124108/version/20240301","code":"24484000","display":"Severe (severity modifier) (qualifier value)"}]},"code":{"coding":[{"system":"http://snomed.info/sct","version":"http://snomed.info/sct/731000124108/version/20240301","code":"134401001"}]},"subject":{"reference":"Patient/a579d7e2-37c4-47ea-937d-524bba26ba2f"},"onsetPeriod":{"start":"2026-01-21T07:00:00.000+00:00"}},"request":{"method":"PUT","url":"Condition/15d4a8a4-a8d2-4e3f-a189-08524344211b"}},{"resource":{"resourceType":"Encounter","id":"401e2a21-127c-433a-91de-7c05af4fc20a","meta":{"profile":["http://hl7.org/fhir/us/qicore/StructureDefinition/qicore-encounter"]},"status":"finished","class":{"system":"http://terminology.hl7.org/CodeSystem/v3-ActCode","code":"AMB","display":"ambulatory encounter"},"type":[{"coding":[{"system":"http://www.ama-assn.org/go/cpt","version":"2024","code":"99205"}]}],"subject":{"reference":"Patient/a579d7e2-37c4-47ea-937d-524bba26ba2f"},"period":{"start":"2026-07-08T09:00:00.000+00:00","end":"2026-07-08T09:00:00.000+00:00"}},"request":{"method":"PUT","url":"Encounter/401e2a21-127c-433a-91de-7c05af4fc20a"}}]}