{"resourceType":"Bundle","id":"tests-61306767-0e74-44b8-ac06-1339c3783355-bundle","type":"transaction","entry":[{"fullUrl":"Patient/61306767-0e74-44b8-ac06-1339c3783355","resource":{"resourceType":"Patient","id":"61306767-0e74-44b8-ac06-1339c3783355","meta":{"profile":["http://hl7.org/fhir/us/qicore/StructureDefinition/qicore-patient"]},"extension":[{"url":"http://hl7.org/fhir/us/core/StructureDefinition/us-core-race","extension":[{"url":"ombCategory","valueCoding":{"system":"urn:oid:2.16.840.1.113883.6.238","code":"1002-5","display":"American Indian or Alaska Native"}},{"url":"text","valueString":"American Indian or Alaska Native"}]},{"url":"http://hl7.org/fhir/us/core/StructureDefinition/us-core-ethnicity","extension":[{"url":"ombCategory","valueCoding":{"system":"urn:oid:2.16.840.1.113883.6.238","code":"2186-5","display":"Not Hispanic or Latino"}},{"url":"text","valueString":"Not Hispanic or Latino"}]}],"identifier":[{"type":{"coding":[{"system":"http://terminology.hl7.org/CodeSystem/v2-0203","code":"MR"}]},"system":"https://bonnie-fhir.healthit.gov/","value":"8768957574765476976"}],"active":true,"name":[{"use":"usual","family":"DENEXCEPPop1Pass","given":["BetaBlockerIntolerance"]}],"gender":"female","birthDate":"1923-03-24"},"request":{"method":"PUT","url":"Patient/61306767-0e74-44b8-ac06-1339c3783355"}},{"fullUrl":"Encounter/afe34c8f-071b-431f-a90d-b5c2b3339c05","resource":{"resourceType":"Encounter","id":"afe34c8f-071b-431f-a90d-b5c2b3339c05","meta":{"profile":["http://hl7.org/fhir/us/qicore/StructureDefinition/qicore-encounter"]},"status":"finished","class":{"system":"http://terminology.hl7.org/CodeSystem/v3-ActCode","code":"AMB","display":"ambulatory encounter"},"type":[{"coding":[{"system":"http://www.ama-assn.org/go/cpt","version":"2024","code":"99205"}]}],"subject":{"reference":"Patient/61306767-0e74-44b8-ac06-1339c3783355"},"period":{"start":"2026-04-05T06:00:00.000+00:00","end":"2026-04-05T07:00:00.000+00:00"}},"request":{"method":"PUT","url":"Encounter/afe34c8f-071b-431f-a90d-b5c2b3339c05"}},{"fullUrl":"Condition/d987188b-8c9a-46d0-be9c-709850dcd6df","resource":{"resourceType":"Condition","id":"d987188b-8c9a-46d0-be9c-709850dcd6df","meta":{"profile":["http://hl7.org/fhir/us/qicore/StructureDefinition/qicore-condition-problems-health-concerns"]},"clinicalStatus":{"coding":[{"system":"http://terminology.hl7.org/CodeSystem/condition-clinical","code":"active","display":"Active"}]},"verificationStatus":{"coding":[{"system":"http://terminology.hl7.org/CodeSystem/condition-ver-status","code":"confirmed"}]},"category":[{"coding":[{"system":"http://terminology.hl7.org/CodeSystem/condition-category","code":"problem-list-item","display":"Problem List Item"}]}],"severity":{"coding":[{"system":"http://snomed.info/sct","version":"http://snomed.info/sct/731000124108/version/20240301","code":"24484000","display":"Severe (severity modifier) (qualifier value)"}]},"code":{"coding":[{"system":"http://snomed.info/sct","version":"http://snomed.info/sct/731000124108/version/20240301","code":"134401001"}]},"subject":{"reference":"Patient/61306767-0e74-44b8-ac06-1339c3783355"},"onsetPeriod":{"start":"2026-01-21T07:00:00.000+00:00"}},"request":{"method":"PUT","url":"Condition/d987188b-8c9a-46d0-be9c-709850dcd6df"}},{"fullUrl":"MeasureReport/bbde7ae2-66bb-4912-9aef-6edaf3fde8f5","resource":{"resourceType":"MeasureReport","id":"bbde7ae2-66bb-4912-9aef-6edaf3fde8f5","meta":{"profile":["http://hl7.org/fhir/us/cqfmeasures/StructureDefinition/test-case-cqfm"]},"contained":[{"resourceType":"Parameters","id":"4762f0fe-c22c-4dfd-ad5a-81fe9fa5ad99-parameters","parameter":[{"name":"subject","valueString":"61306767-0e74-44b8-ac06-1339c3783355"}]}],"extension":[{"url":"http://hl7.org/fhir/StructureDefinition/cqf-inputParameters","valueReference":{"reference":"#4762f0fe-c22c-4dfd-ad5a-81fe9fa5ad99-parameters"}},{"url":"http://hl7.org/fhir/us/cqfmeasures/StructureDefinition/cqfm-testCaseDescription","valueMarkdown":"Pt > 18, 2 amb. visits during MP, an MI Dx with onset > 2 yrs before MP, an LVSD Dx with onset during MP but before 1st visit, a qualifying CAD Encounter, and an intolerance to beta blocker"}],"modifierExtension":[{"url":"http://hl7.org/fhir/us/cqfmeasures/StructureDefinition/cqfm-isTestCase","valueBoolean":true}],"status":"complete","type":"individual","measure":"https://madie.cms.gov/Measure/CMS145FHIRCADBetaBlockerTherapyPriorMIorLVSD","period":{"start":"2026-01-01","end":"2026-12-31"},"group":[{"id":"Group_1","population":[{"id":"InitialPopulation_1","code":{"coding":[{"system":"http://terminology.hl7.org/CodeSystem/measure-population","code":"initial-population","display":"Initial Population"}]},"count":1},{"id":"Denominator_1","code":{"coding":[{"system":"http://terminology.hl7.org/CodeSystem/measure-population","code":"denominator","display":"Denominator"}]},"count":1},{"id":"Numerator_1","code":{"coding":[{"system":"http://terminology.hl7.org/CodeSystem/measure-population","code":"numerator","display":"Numerator"}]},"count":0},{"id":"DenominatorException_1","code":{"coding":[{"system":"http://terminology.hl7.org/CodeSystem/measure-population","code":"denominator-exception","display":"Denominator Exception"}]},"count":1}],"measureScore":{"value":1.0}},{"id":"Group_2","population":[{"id":"InitialPopulation_2","code":{"coding":[{"system":"http://terminology.hl7.org/CodeSystem/measure-population","code":"initial-population","display":"Initial Population"}]},"count":1},{"id":"Denominator_2","code":{"coding":[{"system":"http://terminology.hl7.org/CodeSystem/measure-population","code":"denominator","display":"Denominator"}]},"count":0},{"id":"Numerator_2","code":{"coding":[{"system":"http://terminology.hl7.org/CodeSystem/measure-population","code":"numerator","display":"Numerator"}]},"count":0},{"id":"DenominatorException_2","code":{"coding":[{"system":"http://terminology.hl7.org/CodeSystem/measure-population","code":"denominator-exception","display":"Denominator Exception"}]},"count":0}],"measureScore":{"value":1.0}}],"evaluatedResource":[{"reference":"Patient/61306767-0e74-44b8-ac06-1339c3783355"},{"reference":"Encounter/afe34c8f-071b-431f-a90d-b5c2b3339c05"},{"reference":"Encounter/31969c9b-18a5-486c-b4d2-cc54cb5801bf"},{"reference":"Condition/89c921f0-2a28-47ce-a6ce-36edced5c94b"},{"reference":"Condition/d987188b-8c9a-46d0-be9c-709850dcd6df"},{"reference":"Condition/a51f85b5-49bf-4849-9b76-a8f94a875c1c"},{"reference":"Condition/d807875d-4a9f-4264-b8d5-0eec33e178f8"}]},"request":{"method":"PUT","url":"MeasureReport/bbde7ae2-66bb-4912-9aef-6edaf3fde8f5"}},{"fullUrl":"Bundle/494561614684651315","resource":{"resourceType":"Bundle","id":"494561614684651315","type":"transaction","entry":[{"fullUrl":"https://madie.cms.gov/Patient/61306767-0e74-44b8-ac06-1339c3783355","resource":{"resourceType":"Patient","id":"61306767-0e74-44b8-ac06-1339c3783355","meta":{"profile":["http://hl7.org/fhir/us/qicore/StructureDefinition/qicore-patient"]},"extension":[{"url":"http://hl7.org/fhir/us/core/StructureDefinition/us-core-race","extension":[{"url":"ombCategory","valueCoding":{"system":"urn:oid:2.16.840.1.113883.6.238","code":"1002-5","display":"American Indian or Alaska Native"}},{"url":"text","valueString":"American Indian or Alaska Native"}]},{"url":"http://hl7.org/fhir/us/core/StructureDefinition/us-core-ethnicity","extension":[{"url":"ombCategory","valueCoding":{"system":"urn:oid:2.16.840.1.113883.6.238","code":"2186-5","display":"Not Hispanic or Latino"}},{"url":"text","valueString":"Not Hispanic or Latino"}]}],"identifier":[{"type":{"coding":[{"system":"http://terminology.hl7.org/CodeSystem/v2-0203","code":"MR"}]},"system":"https://bonnie-fhir.healthit.gov/","value":"8768957574765476976"}],"active":true,"name":[{"use":"usual","family":"DENEXCEPPop1Pass","given":["BetaBlockerIntolerance"]}],"gender":"female","birthDate":"1923-03-24"},"request":{"method":"PUT","url":"Patient/61306767-0e74-44b8-ac06-1339c3783355"}},{"fullUrl":"https://madie.cms.gov/Encounter/afe34c8f-071b-431f-a90d-b5c2b3339c05","resource":{"resourceType":"Encounter","id":"afe34c8f-071b-431f-a90d-b5c2b3339c05","meta":{"profile":["http://hl7.org/fhir/us/qicore/StructureDefinition/qicore-encounter"]},"status":"finished","class":{"system":"http://terminology.hl7.org/CodeSystem/v3-ActCode","code":"AMB","display":"ambulatory encounter"},"type":[{"coding":[{"system":"http://www.ama-assn.org/go/cpt","version":"2024","code":"99205"}]}],"subject":{"reference":"Patient/61306767-0e74-44b8-ac06-1339c3783355"},"period":{"start":"2026-04-05T06:00:00.000+00:00","end":"2026-04-05T07:00:00.000+00:00"}},"request":{"method":"PUT","url":"Encounter/afe34c8f-071b-431f-a90d-b5c2b3339c05"}},{"fullUrl":"https://madie.cms.gov/Encounter/31969c9b-18a5-486c-b4d2-cc54cb5801bf","resource":{"resourceType":"Encounter","id":"31969c9b-18a5-486c-b4d2-cc54cb5801bf","meta":{"profile":["http://hl7.org/fhir/us/qicore/StructureDefinition/qicore-encounter"]},"status":"finished","class":{"system":"http://terminology.hl7.org/CodeSystem/v3-ActCode","code":"AMB","display":"ambulatory encounter"},"type":[{"coding":[{"system":"http://www.ama-assn.org/go/cpt","version":"2024","code":"99205"}]}],"subject":{"reference":"Patient/61306767-0e74-44b8-ac06-1339c3783355"},"period":{"start":"2026-07-08T09:00:00.000+00:00","end":"2026-07-08T09:00:00.000+00:00"}},"request":{"method":"PUT","url":"Encounter/31969c9b-18a5-486c-b4d2-cc54cb5801bf"}},{"fullUrl":"https://madie.cms.gov/Condition/89c921f0-2a28-47ce-a6ce-36edced5c94b","resource":{"resourceType":"Condition","id":"89c921f0-2a28-47ce-a6ce-36edced5c94b","meta":{"profile":["http://hl7.org/fhir/us/qicore/StructureDefinition/qicore-condition-problems-health-concerns"]},"clinicalStatus":{"coding":[{"system":"http://terminology.hl7.org/CodeSystem/condition-clinical","code":"active","display":"Active"}]},"verificationStatus":{"coding":[{"system":"http://terminology.hl7.org/CodeSystem/condition-ver-status","code":"confirmed","display":"Confirmed"}]},"category":[{"coding":[{"system":"http://terminology.hl7.org/CodeSystem/condition-category","code":"problem-list-item","display":"Problem List Item"}]}],"code":{"coding":[{"system":"http://hl7.org/fhir/sid/icd-10-cm","version":"2024","code":"I21.01"}]},"subject":{"reference":"Patient/61306767-0e74-44b8-ac06-1339c3783355"},"onsetPeriod":{"start":"2023-11-22T07:30:00.000+00:00","end":"2023-11-22T08:30:00.000+00:00"}},"request":{"method":"PUT","url":"Condition/89c921f0-2a28-47ce-a6ce-36edced5c94b"}},{"fullUrl":"https://madie.cms.gov/Condition/d987188b-8c9a-46d0-be9c-709850dcd6df","resource":{"resourceType":"Condition","id":"d987188b-8c9a-46d0-be9c-709850dcd6df","meta":{"profile":["http://hl7.org/fhir/us/qicore/StructureDefinition/qicore-condition-problems-health-concerns"]},"clinicalStatus":{"coding":[{"system":"http://terminology.hl7.org/CodeSystem/condition-clinical","code":"active","display":"Active"}]},"verificationStatus":{"coding":[{"system":"http://terminology.hl7.org/CodeSystem/condition-ver-status","code":"confirmed"}]},"category":[{"coding":[{"system":"http://terminology.hl7.org/CodeSystem/condition-category","code":"problem-list-item","display":"Problem List Item"}]}],"severity":{"coding":[{"system":"http://snomed.info/sct","version":"http://snomed.info/sct/731000124108/version/20240301","code":"24484000","display":"Severe (severity modifier) (qualifier value)"}]},"code":{"coding":[{"system":"http://snomed.info/sct","version":"http://snomed.info/sct/731000124108/version/20240301","code":"134401001"}]},"subject":{"reference":"Patient/61306767-0e74-44b8-ac06-1339c3783355"},"onsetPeriod":{"start":"2026-01-21T07:00:00.000+00:00"}},"request":{"method":"PUT","url":"Condition/d987188b-8c9a-46d0-be9c-709850dcd6df"}},{"fullUrl":"https://madie.cms.gov/Condition/a51f85b5-49bf-4849-9b76-a8f94a875c1c","resource":{"resourceType":"Condition","id":"a51f85b5-49bf-4849-9b76-a8f94a875c1c","meta":{"profile":["http://hl7.org/fhir/us/qicore/StructureDefinition/qicore-condition-problems-health-concerns"]},"clinicalStatus":{"coding":[{"system":"http://terminology.hl7.org/CodeSystem/condition-clinical","code":"active","display":"Active"}]},"verificationStatus":{"coding":[{"system":"http://terminology.hl7.org/CodeSystem/condition-ver-status","code":"confirmed","display":"Confirmed"}]},"category":[{"coding":[{"system":"http://terminology.hl7.org/CodeSystem/condition-category","code":"problem-list-item","display":"Problem List Item"}]}],"code":{"coding":[{"system":"http://snomed.info/sct","version":"http://snomed.info/sct/731000124108/version/20240301","code":"10365005","display":"Right main coronary artery thrombosis (disorder)"}]},"subject":{"reference":"Patient/61306767-0e74-44b8-ac06-1339c3783355"},"onsetPeriod":{"start":"2026-07-06T00:00:00.000+00:00"}},"request":{"method":"PUT","url":"Condition/a51f85b5-49bf-4849-9b76-a8f94a875c1c"}},{"fullUrl":"https://madie.cms.gov/Condition/d807875d-4a9f-4264-b8d5-0eec33e178f8","resource":{"resourceType":"Condition","id":"d807875d-4a9f-4264-b8d5-0eec33e178f8","meta":{"profile":["http://hl7.org/fhir/us/qicore/StructureDefinition/qicore-condition-problems-health-concerns"]},"clinicalStatus":{"coding":[{"system":"http://terminology.hl7.org/CodeSystem/condition-clinical","code":"active","display":"Active"}]},"verificationStatus":{"coding":[{"system":"http://terminology.hl7.org/CodeSystem/condition-ver-status","code":"confirmed","display":"Confirmed"}]},"category":[{"coding":[{"system":"http://terminology.hl7.org/CodeSystem/condition-category","code":"problem-list-item","display":"Problem List Item"}]}],"code":{"coding":[{"system":"http://snomed.info/sct","version":"http://snomed.info/sct/731000124108/version/20230901","code":"292419005","display":"Beta-adrenoceptor blocking drug adverse reaction (disorder)"}]},"subject":{"reference":"Patient/61306767-0e74-44b8-ac06-1339c3783355"},"onsetPeriod":{"start":"2026-07-06T00:00:00.000+00:00"}},"request":{"method":"PUT","url":"Condition/d807875d-4a9f-4264-b8d5-0eec33e178f8"}},{"fullUrl":"https://madie.cms.gov/MeasureReport/bbde7ae2-66bb-4912-9aef-6edaf3fde8f5","resource":{"resourceType":"MeasureReport","id":"bbde7ae2-66bb-4912-9aef-6edaf3fde8f5","meta":{"profile":["http://hl7.org/fhir/us/cqfmeasures/StructureDefinition/test-case-cqfm"]},"contained":[{"resourceType":"Parameters","id":"4762f0fe-c22c-4dfd-ad5a-81fe9fa5ad99-parameters","parameter":[{"name":"subject","valueString":"61306767-0e74-44b8-ac06-1339c3783355"}]}],"extension":[{"url":"http://hl7.org/fhir/StructureDefinition/cqf-inputParameters","valueReference":{"reference":"#4762f0fe-c22c-4dfd-ad5a-81fe9fa5ad99-parameters"}},{"url":"http://hl7.org/fhir/us/cqfmeasures/StructureDefinition/cqfm-testCaseDescription","valueMarkdown":"Pt > 18, 2 amb. visits during MP, an MI Dx with onset > 2 yrs before MP, an LVSD Dx with onset during MP but before 1st visit, a qualifying CAD Encounter, and an intolerance to beta blocker"}],"modifierExtension":[{"url":"http://hl7.org/fhir/us/cqfmeasures/StructureDefinition/cqfm-isTestCase","valueBoolean":true}],"status":"complete","type":"individual","measure":"https://madie.cms.gov/Measure/CMS145FHIRCADBetaBlockerTherapyPriorMIorLVSD","period":{"start":"2026-01-01","end":"2026-12-31"},"group":[{"id":"Group_1","population":[{"id":"InitialPopulation_1","code":{"coding":[{"system":"http://terminology.hl7.org/CodeSystem/measure-population","code":"initial-population","display":"Initial Population"}]},"count":1},{"id":"Denominator_1","code":{"coding":[{"system":"http://terminology.hl7.org/CodeSystem/measure-population","code":"denominator","display":"Denominator"}]},"count":1},{"id":"Numerator_1","code":{"coding":[{"system":"http://terminology.hl7.org/CodeSystem/measure-population","code":"numerator","display":"Numerator"}]},"count":0},{"id":"DenominatorException_1","code":{"coding":[{"system":"http://terminology.hl7.org/CodeSystem/measure-population","code":"denominator-exception","display":"Denominator Exception"}]},"count":1}],"measureScore":{"value":1.0}},{"id":"Group_2","population":[{"id":"InitialPopulation_2","code":{"coding":[{"system":"http://terminology.hl7.org/CodeSystem/measure-population","code":"initial-population","display":"Initial Population"}]},"count":1},{"id":"Denominator_2","code":{"coding":[{"system":"http://terminology.hl7.org/CodeSystem/measure-population","code":"denominator","display":"Denominator"}]},"count":0},{"id":"Numerator_2","code":{"coding":[{"system":"http://terminology.hl7.org/CodeSystem/measure-population","code":"numerator","display":"Numerator"}]},"count":0},{"id":"DenominatorException_2","code":{"coding":[{"system":"http://terminology.hl7.org/CodeSystem/measure-population","code":"denominator-exception","display":"Denominator Exception"}]},"count":0}],"measureScore":{"value":1.0}}],"evaluatedResource":[{"reference":"Patient/61306767-0e74-44b8-ac06-1339c3783355"},{"reference":"Encounter/afe34c8f-071b-431f-a90d-b5c2b3339c05"},{"reference":"Encounter/31969c9b-18a5-486c-b4d2-cc54cb5801bf"},{"reference":"Condition/89c921f0-2a28-47ce-a6ce-36edced5c94b"},{"reference":"Condition/d987188b-8c9a-46d0-be9c-709850dcd6df"},{"reference":"Condition/a51f85b5-49bf-4849-9b76-a8f94a875c1c"},{"reference":"Condition/d807875d-4a9f-4264-b8d5-0eec33e178f8"}]},"request":{"method":"PUT","url":"MeasureReport/bbde7ae2-66bb-4912-9aef-6edaf3fde8f5"}}]},"request":{"method":"PUT","url":"Bundle/494561614684651315"}},{"fullUrl":"Condition/a51f85b5-49bf-4849-9b76-a8f94a875c1c","resource":{"resourceType":"Condition","id":"a51f85b5-49bf-4849-9b76-a8f94a875c1c","meta":{"profile":["http://hl7.org/fhir/us/qicore/StructureDefinition/qicore-condition-problems-health-concerns"]},"clinicalStatus":{"coding":[{"system":"http://terminology.hl7.org/CodeSystem/condition-clinical","code":"active","display":"Active"}]},"verificationStatus":{"coding":[{"system":"http://terminology.hl7.org/CodeSystem/condition-ver-status","code":"confirmed","display":"Confirmed"}]},"category":[{"coding":[{"system":"http://terminology.hl7.org/CodeSystem/condition-category","code":"problem-list-item","display":"Problem List Item"}]}],"code":{"coding":[{"system":"http://snomed.info/sct","version":"http://snomed.info/sct/731000124108/version/20240301","code":"10365005","display":"Right main coronary artery thrombosis (disorder)"}]},"subject":{"reference":"Patient/61306767-0e74-44b8-ac06-1339c3783355"},"onsetPeriod":{"start":"2026-07-06T00:00:00.000+00:00"}},"request":{"method":"PUT","url":"Condition/a51f85b5-49bf-4849-9b76-a8f94a875c1c"}},{"fullUrl":"Condition/d807875d-4a9f-4264-b8d5-0eec33e178f8","resource":{"resourceType":"Condition","id":"d807875d-4a9f-4264-b8d5-0eec33e178f8","meta":{"profile":["http://hl7.org/fhir/us/qicore/StructureDefinition/qicore-condition-problems-health-concerns"]},"clinicalStatus":{"coding":[{"system":"http://terminology.hl7.org/CodeSystem/condition-clinical","code":"active","display":"Active"}]},"verificationStatus":{"coding":[{"system":"http://terminology.hl7.org/CodeSystem/condition-ver-status","code":"confirmed","display":"Confirmed"}]},"category":[{"coding":[{"system":"http://terminology.hl7.org/CodeSystem/condition-category","code":"problem-list-item","display":"Problem List Item"}]}],"code":{"coding":[{"system":"http://snomed.info/sct","version":"http://snomed.info/sct/731000124108/version/20230901","code":"292419005","display":"Beta-adrenoceptor blocking drug adverse reaction (disorder)"}]},"subject":{"reference":"Patient/61306767-0e74-44b8-ac06-1339c3783355"},"onsetPeriod":{"start":"2026-07-06T00:00:00.000+00:00"}},"request":{"method":"PUT","url":"Condition/d807875d-4a9f-4264-b8d5-0eec33e178f8"}},{"fullUrl":"Condition/89c921f0-2a28-47ce-a6ce-36edced5c94b","resource":{"resourceType":"Condition","id":"89c921f0-2a28-47ce-a6ce-36edced5c94b","meta":{"profile":["http://hl7.org/fhir/us/qicore/StructureDefinition/qicore-condition-problems-health-concerns"]},"clinicalStatus":{"coding":[{"system":"http://terminology.hl7.org/CodeSystem/condition-clinical","code":"active","display":"Active"}]},"verificationStatus":{"coding":[{"system":"http://terminology.hl7.org/CodeSystem/condition-ver-status","code":"confirmed","display":"Confirmed"}]},"category":[{"coding":[{"system":"http://terminology.hl7.org/CodeSystem/condition-category","code":"problem-list-item","display":"Problem List Item"}]}],"code":{"coding":[{"system":"http://hl7.org/fhir/sid/icd-10-cm","version":"2024","code":"I21.01"}]},"subject":{"reference":"Patient/61306767-0e74-44b8-ac06-1339c3783355"},"onsetPeriod":{"start":"2023-11-22T07:30:00.000+00:00","end":"2023-11-22T08:30:00.000+00:00"}},"request":{"method":"PUT","url":"Condition/89c921f0-2a28-47ce-a6ce-36edced5c94b"}},{"fullUrl":"Encounter/31969c9b-18a5-486c-b4d2-cc54cb5801bf","resource":{"resourceType":"Encounter","id":"31969c9b-18a5-486c-b4d2-cc54cb5801bf","meta":{"profile":["http://hl7.org/fhir/us/qicore/StructureDefinition/qicore-encounter"]},"status":"finished","class":{"system":"http://terminology.hl7.org/CodeSystem/v3-ActCode","code":"AMB","display":"ambulatory encounter"},"type":[{"coding":[{"system":"http://www.ama-assn.org/go/cpt","version":"2024","code":"99205"}]}],"subject":{"reference":"Patient/61306767-0e74-44b8-ac06-1339c3783355"},"period":{"start":"2026-07-08T09:00:00.000+00:00","end":"2026-07-08T09:00:00.000+00:00"}},"request":{"method":"PUT","url":"Encounter/31969c9b-18a5-486c-b4d2-cc54cb5801bf"}}]}