{"resourceType":"Bundle","id":"tests-6cf089cd-0c1a-4e4f-b8d9-11c0db757c4b-bundle","type":"transaction","entry":[{"resource":{"resourceType":"Bundle","id":"6464324343434346525657","type":"transaction","entry":[{"fullUrl":"https://madie.cms.gov/Patient/6cf089cd-0c1a-4e4f-b8d9-11c0db757c4b","resource":{"resourceType":"Patient","id":"6cf089cd-0c1a-4e4f-b8d9-11c0db757c4b","meta":{"profile":["http://hl7.org/fhir/us/qicore/StructureDefinition/qicore-patient"]},"extension":[{"url":"http://hl7.org/fhir/us/core/StructureDefinition/us-core-race","extension":[{"url":"ombCategory","valueCoding":{"system":"urn:oid:2.16.840.1.113883.6.238","code":"1002-5","display":"American Indian or Alaska Native"}},{"url":"text","valueString":"American Indian or Alaska Native"}]},{"url":"http://hl7.org/fhir/us/core/StructureDefinition/us-core-ethnicity","extension":[{"url":"ombCategory","valueCoding":{"system":"urn:oid:2.16.840.1.113883.6.238","code":"2186-5","display":"Not Hispanic or Latino"}},{"url":"text","valueString":"Not Hispanic or Latino"}]}],"identifier":[{"type":{"coding":[{"system":"http://terminology.hl7.org/CodeSystem/v2-0203","code":"MR"}]},"system":"https://bonnie-fhir.healthit.gov/","value":"576545341346746345"}],"active":true,"name":[{"use":"usual","family":"DENEXCEPPop2Pass","given":["ConsecHeartRatesLT50"]}],"gender":"male","birthDate":"1958-05-30"},"request":{"method":"PUT","url":"Patient/6cf089cd-0c1a-4e4f-b8d9-11c0db757c4b"}},{"fullUrl":"https://madie.cms.gov/Encounter/1e49f412-9b38-43b5-bb73-dfa9add0c467","resource":{"resourceType":"Encounter","id":"1e49f412-9b38-43b5-bb73-dfa9add0c467","meta":{"profile":["http://hl7.org/fhir/us/qicore/StructureDefinition/qicore-encounter"]},"status":"finished","class":{"system":"http://terminology.hl7.org/CodeSystem/v3-ActCode","code":"AMB","display":"ambulatory encounter"},"type":[{"coding":[{"system":"http://snomed.info/sct","version":"http://snomed.info/sct/731000124108/version/20240301","code":"209099002","display":"History and physical examination with management of domiciliary or rest home patient (procedure)"}]}],"subject":{"reference":"Patient/6cf089cd-0c1a-4e4f-b8d9-11c0db757c4b"},"period":{"start":"2026-04-05T06:00:00.000+00:00","end":"2026-04-05T07:00:00.000+00:00"}},"request":{"method":"PUT","url":"Encounter/1e49f412-9b38-43b5-bb73-dfa9add0c467"}},{"fullUrl":"https://madie.cms.gov/Encounter/61510a96-0ca2-4c2a-b281-28d8797c8140","resource":{"resourceType":"Encounter","id":"61510a96-0ca2-4c2a-b281-28d8797c8140","meta":{"profile":["http://hl7.org/fhir/us/qicore/StructureDefinition/qicore-encounter"]},"status":"finished","class":{"system":"http://terminology.hl7.org/CodeSystem/v3-ActCode","code":"AMB","display":"ambulatory encounter"},"type":[{"coding":[{"system":"http://snomed.info/sct","version":"http://snomed.info/sct/731000124108/version/20240301","code":"209099002","display":"History and physical examination with management of domiciliary or rest home patient (procedure)"}]}],"subject":{"reference":"Patient/6cf089cd-0c1a-4e4f-b8d9-11c0db757c4b"},"period":{"start":"2026-07-08T09:00:00.000+00:00","end":"2026-07-08T10:00:00.000+00:00"}},"request":{"method":"PUT","url":"Encounter/61510a96-0ca2-4c2a-b281-28d8797c8140"}},{"fullUrl":"https://madie.cms.gov/Condition/fa62f503-1e64-4741-becf-9aacaddb3955","resource":{"resourceType":"Condition","id":"fa62f503-1e64-4741-becf-9aacaddb3955","meta":{"profile":["http://hl7.org/fhir/us/qicore/StructureDefinition/qicore-condition-problems-health-concerns"]},"clinicalStatus":{"coding":[{"system":"http://terminology.hl7.org/CodeSystem/condition-clinical","code":"active","display":"Active"}]},"verificationStatus":{"coding":[{"system":"http://terminology.hl7.org/CodeSystem/condition-ver-status","code":"confirmed","display":"Confirmed"}]},"category":[{"coding":[{"system":"http://terminology.hl7.org/CodeSystem/condition-category","code":"problem-list-item","display":"Problem List Item"}]}],"code":{"coding":[{"system":"http://hl7.org/fhir/sid/icd-10-cm","version":"2024","code":"I21.01"}]},"subject":{"reference":"Patient/6cf089cd-0c1a-4e4f-b8d9-11c0db757c4b"},"onsetPeriod":{"start":"2023-11-22T07:30:00.000+00:00","end":"2023-11-22T08:30:00.000+00:00"}},"request":{"method":"PUT","url":"Condition/fa62f503-1e64-4741-becf-9aacaddb3955"}},{"fullUrl":"https://madie.cms.gov/Condition/7d81b388-63df-45ca-891b-2567c43d4783","resource":{"resourceType":"Condition","id":"7d81b388-63df-45ca-891b-2567c43d4783","meta":{"profile":["http://hl7.org/fhir/us/qicore/StructureDefinition/qicore-condition-problems-health-concerns"]},"clinicalStatus":{"coding":[{"system":"http://terminology.hl7.org/CodeSystem/condition-clinical","code":"active","display":"Active"}]},"verificationStatus":{"coding":[{"system":"http://terminology.hl7.org/CodeSystem/condition-ver-status","code":"confirmed"}]},"category":[{"coding":[{"system":"http://terminology.hl7.org/CodeSystem/condition-category","code":"problem-list-item","display":"Problem List Item"}]}],"code":{"coding":[{"system":"http://snomed.info/sct","version":"http://snomed.info/sct/731000124108/version/20240301","code":"10365005","display":"Right main coronary artery thrombosis (disorder)"}]},"subject":{"reference":"Patient/6cf089cd-0c1a-4e4f-b8d9-11c0db757c4b"},"onsetPeriod":{"start":"2026-01-21T07:00:00.000+00:00"}},"request":{"method":"PUT","url":"Condition/7d81b388-63df-45ca-891b-2567c43d4783"}},{"fullUrl":"https://madie.cms.gov/Observation/049dbd8d-520d-4a44-ac37-acbf043d8322","resource":{"resourceType":"Observation","id":"049dbd8d-520d-4a44-ac37-acbf043d8322","meta":{"profile":["http://hl7.org/fhir/us/core/StructureDefinition/us-core-heart-rate"]},"status":"final","category":[{"coding":[{"system":"http://terminology.hl7.org/CodeSystem/observation-category","code":"vital-signs","display":"Vital Signs"}]}],"code":{"coding":[{"system":"http://loinc.org","version":"2.76","code":"8867-4"}]},"subject":{"reference":"Patient/6cf089cd-0c1a-4e4f-b8d9-11c0db757c4b"},"effectiveDateTime":"2026-07-08T09:15:00.000+00:00","valueQuantity":{"value":40,"unit":"/min","system":"http://unitsofmeasure.org","code":"/min"}},"request":{"method":"PUT","url":"Observation/049dbd8d-520d-4a44-ac37-acbf043d8322"}},{"fullUrl":"https://madie.cms.gov/Observation/23cdcffa-7a44-4ded-8e29-d71da3445f79","resource":{"resourceType":"Observation","id":"23cdcffa-7a44-4ded-8e29-d71da3445f79","meta":{"profile":["http://hl7.org/fhir/us/core/StructureDefinition/us-core-heart-rate"]},"status":"final","category":[{"coding":[{"system":"http://terminology.hl7.org/CodeSystem/observation-category","code":"vital-signs","display":"Vital Signs"}]}],"code":{"coding":[{"system":"http://loinc.org","version":"2.76","code":"8867-4"}]},"subject":{"reference":"Patient/6cf089cd-0c1a-4e4f-b8d9-11c0db757c4b"},"effectiveDateTime":"2026-07-08T09:30:00.000+00:00","valueQuantity":{"value":45,"unit":"/min","system":"http://unitsofmeasure.org","code":"/min"}},"request":{"method":"PUT","url":"Observation/23cdcffa-7a44-4ded-8e29-d71da3445f79"}},{"fullUrl":"https://madie.cms.gov/MeasureReport/c3e48689-1233-4628-a3f5-44b20968cc85","resource":{"resourceType":"MeasureReport","id":"c3e48689-1233-4628-a3f5-44b20968cc85","meta":{"profile":["http://hl7.org/fhir/us/cqfmeasures/StructureDefinition/test-case-cqfm"]},"contained":[{"resourceType":"Parameters","id":"8c5bd285-6a14-4bc5-b575-3528ef4c31b7-parameters","parameter":[{"name":"subject","valueString":"6cf089cd-0c1a-4e4f-b8d9-11c0db757c4b"}]}],"extension":[{"url":"http://hl7.org/fhir/StructureDefinition/cqf-inputParameters","valueReference":{"reference":"#8c5bd285-6a14-4bc5-b575-3528ef4c31b7-parameters"}},{"url":"http://hl7.org/fhir/us/cqfmeasures/StructureDefinition/cqfm-testCaseDescription","valueMarkdown":"Pt > 18, 2 visits in MP, MI onset > 2 yrs b4 MP, CAD onset during MP b4 1st visit, and 2 consecutive heart rate readings on day of last visit < 50"}],"modifierExtension":[{"url":"http://hl7.org/fhir/us/cqfmeasures/StructureDefinition/cqfm-isTestCase","valueBoolean":true}],"status":"complete","type":"individual","measure":"https://madie.cms.gov/Measure/CMS145FHIRCADBetaBlockerTherapyPriorMIorLVSD","period":{"start":"2026-01-01","end":"2026-12-31"},"group":[{"id":"Group_1","population":[{"id":"InitialPopulation_1","code":{"coding":[{"system":"http://terminology.hl7.org/CodeSystem/measure-population","code":"initial-population","display":"Initial Population"}]},"count":1},{"id":"Denominator_1","code":{"coding":[{"system":"http://terminology.hl7.org/CodeSystem/measure-population","code":"denominator","display":"Denominator"}]},"count":0},{"id":"Numerator_1","code":{"coding":[{"system":"http://terminology.hl7.org/CodeSystem/measure-population","code":"numerator","display":"Numerator"}]},"count":0},{"id":"DenominatorException_1","code":{"coding":[{"system":"http://terminology.hl7.org/CodeSystem/measure-population","code":"denominator-exception","display":"Denominator Exception"}]},"count":0}],"measureScore":{"value":1.0}},{"id":"Group_2","population":[{"id":"InitialPopulation_2","code":{"coding":[{"system":"http://terminology.hl7.org/CodeSystem/measure-population","code":"initial-population","display":"Initial Population"}]},"count":1},{"id":"Denominator_2","code":{"coding":[{"system":"http://terminology.hl7.org/CodeSystem/measure-population","code":"denominator","display":"Denominator"}]},"count":1},{"id":"Numerator_2","code":{"coding":[{"system":"http://terminology.hl7.org/CodeSystem/measure-population","code":"numerator","display":"Numerator"}]},"count":0},{"id":"DenominatorException_2","code":{"coding":[{"system":"http://terminology.hl7.org/CodeSystem/measure-population","code":"denominator-exception","display":"Denominator Exception"}]},"count":1}],"measureScore":{"value":1.0}}],"evaluatedResource":[{"reference":"Patient/6cf089cd-0c1a-4e4f-b8d9-11c0db757c4b"},{"reference":"Encounter/1e49f412-9b38-43b5-bb73-dfa9add0c467"},{"reference":"Encounter/61510a96-0ca2-4c2a-b281-28d8797c8140"},{"reference":"Condition/fa62f503-1e64-4741-becf-9aacaddb3955"},{"reference":"Condition/7d81b388-63df-45ca-891b-2567c43d4783"},{"reference":"Observation/049dbd8d-520d-4a44-ac37-acbf043d8322"},{"reference":"Observation/23cdcffa-7a44-4ded-8e29-d71da3445f79"}]},"request":{"method":"PUT","url":"MeasureReport/c3e48689-1233-4628-a3f5-44b20968cc85"}}]},"request":{"method":"PUT","url":"Bundle/6464324343434346525657"}},{"resource":{"resourceType":"Observation","id":"049dbd8d-520d-4a44-ac37-acbf043d8322","meta":{"profile":["http://hl7.org/fhir/us/core/StructureDefinition/us-core-heart-rate"]},"status":"final","category":[{"coding":[{"system":"http://terminology.hl7.org/CodeSystem/observation-category","code":"vital-signs","display":"Vital Signs"}]}],"code":{"coding":[{"system":"http://loinc.org","version":"2.76","code":"8867-4"}]},"subject":{"reference":"Patient/6cf089cd-0c1a-4e4f-b8d9-11c0db757c4b"},"effectiveDateTime":"2026-07-08T09:15:00.000+00:00","valueQuantity":{"value":40,"unit":"/min","system":"http://unitsofmeasure.org","code":"/min"}},"request":{"method":"PUT","url":"Observation/049dbd8d-520d-4a44-ac37-acbf043d8322"}},{"resource":{"resourceType":"Observation","id":"23cdcffa-7a44-4ded-8e29-d71da3445f79","meta":{"profile":["http://hl7.org/fhir/us/core/StructureDefinition/us-core-heart-rate"]},"status":"final","category":[{"coding":[{"system":"http://terminology.hl7.org/CodeSystem/observation-category","code":"vital-signs","display":"Vital Signs"}]}],"code":{"coding":[{"system":"http://loinc.org","version":"2.76","code":"8867-4"}]},"subject":{"reference":"Patient/6cf089cd-0c1a-4e4f-b8d9-11c0db757c4b"},"effectiveDateTime":"2026-07-08T09:30:00.000+00:00","valueQuantity":{"value":45,"unit":"/min","system":"http://unitsofmeasure.org","code":"/min"}},"request":{"method":"PUT","url":"Observation/23cdcffa-7a44-4ded-8e29-d71da3445f79"}},{"resource":{"resourceType":"Encounter","id":"61510a96-0ca2-4c2a-b281-28d8797c8140","meta":{"profile":["http://hl7.org/fhir/us/qicore/StructureDefinition/qicore-encounter"]},"status":"finished","class":{"system":"http://terminology.hl7.org/CodeSystem/v3-ActCode","code":"AMB","display":"ambulatory encounter"},"type":[{"coding":[{"system":"http://snomed.info/sct","version":"http://snomed.info/sct/731000124108/version/20240301","code":"209099002","display":"History and physical examination with management of domiciliary or rest home patient (procedure)"}]}],"subject":{"reference":"Patient/6cf089cd-0c1a-4e4f-b8d9-11c0db757c4b"},"period":{"start":"2026-07-08T09:00:00.000+00:00","end":"2026-07-08T10:00:00.000+00:00"}},"request":{"method":"PUT","url":"Encounter/61510a96-0ca2-4c2a-b281-28d8797c8140"}},{"resource":{"resourceType":"Patient","id":"6cf089cd-0c1a-4e4f-b8d9-11c0db757c4b","meta":{"profile":["http://hl7.org/fhir/us/qicore/StructureDefinition/qicore-patient"]},"extension":[{"url":"http://hl7.org/fhir/us/core/StructureDefinition/us-core-race","extension":[{"url":"ombCategory","valueCoding":{"system":"urn:oid:2.16.840.1.113883.6.238","code":"1002-5","display":"American Indian or Alaska Native"}},{"url":"text","valueString":"American Indian or Alaska Native"}]},{"url":"http://hl7.org/fhir/us/core/StructureDefinition/us-core-ethnicity","extension":[{"url":"ombCategory","valueCoding":{"system":"urn:oid:2.16.840.1.113883.6.238","code":"2186-5","display":"Not Hispanic or Latino"}},{"url":"text","valueString":"Not Hispanic or Latino"}]}],"identifier":[{"type":{"coding":[{"system":"http://terminology.hl7.org/CodeSystem/v2-0203","code":"MR"}]},"system":"https://bonnie-fhir.healthit.gov/","value":"576545341346746345"}],"active":true,"name":[{"use":"usual","family":"DENEXCEPPop2Pass","given":["ConsecHeartRatesLT50"]}],"gender":"male","birthDate":"1958-05-30"},"request":{"method":"PUT","url":"Patient/6cf089cd-0c1a-4e4f-b8d9-11c0db757c4b"}},{"resource":{"resourceType":"Condition","id":"7d81b388-63df-45ca-891b-2567c43d4783","meta":{"profile":["http://hl7.org/fhir/us/qicore/StructureDefinition/qicore-condition-problems-health-concerns"]},"clinicalStatus":{"coding":[{"system":"http://terminology.hl7.org/CodeSystem/condition-clinical","code":"active","display":"Active"}]},"verificationStatus":{"coding":[{"system":"http://terminology.hl7.org/CodeSystem/condition-ver-status","code":"confirmed"}]},"category":[{"coding":[{"system":"http://terminology.hl7.org/CodeSystem/condition-category","code":"problem-list-item","display":"Problem List Item"}]}],"code":{"coding":[{"system":"http://snomed.info/sct","version":"http://snomed.info/sct/731000124108/version/20240301","code":"10365005","display":"Right main coronary artery thrombosis (disorder)"}]},"subject":{"reference":"Patient/6cf089cd-0c1a-4e4f-b8d9-11c0db757c4b"},"onsetPeriod":{"start":"2026-01-21T07:00:00.000+00:00"}},"request":{"method":"PUT","url":"Condition/7d81b388-63df-45ca-891b-2567c43d4783"}},{"resource":{"resourceType":"Condition","id":"fa62f503-1e64-4741-becf-9aacaddb3955","meta":{"profile":["http://hl7.org/fhir/us/qicore/StructureDefinition/qicore-condition-problems-health-concerns"]},"clinicalStatus":{"coding":[{"system":"http://terminology.hl7.org/CodeSystem/condition-clinical","code":"active","display":"Active"}]},"verificationStatus":{"coding":[{"system":"http://terminology.hl7.org/CodeSystem/condition-ver-status","code":"confirmed","display":"Confirmed"}]},"category":[{"coding":[{"system":"http://terminology.hl7.org/CodeSystem/condition-category","code":"problem-list-item","display":"Problem List Item"}]}],"code":{"coding":[{"system":"http://hl7.org/fhir/sid/icd-10-cm","version":"2024","code":"I21.01"}]},"subject":{"reference":"Patient/6cf089cd-0c1a-4e4f-b8d9-11c0db757c4b"},"onsetPeriod":{"start":"2023-11-22T07:30:00.000+00:00","end":"2023-11-22T08:30:00.000+00:00"}},"request":{"method":"PUT","url":"Condition/fa62f503-1e64-4741-becf-9aacaddb3955"}},{"resource":{"resourceType":"MeasureReport","id":"c3e48689-1233-4628-a3f5-44b20968cc85","meta":{"profile":["http://hl7.org/fhir/us/cqfmeasures/StructureDefinition/test-case-cqfm"]},"contained":[{"resourceType":"Parameters","id":"8c5bd285-6a14-4bc5-b575-3528ef4c31b7-parameters","parameter":[{"name":"subject","valueString":"6cf089cd-0c1a-4e4f-b8d9-11c0db757c4b"}]}],"extension":[{"url":"http://hl7.org/fhir/StructureDefinition/cqf-inputParameters","valueReference":{"reference":"#8c5bd285-6a14-4bc5-b575-3528ef4c31b7-parameters"}},{"url":"http://hl7.org/fhir/us/cqfmeasures/StructureDefinition/cqfm-testCaseDescription","valueMarkdown":"Pt > 18, 2 visits in MP, MI onset > 2 yrs b4 MP, CAD onset during MP b4 1st visit, and 2 consecutive heart rate readings on day of last visit < 50"}],"modifierExtension":[{"url":"http://hl7.org/fhir/us/cqfmeasures/StructureDefinition/cqfm-isTestCase","valueBoolean":true}],"status":"complete","type":"individual","measure":"https://madie.cms.gov/Measure/CMS145FHIRCADBetaBlockerTherapyPriorMIorLVSD","period":{"start":"2026-01-01","end":"2026-12-31"},"group":[{"id":"Group_1","population":[{"id":"InitialPopulation_1","code":{"coding":[{"system":"http://terminology.hl7.org/CodeSystem/measure-population","code":"initial-population","display":"Initial Population"}]},"count":1},{"id":"Denominator_1","code":{"coding":[{"system":"http://terminology.hl7.org/CodeSystem/measure-population","code":"denominator","display":"Denominator"}]},"count":0},{"id":"Numerator_1","code":{"coding":[{"system":"http://terminology.hl7.org/CodeSystem/measure-population","code":"numerator","display":"Numerator"}]},"count":0},{"id":"DenominatorException_1","code":{"coding":[{"system":"http://terminology.hl7.org/CodeSystem/measure-population","code":"denominator-exception","display":"Denominator Exception"}]},"count":0}],"measureScore":{"value":1.0}},{"id":"Group_2","population":[{"id":"InitialPopulation_2","code":{"coding":[{"system":"http://terminology.hl7.org/CodeSystem/measure-population","code":"initial-population","display":"Initial Population"}]},"count":1},{"id":"Denominator_2","code":{"coding":[{"system":"http://terminology.hl7.org/CodeSystem/measure-population","code":"denominator","display":"Denominator"}]},"count":1},{"id":"Numerator_2","code":{"coding":[{"system":"http://terminology.hl7.org/CodeSystem/measure-population","code":"numerator","display":"Numerator"}]},"count":0},{"id":"DenominatorException_2","code":{"coding":[{"system":"http://terminology.hl7.org/CodeSystem/measure-population","code":"denominator-exception","display":"Denominator Exception"}]},"count":1}],"measureScore":{"value":1.0}}],"evaluatedResource":[{"reference":"Patient/6cf089cd-0c1a-4e4f-b8d9-11c0db757c4b"},{"reference":"Encounter/1e49f412-9b38-43b5-bb73-dfa9add0c467"},{"reference":"Encounter/61510a96-0ca2-4c2a-b281-28d8797c8140"},{"reference":"Condition/fa62f503-1e64-4741-becf-9aacaddb3955"},{"reference":"Condition/7d81b388-63df-45ca-891b-2567c43d4783"},{"reference":"Observation/049dbd8d-520d-4a44-ac37-acbf043d8322"},{"reference":"Observation/23cdcffa-7a44-4ded-8e29-d71da3445f79"}]},"request":{"method":"PUT","url":"MeasureReport/c3e48689-1233-4628-a3f5-44b20968cc85"}},{"resource":{"resourceType":"Encounter","id":"1e49f412-9b38-43b5-bb73-dfa9add0c467","meta":{"profile":["http://hl7.org/fhir/us/qicore/StructureDefinition/qicore-encounter"]},"status":"finished","class":{"system":"http://terminology.hl7.org/CodeSystem/v3-ActCode","code":"AMB","display":"ambulatory encounter"},"type":[{"coding":[{"system":"http://snomed.info/sct","version":"http://snomed.info/sct/731000124108/version/20240301","code":"209099002","display":"History and physical examination with management of domiciliary or rest home patient (procedure)"}]}],"subject":{"reference":"Patient/6cf089cd-0c1a-4e4f-b8d9-11c0db757c4b"},"period":{"start":"2026-04-05T06:00:00.000+00:00","end":"2026-04-05T07:00:00.000+00:00"}},"request":{"method":"PUT","url":"Encounter/1e49f412-9b38-43b5-bb73-dfa9add0c467"}}]}