{"resourceType":"Bundle","id":"tests-9377a6c4-cb7a-4e87-a8b2-c598a5b0e2df-bundle","type":"transaction","entry":[{"fullUrl":"Encounter/4cd8f383-4f80-48c7-9347-8a31597fb942","resource":{"resourceType":"Encounter","id":"4cd8f383-4f80-48c7-9347-8a31597fb942","meta":{"profile":["http://hl7.org/fhir/us/qicore/StructureDefinition/qicore-encounter"]},"status":"finished","class":{"system":"http://terminology.hl7.org/CodeSystem/v3-ActCode","code":"AMB","display":"ambulatory encounter"},"type":[{"coding":[{"system":"http://www.ama-assn.org/go/cpt","version":"2024","code":"99205"}]}],"subject":{"reference":"Patient/9377a6c4-cb7a-4e87-a8b2-c598a5b0e2df"},"period":{"start":"2026-07-08T09:00:00.000+00:00","end":"2026-07-08T09:00:00.000+00:00"}},"request":{"method":"PUT","url":"Encounter/4cd8f383-4f80-48c7-9347-8a31597fb942"}},{"fullUrl":"MeasureReport/ebe64531-0bfe-4998-b7c9-fe9d6bb4432a","resource":{"resourceType":"MeasureReport","id":"ebe64531-0bfe-4998-b7c9-fe9d6bb4432a","meta":{"profile":["http://hl7.org/fhir/us/cqfmeasures/StructureDefinition/test-case-cqfm"]},"contained":[{"resourceType":"Parameters","id":"32261dd1-f220-44d7-82df-83fbc4c073d0-parameters","parameter":[{"name":"subject","valueString":"9377a6c4-cb7a-4e87-a8b2-c598a5b0e2df"}]}],"extension":[{"url":"http://hl7.org/fhir/StructureDefinition/cqf-inputParameters","valueReference":{"reference":"#32261dd1-f220-44d7-82df-83fbc4c073d0-parameters"}},{"url":"http://hl7.org/fhir/us/cqfmeasures/StructureDefinition/cqfm-testCaseDescription","valueMarkdown":"Pt > 18, 2 amb. visits during MP, a moderate LVSD and CAD Dx (both with onset during 1st visit),  and a prior and ongoing Beta Blocker Allergy beginning more than 3 years ago"}],"modifierExtension":[{"url":"http://hl7.org/fhir/us/cqfmeasures/StructureDefinition/cqfm-isTestCase","valueBoolean":true}],"status":"complete","type":"individual","measure":"https://madie.cms.gov/Measure/CMS145FHIRCADBetaBlockerTherapyPriorMIorLVSD","period":{"start":"2026-01-01","end":"2026-12-31"},"group":[{"id":"Group_1","population":[{"id":"InitialPopulation_1","code":{"coding":[{"system":"http://terminology.hl7.org/CodeSystem/measure-population","code":"initial-population","display":"Initial Population"}]},"count":1},{"id":"Denominator_1","code":{"coding":[{"system":"http://terminology.hl7.org/CodeSystem/measure-population","code":"denominator","display":"Denominator"}]},"count":1},{"id":"Numerator_1","code":{"coding":[{"system":"http://terminology.hl7.org/CodeSystem/measure-population","code":"numerator","display":"Numerator"}]},"count":0},{"id":"DenominatorException_1","code":{"coding":[{"system":"http://terminology.hl7.org/CodeSystem/measure-population","code":"denominator-exception","display":"Denominator Exception"}]},"count":1}],"measureScore":{"value":1.0}},{"id":"Group_2","population":[{"id":"InitialPopulation_2","code":{"coding":[{"system":"http://terminology.hl7.org/CodeSystem/measure-population","code":"initial-population","display":"Initial Population"}]},"count":1},{"id":"Denominator_2","code":{"coding":[{"system":"http://terminology.hl7.org/CodeSystem/measure-population","code":"denominator","display":"Denominator"}]},"count":0},{"id":"Numerator_2","code":{"coding":[{"system":"http://terminology.hl7.org/CodeSystem/measure-population","code":"numerator","display":"Numerator"}]},"count":0},{"id":"DenominatorException_2","code":{"coding":[{"system":"http://terminology.hl7.org/CodeSystem/measure-population","code":"denominator-exception","display":"Denominator Exception"}]},"count":0}],"measureScore":{"value":1.0}}],"evaluatedResource":[{"reference":"Patient/9377a6c4-cb7a-4e87-a8b2-c598a5b0e2df"},{"reference":"Encounter/a23dcee0-4df0-48c9-9cb1-061a8bdafbac"},{"reference":"Encounter/4cd8f383-4f80-48c7-9347-8a31597fb942"},{"reference":"Condition/44280259-c5f3-448b-8d24-708498c7f91e"},{"reference":"Condition/47c2252f-e31a-4b44-acda-c80b4496703e"},{"reference":"AllergyIntolerance/61c9f276-b641-4299-bbff-222c95dd59ee"}]},"request":{"method":"PUT","url":"MeasureReport/ebe64531-0bfe-4998-b7c9-fe9d6bb4432a"}},{"fullUrl":"Patient/9377a6c4-cb7a-4e87-a8b2-c598a5b0e2df","resource":{"resourceType":"Patient","id":"9377a6c4-cb7a-4e87-a8b2-c598a5b0e2df","meta":{"profile":["http://hl7.org/fhir/us/qicore/StructureDefinition/qicore-patient"]},"extension":[{"url":"http://hl7.org/fhir/us/core/StructureDefinition/us-core-race","extension":[{"url":"ombCategory","valueCoding":{"system":"urn:oid:2.16.840.1.113883.6.238","code":"1002-5","display":"American Indian or Alaska Native"}},{"url":"text","valueString":"American Indian or Alaska Native"}]},{"url":"http://hl7.org/fhir/us/core/StructureDefinition/us-core-ethnicity","extension":[{"url":"ombCategory","valueCoding":{"system":"urn:oid:2.16.840.1.113883.6.238","code":"2186-5","display":"Not Hispanic or Latino"}},{"url":"text","valueString":"Not Hispanic or Latino"}]}],"identifier":[{"type":{"coding":[{"system":"http://terminology.hl7.org/CodeSystem/v2-0203","code":"MR"}]},"system":"https://bonnie-fhir.healthit.gov/","value":"16546813164163513131"}],"active":true,"name":[{"use":"usual","family":"DENEXCEPPop1Pass","given":["BetaBlockerAllergy"]}],"gender":"female","birthDate":"1923-03-24"},"request":{"method":"PUT","url":"Patient/9377a6c4-cb7a-4e87-a8b2-c598a5b0e2df"}},{"fullUrl":"Encounter/a23dcee0-4df0-48c9-9cb1-061a8bdafbac","resource":{"resourceType":"Encounter","id":"a23dcee0-4df0-48c9-9cb1-061a8bdafbac","meta":{"profile":["http://hl7.org/fhir/us/qicore/StructureDefinition/qicore-encounter"]},"status":"finished","class":{"system":"http://terminology.hl7.org/CodeSystem/v3-ActCode","code":"AMB","display":"ambulatory encounter"},"type":[{"coding":[{"system":"http://www.ama-assn.org/go/cpt","version":"2024","code":"99205"}]}],"subject":{"reference":"Patient/9377a6c4-cb7a-4e87-a8b2-c598a5b0e2df"},"period":{"start":"2026-04-05T06:00:00.000+00:00","end":"2026-04-05T07:00:00.000+00:00"}},"request":{"method":"PUT","url":"Encounter/a23dcee0-4df0-48c9-9cb1-061a8bdafbac"}},{"fullUrl":"Condition/44280259-c5f3-448b-8d24-708498c7f91e","resource":{"resourceType":"Condition","id":"44280259-c5f3-448b-8d24-708498c7f91e","meta":{"profile":["http://hl7.org/fhir/us/qicore/StructureDefinition/qicore-condition-problems-health-concerns"]},"clinicalStatus":{"coding":[{"system":"http://terminology.hl7.org/CodeSystem/condition-clinical","code":"active","display":"Active"}]},"verificationStatus":{"coding":[{"system":"http://terminology.hl7.org/CodeSystem/condition-ver-status","code":"confirmed","display":"Confirmed"}]},"category":[{"coding":[{"system":"http://terminology.hl7.org/CodeSystem/condition-category","code":"problem-list-item","display":"Problem List Item"}]}],"code":{"coding":[{"system":"http://snomed.info/sct","version":"http://snomed.info/sct/731000124108/version/20240301","code":"981000124106","display":"Moderate left ventricular systolic dysfunction (disorder)"}]},"subject":{"reference":"Patient/9377a6c4-cb7a-4e87-a8b2-c598a5b0e2df"},"onsetPeriod":{"start":"2026-04-05T06:00:00.000+00:00"}},"request":{"method":"PUT","url":"Condition/44280259-c5f3-448b-8d24-708498c7f91e"}},{"fullUrl":"Condition/47c2252f-e31a-4b44-acda-c80b4496703e","resource":{"resourceType":"Condition","id":"47c2252f-e31a-4b44-acda-c80b4496703e","meta":{"profile":["http://hl7.org/fhir/us/qicore/StructureDefinition/qicore-condition-problems-health-concerns"]},"clinicalStatus":{"coding":[{"system":"http://terminology.hl7.org/CodeSystem/condition-clinical","code":"active","display":"Active"}]},"verificationStatus":{"coding":[{"system":"http://terminology.hl7.org/CodeSystem/condition-ver-status","code":"confirmed","display":"Confirmed"}]},"category":[{"coding":[{"system":"http://terminology.hl7.org/CodeSystem/condition-category","code":"problem-list-item","display":"Problem List Item"}]}],"code":{"coding":[{"system":"http://snomed.info/sct","version":"http://snomed.info/sct/731000124108/version/20240301","code":"10365005","display":"Right main coronary artery thrombosis (disorder)"}]},"subject":{"reference":"Patient/9377a6c4-cb7a-4e87-a8b2-c598a5b0e2df"},"onsetPeriod":{"start":"2026-04-05T06:00:00.000+00:00"}},"request":{"method":"PUT","url":"Condition/47c2252f-e31a-4b44-acda-c80b4496703e"}},{"fullUrl":"Bundle/84164194651263164651651","resource":{"resourceType":"Bundle","id":"84164194651263164651651","type":"transaction","entry":[{"fullUrl":"https://madie.cms.gov/Patient/9377a6c4-cb7a-4e87-a8b2-c598a5b0e2df","resource":{"resourceType":"Patient","id":"9377a6c4-cb7a-4e87-a8b2-c598a5b0e2df","meta":{"profile":["http://hl7.org/fhir/us/qicore/StructureDefinition/qicore-patient"]},"extension":[{"url":"http://hl7.org/fhir/us/core/StructureDefinition/us-core-race","extension":[{"url":"ombCategory","valueCoding":{"system":"urn:oid:2.16.840.1.113883.6.238","code":"1002-5","display":"American Indian or Alaska Native"}},{"url":"text","valueString":"American Indian or Alaska Native"}]},{"url":"http://hl7.org/fhir/us/core/StructureDefinition/us-core-ethnicity","extension":[{"url":"ombCategory","valueCoding":{"system":"urn:oid:2.16.840.1.113883.6.238","code":"2186-5","display":"Not Hispanic or Latino"}},{"url":"text","valueString":"Not Hispanic or Latino"}]}],"identifier":[{"type":{"coding":[{"system":"http://terminology.hl7.org/CodeSystem/v2-0203","code":"MR"}]},"system":"https://bonnie-fhir.healthit.gov/","value":"16546813164163513131"}],"active":true,"name":[{"use":"usual","family":"DENEXCEPPop1Pass","given":["BetaBlockerAllergy"]}],"gender":"female","birthDate":"1923-03-24"},"request":{"method":"PUT","url":"Patient/9377a6c4-cb7a-4e87-a8b2-c598a5b0e2df"}},{"fullUrl":"https://madie.cms.gov/Encounter/a23dcee0-4df0-48c9-9cb1-061a8bdafbac","resource":{"resourceType":"Encounter","id":"a23dcee0-4df0-48c9-9cb1-061a8bdafbac","meta":{"profile":["http://hl7.org/fhir/us/qicore/StructureDefinition/qicore-encounter"]},"status":"finished","class":{"system":"http://terminology.hl7.org/CodeSystem/v3-ActCode","code":"AMB","display":"ambulatory encounter"},"type":[{"coding":[{"system":"http://www.ama-assn.org/go/cpt","version":"2024","code":"99205"}]}],"subject":{"reference":"Patient/9377a6c4-cb7a-4e87-a8b2-c598a5b0e2df"},"period":{"start":"2026-04-05T06:00:00.000+00:00","end":"2026-04-05T07:00:00.000+00:00"}},"request":{"method":"PUT","url":"Encounter/a23dcee0-4df0-48c9-9cb1-061a8bdafbac"}},{"fullUrl":"https://madie.cms.gov/Encounter/4cd8f383-4f80-48c7-9347-8a31597fb942","resource":{"resourceType":"Encounter","id":"4cd8f383-4f80-48c7-9347-8a31597fb942","meta":{"profile":["http://hl7.org/fhir/us/qicore/StructureDefinition/qicore-encounter"]},"status":"finished","class":{"system":"http://terminology.hl7.org/CodeSystem/v3-ActCode","code":"AMB","display":"ambulatory encounter"},"type":[{"coding":[{"system":"http://www.ama-assn.org/go/cpt","version":"2024","code":"99205"}]}],"subject":{"reference":"Patient/9377a6c4-cb7a-4e87-a8b2-c598a5b0e2df"},"period":{"start":"2026-07-08T09:00:00.000+00:00","end":"2026-07-08T09:00:00.000+00:00"}},"request":{"method":"PUT","url":"Encounter/4cd8f383-4f80-48c7-9347-8a31597fb942"}},{"fullUrl":"https://madie.cms.gov/Condition/44280259-c5f3-448b-8d24-708498c7f91e","resource":{"resourceType":"Condition","id":"44280259-c5f3-448b-8d24-708498c7f91e","meta":{"profile":["http://hl7.org/fhir/us/qicore/StructureDefinition/qicore-condition-problems-health-concerns"]},"clinicalStatus":{"coding":[{"system":"http://terminology.hl7.org/CodeSystem/condition-clinical","code":"active","display":"Active"}]},"verificationStatus":{"coding":[{"system":"http://terminology.hl7.org/CodeSystem/condition-ver-status","code":"confirmed","display":"Confirmed"}]},"category":[{"coding":[{"system":"http://terminology.hl7.org/CodeSystem/condition-category","code":"problem-list-item","display":"Problem List Item"}]}],"code":{"coding":[{"system":"http://snomed.info/sct","version":"http://snomed.info/sct/731000124108/version/20240301","code":"981000124106","display":"Moderate left ventricular systolic dysfunction (disorder)"}]},"subject":{"reference":"Patient/9377a6c4-cb7a-4e87-a8b2-c598a5b0e2df"},"onsetPeriod":{"start":"2026-04-05T06:00:00.000+00:00"}},"request":{"method":"PUT","url":"Condition/44280259-c5f3-448b-8d24-708498c7f91e"}},{"fullUrl":"https://madie.cms.gov/Condition/47c2252f-e31a-4b44-acda-c80b4496703e","resource":{"resourceType":"Condition","id":"47c2252f-e31a-4b44-acda-c80b4496703e","meta":{"profile":["http://hl7.org/fhir/us/qicore/StructureDefinition/qicore-condition-problems-health-concerns"]},"clinicalStatus":{"coding":[{"system":"http://terminology.hl7.org/CodeSystem/condition-clinical","code":"active","display":"Active"}]},"verificationStatus":{"coding":[{"system":"http://terminology.hl7.org/CodeSystem/condition-ver-status","code":"confirmed","display":"Confirmed"}]},"category":[{"coding":[{"system":"http://terminology.hl7.org/CodeSystem/condition-category","code":"problem-list-item","display":"Problem List Item"}]}],"code":{"coding":[{"system":"http://snomed.info/sct","version":"http://snomed.info/sct/731000124108/version/20240301","code":"10365005","display":"Right main coronary artery thrombosis (disorder)"}]},"subject":{"reference":"Patient/9377a6c4-cb7a-4e87-a8b2-c598a5b0e2df"},"onsetPeriod":{"start":"2026-04-05T06:00:00.000+00:00"}},"request":{"method":"PUT","url":"Condition/47c2252f-e31a-4b44-acda-c80b4496703e"}},{"fullUrl":"https://madie.cms.gov/AllergyIntolerance/61c9f276-b641-4299-bbff-222c95dd59ee","resource":{"resourceType":"AllergyIntolerance","id":"61c9f276-b641-4299-bbff-222c95dd59ee","meta":{"profile":["http://hl7.org/fhir/us/qicore/StructureDefinition/qicore-allergyintolerance"]},"clinicalStatus":{"coding":[{"system":"http://terminology.hl7.org/CodeSystem/allergyintolerance-clinical","code":"active"}]},"verificationStatus":{"coding":[{"system":"http://terminology.hl7.org/CodeSystem/allergyintolerance-verification","code":"confirmed"}]},"type":"allergy","criticality":"high","code":{"coding":[{"system":"http://www.nlm.nih.gov/research/umls/rxnorm","version":"04012024","code":"1202","display":"atenolol"}]},"patient":{"reference":"Patient/9377a6c4-cb7a-4e87-a8b2-c598a5b0e2df"},"onsetDateTime":"2022-10-01","recordedDate":"2022-10-01T14:00:00.000+00:00"},"request":{"method":"PUT","url":"AllergyIntolerance/61c9f276-b641-4299-bbff-222c95dd59ee"}},{"fullUrl":"https://madie.cms.gov/MeasureReport/ebe64531-0bfe-4998-b7c9-fe9d6bb4432a","resource":{"resourceType":"MeasureReport","id":"ebe64531-0bfe-4998-b7c9-fe9d6bb4432a","meta":{"profile":["http://hl7.org/fhir/us/cqfmeasures/StructureDefinition/test-case-cqfm"]},"contained":[{"resourceType":"Parameters","id":"32261dd1-f220-44d7-82df-83fbc4c073d0-parameters","parameter":[{"name":"subject","valueString":"9377a6c4-cb7a-4e87-a8b2-c598a5b0e2df"}]}],"extension":[{"url":"http://hl7.org/fhir/StructureDefinition/cqf-inputParameters","valueReference":{"reference":"#32261dd1-f220-44d7-82df-83fbc4c073d0-parameters"}},{"url":"http://hl7.org/fhir/us/cqfmeasures/StructureDefinition/cqfm-testCaseDescription","valueMarkdown":"Pt > 18, 2 amb. visits during MP, a moderate LVSD and CAD Dx (both with onset during 1st visit),  and a prior and ongoing Beta Blocker Allergy beginning more than 3 years ago"}],"modifierExtension":[{"url":"http://hl7.org/fhir/us/cqfmeasures/StructureDefinition/cqfm-isTestCase","valueBoolean":true}],"status":"complete","type":"individual","measure":"https://madie.cms.gov/Measure/CMS145FHIRCADBetaBlockerTherapyPriorMIorLVSD","period":{"start":"2026-01-01","end":"2026-12-31"},"group":[{"id":"Group_1","population":[{"id":"InitialPopulation_1","code":{"coding":[{"system":"http://terminology.hl7.org/CodeSystem/measure-population","code":"initial-population","display":"Initial Population"}]},"count":1},{"id":"Denominator_1","code":{"coding":[{"system":"http://terminology.hl7.org/CodeSystem/measure-population","code":"denominator","display":"Denominator"}]},"count":1},{"id":"Numerator_1","code":{"coding":[{"system":"http://terminology.hl7.org/CodeSystem/measure-population","code":"numerator","display":"Numerator"}]},"count":0},{"id":"DenominatorException_1","code":{"coding":[{"system":"http://terminology.hl7.org/CodeSystem/measure-population","code":"denominator-exception","display":"Denominator Exception"}]},"count":1}],"measureScore":{"value":1.0}},{"id":"Group_2","population":[{"id":"InitialPopulation_2","code":{"coding":[{"system":"http://terminology.hl7.org/CodeSystem/measure-population","code":"initial-population","display":"Initial Population"}]},"count":1},{"id":"Denominator_2","code":{"coding":[{"system":"http://terminology.hl7.org/CodeSystem/measure-population","code":"denominator","display":"Denominator"}]},"count":0},{"id":"Numerator_2","code":{"coding":[{"system":"http://terminology.hl7.org/CodeSystem/measure-population","code":"numerator","display":"Numerator"}]},"count":0},{"id":"DenominatorException_2","code":{"coding":[{"system":"http://terminology.hl7.org/CodeSystem/measure-population","code":"denominator-exception","display":"Denominator Exception"}]},"count":0}],"measureScore":{"value":1.0}}],"evaluatedResource":[{"reference":"Patient/9377a6c4-cb7a-4e87-a8b2-c598a5b0e2df"},{"reference":"Encounter/a23dcee0-4df0-48c9-9cb1-061a8bdafbac"},{"reference":"Encounter/4cd8f383-4f80-48c7-9347-8a31597fb942"},{"reference":"Condition/44280259-c5f3-448b-8d24-708498c7f91e"},{"reference":"Condition/47c2252f-e31a-4b44-acda-c80b4496703e"},{"reference":"AllergyIntolerance/61c9f276-b641-4299-bbff-222c95dd59ee"}]},"request":{"method":"PUT","url":"MeasureReport/ebe64531-0bfe-4998-b7c9-fe9d6bb4432a"}}]},"request":{"method":"PUT","url":"Bundle/84164194651263164651651"}},{"fullUrl":"AllergyIntolerance/61c9f276-b641-4299-bbff-222c95dd59ee","resource":{"resourceType":"AllergyIntolerance","id":"61c9f276-b641-4299-bbff-222c95dd59ee","meta":{"profile":["http://hl7.org/fhir/us/qicore/StructureDefinition/qicore-allergyintolerance"]},"clinicalStatus":{"coding":[{"system":"http://terminology.hl7.org/CodeSystem/allergyintolerance-clinical","code":"active"}]},"verificationStatus":{"coding":[{"system":"http://terminology.hl7.org/CodeSystem/allergyintolerance-verification","code":"confirmed"}]},"type":"allergy","criticality":"high","code":{"coding":[{"system":"http://www.nlm.nih.gov/research/umls/rxnorm","version":"04012024","code":"1202","display":"atenolol"}]},"patient":{"reference":"Patient/9377a6c4-cb7a-4e87-a8b2-c598a5b0e2df"},"onsetDateTime":"2022-10-01","recordedDate":"2022-10-01T14:00:00.000+00:00"},"request":{"method":"PUT","url":"AllergyIntolerance/61c9f276-b641-4299-bbff-222c95dd59ee"}}]}