{"resourceType":"Bundle","id":"tests-9cc50dc3-f081-4ab6-bf6d-cbfabb5a2e89-bundle","type":"transaction","entry":[{"fullUrl":"Patient/9cc50dc3-f081-4ab6-bf6d-cbfabb5a2e89","resource":{"resourceType":"Patient","id":"9cc50dc3-f081-4ab6-bf6d-cbfabb5a2e89","meta":{"profile":["http://hl7.org/fhir/us/qicore/StructureDefinition/qicore-patient"]},"extension":[{"url":"http://hl7.org/fhir/us/core/StructureDefinition/us-core-race","extension":[{"url":"ombCategory","valueCoding":{"system":"urn:oid:2.16.840.1.113883.6.238","code":"1002-5","display":"American Indian or Alaska Native"}},{"url":"text","valueString":"American Indian or Alaska Native"}]},{"url":"http://hl7.org/fhir/us/core/StructureDefinition/us-core-ethnicity","extension":[{"url":"ombCategory","valueCoding":{"system":"urn:oid:2.16.840.1.113883.6.238","code":"2186-5","display":"Not Hispanic or Latino"}},{"url":"text","valueString":"Not Hispanic or Latino"}]}],"identifier":[{"type":{"coding":[{"system":"http://terminology.hl7.org/CodeSystem/v2-0203","code":"MR"}]},"system":"https://bonnie-fhir.healthit.gov/","value":"4684351615401011"}],"active":true,"name":[{"use":"usual","family":"IPPass","given":["EncounterAfterMP"]}],"gender":"female","birthDate":"1958-11-01"},"request":{"method":"PUT","url":"Patient/9cc50dc3-f081-4ab6-bf6d-cbfabb5a2e89"}},{"fullUrl":"Encounter/654ed33e-5ae3-4fee-b039-4a7bf1025a8d","resource":{"resourceType":"Encounter","id":"654ed33e-5ae3-4fee-b039-4a7bf1025a8d","meta":{"profile":["http://hl7.org/fhir/us/qicore/StructureDefinition/qicore-encounter"]},"status":"finished","class":{"system":"http://terminology.hl7.org/CodeSystem/v3-ActCode","code":"AMB","display":"ambulatory"},"type":[{"coding":[{"system":"http://www.ama-assn.org/go/cpt","version":"2024","code":"99205"}]}],"subject":{"reference":"Patient/9cc50dc3-f081-4ab6-bf6d-cbfabb5a2e89"},"period":{"start":"2026-01-22T11:30:00.000+00:00","end":"2026-01-22T12:30:00.000+00:00"},"length":{"value":0,"unit":"days"}},"request":{"method":"PUT","url":"Encounter/654ed33e-5ae3-4fee-b039-4a7bf1025a8d"}},{"fullUrl":"Encounter/265880d6-a600-4e6f-9340-312113c46bb3","resource":{"resourceType":"Encounter","id":"265880d6-a600-4e6f-9340-312113c46bb3","meta":{"profile":["http://hl7.org/fhir/us/qicore/StructureDefinition/qicore-encounter"]},"status":"finished","class":{"system":"http://terminology.hl7.org/CodeSystem/v3-ActCode","code":"AMB","display":"ambulatory"},"type":[{"coding":[{"system":"http://www.ama-assn.org/go/cpt","version":"2024","code":"99205"}]}],"subject":{"reference":"Patient/9cc50dc3-f081-4ab6-bf6d-cbfabb5a2e89"},"period":{"start":"2026-11-22T07:30:00.000+00:00","end":"2026-11-22T08:30:00.000+00:00"},"length":{"value":0,"unit":"days"}},"request":{"method":"PUT","url":"Encounter/265880d6-a600-4e6f-9340-312113c46bb3"}},{"fullUrl":"Condition/725fcd3d-50c7-41fe-a296-31d0a742a648","resource":{"resourceType":"Condition","id":"725fcd3d-50c7-41fe-a296-31d0a742a648","meta":{"profile":["http://hl7.org/fhir/us/qicore/StructureDefinition/qicore-condition-problems-health-concerns"]},"clinicalStatus":{"coding":[{"system":"http://terminology.hl7.org/CodeSystem/condition-clinical","code":"active","display":"Active"}]},"verificationStatus":{"coding":[{"system":"http://terminology.hl7.org/CodeSystem/condition-ver-status","code":"confirmed","display":"Confirmed"}]},"category":[{"coding":[{"system":"http://terminology.hl7.org/CodeSystem/condition-category","code":"problem-list-item","display":"Problem List Item"}]}],"code":{"coding":[{"system":"http://snomed.info/sct","version":"http://snomed.info/sct/731000124108/version/20240301","code":"10365005","display":"Right main coronary artery thrombosis (disorder)"}]},"subject":{"reference":"Patient/9cc50dc3-f081-4ab6-bf6d-cbfabb5a2e89"},"onsetPeriod":{"start":"2026-01-21T07:00:00.000+00:00"}},"request":{"method":"PUT","url":"Condition/725fcd3d-50c7-41fe-a296-31d0a742a648"}},{"fullUrl":"MeasureReport/7cc8c95e-eec1-4239-ba2d-b983bdbbed0e","resource":{"resourceType":"MeasureReport","id":"7cc8c95e-eec1-4239-ba2d-b983bdbbed0e","meta":{"profile":["http://hl7.org/fhir/us/cqfmeasures/StructureDefinition/test-case-cqfm"]},"contained":[{"resourceType":"Parameters","id":"f322bd7f-e0ba-4aa6-b656-a8484f15b466-parameters","parameter":[{"name":"subject","valueString":"9cc50dc3-f081-4ab6-bf6d-cbfabb5a2e89"}]}],"extension":[{"url":"http://hl7.org/fhir/StructureDefinition/cqf-inputParameters","valueReference":{"reference":"#f322bd7f-e0ba-4aa6-b656-a8484f15b466-parameters"}},{"url":"http://hl7.org/fhir/us/cqfmeasures/StructureDefinition/cqfm-testCaseDescription","valueMarkdown":"Pt > 18, 2 visits (1st in MP, 2nd after MP), and CAD onset during MP b4 1st visit"}],"modifierExtension":[{"url":"http://hl7.org/fhir/us/cqfmeasures/StructureDefinition/cqfm-isTestCase","valueBoolean":true}],"status":"complete","type":"individual","measure":"https://madie.cms.gov/Measure/CMS145FHIRCADBetaBlockerTherapyPriorMIorLVSD","period":{"start":"2026-01-01","end":"2026-12-31"},"group":[{"id":"Group_1","population":[{"id":"InitialPopulation_1","code":{"coding":[{"system":"http://terminology.hl7.org/CodeSystem/measure-population","code":"initial-population","display":"Initial Population"}]},"count":1},{"id":"Denominator_1","code":{"coding":[{"system":"http://terminology.hl7.org/CodeSystem/measure-population","code":"denominator","display":"Denominator"}]},"count":0},{"id":"Numerator_1","code":{"coding":[{"system":"http://terminology.hl7.org/CodeSystem/measure-population","code":"numerator","display":"Numerator"}]},"count":0},{"id":"DenominatorException_1","code":{"coding":[{"system":"http://terminology.hl7.org/CodeSystem/measure-population","code":"denominator-exception","display":"Denominator Exception"}]},"count":0}],"measureScore":{"value":1.0}},{"id":"Group_2","population":[{"id":"InitialPopulation_2","code":{"coding":[{"system":"http://terminology.hl7.org/CodeSystem/measure-population","code":"initial-population","display":"Initial Population"}]},"count":1},{"id":"Denominator_2","code":{"coding":[{"system":"http://terminology.hl7.org/CodeSystem/measure-population","code":"denominator","display":"Denominator"}]},"count":0},{"id":"Numerator_2","code":{"coding":[{"system":"http://terminology.hl7.org/CodeSystem/measure-population","code":"numerator","display":"Numerator"}]},"count":0},{"id":"DenominatorException_2","code":{"coding":[{"system":"http://terminology.hl7.org/CodeSystem/measure-population","code":"denominator-exception","display":"Denominator Exception"}]},"count":0}],"measureScore":{"value":1.0}}],"evaluatedResource":[{"reference":"Patient/9cc50dc3-f081-4ab6-bf6d-cbfabb5a2e89"},{"reference":"Encounter/654ed33e-5ae3-4fee-b039-4a7bf1025a8d"},{"reference":"Encounter/265880d6-a600-4e6f-9340-312113c46bb3"},{"reference":"Condition/725fcd3d-50c7-41fe-a296-31d0a742a648"}]},"request":{"method":"PUT","url":"MeasureReport/7cc8c95e-eec1-4239-ba2d-b983bdbbed0e"}},{"fullUrl":"Bundle/5484651646135135131","resource":{"resourceType":"Bundle","id":"5484651646135135131","type":"transaction","entry":[{"fullUrl":"https://madie.cms.gov/Patient/9cc50dc3-f081-4ab6-bf6d-cbfabb5a2e89","resource":{"resourceType":"Patient","id":"9cc50dc3-f081-4ab6-bf6d-cbfabb5a2e89","meta":{"profile":["http://hl7.org/fhir/us/qicore/StructureDefinition/qicore-patient"]},"extension":[{"url":"http://hl7.org/fhir/us/core/StructureDefinition/us-core-race","extension":[{"url":"ombCategory","valueCoding":{"system":"urn:oid:2.16.840.1.113883.6.238","code":"1002-5","display":"American Indian or Alaska Native"}},{"url":"text","valueString":"American Indian or Alaska Native"}]},{"url":"http://hl7.org/fhir/us/core/StructureDefinition/us-core-ethnicity","extension":[{"url":"ombCategory","valueCoding":{"system":"urn:oid:2.16.840.1.113883.6.238","code":"2186-5","display":"Not Hispanic or Latino"}},{"url":"text","valueString":"Not Hispanic or Latino"}]}],"identifier":[{"type":{"coding":[{"system":"http://terminology.hl7.org/CodeSystem/v2-0203","code":"MR"}]},"system":"https://bonnie-fhir.healthit.gov/","value":"4684351615401011"}],"active":true,"name":[{"use":"usual","family":"IPPass","given":["EncounterAfterMP"]}],"gender":"female","birthDate":"1958-11-01"},"request":{"method":"PUT","url":"Patient/9cc50dc3-f081-4ab6-bf6d-cbfabb5a2e89"}},{"fullUrl":"https://madie.cms.gov/Encounter/654ed33e-5ae3-4fee-b039-4a7bf1025a8d","resource":{"resourceType":"Encounter","id":"654ed33e-5ae3-4fee-b039-4a7bf1025a8d","meta":{"profile":["http://hl7.org/fhir/us/qicore/StructureDefinition/qicore-encounter"]},"status":"finished","class":{"system":"http://terminology.hl7.org/CodeSystem/v3-ActCode","code":"AMB","display":"ambulatory"},"type":[{"coding":[{"system":"http://www.ama-assn.org/go/cpt","version":"2024","code":"99205"}]}],"subject":{"reference":"Patient/9cc50dc3-f081-4ab6-bf6d-cbfabb5a2e89"},"period":{"start":"2026-01-22T11:30:00.000+00:00","end":"2026-01-22T12:30:00.000+00:00"},"length":{"value":0,"unit":"days"}},"request":{"method":"PUT","url":"Encounter/654ed33e-5ae3-4fee-b039-4a7bf1025a8d"}},{"fullUrl":"https://madie.cms.gov/Encounter/265880d6-a600-4e6f-9340-312113c46bb3","resource":{"resourceType":"Encounter","id":"265880d6-a600-4e6f-9340-312113c46bb3","meta":{"profile":["http://hl7.org/fhir/us/qicore/StructureDefinition/qicore-encounter"]},"status":"finished","class":{"system":"http://terminology.hl7.org/CodeSystem/v3-ActCode","code":"AMB","display":"ambulatory"},"type":[{"coding":[{"system":"http://www.ama-assn.org/go/cpt","version":"2024","code":"99205"}]}],"subject":{"reference":"Patient/9cc50dc3-f081-4ab6-bf6d-cbfabb5a2e89"},"period":{"start":"2026-11-22T07:30:00.000+00:00","end":"2026-11-22T08:30:00.000+00:00"},"length":{"value":0,"unit":"days"}},"request":{"method":"PUT","url":"Encounter/265880d6-a600-4e6f-9340-312113c46bb3"}},{"fullUrl":"https://madie.cms.gov/Condition/725fcd3d-50c7-41fe-a296-31d0a742a648","resource":{"resourceType":"Condition","id":"725fcd3d-50c7-41fe-a296-31d0a742a648","meta":{"profile":["http://hl7.org/fhir/us/qicore/StructureDefinition/qicore-condition-problems-health-concerns"]},"clinicalStatus":{"coding":[{"system":"http://terminology.hl7.org/CodeSystem/condition-clinical","code":"active","display":"Active"}]},"verificationStatus":{"coding":[{"system":"http://terminology.hl7.org/CodeSystem/condition-ver-status","code":"confirmed","display":"Confirmed"}]},"category":[{"coding":[{"system":"http://terminology.hl7.org/CodeSystem/condition-category","code":"problem-list-item","display":"Problem List Item"}]}],"code":{"coding":[{"system":"http://snomed.info/sct","version":"http://snomed.info/sct/731000124108/version/20240301","code":"10365005","display":"Right main coronary artery thrombosis (disorder)"}]},"subject":{"reference":"Patient/9cc50dc3-f081-4ab6-bf6d-cbfabb5a2e89"},"onsetPeriod":{"start":"2026-01-21T07:00:00.000+00:00"}},"request":{"method":"PUT","url":"Condition/725fcd3d-50c7-41fe-a296-31d0a742a648"}},{"fullUrl":"https://madie.cms.gov/MeasureReport/7cc8c95e-eec1-4239-ba2d-b983bdbbed0e","resource":{"resourceType":"MeasureReport","id":"7cc8c95e-eec1-4239-ba2d-b983bdbbed0e","meta":{"profile":["http://hl7.org/fhir/us/cqfmeasures/StructureDefinition/test-case-cqfm"]},"contained":[{"resourceType":"Parameters","id":"f322bd7f-e0ba-4aa6-b656-a8484f15b466-parameters","parameter":[{"name":"subject","valueString":"9cc50dc3-f081-4ab6-bf6d-cbfabb5a2e89"}]}],"extension":[{"url":"http://hl7.org/fhir/StructureDefinition/cqf-inputParameters","valueReference":{"reference":"#f322bd7f-e0ba-4aa6-b656-a8484f15b466-parameters"}},{"url":"http://hl7.org/fhir/us/cqfmeasures/StructureDefinition/cqfm-testCaseDescription","valueMarkdown":"Pt > 18, 2 visits (1st in MP, 2nd after MP), and CAD onset during MP b4 1st visit"}],"modifierExtension":[{"url":"http://hl7.org/fhir/us/cqfmeasures/StructureDefinition/cqfm-isTestCase","valueBoolean":true}],"status":"complete","type":"individual","measure":"https://madie.cms.gov/Measure/CMS145FHIRCADBetaBlockerTherapyPriorMIorLVSD","period":{"start":"2026-01-01","end":"2026-12-31"},"group":[{"id":"Group_1","population":[{"id":"InitialPopulation_1","code":{"coding":[{"system":"http://terminology.hl7.org/CodeSystem/measure-population","code":"initial-population","display":"Initial Population"}]},"count":1},{"id":"Denominator_1","code":{"coding":[{"system":"http://terminology.hl7.org/CodeSystem/measure-population","code":"denominator","display":"Denominator"}]},"count":0},{"id":"Numerator_1","code":{"coding":[{"system":"http://terminology.hl7.org/CodeSystem/measure-population","code":"numerator","display":"Numerator"}]},"count":0},{"id":"DenominatorException_1","code":{"coding":[{"system":"http://terminology.hl7.org/CodeSystem/measure-population","code":"denominator-exception","display":"Denominator Exception"}]},"count":0}],"measureScore":{"value":1.0}},{"id":"Group_2","population":[{"id":"InitialPopulation_2","code":{"coding":[{"system":"http://terminology.hl7.org/CodeSystem/measure-population","code":"initial-population","display":"Initial Population"}]},"count":1},{"id":"Denominator_2","code":{"coding":[{"system":"http://terminology.hl7.org/CodeSystem/measure-population","code":"denominator","display":"Denominator"}]},"count":0},{"id":"Numerator_2","code":{"coding":[{"system":"http://terminology.hl7.org/CodeSystem/measure-population","code":"numerator","display":"Numerator"}]},"count":0},{"id":"DenominatorException_2","code":{"coding":[{"system":"http://terminology.hl7.org/CodeSystem/measure-population","code":"denominator-exception","display":"Denominator Exception"}]},"count":0}],"measureScore":{"value":1.0}}],"evaluatedResource":[{"reference":"Patient/9cc50dc3-f081-4ab6-bf6d-cbfabb5a2e89"},{"reference":"Encounter/654ed33e-5ae3-4fee-b039-4a7bf1025a8d"},{"reference":"Encounter/265880d6-a600-4e6f-9340-312113c46bb3"},{"reference":"Condition/725fcd3d-50c7-41fe-a296-31d0a742a648"}]},"request":{"method":"PUT","url":"MeasureReport/7cc8c95e-eec1-4239-ba2d-b983bdbbed0e"}}]},"request":{"method":"PUT","url":"Bundle/5484651646135135131"}}]}