{"resourceType":"Bundle","id":"tests-1f70822b-c513-4c3a-8162-49f0bb9c914b-bundle","type":"transaction","entry":[{"resource":{"resourceType":"Encounter","id":"e090815c-2307-4d98-b9b3-6844531b1c3a","meta":{"profile":["http://hl7.org/fhir/us/qicore/StructureDefinition/qicore-encounter"]},"status":"finished","class":{"system":"http://terminology.hl7.org/CodeSystem/v3-ActCode","code":"AMB","display":"ambulatory encounter"},"type":[{"coding":[{"system":"http://www.ama-assn.org/go/cpt","version":"2024","code":"99205"}]}],"subject":{"reference":"Patient/1f70822b-c513-4c3a-8162-49f0bb9c914b"},"period":{"start":"2026-07-08T09:00:00.000+00:00","end":"2026-07-08T09:00:00.000+00:00"}},"request":{"method":"PUT","url":"Encounter/e090815c-2307-4d98-b9b3-6844531b1c3a"}},{"resource":{"resourceType":"MeasureReport","id":"44ce8049-4a15-4087-8115-8e12edf1a487","meta":{"profile":["http://hl7.org/fhir/us/cqfmeasures/StructureDefinition/test-case-cqfm"]},"contained":[{"resourceType":"Parameters","id":"64426dc6-e896-456f-91e3-51986c279ee3-parameters","parameter":[{"name":"subject","valueString":"1f70822b-c513-4c3a-8162-49f0bb9c914b"}]}],"extension":[{"url":"http://hl7.org/fhir/StructureDefinition/cqf-inputParameters","valueReference":{"reference":"#64426dc6-e896-456f-91e3-51986c279ee3-parameters"}},{"url":"http://hl7.org/fhir/us/cqfmeasures/StructureDefinition/cqfm-testCaseDescription","valueMarkdown":"Pt > 18, 2 visits in MP, MI onset > 2 years b4 MP, CAD onset during MP b4 1st visit, and med not ordered during 1st visit - patient reason *CQL-Execution Issue 296*"}],"modifierExtension":[{"url":"http://hl7.org/fhir/us/cqfmeasures/StructureDefinition/cqfm-isTestCase","valueBoolean":true}],"status":"complete","type":"individual","measure":"https://madie.cms.gov/Measure/CMS145FHIRCADBetaBlockerTherapyPriorMIorLVSD","period":{"start":"2026-01-01","end":"2026-12-31"},"group":[{"id":"Group_1","population":[{"id":"InitialPopulation_1","code":{"coding":[{"system":"http://terminology.hl7.org/CodeSystem/measure-population","code":"initial-population","display":"Initial Population"}]},"count":1},{"id":"Denominator_1","code":{"coding":[{"system":"http://terminology.hl7.org/CodeSystem/measure-population","code":"denominator","display":"Denominator"}]},"count":0},{"id":"Numerator_1","code":{"coding":[{"system":"http://terminology.hl7.org/CodeSystem/measure-population","code":"numerator","display":"Numerator"}]},"count":0},{"id":"DenominatorException_1","code":{"coding":[{"system":"http://terminology.hl7.org/CodeSystem/measure-population","code":"denominator-exception","display":"Denominator Exception"}]},"count":0}],"measureScore":{"value":1.0}},{"id":"Group_2","population":[{"id":"InitialPopulation_2","code":{"coding":[{"system":"http://terminology.hl7.org/CodeSystem/measure-population","code":"initial-population","display":"Initial Population"}]},"count":1},{"id":"Denominator_2","code":{"coding":[{"system":"http://terminology.hl7.org/CodeSystem/measure-population","code":"denominator","display":"Denominator"}]},"count":1},{"id":"Numerator_2","code":{"coding":[{"system":"http://terminology.hl7.org/CodeSystem/measure-population","code":"numerator","display":"Numerator"}]},"count":0},{"id":"DenominatorException_2","code":{"coding":[{"system":"http://terminology.hl7.org/CodeSystem/measure-population","code":"denominator-exception","display":"Denominator Exception"}]},"count":0}],"measureScore":{"value":1.0}}],"evaluatedResource":[{"reference":"Patient/1f70822b-c513-4c3a-8162-49f0bb9c914b"},{"reference":"Encounter/4e9b17a4-4828-4548-af8c-9b4f12297498"},{"reference":"Encounter/e090815c-2307-4d98-b9b3-6844531b1c3a"},{"reference":"Condition/5bd46126-60ac-4fca-9240-c692bcb5a181"},{"reference":"Condition/31319e7f-8380-422f-a8c4-83c6b87ea0ef"},{"reference":"MedicationRequest/04bce691-8945-44cc-a473-ad354b20bb07"},{"reference":"Practitioner/8c62e354-838b-4181-86f3-7acb5c4b1f48"}]},"request":{"method":"PUT","url":"MeasureReport/44ce8049-4a15-4087-8115-8e12edf1a487"}},{"resource":{"resourceType":"Patient","id":"1f70822b-c513-4c3a-8162-49f0bb9c914b","meta":{"profile":["http://hl7.org/fhir/us/qicore/StructureDefinition/qicore-patient"]},"extension":[{"url":"http://hl7.org/fhir/us/core/StructureDefinition/us-core-race","extension":[{"url":"ombCategory","valueCoding":{"system":"urn:oid:2.16.840.1.113883.6.238","code":"1002-5","display":"American Indian or Alaska Native"}},{"url":"text","valueString":"American Indian or Alaska Native"}]},{"url":"http://hl7.org/fhir/us/core/StructureDefinition/us-core-ethnicity","extension":[{"url":"ombCategory","valueCoding":{"system":"urn:oid:2.16.840.1.113883.6.238","code":"2186-5","display":"Not Hispanic or Latino"}},{"url":"text","valueString":"Not Hispanic or Latino"}]}],"identifier":[{"type":{"coding":[{"system":"http://terminology.hl7.org/CodeSystem/v2-0203","code":"MR"}]},"system":"https://bonnie-fhir.healthit.gov/","value":"3241646431234134355"}],"active":true,"name":[{"use":"usual","family":"DENEXCEPPop2Pass","given":["Carvedilol25MGOralTabletPatRsn"]}],"gender":"male","birthDate":"1954-03-24"},"request":{"method":"PUT","url":"Patient/1f70822b-c513-4c3a-8162-49f0bb9c914b"}},{"resource":{"resourceType":"Practitioner","id":"8c62e354-838b-4181-86f3-7acb5c4b1f48","meta":{"profile":["http://hl7.org/fhir/us/qicore/StructureDefinition/qicore-practitioner"]},"identifier":[{"use":"temp","system":"urn:oid:2.16.840.1.113883.4.336","value":"Practitioner-45"}],"active":true,"name":[{"family":"Strangelove","given":["Adam"],"prefix":["Dr"]}],"qualification":[{"identifier":[{"system":"http://example.org/UniversityIdentifier","value":"12345"}],"code":{"coding":[{"system":"http://terminology.hl7.org/CodeSystem/v2-0360|2.7","code":"BS","display":"Bachelor of Science"}],"text":"Bachelor of Science"},"period":{"start":"1996"},"issuer":{"display":"Example University"}}]},"request":{"method":"PUT","url":"Practitioner/8c62e354-838b-4181-86f3-7acb5c4b1f48"}},{"resource":{"resourceType":"MedicationRequest","id":"04bce691-8945-44cc-a473-ad354b20bb07","meta":{"profile":["http://hl7.org/fhir/us/qicore/StructureDefinition/qicore-mednotrequested"]},"status":"completed","intent":"order","doNotPerform":true,"medicationCodeableConcept":{"coding":[{"system":"http://www.nlm.nih.gov/research/umls/rxnorm","version":"04012024","code":"200033","display":"carvedilol 25 MG Oral Tablet"}]},"subject":{"reference":"Patient/1f70822b-c513-4c3a-8162-49f0bb9c914b"},"authoredOn":"2026-04-05T06:00:00.000+00:00","requester":{"reference":"Practitioner/8c62e354-838b-4181-86f3-7acb5c4b1f48"},"reasonCode":[{"coding":[{"system":"http://snomed.info/sct","version":"http://snomed.info/sct/731000124108/version/20230301","code":"406149000","display":"Medication declined (situation)"}]}]},"request":{"method":"PUT","url":"MedicationRequest/04bce691-8945-44cc-a473-ad354b20bb07"}},{"resource":{"resourceType":"Condition","id":"31319e7f-8380-422f-a8c4-83c6b87ea0ef","meta":{"profile":["http://hl7.org/fhir/us/qicore/StructureDefinition/qicore-condition-problems-health-concerns"]},"clinicalStatus":{"coding":[{"system":"http://terminology.hl7.org/CodeSystem/condition-clinical","code":"active","display":"Active"}]},"verificationStatus":{"coding":[{"system":"http://terminology.hl7.org/CodeSystem/condition-ver-status","code":"confirmed"}]},"category":[{"coding":[{"system":"http://terminology.hl7.org/CodeSystem/condition-category","code":"problem-list-item","display":"Problem List Item"}]}],"code":{"coding":[{"system":"http://snomed.info/sct","version":"http://snomed.info/sct/731000124108/version/20240301","code":"10365005","display":"Right main coronary artery thrombosis (disorder)"}]},"subject":{"reference":"Patient/1f70822b-c513-4c3a-8162-49f0bb9c914b"},"onsetPeriod":{"start":"2026-01-21T07:00:00.000+00:00"}},"request":{"method":"PUT","url":"Condition/31319e7f-8380-422f-a8c4-83c6b87ea0ef"}},{"resource":{"resourceType":"Encounter","id":"4e9b17a4-4828-4548-af8c-9b4f12297498","meta":{"profile":["http://hl7.org/fhir/us/qicore/StructureDefinition/qicore-encounter"]},"status":"finished","class":{"system":"http://terminology.hl7.org/CodeSystem/v3-ActCode","code":"AMB","display":"ambulatory encounter"},"type":[{"coding":[{"system":"http://www.ama-assn.org/go/cpt","version":"2024","code":"99205"}]}],"subject":{"reference":"Patient/1f70822b-c513-4c3a-8162-49f0bb9c914b"},"period":{"start":"2026-04-05T06:00:00.000+00:00","end":"2026-04-05T07:00:00.000+00:00"}},"request":{"method":"PUT","url":"Encounter/4e9b17a4-4828-4548-af8c-9b4f12297498"}},{"resource":{"resourceType":"Condition","id":"5bd46126-60ac-4fca-9240-c692bcb5a181","meta":{"profile":["http://hl7.org/fhir/us/qicore/StructureDefinition/qicore-condition-problems-health-concerns"]},"clinicalStatus":{"coding":[{"system":"http://terminology.hl7.org/CodeSystem/condition-clinical","code":"active","display":"Active"}]},"verificationStatus":{"coding":[{"system":"http://terminology.hl7.org/CodeSystem/condition-ver-status","code":"confirmed","display":"Confirmed"}]},"category":[{"coding":[{"system":"http://terminology.hl7.org/CodeSystem/condition-category","code":"problem-list-item","display":"Problem List Item"}]}],"code":{"coding":[{"system":"http://hl7.org/fhir/sid/icd-10-cm","version":"2024","code":"I21.01"}]},"subject":{"reference":"Patient/1f70822b-c513-4c3a-8162-49f0bb9c914b"},"onsetPeriod":{"start":"2023-11-22T07:30:00.000+00:00","end":"2023-11-22T08:30:00.000+00:00"}},"request":{"method":"PUT","url":"Condition/5bd46126-60ac-4fca-9240-c692bcb5a181"}},{"resource":{"resourceType":"Bundle","id":"346534313.13253135","type":"transaction","entry":[{"fullUrl":"https://madie.cms.gov/Patient/1f70822b-c513-4c3a-8162-49f0bb9c914b","resource":{"resourceType":"Patient","id":"1f70822b-c513-4c3a-8162-49f0bb9c914b","meta":{"profile":["http://hl7.org/fhir/us/qicore/StructureDefinition/qicore-patient"]},"extension":[{"url":"http://hl7.org/fhir/us/core/StructureDefinition/us-core-race","extension":[{"url":"ombCategory","valueCoding":{"system":"urn:oid:2.16.840.1.113883.6.238","code":"1002-5","display":"American Indian or Alaska Native"}},{"url":"text","valueString":"American Indian or Alaska Native"}]},{"url":"http://hl7.org/fhir/us/core/StructureDefinition/us-core-ethnicity","extension":[{"url":"ombCategory","valueCoding":{"system":"urn:oid:2.16.840.1.113883.6.238","code":"2186-5","display":"Not Hispanic or Latino"}},{"url":"text","valueString":"Not Hispanic or Latino"}]}],"identifier":[{"type":{"coding":[{"system":"http://terminology.hl7.org/CodeSystem/v2-0203","code":"MR"}]},"system":"https://bonnie-fhir.healthit.gov/","value":"3241646431234134355"}],"active":true,"name":[{"use":"usual","family":"DENEXCEPPop2Pass","given":["Carvedilol25MGOralTabletPatRsn"]}],"gender":"male","birthDate":"1954-03-24"},"request":{"method":"PUT","url":"Patient/1f70822b-c513-4c3a-8162-49f0bb9c914b"}},{"fullUrl":"https://madie.cms.gov/Encounter/4e9b17a4-4828-4548-af8c-9b4f12297498","resource":{"resourceType":"Encounter","id":"4e9b17a4-4828-4548-af8c-9b4f12297498","meta":{"profile":["http://hl7.org/fhir/us/qicore/StructureDefinition/qicore-encounter"]},"status":"finished","class":{"system":"http://terminology.hl7.org/CodeSystem/v3-ActCode","code":"AMB","display":"ambulatory encounter"},"type":[{"coding":[{"system":"http://www.ama-assn.org/go/cpt","version":"2024","code":"99205"}]}],"subject":{"reference":"Patient/1f70822b-c513-4c3a-8162-49f0bb9c914b"},"period":{"start":"2026-04-05T06:00:00.000+00:00","end":"2026-04-05T07:00:00.000+00:00"}},"request":{"method":"PUT","url":"Encounter/4e9b17a4-4828-4548-af8c-9b4f12297498"}},{"fullUrl":"https://madie.cms.gov/Encounter/e090815c-2307-4d98-b9b3-6844531b1c3a","resource":{"resourceType":"Encounter","id":"e090815c-2307-4d98-b9b3-6844531b1c3a","meta":{"profile":["http://hl7.org/fhir/us/qicore/StructureDefinition/qicore-encounter"]},"status":"finished","class":{"system":"http://terminology.hl7.org/CodeSystem/v3-ActCode","code":"AMB","display":"ambulatory encounter"},"type":[{"coding":[{"system":"http://www.ama-assn.org/go/cpt","version":"2024","code":"99205"}]}],"subject":{"reference":"Patient/1f70822b-c513-4c3a-8162-49f0bb9c914b"},"period":{"start":"2026-07-08T09:00:00.000+00:00","end":"2026-07-08T09:00:00.000+00:00"}},"request":{"method":"PUT","url":"Encounter/e090815c-2307-4d98-b9b3-6844531b1c3a"}},{"fullUrl":"https://madie.cms.gov/Condition/5bd46126-60ac-4fca-9240-c692bcb5a181","resource":{"resourceType":"Condition","id":"5bd46126-60ac-4fca-9240-c692bcb5a181","meta":{"profile":["http://hl7.org/fhir/us/qicore/StructureDefinition/qicore-condition-problems-health-concerns"]},"clinicalStatus":{"coding":[{"system":"http://terminology.hl7.org/CodeSystem/condition-clinical","code":"active","display":"Active"}]},"verificationStatus":{"coding":[{"system":"http://terminology.hl7.org/CodeSystem/condition-ver-status","code":"confirmed","display":"Confirmed"}]},"category":[{"coding":[{"system":"http://terminology.hl7.org/CodeSystem/condition-category","code":"problem-list-item","display":"Problem List Item"}]}],"code":{"coding":[{"system":"http://hl7.org/fhir/sid/icd-10-cm","version":"2024","code":"I21.01"}]},"subject":{"reference":"Patient/1f70822b-c513-4c3a-8162-49f0bb9c914b"},"onsetPeriod":{"start":"2023-11-22T07:30:00.000+00:00","end":"2023-11-22T08:30:00.000+00:00"}},"request":{"method":"PUT","url":"Condition/5bd46126-60ac-4fca-9240-c692bcb5a181"}},{"fullUrl":"https://madie.cms.gov/Condition/31319e7f-8380-422f-a8c4-83c6b87ea0ef","resource":{"resourceType":"Condition","id":"31319e7f-8380-422f-a8c4-83c6b87ea0ef","meta":{"profile":["http://hl7.org/fhir/us/qicore/StructureDefinition/qicore-condition-problems-health-concerns"]},"clinicalStatus":{"coding":[{"system":"http://terminology.hl7.org/CodeSystem/condition-clinical","code":"active","display":"Active"}]},"verificationStatus":{"coding":[{"system":"http://terminology.hl7.org/CodeSystem/condition-ver-status","code":"confirmed"}]},"category":[{"coding":[{"system":"http://terminology.hl7.org/CodeSystem/condition-category","code":"problem-list-item","display":"Problem List Item"}]}],"code":{"coding":[{"system":"http://snomed.info/sct","version":"http://snomed.info/sct/731000124108/version/20240301","code":"10365005","display":"Right main coronary artery thrombosis (disorder)"}]},"subject":{"reference":"Patient/1f70822b-c513-4c3a-8162-49f0bb9c914b"},"onsetPeriod":{"start":"2026-01-21T07:00:00.000+00:00"}},"request":{"method":"PUT","url":"Condition/31319e7f-8380-422f-a8c4-83c6b87ea0ef"}},{"fullUrl":"https://madie.cms.gov/MedicationRequest/04bce691-8945-44cc-a473-ad354b20bb07","resource":{"resourceType":"MedicationRequest","id":"04bce691-8945-44cc-a473-ad354b20bb07","meta":{"profile":["http://hl7.org/fhir/us/qicore/StructureDefinition/qicore-mednotrequested"]},"status":"completed","intent":"order","doNotPerform":true,"medicationCodeableConcept":{"coding":[{"system":"http://www.nlm.nih.gov/research/umls/rxnorm","version":"04012024","code":"200033","display":"carvedilol 25 MG Oral Tablet"}]},"subject":{"reference":"Patient/1f70822b-c513-4c3a-8162-49f0bb9c914b"},"authoredOn":"2026-04-05T06:00:00.000+00:00","requester":{"reference":"Practitioner/8c62e354-838b-4181-86f3-7acb5c4b1f48"},"reasonCode":[{"coding":[{"system":"http://snomed.info/sct","version":"http://snomed.info/sct/731000124108/version/20230301","code":"406149000","display":"Medication declined (situation)"}]}]},"request":{"method":"PUT","url":"MedicationRequest/04bce691-8945-44cc-a473-ad354b20bb07"}},{"fullUrl":"https://madie.cms.gov/Practitioner/8c62e354-838b-4181-86f3-7acb5c4b1f48","resource":{"resourceType":"Practitioner","id":"8c62e354-838b-4181-86f3-7acb5c4b1f48","meta":{"profile":["http://hl7.org/fhir/us/qicore/StructureDefinition/qicore-practitioner"]},"identifier":[{"use":"temp","system":"urn:oid:2.16.840.1.113883.4.336","value":"Practitioner-45"}],"active":true,"name":[{"family":"Strangelove","given":["Adam"],"prefix":["Dr"]}],"qualification":[{"identifier":[{"system":"http://example.org/UniversityIdentifier","value":"12345"}],"code":{"coding":[{"system":"http://terminology.hl7.org/CodeSystem/v2-0360|2.7","code":"BS","display":"Bachelor of Science"}],"text":"Bachelor of Science"},"period":{"start":"1996"},"issuer":{"display":"Example University"}}]},"request":{"method":"PUT","url":"Practitioner/8c62e354-838b-4181-86f3-7acb5c4b1f48"}},{"fullUrl":"https://madie.cms.gov/MeasureReport/44ce8049-4a15-4087-8115-8e12edf1a487","resource":{"resourceType":"MeasureReport","id":"44ce8049-4a15-4087-8115-8e12edf1a487","meta":{"profile":["http://hl7.org/fhir/us/cqfmeasures/StructureDefinition/test-case-cqfm"]},"contained":[{"resourceType":"Parameters","id":"64426dc6-e896-456f-91e3-51986c279ee3-parameters","parameter":[{"name":"subject","valueString":"1f70822b-c513-4c3a-8162-49f0bb9c914b"}]}],"extension":[{"url":"http://hl7.org/fhir/StructureDefinition/cqf-inputParameters","valueReference":{"reference":"#64426dc6-e896-456f-91e3-51986c279ee3-parameters"}},{"url":"http://hl7.org/fhir/us/cqfmeasures/StructureDefinition/cqfm-testCaseDescription","valueMarkdown":"Pt > 18, 2 visits in MP, MI onset > 2 years b4 MP, CAD onset during MP b4 1st visit, and med not ordered during 1st visit - patient reason *CQL-Execution Issue 296*"}],"modifierExtension":[{"url":"http://hl7.org/fhir/us/cqfmeasures/StructureDefinition/cqfm-isTestCase","valueBoolean":true}],"status":"complete","type":"individual","measure":"https://madie.cms.gov/Measure/CMS145FHIRCADBetaBlockerTherapyPriorMIorLVSD","period":{"start":"2026-01-01","end":"2026-12-31"},"group":[{"id":"Group_1","population":[{"id":"InitialPopulation_1","code":{"coding":[{"system":"http://terminology.hl7.org/CodeSystem/measure-population","code":"initial-population","display":"Initial Population"}]},"count":1},{"id":"Denominator_1","code":{"coding":[{"system":"http://terminology.hl7.org/CodeSystem/measure-population","code":"denominator","display":"Denominator"}]},"count":0},{"id":"Numerator_1","code":{"coding":[{"system":"http://terminology.hl7.org/CodeSystem/measure-population","code":"numerator","display":"Numerator"}]},"count":0},{"id":"DenominatorException_1","code":{"coding":[{"system":"http://terminology.hl7.org/CodeSystem/measure-population","code":"denominator-exception","display":"Denominator Exception"}]},"count":0}],"measureScore":{"value":1.0}},{"id":"Group_2","population":[{"id":"InitialPopulation_2","code":{"coding":[{"system":"http://terminology.hl7.org/CodeSystem/measure-population","code":"initial-population","display":"Initial Population"}]},"count":1},{"id":"Denominator_2","code":{"coding":[{"system":"http://terminology.hl7.org/CodeSystem/measure-population","code":"denominator","display":"Denominator"}]},"count":1},{"id":"Numerator_2","code":{"coding":[{"system":"http://terminology.hl7.org/CodeSystem/measure-population","code":"numerator","display":"Numerator"}]},"count":0},{"id":"DenominatorException_2","code":{"coding":[{"system":"http://terminology.hl7.org/CodeSystem/measure-population","code":"denominator-exception","display":"Denominator Exception"}]},"count":0}],"measureScore":{"value":1.0}}],"evaluatedResource":[{"reference":"Patient/1f70822b-c513-4c3a-8162-49f0bb9c914b"},{"reference":"Encounter/4e9b17a4-4828-4548-af8c-9b4f12297498"},{"reference":"Encounter/e090815c-2307-4d98-b9b3-6844531b1c3a"},{"reference":"Condition/5bd46126-60ac-4fca-9240-c692bcb5a181"},{"reference":"Condition/31319e7f-8380-422f-a8c4-83c6b87ea0ef"},{"reference":"MedicationRequest/04bce691-8945-44cc-a473-ad354b20bb07"},{"reference":"Practitioner/8c62e354-838b-4181-86f3-7acb5c4b1f48"}]},"request":{"method":"PUT","url":"MeasureReport/44ce8049-4a15-4087-8115-8e12edf1a487"}}]},"request":{"method":"PUT","url":"Bundle/346534313.13253135"}}]}