{"resourceType":"Bundle","id":"tests-dad1f2c7-c45e-4287-9abf-e7e6ff90f2ff-bundle","type":"transaction","entry":[{"resource":{"resourceType":"Patient","id":"dad1f2c7-c45e-4287-9abf-e7e6ff90f2ff","meta":{"profile":["http://hl7.org/fhir/us/qicore/StructureDefinition/qicore-patient"]},"extension":[{"url":"http://hl7.org/fhir/us/core/StructureDefinition/us-core-race","extension":[{"url":"ombCategory","valueCoding":{"system":"urn:oid:2.16.840.1.113883.6.238","code":"1002-5","display":"American Indian or Alaska Native"}},{"url":"text","valueString":"American Indian or Alaska Native"}]},{"url":"http://hl7.org/fhir/us/core/StructureDefinition/us-core-ethnicity","extension":[{"url":"ombCategory","valueCoding":{"system":"urn:oid:2.16.840.1.113883.6.238","code":"2186-5","display":"Not Hispanic or Latino"}},{"url":"text","valueString":"Not Hispanic or Latino"}]}],"identifier":[{"type":{"coding":[{"system":"http://terminology.hl7.org/CodeSystem/v2-0203","code":"MR"}]},"system":"https://bonnie-fhir.healthit.gov/","value":"364531234234633413"}],"active":true,"name":[{"use":"usual","family":"NUMERPop1Pass","given":["BetaBlockerRxDuringEnc"]}],"gender":"male","birthDate":"1968-12-14"},"request":{"method":"PUT","url":"Patient/dad1f2c7-c45e-4287-9abf-e7e6ff90f2ff"}},{"resource":{"resourceType":"Condition","id":"9ffbfe5d-6c85-4a9c-bb55-b52e77e60fbe","meta":{"profile":["http://hl7.org/fhir/us/qicore/StructureDefinition/qicore-condition-problems-health-concerns"]},"clinicalStatus":{"coding":[{"system":"http://terminology.hl7.org/CodeSystem/condition-clinical","code":"active","display":"Active"}]},"category":[{"coding":[{"system":"http://terminology.hl7.org/CodeSystem/condition-category","code":"problem-list-item","display":"Problem List Item"}]}],"code":{"coding":[{"system":"http://snomed.info/sct","version":"http://snomed.info/sct/731000124108/version/20240301","code":"441509002","display":"Cardiac pacemaker in situ"}]},"subject":{"reference":"Patient/dad1f2c7-c45e-4287-9abf-e7e6ff90f2ff"},"onsetPeriod":{"start":"2026-10-16T00:00:00.000+00:00"}},"request":{"method":"PUT","url":"Condition/9ffbfe5d-6c85-4a9c-bb55-b52e77e60fbe"}},{"resource":{"resourceType":"Encounter","id":"f675ec8c-4f31-4690-9e5a-f9657eaedff1","meta":{"profile":["http://hl7.org/fhir/us/qicore/StructureDefinition/qicore-encounter"]},"status":"finished","class":{"system":"http://terminology.hl7.org/CodeSystem/v3-ActCode","code":"AMB","display":"ambulatory"},"type":[{"coding":[{"system":"http://www.ama-assn.org/go/cpt","version":"2024","code":"99202","display":"Office or other outpatient visit for the evaluation and management of a new patient, which requires a medically appropriate history and/or examination and straightforward medical decision making. When using time for code selection, 15-29 minutes of total time is spent on the date of the encounter."}]}],"subject":{"reference":"Patient/dad1f2c7-c45e-4287-9abf-e7e6ff90f2ff"},"period":{"start":"2026-02-01T12:00:00.000+00:00","end":"2026-02-01T13:00:00.000+00:00"},"length":{"value":0,"unit":"days"}},"request":{"method":"PUT","url":"Encounter/f675ec8c-4f31-4690-9e5a-f9657eaedff1"}},{"resource":{"resourceType":"Practitioner","id":"f3dd0dcd-0037-4c9b-b158-f5500707f476","meta":{"profile":["http://hl7.org/fhir/us/qicore/StructureDefinition/qicore-practitioner"]},"identifier":[{"use":"temp","system":"urn:oid:2.16.840.1.113883.4.336","value":"Practitioner-23"}],"active":true,"name":[{"family":"Careful","given":["Adam"],"prefix":["Dr"]}],"address":[{"use":"home","line":["534 Erewhon St"],"city":"PleasantVille","state":"UT","postalCode":"84414"}],"qualification":[{"identifier":[{"system":"http://example.org/UniversityIdentifier","value":"12345"}],"code":{"coding":[{"system":"http://terminology.hl7.org/CodeSystem/v2-0360|2.7","code":"BS","display":"Bachelor of Science"}],"text":"Bachelor of Science"},"period":{"start":"1996"},"issuer":{"display":"Example University"}}]},"request":{"method":"PUT","url":"Practitioner/f3dd0dcd-0037-4c9b-b158-f5500707f476"}},{"resource":{"resourceType":"MedicationRequest","id":"ba78f722-c982-4919-a7cb-e134c9f770e5","meta":{"profile":["http://hl7.org/fhir/us/qicore/StructureDefinition/qicore-medicationrequest"]},"status":"active","intent":"order","medicationCodeableConcept":{"coding":[{"system":"http://www.nlm.nih.gov/research/umls/rxnorm","version":"04012024","code":"686924"}]},"subject":{"reference":"Patient/dad1f2c7-c45e-4287-9abf-e7e6ff90f2ff"},"authoredOn":"2026-10-16T12:30:00.000+00:00","requester":{"reference":"Practitioner/f3dd0dcd-0037-4c9b-b158-f5500707f476"},"dosageInstruction":[{"timing":{"repeat":{"boundsPeriod":{"start":"2026-10-16T12:30:00.000+00:00"}}}}]},"request":{"method":"PUT","url":"MedicationRequest/ba78f722-c982-4919-a7cb-e134c9f770e5"}},{"resource":{"resourceType":"Encounter","id":"48c28fd3-7008-4a00-a8f5-793e60cffcd1","meta":{"profile":["http://hl7.org/fhir/us/qicore/StructureDefinition/qicore-encounter"]},"status":"finished","class":{"system":"http://terminology.hl7.org/CodeSystem/v3-ActCode","code":"AMB","display":"ambulatory"},"type":[{"coding":[{"system":"http://www.ama-assn.org/go/cpt","version":"2024","code":"99212","display":"Office or other outpatient visit for the evaluation and management of an established patient, which requires a medically appropriate history and/or examination and straightforward medical decision making. When using time for code selection, 10-19 minutes of total time is spent on the date of the encounter."}]}],"subject":{"reference":"Patient/dad1f2c7-c45e-4287-9abf-e7e6ff90f2ff"},"period":{"start":"2026-10-16T12:15:00.000+00:00","end":"2026-10-16T13:16:00.000+00:00"},"length":{"value":0,"unit":"days"}},"request":{"method":"PUT","url":"Encounter/48c28fd3-7008-4a00-a8f5-793e60cffcd1"}},{"resource":{"resourceType":"MeasureReport","id":"e06c1d3b-8576-45ee-9b7a-a1a849bf6e9c","meta":{"profile":["http://hl7.org/fhir/us/cqfmeasures/StructureDefinition/test-case-cqfm"]},"contained":[{"resourceType":"Parameters","id":"e14e3f82-7474-421d-9e1e-41c59b405e3d-parameters","parameter":[{"name":"subject","valueString":"dad1f2c7-c45e-4287-9abf-e7e6ff90f2ff"}]}],"extension":[{"url":"http://hl7.org/fhir/StructureDefinition/cqf-inputParameters","valueReference":{"reference":"#e14e3f82-7474-421d-9e1e-41c59b405e3d-parameters"}},{"url":"http://hl7.org/fhir/us/cqfmeasures/StructureDefinition/cqfm-testCaseDescription","valueMarkdown":"Pt > 18, 2 visits in MP, Severe LVSD during MP b4 1st visit, CAD and Cardiac Pacemaker in Situ (both with onset on day of 2nd visit b4 visit), and Beta Blocker Rx written during encounter"}],"modifierExtension":[{"url":"http://hl7.org/fhir/us/cqfmeasures/StructureDefinition/cqfm-isTestCase","valueBoolean":true}],"status":"complete","type":"individual","measure":"https://madie.cms.gov/Measure/CMS145FHIRCADBetaBlockerTherapyPriorMIorLVSD","period":{"start":"2026-01-01","end":"2026-12-31"},"group":[{"id":"Group_1","population":[{"id":"InitialPopulation_1","code":{"coding":[{"system":"http://terminology.hl7.org/CodeSystem/measure-population","code":"initial-population","display":"Initial Population"}]},"count":1},{"id":"Denominator_1","code":{"coding":[{"system":"http://terminology.hl7.org/CodeSystem/measure-population","code":"denominator","display":"Denominator"}]},"count":1},{"id":"Numerator_1","code":{"coding":[{"system":"http://terminology.hl7.org/CodeSystem/measure-population","code":"numerator","display":"Numerator"}]},"count":1},{"id":"DenominatorException_1","code":{"coding":[{"system":"http://terminology.hl7.org/CodeSystem/measure-population","code":"denominator-exception","display":"Denominator Exception"}]},"count":0}],"measureScore":{"value":1.0}},{"id":"Group_2","population":[{"id":"InitialPopulation_2","code":{"coding":[{"system":"http://terminology.hl7.org/CodeSystem/measure-population","code":"initial-population","display":"Initial Population"}]},"count":1},{"id":"Denominator_2","code":{"coding":[{"system":"http://terminology.hl7.org/CodeSystem/measure-population","code":"denominator","display":"Denominator"}]},"count":0},{"id":"Numerator_2","code":{"coding":[{"system":"http://terminology.hl7.org/CodeSystem/measure-population","code":"numerator","display":"Numerator"}]},"count":0},{"id":"DenominatorException_2","code":{"coding":[{"system":"http://terminology.hl7.org/CodeSystem/measure-population","code":"denominator-exception","display":"Denominator Exception"}]},"count":0}],"measureScore":{"value":1.0}}],"evaluatedResource":[{"reference":"Patient/dad1f2c7-c45e-4287-9abf-e7e6ff90f2ff"},{"reference":"Encounter/f675ec8c-4f31-4690-9e5a-f9657eaedff1"},{"reference":"Encounter/48c28fd3-7008-4a00-a8f5-793e60cffcd1"},{"reference":"Condition/22311412-3578-4468-b397-2942125694e9"},{"reference":"Condition/f38b9c16-7c04-4060-8b60-1d49f402bd35"},{"reference":"Condition/9ffbfe5d-6c85-4a9c-bb55-b52e77e60fbe"},{"reference":"MedicationRequest/ba78f722-c982-4919-a7cb-e134c9f770e5"},{"reference":"Practitioner/f3dd0dcd-0037-4c9b-b158-f5500707f476"}]},"request":{"method":"PUT","url":"MeasureReport/e06c1d3b-8576-45ee-9b7a-a1a849bf6e9c"}},{"resource":{"resourceType":"Condition","id":"22311412-3578-4468-b397-2942125694e9","meta":{"profile":["http://hl7.org/fhir/us/qicore/StructureDefinition/qicore-condition-problems-health-concerns"]},"clinicalStatus":{"coding":[{"system":"http://terminology.hl7.org/CodeSystem/condition-clinical","code":"active","display":"Active"}]},"verificationStatus":{"coding":[{"system":"http://terminology.hl7.org/CodeSystem/condition-ver-status","code":"confirmed","display":"Confirmed"}]},"category":[{"coding":[{"system":"http://terminology.hl7.org/CodeSystem/condition-category","code":"problem-list-item","display":"Problem List Item"}]}],"severity":{"coding":[{"system":"http://snomed.info/sct","version":"http://snomed.info/sct/731000124108/version/20240301","code":"24484000","display":"Severe (severity modifier) (qualifier value)"}]},"code":{"coding":[{"system":"http://snomed.info/sct","version":"http://snomed.info/sct/731000124108/version/20240301","code":"134401001"}]},"subject":{"reference":"Patient/dad1f2c7-c45e-4287-9abf-e7e6ff90f2ff"},"onsetPeriod":{"start":"2026-01-31T12:00:00.000+00:00"}},"request":{"method":"PUT","url":"Condition/22311412-3578-4468-b397-2942125694e9"}},{"resource":{"resourceType":"Bundle","id":"5215423123241341634120","type":"transaction","entry":[{"fullUrl":"https://madie.cms.gov/Patient/dad1f2c7-c45e-4287-9abf-e7e6ff90f2ff","resource":{"resourceType":"Patient","id":"dad1f2c7-c45e-4287-9abf-e7e6ff90f2ff","meta":{"profile":["http://hl7.org/fhir/us/qicore/StructureDefinition/qicore-patient"]},"extension":[{"url":"http://hl7.org/fhir/us/core/StructureDefinition/us-core-race","extension":[{"url":"ombCategory","valueCoding":{"system":"urn:oid:2.16.840.1.113883.6.238","code":"1002-5","display":"American Indian or Alaska Native"}},{"url":"text","valueString":"American Indian or Alaska Native"}]},{"url":"http://hl7.org/fhir/us/core/StructureDefinition/us-core-ethnicity","extension":[{"url":"ombCategory","valueCoding":{"system":"urn:oid:2.16.840.1.113883.6.238","code":"2186-5","display":"Not Hispanic or Latino"}},{"url":"text","valueString":"Not Hispanic or Latino"}]}],"identifier":[{"type":{"coding":[{"system":"http://terminology.hl7.org/CodeSystem/v2-0203","code":"MR"}]},"system":"https://bonnie-fhir.healthit.gov/","value":"364531234234633413"}],"active":true,"name":[{"use":"usual","family":"NUMERPop1Pass","given":["BetaBlockerRxDuringEnc"]}],"gender":"male","birthDate":"1968-12-14"},"request":{"method":"PUT","url":"Patient/dad1f2c7-c45e-4287-9abf-e7e6ff90f2ff"}},{"fullUrl":"https://madie.cms.gov/Encounter/f675ec8c-4f31-4690-9e5a-f9657eaedff1","resource":{"resourceType":"Encounter","id":"f675ec8c-4f31-4690-9e5a-f9657eaedff1","meta":{"profile":["http://hl7.org/fhir/us/qicore/StructureDefinition/qicore-encounter"]},"status":"finished","class":{"system":"http://terminology.hl7.org/CodeSystem/v3-ActCode","code":"AMB","display":"ambulatory"},"type":[{"coding":[{"system":"http://www.ama-assn.org/go/cpt","version":"2024","code":"99202","display":"Office or other outpatient visit for the evaluation and management of a new patient, which requires a medically appropriate history and/or examination and straightforward medical decision making. When using time for code selection, 15-29 minutes of total time is spent on the date of the encounter."}]}],"subject":{"reference":"Patient/dad1f2c7-c45e-4287-9abf-e7e6ff90f2ff"},"period":{"start":"2026-02-01T12:00:00.000+00:00","end":"2026-02-01T13:00:00.000+00:00"},"length":{"value":0,"unit":"days"}},"request":{"method":"PUT","url":"Encounter/f675ec8c-4f31-4690-9e5a-f9657eaedff1"}},{"fullUrl":"https://madie.cms.gov/Encounter/48c28fd3-7008-4a00-a8f5-793e60cffcd1","resource":{"resourceType":"Encounter","id":"48c28fd3-7008-4a00-a8f5-793e60cffcd1","meta":{"profile":["http://hl7.org/fhir/us/qicore/StructureDefinition/qicore-encounter"]},"status":"finished","class":{"system":"http://terminology.hl7.org/CodeSystem/v3-ActCode","code":"AMB","display":"ambulatory"},"type":[{"coding":[{"system":"http://www.ama-assn.org/go/cpt","version":"2024","code":"99212","display":"Office or other outpatient visit for the evaluation and management of an established patient, which requires a medically appropriate history and/or examination and straightforward medical decision making. When using time for code selection, 10-19 minutes of total time is spent on the date of the encounter."}]}],"subject":{"reference":"Patient/dad1f2c7-c45e-4287-9abf-e7e6ff90f2ff"},"period":{"start":"2026-10-16T12:15:00.000+00:00","end":"2026-10-16T13:16:00.000+00:00"},"length":{"value":0,"unit":"days"}},"request":{"method":"PUT","url":"Encounter/48c28fd3-7008-4a00-a8f5-793e60cffcd1"}},{"fullUrl":"https://madie.cms.gov/Condition/22311412-3578-4468-b397-2942125694e9","resource":{"resourceType":"Condition","id":"22311412-3578-4468-b397-2942125694e9","meta":{"profile":["http://hl7.org/fhir/us/qicore/StructureDefinition/qicore-condition-problems-health-concerns"]},"clinicalStatus":{"coding":[{"system":"http://terminology.hl7.org/CodeSystem/condition-clinical","code":"active","display":"Active"}]},"verificationStatus":{"coding":[{"system":"http://terminology.hl7.org/CodeSystem/condition-ver-status","code":"confirmed","display":"Confirmed"}]},"category":[{"coding":[{"system":"http://terminology.hl7.org/CodeSystem/condition-category","code":"problem-list-item","display":"Problem List Item"}]}],"severity":{"coding":[{"system":"http://snomed.info/sct","version":"http://snomed.info/sct/731000124108/version/20240301","code":"24484000","display":"Severe (severity modifier) (qualifier value)"}]},"code":{"coding":[{"system":"http://snomed.info/sct","version":"http://snomed.info/sct/731000124108/version/20240301","code":"134401001"}]},"subject":{"reference":"Patient/dad1f2c7-c45e-4287-9abf-e7e6ff90f2ff"},"onsetPeriod":{"start":"2026-01-31T12:00:00.000+00:00"}},"request":{"method":"PUT","url":"Condition/22311412-3578-4468-b397-2942125694e9"}},{"fullUrl":"https://madie.cms.gov/Condition/f38b9c16-7c04-4060-8b60-1d49f402bd35","resource":{"resourceType":"Condition","id":"f38b9c16-7c04-4060-8b60-1d49f402bd35","meta":{"profile":["http://hl7.org/fhir/us/qicore/StructureDefinition/qicore-condition-problems-health-concerns"]},"clinicalStatus":{"coding":[{"system":"http://terminology.hl7.org/CodeSystem/condition-clinical","code":"active","display":"Active"}]},"verificationStatus":{"coding":[{"system":"http://terminology.hl7.org/CodeSystem/condition-ver-status","code":"confirmed","display":"Confirmed"}]},"category":[{"coding":[{"system":"http://terminology.hl7.org/CodeSystem/condition-category","code":"problem-list-item","display":"Problem List Item"}]}],"code":{"coding":[{"system":"http://snomed.info/sct","version":"http://snomed.info/sct/731000124108/version/20240301","code":"10365005","display":"Right main coronary artery thrombosis (disorder)"}]},"subject":{"reference":"Patient/dad1f2c7-c45e-4287-9abf-e7e6ff90f2ff"},"onsetPeriod":{"start":"2026-10-16T00:00:00.000+00:00"}},"request":{"method":"PUT","url":"Condition/f38b9c16-7c04-4060-8b60-1d49f402bd35"}},{"fullUrl":"https://madie.cms.gov/Condition/9ffbfe5d-6c85-4a9c-bb55-b52e77e60fbe","resource":{"resourceType":"Condition","id":"9ffbfe5d-6c85-4a9c-bb55-b52e77e60fbe","meta":{"profile":["http://hl7.org/fhir/us/qicore/StructureDefinition/qicore-condition-problems-health-concerns"]},"clinicalStatus":{"coding":[{"system":"http://terminology.hl7.org/CodeSystem/condition-clinical","code":"active","display":"Active"}]},"category":[{"coding":[{"system":"http://terminology.hl7.org/CodeSystem/condition-category","code":"problem-list-item","display":"Problem List Item"}]}],"code":{"coding":[{"system":"http://snomed.info/sct","version":"http://snomed.info/sct/731000124108/version/20240301","code":"441509002","display":"Cardiac pacemaker in situ"}]},"subject":{"reference":"Patient/dad1f2c7-c45e-4287-9abf-e7e6ff90f2ff"},"onsetPeriod":{"start":"2026-10-16T00:00:00.000+00:00"}},"request":{"method":"PUT","url":"Condition/9ffbfe5d-6c85-4a9c-bb55-b52e77e60fbe"}},{"fullUrl":"https://madie.cms.gov/MedicationRequest/ba78f722-c982-4919-a7cb-e134c9f770e5","resource":{"resourceType":"MedicationRequest","id":"ba78f722-c982-4919-a7cb-e134c9f770e5","meta":{"profile":["http://hl7.org/fhir/us/qicore/StructureDefinition/qicore-medicationrequest"]},"status":"active","intent":"order","medicationCodeableConcept":{"coding":[{"system":"http://www.nlm.nih.gov/research/umls/rxnorm","version":"04012024","code":"686924"}]},"subject":{"reference":"Patient/dad1f2c7-c45e-4287-9abf-e7e6ff90f2ff"},"authoredOn":"2026-10-16T12:30:00.000+00:00","requester":{"reference":"Practitioner/f3dd0dcd-0037-4c9b-b158-f5500707f476"},"dosageInstruction":[{"timing":{"repeat":{"boundsPeriod":{"start":"2026-10-16T12:30:00.000+00:00"}}}}]},"request":{"method":"PUT","url":"MedicationRequest/ba78f722-c982-4919-a7cb-e134c9f770e5"}},{"fullUrl":"https://madie.cms.gov/Practitioner/f3dd0dcd-0037-4c9b-b158-f5500707f476","resource":{"resourceType":"Practitioner","id":"f3dd0dcd-0037-4c9b-b158-f5500707f476","meta":{"profile":["http://hl7.org/fhir/us/qicore/StructureDefinition/qicore-practitioner"]},"identifier":[{"use":"temp","system":"urn:oid:2.16.840.1.113883.4.336","value":"Practitioner-23"}],"active":true,"name":[{"family":"Careful","given":["Adam"],"prefix":["Dr"]}],"address":[{"use":"home","line":["534 Erewhon St"],"city":"PleasantVille","state":"UT","postalCode":"84414"}],"qualification":[{"identifier":[{"system":"http://example.org/UniversityIdentifier","value":"12345"}],"code":{"coding":[{"system":"http://terminology.hl7.org/CodeSystem/v2-0360|2.7","code":"BS","display":"Bachelor of Science"}],"text":"Bachelor of Science"},"period":{"start":"1996"},"issuer":{"display":"Example University"}}]},"request":{"method":"PUT","url":"Practitioner/f3dd0dcd-0037-4c9b-b158-f5500707f476"}},{"fullUrl":"https://madie.cms.gov/MeasureReport/e06c1d3b-8576-45ee-9b7a-a1a849bf6e9c","resource":{"resourceType":"MeasureReport","id":"e06c1d3b-8576-45ee-9b7a-a1a849bf6e9c","meta":{"profile":["http://hl7.org/fhir/us/cqfmeasures/StructureDefinition/test-case-cqfm"]},"contained":[{"resourceType":"Parameters","id":"e14e3f82-7474-421d-9e1e-41c59b405e3d-parameters","parameter":[{"name":"subject","valueString":"dad1f2c7-c45e-4287-9abf-e7e6ff90f2ff"}]}],"extension":[{"url":"http://hl7.org/fhir/StructureDefinition/cqf-inputParameters","valueReference":{"reference":"#e14e3f82-7474-421d-9e1e-41c59b405e3d-parameters"}},{"url":"http://hl7.org/fhir/us/cqfmeasures/StructureDefinition/cqfm-testCaseDescription","valueMarkdown":"Pt > 18, 2 visits in MP, Severe LVSD during MP b4 1st visit, CAD and Cardiac Pacemaker in Situ (both with onset on day of 2nd visit b4 visit), and Beta Blocker Rx written during encounter"}],"modifierExtension":[{"url":"http://hl7.org/fhir/us/cqfmeasures/StructureDefinition/cqfm-isTestCase","valueBoolean":true}],"status":"complete","type":"individual","measure":"https://madie.cms.gov/Measure/CMS145FHIRCADBetaBlockerTherapyPriorMIorLVSD","period":{"start":"2026-01-01","end":"2026-12-31"},"group":[{"id":"Group_1","population":[{"id":"InitialPopulation_1","code":{"coding":[{"system":"http://terminology.hl7.org/CodeSystem/measure-population","code":"initial-population","display":"Initial Population"}]},"count":1},{"id":"Denominator_1","code":{"coding":[{"system":"http://terminology.hl7.org/CodeSystem/measure-population","code":"denominator","display":"Denominator"}]},"count":1},{"id":"Numerator_1","code":{"coding":[{"system":"http://terminology.hl7.org/CodeSystem/measure-population","code":"numerator","display":"Numerator"}]},"count":1},{"id":"DenominatorException_1","code":{"coding":[{"system":"http://terminology.hl7.org/CodeSystem/measure-population","code":"denominator-exception","display":"Denominator Exception"}]},"count":0}],"measureScore":{"value":1.0}},{"id":"Group_2","population":[{"id":"InitialPopulation_2","code":{"coding":[{"system":"http://terminology.hl7.org/CodeSystem/measure-population","code":"initial-population","display":"Initial Population"}]},"count":1},{"id":"Denominator_2","code":{"coding":[{"system":"http://terminology.hl7.org/CodeSystem/measure-population","code":"denominator","display":"Denominator"}]},"count":0},{"id":"Numerator_2","code":{"coding":[{"system":"http://terminology.hl7.org/CodeSystem/measure-population","code":"numerator","display":"Numerator"}]},"count":0},{"id":"DenominatorException_2","code":{"coding":[{"system":"http://terminology.hl7.org/CodeSystem/measure-population","code":"denominator-exception","display":"Denominator Exception"}]},"count":0}],"measureScore":{"value":1.0}}],"evaluatedResource":[{"reference":"Patient/dad1f2c7-c45e-4287-9abf-e7e6ff90f2ff"},{"reference":"Encounter/f675ec8c-4f31-4690-9e5a-f9657eaedff1"},{"reference":"Encounter/48c28fd3-7008-4a00-a8f5-793e60cffcd1"},{"reference":"Condition/22311412-3578-4468-b397-2942125694e9"},{"reference":"Condition/f38b9c16-7c04-4060-8b60-1d49f402bd35"},{"reference":"Condition/9ffbfe5d-6c85-4a9c-bb55-b52e77e60fbe"},{"reference":"MedicationRequest/ba78f722-c982-4919-a7cb-e134c9f770e5"},{"reference":"Practitioner/f3dd0dcd-0037-4c9b-b158-f5500707f476"}]},"request":{"method":"PUT","url":"MeasureReport/e06c1d3b-8576-45ee-9b7a-a1a849bf6e9c"}}]},"request":{"method":"PUT","url":"Bundle/5215423123241341634120"}},{"resource":{"resourceType":"Condition","id":"f38b9c16-7c04-4060-8b60-1d49f402bd35","meta":{"profile":["http://hl7.org/fhir/us/qicore/StructureDefinition/qicore-condition-problems-health-concerns"]},"clinicalStatus":{"coding":[{"system":"http://terminology.hl7.org/CodeSystem/condition-clinical","code":"active","display":"Active"}]},"verificationStatus":{"coding":[{"system":"http://terminology.hl7.org/CodeSystem/condition-ver-status","code":"confirmed","display":"Confirmed"}]},"category":[{"coding":[{"system":"http://terminology.hl7.org/CodeSystem/condition-category","code":"problem-list-item","display":"Problem List Item"}]}],"code":{"coding":[{"system":"http://snomed.info/sct","version":"http://snomed.info/sct/731000124108/version/20240301","code":"10365005","display":"Right main coronary artery thrombosis (disorder)"}]},"subject":{"reference":"Patient/dad1f2c7-c45e-4287-9abf-e7e6ff90f2ff"},"onsetPeriod":{"start":"2026-10-16T00:00:00.000+00:00"}},"request":{"method":"PUT","url":"Condition/f38b9c16-7c04-4060-8b60-1d49f402bd35"}}]}