{"resourceType":"Bundle","id":"tests-7111ea79-9b4a-4452-86cf-22b8852bc5eb-bundle","type":"transaction","entry":[{"fullUrl":"Condition/e1d8d216-6690-4d1d-963c-e62bca4171b0","resource":{"resourceType":"Condition","id":"e1d8d216-6690-4d1d-963c-e62bca4171b0","meta":{"profile":["http://hl7.org/fhir/us/qicore/StructureDefinition/qicore-condition-problems-health-concerns"]},"clinicalStatus":{"coding":[{"system":"http://terminology.hl7.org/CodeSystem/condition-clinical","code":"active","display":"Active"}]},"verificationStatus":{"coding":[{"system":"http://terminology.hl7.org/CodeSystem/condition-ver-status","code":"confirmed","display":"Confirmed"}]},"category":[{"coding":[{"system":"http://terminology.hl7.org/CodeSystem/condition-category","code":"problem-list-item","display":"Problem List Item"}]}],"code":{"coding":[{"system":"http://snomed.info/sct","version":"http://snomed.info/sct/731000124108/version/20240301","code":"10365005","display":"Right main coronary artery thrombosis (disorder)"}]},"subject":{"reference":"Patient/7111ea79-9b4a-4452-86cf-22b8852bc5eb"},"onsetPeriod":{"start":"2026-04-05T06:00:00.000+00:00"}},"request":{"method":"PUT","url":"Condition/e1d8d216-6690-4d1d-963c-e62bca4171b0"}},{"fullUrl":"MeasureReport/6fbb25c1-6317-4e2d-9144-16110ed8547f","resource":{"resourceType":"MeasureReport","id":"6fbb25c1-6317-4e2d-9144-16110ed8547f","meta":{"profile":["http://hl7.org/fhir/us/cqfmeasures/StructureDefinition/test-case-cqfm"]},"contained":[{"resourceType":"Parameters","id":"31e55b62-4f5f-47f4-8312-cb8f50b8b272-parameters","parameter":[{"name":"subject","valueString":"7111ea79-9b4a-4452-86cf-22b8852bc5eb"}]}],"extension":[{"url":"http://hl7.org/fhir/StructureDefinition/cqf-inputParameters","valueReference":{"reference":"#31e55b62-4f5f-47f4-8312-cb8f50b8b272-parameters"}},{"url":"http://hl7.org/fhir/us/cqfmeasures/StructureDefinition/cqfm-testCaseDescription","valueMarkdown":"Pt > 18, 2 visits in MP, and Moderate LVSD, CAD and Arrhythmia (all with onset during 1st visit)"}],"modifierExtension":[{"url":"http://hl7.org/fhir/us/cqfmeasures/StructureDefinition/cqfm-isTestCase","valueBoolean":true}],"status":"complete","type":"individual","measure":"https://madie.cms.gov/Measure/CMS145FHIRCADBetaBlockerTherapyPriorMIorLVSD","period":{"start":"2026-01-01","end":"2026-12-31"},"group":[{"id":"Group_1","population":[{"id":"InitialPopulation_1","code":{"coding":[{"system":"http://terminology.hl7.org/CodeSystem/measure-population","code":"initial-population","display":"Initial Population"}]},"count":1},{"id":"Denominator_1","code":{"coding":[{"system":"http://terminology.hl7.org/CodeSystem/measure-population","code":"denominator","display":"Denominator"}]},"count":1},{"id":"Numerator_1","code":{"coding":[{"system":"http://terminology.hl7.org/CodeSystem/measure-population","code":"numerator","display":"Numerator"}]},"count":0},{"id":"DenominatorException_1","code":{"coding":[{"system":"http://terminology.hl7.org/CodeSystem/measure-population","code":"denominator-exception","display":"Denominator Exception"}]},"count":1}],"measureScore":{"value":1.0}},{"id":"Group_2","population":[{"id":"InitialPopulation_2","code":{"coding":[{"system":"http://terminology.hl7.org/CodeSystem/measure-population","code":"initial-population","display":"Initial Population"}]},"count":1},{"id":"Denominator_2","code":{"coding":[{"system":"http://terminology.hl7.org/CodeSystem/measure-population","code":"denominator","display":"Denominator"}]},"count":0},{"id":"Numerator_2","code":{"coding":[{"system":"http://terminology.hl7.org/CodeSystem/measure-population","code":"numerator","display":"Numerator"}]},"count":0},{"id":"DenominatorException_2","code":{"coding":[{"system":"http://terminology.hl7.org/CodeSystem/measure-population","code":"denominator-exception","display":"Denominator Exception"}]},"count":0}],"measureScore":{"value":1.0}}],"evaluatedResource":[{"reference":"Patient/7111ea79-9b4a-4452-86cf-22b8852bc5eb"},{"reference":"Encounter/c58c41a9-614a-49dc-9932-b8860c0b45d2"},{"reference":"Encounter/48c87957-59a7-43a3-a9d4-378068eb6975"},{"reference":"Condition/081f68ac-ee4c-41eb-a310-021cccfef14a"},{"reference":"Condition/e1d8d216-6690-4d1d-963c-e62bca4171b0"},{"reference":"Condition/2afca37d-e83d-4768-9173-bde6cc4a9771"}]},"request":{"method":"PUT","url":"MeasureReport/6fbb25c1-6317-4e2d-9144-16110ed8547f"}},{"fullUrl":"Encounter/c58c41a9-614a-49dc-9932-b8860c0b45d2","resource":{"resourceType":"Encounter","id":"c58c41a9-614a-49dc-9932-b8860c0b45d2","meta":{"profile":["http://hl7.org/fhir/us/qicore/StructureDefinition/qicore-encounter"]},"status":"finished","class":{"system":"http://terminology.hl7.org/CodeSystem/v3-ActCode","code":"AMB","display":"ambulatory encounter"},"type":[{"coding":[{"system":"http://www.ama-assn.org/go/cpt","version":"2024","code":"99205"}]}],"subject":{"reference":"Patient/7111ea79-9b4a-4452-86cf-22b8852bc5eb"},"period":{"start":"2026-04-05T06:00:00.000+00:00","end":"2026-04-05T07:00:00.000+00:00"}},"request":{"method":"PUT","url":"Encounter/c58c41a9-614a-49dc-9932-b8860c0b45d2"}},{"fullUrl":"Encounter/48c87957-59a7-43a3-a9d4-378068eb6975","resource":{"resourceType":"Encounter","id":"48c87957-59a7-43a3-a9d4-378068eb6975","meta":{"profile":["http://hl7.org/fhir/us/qicore/StructureDefinition/qicore-encounter"]},"status":"finished","class":{"system":"http://terminology.hl7.org/CodeSystem/v3-ActCode","code":"AMB","display":"ambulatory encounter"},"type":[{"coding":[{"system":"http://www.ama-assn.org/go/cpt","version":"2024","code":"99205"}]}],"subject":{"reference":"Patient/7111ea79-9b4a-4452-86cf-22b8852bc5eb"},"period":{"start":"2026-07-08T09:00:00.000+00:00","end":"2026-07-08T09:00:00.000+00:00"}},"request":{"method":"PUT","url":"Encounter/48c87957-59a7-43a3-a9d4-378068eb6975"}},{"fullUrl":"Bundle/351546546864684564631","resource":{"resourceType":"Bundle","id":"351546546864684564631","type":"transaction","entry":[{"fullUrl":"https://madie.cms.gov/Patient/7111ea79-9b4a-4452-86cf-22b8852bc5eb","resource":{"resourceType":"Patient","id":"7111ea79-9b4a-4452-86cf-22b8852bc5eb","meta":{"profile":["http://hl7.org/fhir/us/qicore/StructureDefinition/qicore-patient"]},"extension":[{"url":"http://hl7.org/fhir/us/core/StructureDefinition/us-core-race","extension":[{"url":"ombCategory","valueCoding":{"system":"urn:oid:2.16.840.1.113883.6.238","code":"1002-5","display":"American Indian or Alaska Native"}},{"url":"text","valueString":"American Indian or Alaska Native"}]},{"url":"http://hl7.org/fhir/us/core/StructureDefinition/us-core-ethnicity","extension":[{"url":"ombCategory","valueCoding":{"system":"urn:oid:2.16.840.1.113883.6.238","code":"2186-5","display":"Not Hispanic or Latino"}},{"url":"text","valueString":"Not Hispanic or Latino"}]}],"identifier":[{"type":{"coding":[{"system":"http://terminology.hl7.org/CodeSystem/v2-0203","code":"MR"}]},"system":"https://bonnie-fhir.healthit.gov/","value":"16586168461616"}],"active":true,"name":[{"use":"usual","family":"DENEXCEPPop1Pass","given":["Arrhythmia"]}],"gender":"female","birthDate":"1923-03-24"},"request":{"method":"PUT","url":"Patient/7111ea79-9b4a-4452-86cf-22b8852bc5eb"}},{"fullUrl":"https://madie.cms.gov/Encounter/c58c41a9-614a-49dc-9932-b8860c0b45d2","resource":{"resourceType":"Encounter","id":"c58c41a9-614a-49dc-9932-b8860c0b45d2","meta":{"profile":["http://hl7.org/fhir/us/qicore/StructureDefinition/qicore-encounter"]},"status":"finished","class":{"system":"http://terminology.hl7.org/CodeSystem/v3-ActCode","code":"AMB","display":"ambulatory encounter"},"type":[{"coding":[{"system":"http://www.ama-assn.org/go/cpt","version":"2024","code":"99205"}]}],"subject":{"reference":"Patient/7111ea79-9b4a-4452-86cf-22b8852bc5eb"},"period":{"start":"2026-04-05T06:00:00.000+00:00","end":"2026-04-05T07:00:00.000+00:00"}},"request":{"method":"PUT","url":"Encounter/c58c41a9-614a-49dc-9932-b8860c0b45d2"}},{"fullUrl":"https://madie.cms.gov/Encounter/48c87957-59a7-43a3-a9d4-378068eb6975","resource":{"resourceType":"Encounter","id":"48c87957-59a7-43a3-a9d4-378068eb6975","meta":{"profile":["http://hl7.org/fhir/us/qicore/StructureDefinition/qicore-encounter"]},"status":"finished","class":{"system":"http://terminology.hl7.org/CodeSystem/v3-ActCode","code":"AMB","display":"ambulatory encounter"},"type":[{"coding":[{"system":"http://www.ama-assn.org/go/cpt","version":"2024","code":"99205"}]}],"subject":{"reference":"Patient/7111ea79-9b4a-4452-86cf-22b8852bc5eb"},"period":{"start":"2026-07-08T09:00:00.000+00:00","end":"2026-07-08T09:00:00.000+00:00"}},"request":{"method":"PUT","url":"Encounter/48c87957-59a7-43a3-a9d4-378068eb6975"}},{"fullUrl":"https://madie.cms.gov/Condition/081f68ac-ee4c-41eb-a310-021cccfef14a","resource":{"resourceType":"Condition","id":"081f68ac-ee4c-41eb-a310-021cccfef14a","meta":{"profile":["http://hl7.org/fhir/us/qicore/StructureDefinition/qicore-condition-problems-health-concerns"]},"clinicalStatus":{"coding":[{"system":"http://terminology.hl7.org/CodeSystem/condition-clinical","code":"active","display":"Active"}]},"verificationStatus":{"coding":[{"system":"http://terminology.hl7.org/CodeSystem/condition-ver-status","code":"confirmed","display":"Confirmed"}]},"category":[{"coding":[{"system":"http://terminology.hl7.org/CodeSystem/condition-category","code":"problem-list-item","display":"Problem List Item"}]}],"code":{"coding":[{"system":"http://snomed.info/sct","version":"http://snomed.info/sct/731000124108/version/20240301","code":"981000124106","display":"Moderate left ventricular systolic dysfunction (disorder)"}]},"subject":{"reference":"Patient/7111ea79-9b4a-4452-86cf-22b8852bc5eb"},"onsetPeriod":{"start":"2026-04-05T06:00:00.000+00:00"}},"request":{"method":"PUT","url":"Condition/081f68ac-ee4c-41eb-a310-021cccfef14a"}},{"fullUrl":"https://madie.cms.gov/Condition/e1d8d216-6690-4d1d-963c-e62bca4171b0","resource":{"resourceType":"Condition","id":"e1d8d216-6690-4d1d-963c-e62bca4171b0","meta":{"profile":["http://hl7.org/fhir/us/qicore/StructureDefinition/qicore-condition-problems-health-concerns"]},"clinicalStatus":{"coding":[{"system":"http://terminology.hl7.org/CodeSystem/condition-clinical","code":"active","display":"Active"}]},"verificationStatus":{"coding":[{"system":"http://terminology.hl7.org/CodeSystem/condition-ver-status","code":"confirmed","display":"Confirmed"}]},"category":[{"coding":[{"system":"http://terminology.hl7.org/CodeSystem/condition-category","code":"problem-list-item","display":"Problem List Item"}]}],"code":{"coding":[{"system":"http://snomed.info/sct","version":"http://snomed.info/sct/731000124108/version/20240301","code":"10365005","display":"Right main coronary artery thrombosis (disorder)"}]},"subject":{"reference":"Patient/7111ea79-9b4a-4452-86cf-22b8852bc5eb"},"onsetPeriod":{"start":"2026-04-05T06:00:00.000+00:00"}},"request":{"method":"PUT","url":"Condition/e1d8d216-6690-4d1d-963c-e62bca4171b0"}},{"fullUrl":"https://madie.cms.gov/Condition/2afca37d-e83d-4768-9173-bde6cc4a9771","resource":{"resourceType":"Condition","id":"2afca37d-e83d-4768-9173-bde6cc4a9771","meta":{"profile":["http://hl7.org/fhir/us/qicore/StructureDefinition/qicore-condition-problems-health-concerns"]},"clinicalStatus":{"coding":[{"system":"http://terminology.hl7.org/CodeSystem/condition-clinical","code":"active","display":"Active"}]},"verificationStatus":{"coding":[{"system":"http://terminology.hl7.org/CodeSystem/condition-ver-status","code":"confirmed","display":"Confirmed"}]},"category":[{"coding":[{"system":"http://terminology.hl7.org/CodeSystem/condition-category","code":"problem-list-item","display":"Problem List Item"}]}],"code":{"coding":[{"system":"http://snomed.info/sct","version":"http://snomed.info/sct/731000124108/version/20240301","code":"1010405004","display":"Paroxysmal atrial fibrillation with rapid ventricular response (disorder)"}]},"subject":{"reference":"Patient/7111ea79-9b4a-4452-86cf-22b8852bc5eb"},"onsetPeriod":{"start":"2026-04-05T06:00:00.000+00:00"}},"request":{"method":"PUT","url":"Condition/2afca37d-e83d-4768-9173-bde6cc4a9771"}},{"fullUrl":"https://madie.cms.gov/MeasureReport/6fbb25c1-6317-4e2d-9144-16110ed8547f","resource":{"resourceType":"MeasureReport","id":"6fbb25c1-6317-4e2d-9144-16110ed8547f","meta":{"profile":["http://hl7.org/fhir/us/cqfmeasures/StructureDefinition/test-case-cqfm"]},"contained":[{"resourceType":"Parameters","id":"31e55b62-4f5f-47f4-8312-cb8f50b8b272-parameters","parameter":[{"name":"subject","valueString":"7111ea79-9b4a-4452-86cf-22b8852bc5eb"}]}],"extension":[{"url":"http://hl7.org/fhir/StructureDefinition/cqf-inputParameters","valueReference":{"reference":"#31e55b62-4f5f-47f4-8312-cb8f50b8b272-parameters"}},{"url":"http://hl7.org/fhir/us/cqfmeasures/StructureDefinition/cqfm-testCaseDescription","valueMarkdown":"Pt > 18, 2 visits in MP, and Moderate LVSD, CAD and Arrhythmia (all with onset during 1st visit)"}],"modifierExtension":[{"url":"http://hl7.org/fhir/us/cqfmeasures/StructureDefinition/cqfm-isTestCase","valueBoolean":true}],"status":"complete","type":"individual","measure":"https://madie.cms.gov/Measure/CMS145FHIRCADBetaBlockerTherapyPriorMIorLVSD","period":{"start":"2026-01-01","end":"2026-12-31"},"group":[{"id":"Group_1","population":[{"id":"InitialPopulation_1","code":{"coding":[{"system":"http://terminology.hl7.org/CodeSystem/measure-population","code":"initial-population","display":"Initial Population"}]},"count":1},{"id":"Denominator_1","code":{"coding":[{"system":"http://terminology.hl7.org/CodeSystem/measure-population","code":"denominator","display":"Denominator"}]},"count":1},{"id":"Numerator_1","code":{"coding":[{"system":"http://terminology.hl7.org/CodeSystem/measure-population","code":"numerator","display":"Numerator"}]},"count":0},{"id":"DenominatorException_1","code":{"coding":[{"system":"http://terminology.hl7.org/CodeSystem/measure-population","code":"denominator-exception","display":"Denominator Exception"}]},"count":1}],"measureScore":{"value":1.0}},{"id":"Group_2","population":[{"id":"InitialPopulation_2","code":{"coding":[{"system":"http://terminology.hl7.org/CodeSystem/measure-population","code":"initial-population","display":"Initial Population"}]},"count":1},{"id":"Denominator_2","code":{"coding":[{"system":"http://terminology.hl7.org/CodeSystem/measure-population","code":"denominator","display":"Denominator"}]},"count":0},{"id":"Numerator_2","code":{"coding":[{"system":"http://terminology.hl7.org/CodeSystem/measure-population","code":"numerator","display":"Numerator"}]},"count":0},{"id":"DenominatorException_2","code":{"coding":[{"system":"http://terminology.hl7.org/CodeSystem/measure-population","code":"denominator-exception","display":"Denominator Exception"}]},"count":0}],"measureScore":{"value":1.0}}],"evaluatedResource":[{"reference":"Patient/7111ea79-9b4a-4452-86cf-22b8852bc5eb"},{"reference":"Encounter/c58c41a9-614a-49dc-9932-b8860c0b45d2"},{"reference":"Encounter/48c87957-59a7-43a3-a9d4-378068eb6975"},{"reference":"Condition/081f68ac-ee4c-41eb-a310-021cccfef14a"},{"reference":"Condition/e1d8d216-6690-4d1d-963c-e62bca4171b0"},{"reference":"Condition/2afca37d-e83d-4768-9173-bde6cc4a9771"}]},"request":{"method":"PUT","url":"MeasureReport/6fbb25c1-6317-4e2d-9144-16110ed8547f"}}]},"request":{"method":"PUT","url":"Bundle/351546546864684564631"}},{"fullUrl":"Condition/2afca37d-e83d-4768-9173-bde6cc4a9771","resource":{"resourceType":"Condition","id":"2afca37d-e83d-4768-9173-bde6cc4a9771","meta":{"profile":["http://hl7.org/fhir/us/qicore/StructureDefinition/qicore-condition-problems-health-concerns"]},"clinicalStatus":{"coding":[{"system":"http://terminology.hl7.org/CodeSystem/condition-clinical","code":"active","display":"Active"}]},"verificationStatus":{"coding":[{"system":"http://terminology.hl7.org/CodeSystem/condition-ver-status","code":"confirmed","display":"Confirmed"}]},"category":[{"coding":[{"system":"http://terminology.hl7.org/CodeSystem/condition-category","code":"problem-list-item","display":"Problem List Item"}]}],"code":{"coding":[{"system":"http://snomed.info/sct","version":"http://snomed.info/sct/731000124108/version/20240301","code":"1010405004","display":"Paroxysmal atrial fibrillation with rapid ventricular response (disorder)"}]},"subject":{"reference":"Patient/7111ea79-9b4a-4452-86cf-22b8852bc5eb"},"onsetPeriod":{"start":"2026-04-05T06:00:00.000+00:00"}},"request":{"method":"PUT","url":"Condition/2afca37d-e83d-4768-9173-bde6cc4a9771"}},{"fullUrl":"Condition/081f68ac-ee4c-41eb-a310-021cccfef14a","resource":{"resourceType":"Condition","id":"081f68ac-ee4c-41eb-a310-021cccfef14a","meta":{"profile":["http://hl7.org/fhir/us/qicore/StructureDefinition/qicore-condition-problems-health-concerns"]},"clinicalStatus":{"coding":[{"system":"http://terminology.hl7.org/CodeSystem/condition-clinical","code":"active","display":"Active"}]},"verificationStatus":{"coding":[{"system":"http://terminology.hl7.org/CodeSystem/condition-ver-status","code":"confirmed","display":"Confirmed"}]},"category":[{"coding":[{"system":"http://terminology.hl7.org/CodeSystem/condition-category","code":"problem-list-item","display":"Problem List Item"}]}],"code":{"coding":[{"system":"http://snomed.info/sct","version":"http://snomed.info/sct/731000124108/version/20240301","code":"981000124106","display":"Moderate left ventricular systolic dysfunction (disorder)"}]},"subject":{"reference":"Patient/7111ea79-9b4a-4452-86cf-22b8852bc5eb"},"onsetPeriod":{"start":"2026-04-05T06:00:00.000+00:00"}},"request":{"method":"PUT","url":"Condition/081f68ac-ee4c-41eb-a310-021cccfef14a"}},{"fullUrl":"Patient/7111ea79-9b4a-4452-86cf-22b8852bc5eb","resource":{"resourceType":"Patient","id":"7111ea79-9b4a-4452-86cf-22b8852bc5eb","meta":{"profile":["http://hl7.org/fhir/us/qicore/StructureDefinition/qicore-patient"]},"extension":[{"url":"http://hl7.org/fhir/us/core/StructureDefinition/us-core-race","extension":[{"url":"ombCategory","valueCoding":{"system":"urn:oid:2.16.840.1.113883.6.238","code":"1002-5","display":"American Indian or Alaska Native"}},{"url":"text","valueString":"American Indian or Alaska Native"}]},{"url":"http://hl7.org/fhir/us/core/StructureDefinition/us-core-ethnicity","extension":[{"url":"ombCategory","valueCoding":{"system":"urn:oid:2.16.840.1.113883.6.238","code":"2186-5","display":"Not Hispanic or Latino"}},{"url":"text","valueString":"Not Hispanic or Latino"}]}],"identifier":[{"type":{"coding":[{"system":"http://terminology.hl7.org/CodeSystem/v2-0203","code":"MR"}]},"system":"https://bonnie-fhir.healthit.gov/","value":"16586168461616"}],"active":true,"name":[{"use":"usual","family":"DENEXCEPPop1Pass","given":["Arrhythmia"]}],"gender":"female","birthDate":"1923-03-24"},"request":{"method":"PUT","url":"Patient/7111ea79-9b4a-4452-86cf-22b8852bc5eb"}}]}