{"resourceType":"Bundle","id":"tests-fd5fb311-a466-4c59-966d-48fa7aa88931-bundle","type":"transaction","entry":[{"fullUrl":"Condition/2c20e03e-a86a-4bdb-a1dc-2e243f56b0e4","resource":{"resourceType":"Condition","id":"2c20e03e-a86a-4bdb-a1dc-2e243f56b0e4","meta":{"profile":["http://hl7.org/fhir/us/qicore/StructureDefinition/qicore-condition-problems-health-concerns"]},"clinicalStatus":{"coding":[{"system":"http://terminology.hl7.org/CodeSystem/condition-clinical","code":"active","display":"Active"}]},"verificationStatus":{"coding":[{"system":"http://terminology.hl7.org/CodeSystem/condition-ver-status","code":"confirmed","display":"Confirmed"}]},"category":[{"coding":[{"system":"http://terminology.hl7.org/CodeSystem/condition-category","code":"problem-list-item","display":"Problem List Item"}]}],"code":{"coding":[{"system":"http://snomed.info/sct","version":"http://snomed.info/sct/731000124108/version/20240301","code":"293970004","display":"Allergy to metoprolol (finding)"}]},"subject":{"reference":"Patient/fd5fb311-a466-4c59-966d-48fa7aa88931"},"onsetPeriod":{"start":"2025-04-05T06:00:00.000+00:00"}},"request":{"method":"PUT","url":"Condition/2c20e03e-a86a-4bdb-a1dc-2e243f56b0e4"}},{"fullUrl":"Condition/3448bcf0-1ff3-43d2-b4b1-25d7a3d42e48","resource":{"resourceType":"Condition","id":"3448bcf0-1ff3-43d2-b4b1-25d7a3d42e48","meta":{"profile":["http://hl7.org/fhir/us/qicore/StructureDefinition/qicore-condition-encounter-diagnosis"]},"clinicalStatus":{"coding":[{"system":"http://terminology.hl7.org/CodeSystem/condition-clinical","code":"active","display":"Active"}]},"verificationStatus":{"coding":[{"system":"http://terminology.hl7.org/CodeSystem/condition-ver-status","code":"confirmed","display":"Confirmed"}]},"category":[{"coding":[{"system":"http://terminology.hl7.org/CodeSystem/condition-category","code":"encounter-diagnosis","display":"Encounter Diagnosis"}]}],"code":{"coding":[{"system":"http://snomed.info/sct","version":"http://snomed.info/sct/731000124108/version/20240301","code":"981000124106","display":"Moderate left ventricular systolic dysfunction (disorder)"}]},"subject":{"reference":"Patient/fd5fb311-a466-4c59-966d-48fa7aa88931"},"onsetPeriod":{"start":"2026-04-05T06:00:00.000+00:00"}},"request":{"method":"PUT","url":"Condition/3448bcf0-1ff3-43d2-b4b1-25d7a3d42e48"}},{"fullUrl":"Encounter/8244a54c-387f-4fab-9187-2cdb45344b7c","resource":{"resourceType":"Encounter","id":"8244a54c-387f-4fab-9187-2cdb45344b7c","meta":{"profile":["http://hl7.org/fhir/us/qicore/StructureDefinition/qicore-encounter"]},"status":"finished","class":{"system":"http://terminology.hl7.org/CodeSystem/v3-ActCode","code":"AMB","display":"ambulatory encounter"},"type":[{"coding":[{"system":"http://www.ama-assn.org/go/cpt","version":"2024","code":"99205"}]}],"subject":{"reference":"Patient/fd5fb311-a466-4c59-966d-48fa7aa88931"},"period":{"start":"2026-04-05T06:00:00.000+00:00","end":"2026-04-05T07:00:00.000+00:00"}},"request":{"method":"PUT","url":"Encounter/8244a54c-387f-4fab-9187-2cdb45344b7c"}},{"fullUrl":"Bundle/6541684616416845161","resource":{"resourceType":"Bundle","id":"6541684616416845161","type":"transaction","entry":[{"fullUrl":"https://madie.cms.gov/Patient/fd5fb311-a466-4c59-966d-48fa7aa88931","resource":{"resourceType":"Patient","id":"fd5fb311-a466-4c59-966d-48fa7aa88931","meta":{"profile":["http://hl7.org/fhir/us/qicore/StructureDefinition/qicore-patient"]},"extension":[{"url":"http://hl7.org/fhir/us/core/StructureDefinition/us-core-race","extension":[{"url":"ombCategory","valueCoding":{"system":"urn:oid:2.16.840.1.113883.6.238","code":"1002-5","display":"American Indian or Alaska Native"}},{"url":"text","valueString":"American Indian or Alaska Native"}]},{"url":"http://hl7.org/fhir/us/core/StructureDefinition/us-core-ethnicity","extension":[{"url":"ombCategory","valueCoding":{"system":"urn:oid:2.16.840.1.113883.6.238","code":"2186-5","display":"Not Hispanic or Latino"}},{"url":"text","valueString":"Not Hispanic or Latino"}]}],"identifier":[{"type":{"coding":[{"system":"http://terminology.hl7.org/CodeSystem/v2-0203","code":"MR"}]},"system":"https://bonnie-fhir.healthit.gov/","value":"63516844554684641"}],"active":true,"name":[{"use":"usual","family":"DENEXCEPPop1Pass","given":["BetaBlockerAllergyDiagnosis"]}],"gender":"female","birthDate":"1923-03-24"},"request":{"method":"PUT","url":"Patient/fd5fb311-a466-4c59-966d-48fa7aa88931"}},{"fullUrl":"https://madie.cms.gov/Encounter/8244a54c-387f-4fab-9187-2cdb45344b7c","resource":{"resourceType":"Encounter","id":"8244a54c-387f-4fab-9187-2cdb45344b7c","meta":{"profile":["http://hl7.org/fhir/us/qicore/StructureDefinition/qicore-encounter"]},"status":"finished","class":{"system":"http://terminology.hl7.org/CodeSystem/v3-ActCode","code":"AMB","display":"ambulatory encounter"},"type":[{"coding":[{"system":"http://www.ama-assn.org/go/cpt","version":"2024","code":"99205"}]}],"subject":{"reference":"Patient/fd5fb311-a466-4c59-966d-48fa7aa88931"},"period":{"start":"2026-04-05T06:00:00.000+00:00","end":"2026-04-05T07:00:00.000+00:00"}},"request":{"method":"PUT","url":"Encounter/8244a54c-387f-4fab-9187-2cdb45344b7c"}},{"fullUrl":"https://madie.cms.gov/Encounter/9186dd4b-7199-4d80-be7a-b1879c318cd9","resource":{"resourceType":"Encounter","id":"9186dd4b-7199-4d80-be7a-b1879c318cd9","meta":{"profile":["http://hl7.org/fhir/us/qicore/StructureDefinition/qicore-encounter"]},"status":"finished","class":{"system":"http://terminology.hl7.org/CodeSystem/v3-ActCode","code":"AMB","display":"ambulatory encounter"},"type":[{"coding":[{"system":"http://www.ama-assn.org/go/cpt","version":"2024","code":"99205"}]}],"subject":{"reference":"Patient/fd5fb311-a466-4c59-966d-48fa7aa88931"},"period":{"start":"2026-07-08T09:00:00.000+00:00","end":"2026-07-08T09:00:00.000+00:00"}},"request":{"method":"PUT","url":"Encounter/9186dd4b-7199-4d80-be7a-b1879c318cd9"}},{"fullUrl":"https://madie.cms.gov/Condition/3448bcf0-1ff3-43d2-b4b1-25d7a3d42e48","resource":{"resourceType":"Condition","id":"3448bcf0-1ff3-43d2-b4b1-25d7a3d42e48","meta":{"profile":["http://hl7.org/fhir/us/qicore/StructureDefinition/qicore-condition-encounter-diagnosis"]},"clinicalStatus":{"coding":[{"system":"http://terminology.hl7.org/CodeSystem/condition-clinical","code":"active","display":"Active"}]},"verificationStatus":{"coding":[{"system":"http://terminology.hl7.org/CodeSystem/condition-ver-status","code":"confirmed","display":"Confirmed"}]},"category":[{"coding":[{"system":"http://terminology.hl7.org/CodeSystem/condition-category","code":"encounter-diagnosis","display":"Encounter Diagnosis"}]}],"code":{"coding":[{"system":"http://snomed.info/sct","version":"http://snomed.info/sct/731000124108/version/20240301","code":"981000124106","display":"Moderate left ventricular systolic dysfunction (disorder)"}]},"subject":{"reference":"Patient/fd5fb311-a466-4c59-966d-48fa7aa88931"},"onsetPeriod":{"start":"2026-04-05T06:00:00.000+00:00"}},"request":{"method":"PUT","url":"Condition/3448bcf0-1ff3-43d2-b4b1-25d7a3d42e48"}},{"fullUrl":"https://madie.cms.gov/Condition/033ea816-dbc5-440d-9b6b-8766e0be44e9","resource":{"resourceType":"Condition","id":"033ea816-dbc5-440d-9b6b-8766e0be44e9","meta":{"profile":["http://hl7.org/fhir/us/qicore/StructureDefinition/qicore-condition-problems-health-concerns"]},"clinicalStatus":{"coding":[{"system":"http://terminology.hl7.org/CodeSystem/condition-clinical","code":"active","display":"Active"}]},"verificationStatus":{"coding":[{"system":"http://terminology.hl7.org/CodeSystem/condition-ver-status","code":"confirmed","display":"Confirmed"}]},"category":[{"coding":[{"system":"http://terminology.hl7.org/CodeSystem/condition-category","code":"problem-list-item","display":"Problem List Item"}]}],"code":{"coding":[{"system":"http://snomed.info/sct","version":"http://snomed.info/sct/731000124108/version/20240301","code":"10365005","display":"Right main coronary artery thrombosis (disorder)"}]},"subject":{"reference":"Patient/fd5fb311-a466-4c59-966d-48fa7aa88931"},"onsetPeriod":{"start":"2026-04-05T06:00:00.000+00:00"}},"request":{"method":"PUT","url":"Condition/033ea816-dbc5-440d-9b6b-8766e0be44e9"}},{"fullUrl":"https://madie.cms.gov/Condition/2c20e03e-a86a-4bdb-a1dc-2e243f56b0e4","resource":{"resourceType":"Condition","id":"2c20e03e-a86a-4bdb-a1dc-2e243f56b0e4","meta":{"profile":["http://hl7.org/fhir/us/qicore/StructureDefinition/qicore-condition-problems-health-concerns"]},"clinicalStatus":{"coding":[{"system":"http://terminology.hl7.org/CodeSystem/condition-clinical","code":"active","display":"Active"}]},"verificationStatus":{"coding":[{"system":"http://terminology.hl7.org/CodeSystem/condition-ver-status","code":"confirmed","display":"Confirmed"}]},"category":[{"coding":[{"system":"http://terminology.hl7.org/CodeSystem/condition-category","code":"problem-list-item","display":"Problem List Item"}]}],"code":{"coding":[{"system":"http://snomed.info/sct","version":"http://snomed.info/sct/731000124108/version/20240301","code":"293970004","display":"Allergy to metoprolol (finding)"}]},"subject":{"reference":"Patient/fd5fb311-a466-4c59-966d-48fa7aa88931"},"onsetPeriod":{"start":"2025-04-05T06:00:00.000+00:00"}},"request":{"method":"PUT","url":"Condition/2c20e03e-a86a-4bdb-a1dc-2e243f56b0e4"}},{"fullUrl":"https://madie.cms.gov/MeasureReport/46291519-5978-4322-bd22-21a498feb4a9","resource":{"resourceType":"MeasureReport","id":"46291519-5978-4322-bd22-21a498feb4a9","meta":{"profile":["http://hl7.org/fhir/us/cqfmeasures/StructureDefinition/test-case-cqfm"]},"contained":[{"resourceType":"Parameters","id":"2dc15fff-95c3-4e05-9156-95ec18593e03-parameters","parameter":[{"name":"subject","valueString":"fd5fb311-a466-4c59-966d-48fa7aa88931"}]}],"extension":[{"url":"http://hl7.org/fhir/StructureDefinition/cqf-inputParameters","valueReference":{"reference":"#2dc15fff-95c3-4e05-9156-95ec18593e03-parameters"}},{"url":"http://hl7.org/fhir/us/cqfmeasures/StructureDefinition/cqfm-testCaseDescription","valueMarkdown":"Pt > 18, 2 amb. visits during MP, moderate LVSD and CAD (both with onset during 1st visit), and a Beta Blocker allergy Dx with onset during 1st visit"}],"modifierExtension":[{"url":"http://hl7.org/fhir/us/cqfmeasures/StructureDefinition/cqfm-isTestCase","valueBoolean":true}],"status":"complete","type":"individual","measure":"https://madie.cms.gov/Measure/CMS145FHIRCADBetaBlockerTherapyPriorMIorLVSD","period":{"start":"2026-01-01","end":"2026-12-31"},"group":[{"id":"Group_1","population":[{"id":"InitialPopulation_1","code":{"coding":[{"system":"http://terminology.hl7.org/CodeSystem/measure-population","code":"initial-population","display":"Initial Population"}]},"count":1},{"id":"Denominator_1","code":{"coding":[{"system":"http://terminology.hl7.org/CodeSystem/measure-population","code":"denominator","display":"Denominator"}]},"count":1},{"id":"Numerator_1","code":{"coding":[{"system":"http://terminology.hl7.org/CodeSystem/measure-population","code":"numerator","display":"Numerator"}]},"count":0},{"id":"DenominatorException_1","code":{"coding":[{"system":"http://terminology.hl7.org/CodeSystem/measure-population","code":"denominator-exception","display":"Denominator Exception"}]},"count":1}],"measureScore":{"value":1.0}},{"id":"Group_2","population":[{"id":"InitialPopulation_2","code":{"coding":[{"system":"http://terminology.hl7.org/CodeSystem/measure-population","code":"initial-population","display":"Initial Population"}]},"count":1},{"id":"Denominator_2","code":{"coding":[{"system":"http://terminology.hl7.org/CodeSystem/measure-population","code":"denominator","display":"Denominator"}]},"count":0},{"id":"Numerator_2","code":{"coding":[{"system":"http://terminology.hl7.org/CodeSystem/measure-population","code":"numerator","display":"Numerator"}]},"count":0},{"id":"DenominatorException_2","code":{"coding":[{"system":"http://terminology.hl7.org/CodeSystem/measure-population","code":"denominator-exception","display":"Denominator Exception"}]},"count":0}],"measureScore":{"value":1.0}}],"evaluatedResource":[{"reference":"Patient/fd5fb311-a466-4c59-966d-48fa7aa88931"},{"reference":"Encounter/8244a54c-387f-4fab-9187-2cdb45344b7c"},{"reference":"Encounter/9186dd4b-7199-4d80-be7a-b1879c318cd9"},{"reference":"Condition/3448bcf0-1ff3-43d2-b4b1-25d7a3d42e48"},{"reference":"Condition/033ea816-dbc5-440d-9b6b-8766e0be44e9"},{"reference":"Condition/2c20e03e-a86a-4bdb-a1dc-2e243f56b0e4"}]},"request":{"method":"PUT","url":"MeasureReport/46291519-5978-4322-bd22-21a498feb4a9"}}]},"request":{"method":"PUT","url":"Bundle/6541684616416845161"}},{"fullUrl":"MeasureReport/46291519-5978-4322-bd22-21a498feb4a9","resource":{"resourceType":"MeasureReport","id":"46291519-5978-4322-bd22-21a498feb4a9","meta":{"profile":["http://hl7.org/fhir/us/cqfmeasures/StructureDefinition/test-case-cqfm"]},"contained":[{"resourceType":"Parameters","id":"2dc15fff-95c3-4e05-9156-95ec18593e03-parameters","parameter":[{"name":"subject","valueString":"fd5fb311-a466-4c59-966d-48fa7aa88931"}]}],"extension":[{"url":"http://hl7.org/fhir/StructureDefinition/cqf-inputParameters","valueReference":{"reference":"#2dc15fff-95c3-4e05-9156-95ec18593e03-parameters"}},{"url":"http://hl7.org/fhir/us/cqfmeasures/StructureDefinition/cqfm-testCaseDescription","valueMarkdown":"Pt > 18, 2 amb. visits during MP, moderate LVSD and CAD (both with onset during 1st visit), and a Beta Blocker allergy Dx with onset during 1st visit"}],"modifierExtension":[{"url":"http://hl7.org/fhir/us/cqfmeasures/StructureDefinition/cqfm-isTestCase","valueBoolean":true}],"status":"complete","type":"individual","measure":"https://madie.cms.gov/Measure/CMS145FHIRCADBetaBlockerTherapyPriorMIorLVSD","period":{"start":"2026-01-01","end":"2026-12-31"},"group":[{"id":"Group_1","population":[{"id":"InitialPopulation_1","code":{"coding":[{"system":"http://terminology.hl7.org/CodeSystem/measure-population","code":"initial-population","display":"Initial Population"}]},"count":1},{"id":"Denominator_1","code":{"coding":[{"system":"http://terminology.hl7.org/CodeSystem/measure-population","code":"denominator","display":"Denominator"}]},"count":1},{"id":"Numerator_1","code":{"coding":[{"system":"http://terminology.hl7.org/CodeSystem/measure-population","code":"numerator","display":"Numerator"}]},"count":0},{"id":"DenominatorException_1","code":{"coding":[{"system":"http://terminology.hl7.org/CodeSystem/measure-population","code":"denominator-exception","display":"Denominator Exception"}]},"count":1}],"measureScore":{"value":1.0}},{"id":"Group_2","population":[{"id":"InitialPopulation_2","code":{"coding":[{"system":"http://terminology.hl7.org/CodeSystem/measure-population","code":"initial-population","display":"Initial Population"}]},"count":1},{"id":"Denominator_2","code":{"coding":[{"system":"http://terminology.hl7.org/CodeSystem/measure-population","code":"denominator","display":"Denominator"}]},"count":0},{"id":"Numerator_2","code":{"coding":[{"system":"http://terminology.hl7.org/CodeSystem/measure-population","code":"numerator","display":"Numerator"}]},"count":0},{"id":"DenominatorException_2","code":{"coding":[{"system":"http://terminology.hl7.org/CodeSystem/measure-population","code":"denominator-exception","display":"Denominator Exception"}]},"count":0}],"measureScore":{"value":1.0}}],"evaluatedResource":[{"reference":"Patient/fd5fb311-a466-4c59-966d-48fa7aa88931"},{"reference":"Encounter/8244a54c-387f-4fab-9187-2cdb45344b7c"},{"reference":"Encounter/9186dd4b-7199-4d80-be7a-b1879c318cd9"},{"reference":"Condition/3448bcf0-1ff3-43d2-b4b1-25d7a3d42e48"},{"reference":"Condition/033ea816-dbc5-440d-9b6b-8766e0be44e9"},{"reference":"Condition/2c20e03e-a86a-4bdb-a1dc-2e243f56b0e4"}]},"request":{"method":"PUT","url":"MeasureReport/46291519-5978-4322-bd22-21a498feb4a9"}},{"fullUrl":"Condition/033ea816-dbc5-440d-9b6b-8766e0be44e9","resource":{"resourceType":"Condition","id":"033ea816-dbc5-440d-9b6b-8766e0be44e9","meta":{"profile":["http://hl7.org/fhir/us/qicore/StructureDefinition/qicore-condition-problems-health-concerns"]},"clinicalStatus":{"coding":[{"system":"http://terminology.hl7.org/CodeSystem/condition-clinical","code":"active","display":"Active"}]},"verificationStatus":{"coding":[{"system":"http://terminology.hl7.org/CodeSystem/condition-ver-status","code":"confirmed","display":"Confirmed"}]},"category":[{"coding":[{"system":"http://terminology.hl7.org/CodeSystem/condition-category","code":"problem-list-item","display":"Problem List Item"}]}],"code":{"coding":[{"system":"http://snomed.info/sct","version":"http://snomed.info/sct/731000124108/version/20240301","code":"10365005","display":"Right main coronary artery thrombosis (disorder)"}]},"subject":{"reference":"Patient/fd5fb311-a466-4c59-966d-48fa7aa88931"},"onsetPeriod":{"start":"2026-04-05T06:00:00.000+00:00"}},"request":{"method":"PUT","url":"Condition/033ea816-dbc5-440d-9b6b-8766e0be44e9"}},{"fullUrl":"Encounter/9186dd4b-7199-4d80-be7a-b1879c318cd9","resource":{"resourceType":"Encounter","id":"9186dd4b-7199-4d80-be7a-b1879c318cd9","meta":{"profile":["http://hl7.org/fhir/us/qicore/StructureDefinition/qicore-encounter"]},"status":"finished","class":{"system":"http://terminology.hl7.org/CodeSystem/v3-ActCode","code":"AMB","display":"ambulatory encounter"},"type":[{"coding":[{"system":"http://www.ama-assn.org/go/cpt","version":"2024","code":"99205"}]}],"subject":{"reference":"Patient/fd5fb311-a466-4c59-966d-48fa7aa88931"},"period":{"start":"2026-07-08T09:00:00.000+00:00","end":"2026-07-08T09:00:00.000+00:00"}},"request":{"method":"PUT","url":"Encounter/9186dd4b-7199-4d80-be7a-b1879c318cd9"}},{"fullUrl":"Patient/fd5fb311-a466-4c59-966d-48fa7aa88931","resource":{"resourceType":"Patient","id":"fd5fb311-a466-4c59-966d-48fa7aa88931","meta":{"profile":["http://hl7.org/fhir/us/qicore/StructureDefinition/qicore-patient"]},"extension":[{"url":"http://hl7.org/fhir/us/core/StructureDefinition/us-core-race","extension":[{"url":"ombCategory","valueCoding":{"system":"urn:oid:2.16.840.1.113883.6.238","code":"1002-5","display":"American Indian or Alaska Native"}},{"url":"text","valueString":"American Indian or Alaska Native"}]},{"url":"http://hl7.org/fhir/us/core/StructureDefinition/us-core-ethnicity","extension":[{"url":"ombCategory","valueCoding":{"system":"urn:oid:2.16.840.1.113883.6.238","code":"2186-5","display":"Not Hispanic or Latino"}},{"url":"text","valueString":"Not Hispanic or Latino"}]}],"identifier":[{"type":{"coding":[{"system":"http://terminology.hl7.org/CodeSystem/v2-0203","code":"MR"}]},"system":"https://bonnie-fhir.healthit.gov/","value":"63516844554684641"}],"active":true,"name":[{"use":"usual","family":"DENEXCEPPop1Pass","given":["BetaBlockerAllergyDiagnosis"]}],"gender":"female","birthDate":"1923-03-24"},"request":{"method":"PUT","url":"Patient/fd5fb311-a466-4c59-966d-48fa7aa88931"}}]}