{"resourceType":"Bundle","id":"tests-4a3086cd-63f3-41c3-8ce9-f75b4b18b85c-bundle","type":"transaction","entry":[{"fullUrl":"Condition/cb9c88ff-7bb3-4d4e-a7ec-7b22f0db891e","resource":{"resourceType":"Condition","id":"cb9c88ff-7bb3-4d4e-a7ec-7b22f0db891e","meta":{"profile":["http://hl7.org/fhir/us/qicore/StructureDefinition/qicore-condition-problems-health-concerns"]},"clinicalStatus":{"coding":[{"system":"http://terminology.hl7.org/CodeSystem/condition-clinical","code":"active","display":"Active"}]},"verificationStatus":{"coding":[{"system":"http://terminology.hl7.org/CodeSystem/condition-ver-status","code":"confirmed","display":"Confirmed"}]},"category":[{"coding":[{"system":"http://terminology.hl7.org/CodeSystem/condition-category","code":"problem-list-item","display":"Problem List Item"}]}],"code":{"coding":[{"system":"http://snomed.info/sct","version":"http://snomed.info/sct/731000124108/version/20240301","code":"10365005","display":"Right main coronary artery thrombosis (disorder)"}]},"subject":{"reference":"Patient/4a3086cd-63f3-41c3-8ce9-f75b4b18b85c"},"onsetPeriod":{"start":"2026-10-16T00:00:00.000+00:00"}},"request":{"method":"PUT","url":"Condition/cb9c88ff-7bb3-4d4e-a7ec-7b22f0db891e"}},{"fullUrl":"Practitioner/dac9381d-4451-4b7d-ad7f-e1ecdf17cb58","resource":{"resourceType":"Practitioner","id":"dac9381d-4451-4b7d-ad7f-e1ecdf17cb58","meta":{"profile":["http://hl7.org/fhir/us/qicore/StructureDefinition/qicore-practitioner"]},"identifier":[{"use":"temp","system":"urn:oid:2.16.840.1.113883.4.336","value":"Practitioner-45"}],"active":true,"name":[{"family":"Strangelove","given":["Adam"],"prefix":["Dr"]}],"qualification":[{"identifier":[{"system":"http://example.org/UniversityIdentifier","value":"12345"}],"code":{"coding":[{"system":"http://terminology.hl7.org/CodeSystem/v2-0360|2.7","code":"BS","display":"Bachelor of Science"}],"text":"Bachelor of Science"},"period":{"start":"1996"},"issuer":{"display":"Example University"}}]},"request":{"method":"PUT","url":"Practitioner/dac9381d-4451-4b7d-ad7f-e1ecdf17cb58"}},{"fullUrl":"Condition/f8e55c60-909d-49e5-812f-1d4488c8f65a","resource":{"resourceType":"Condition","id":"f8e55c60-909d-49e5-812f-1d4488c8f65a","meta":{"profile":["http://hl7.org/fhir/us/qicore/StructureDefinition/qicore-condition-problems-health-concerns"]},"clinicalStatus":{"coding":[{"system":"http://terminology.hl7.org/CodeSystem/condition-clinical","code":"active","display":"Active"}]},"category":[{"coding":[{"system":"http://terminology.hl7.org/CodeSystem/condition-category","code":"problem-list-item","display":"Problem List Item"}]}],"code":{"coding":[{"system":"http://snomed.info/sct","version":"http://snomed.info/sct/731000124108/version/20240301","code":"441509002","display":"Cardiac pacemaker in situ"}]},"subject":{"reference":"Patient/4a3086cd-63f3-41c3-8ce9-f75b4b18b85c"},"onsetPeriod":{"start":"2026-10-16T00:00:00.000+00:00"}},"request":{"method":"PUT","url":"Condition/f8e55c60-909d-49e5-812f-1d4488c8f65a"}},{"fullUrl":"Encounter/559b9d39-e2f7-4a0e-a8c9-c260a69cf0e2","resource":{"resourceType":"Encounter","id":"559b9d39-e2f7-4a0e-a8c9-c260a69cf0e2","meta":{"profile":["http://hl7.org/fhir/us/qicore/StructureDefinition/qicore-encounter"]},"status":"finished","class":{"system":"http://terminology.hl7.org/CodeSystem/v3-ActCode","code":"AMB","display":"ambulatory"},"type":[{"coding":[{"system":"http://www.ama-assn.org/go/cpt","version":"2024","code":"99212","display":"Office or other outpatient visit for the evaluation and management of an established patient, which requires a medically appropriate history and/or examination and straightforward medical decision making. When using time for code selection, 10-19 minutes of total time is spent on the date of the encounter."}]}],"subject":{"reference":"Patient/4a3086cd-63f3-41c3-8ce9-f75b4b18b85c"},"period":{"start":"2026-10-15T12:15:00.000+00:00","end":"2026-10-15T13:15:00.000+00:00"},"length":{"value":0,"unit":"days"}},"request":{"method":"PUT","url":"Encounter/559b9d39-e2f7-4a0e-a8c9-c260a69cf0e2"}},{"fullUrl":"MedicationRequest/1b84067c-69ca-4310-92a9-5a27e851a203","resource":{"resourceType":"MedicationRequest","id":"1b84067c-69ca-4310-92a9-5a27e851a203","meta":{"profile":["http://hl7.org/fhir/us/qicore/StructureDefinition/qicore-mednotrequested"]},"status":"completed","intent":"order","doNotPerform":true,"medicationCodeableConcept":{"extension":[{"url":"http://hl7.org/fhir/us/qicore/StructureDefinition/qicore-notDoneValueSet","valueCanonical":"http://cts.nlm.nih.gov/fhir/ValueSet/2.16.840.1.113883.3.526.3.1184"}],"text":"Not Done Value Set: Beta Blocker Therapy for LVSD"},"subject":{"reference":"Patient/4a3086cd-63f3-41c3-8ce9-f75b4b18b85c"},"authoredOn":"2026-10-15T12:15:00.000+00:00","requester":{"reference":"Practitioner/dac9381d-4451-4b7d-ad7f-e1ecdf17cb58"},"reasonCode":[{"coding":[{"system":"http://snomed.info/sct","version":"http://snomed.info/sct/731000124108/version/20230301","code":"406149000","display":"Medication declined (situation)"}]}]},"request":{"method":"PUT","url":"MedicationRequest/1b84067c-69ca-4310-92a9-5a27e851a203"}},{"fullUrl":"Patient/4a3086cd-63f3-41c3-8ce9-f75b4b18b85c","resource":{"resourceType":"Patient","id":"4a3086cd-63f3-41c3-8ce9-f75b4b18b85c","meta":{"profile":["http://hl7.org/fhir/us/qicore/StructureDefinition/qicore-patient"]},"extension":[{"url":"http://hl7.org/fhir/us/core/StructureDefinition/us-core-race","extension":[{"url":"ombCategory","valueCoding":{"system":"urn:oid:2.16.840.1.113883.6.238","code":"1002-5","display":"American Indian or Alaska Native"}},{"url":"text","valueString":"American Indian or Alaska Native"}]},{"url":"http://hl7.org/fhir/us/core/StructureDefinition/us-core-ethnicity","extension":[{"url":"ombCategory","valueCoding":{"system":"urn:oid:2.16.840.1.113883.6.238","code":"2186-5","display":"Not Hispanic or Latino"}},{"url":"text","valueString":"Not Hispanic or Latino"}]}],"identifier":[{"type":{"coding":[{"system":"http://terminology.hl7.org/CodeSystem/v2-0203","code":"MR"}]},"system":"https://bonnie-fhir.healthit.gov/","value":"2419678324968631646"}],"active":true,"name":[{"use":"usual","family":"DENEXCEPPop1Pass","given":["MedNotOrderedPatRsn"]}],"gender":"male","birthDate":"1968-12-14"},"request":{"method":"PUT","url":"Patient/4a3086cd-63f3-41c3-8ce9-f75b4b18b85c"}},{"fullUrl":"Encounter/0b0a8508-9334-4cf2-a46a-800d3cfae2b5","resource":{"resourceType":"Encounter","id":"0b0a8508-9334-4cf2-a46a-800d3cfae2b5","meta":{"profile":["http://hl7.org/fhir/us/qicore/StructureDefinition/qicore-encounter"]},"status":"finished","class":{"system":"http://terminology.hl7.org/CodeSystem/v3-ActCode","code":"AMB","display":"ambulatory"},"type":[{"coding":[{"system":"http://www.ama-assn.org/go/cpt","version":"2024","code":"99202","display":"Office or other outpatient visit for the evaluation and management of a new patient, which requires a medically appropriate history and/or examination and straightforward medical decision making. When using time for code selection, 15-29 minutes of total time is spent on the date of the encounter."}]}],"subject":{"reference":"Patient/4a3086cd-63f3-41c3-8ce9-f75b4b18b85c"},"period":{"start":"2026-02-01T12:00:00.000+00:00","end":"2026-02-01T13:00:00.000+00:00"},"length":{"value":0,"unit":"days"}},"request":{"method":"PUT","url":"Encounter/0b0a8508-9334-4cf2-a46a-800d3cfae2b5"}},{"fullUrl":"Procedure/74e3f88c-6e5b-48f9-8236-b55fcb3fa9eb","resource":{"resourceType":"Procedure","id":"74e3f88c-6e5b-48f9-8236-b55fcb3fa9eb","meta":{"profile":["http://hl7.org/fhir/us/qicore/StructureDefinition/qicore-procedure"]},"extension":[{"url":"http://hl7.org/fhir/us/qicore/StructureDefinition/qicore-recorded","valueDateTime":"2026-02-01T12:00:00.000+00:00"}],"status":"completed","code":{"coding":[{"system":"http://www.ama-assn.org/go/cpt","version":"2024","code":"33536"}]},"subject":{"reference":"Patient/4a3086cd-63f3-41c3-8ce9-f75b4b18b85c"},"performedPeriod":{"start":"2026-02-01T12:00:00.000+00:00","end":"2026-02-01T12:00:00.000+00:00"}},"request":{"method":"PUT","url":"Procedure/74e3f88c-6e5b-48f9-8236-b55fcb3fa9eb"}},{"fullUrl":"MeasureReport/a49d4e5f-6ad8-4e73-a2ee-95f49cdfaa50","resource":{"resourceType":"MeasureReport","id":"a49d4e5f-6ad8-4e73-a2ee-95f49cdfaa50","meta":{"profile":["http://hl7.org/fhir/us/cqfmeasures/StructureDefinition/test-case-cqfm"]},"contained":[{"resourceType":"Parameters","id":"e1497e9e-ce90-4862-b864-45e3086f86c7-parameters","parameter":[{"name":"subject","valueString":"4a3086cd-63f3-41c3-8ce9-f75b4b18b85c"}]}],"extension":[{"url":"http://hl7.org/fhir/StructureDefinition/cqf-inputParameters","valueReference":{"reference":"#e1497e9e-ce90-4862-b864-45e3086f86c7-parameters"}},{"url":"http://hl7.org/fhir/us/cqfmeasures/StructureDefinition/cqfm-testCaseDescription","valueMarkdown":"Pt > 18, 2 visits in MP, LVSD onset in MP b4 1st visit, CAD after last visit, Cardiac Pacer in Situ after last visit, Beta Blocker not ordered at 2nd visit (patient declined) *CQL-Execution Issue 296*, and arterial grafting during 1st visit. "}],"modifierExtension":[{"url":"http://hl7.org/fhir/us/cqfmeasures/StructureDefinition/cqfm-isTestCase","valueBoolean":true}],"status":"complete","type":"individual","measure":"https://madie.cms.gov/Measure/CMS145FHIRCADBetaBlockerTherapyPriorMIorLVSD","period":{"start":"2026-01-01","end":"2026-12-31"},"group":[{"id":"Group_1","population":[{"id":"InitialPopulation_1","code":{"coding":[{"system":"http://terminology.hl7.org/CodeSystem/measure-population","code":"initial-population","display":"Initial Population"}]},"count":1},{"id":"Denominator_1","code":{"coding":[{"system":"http://terminology.hl7.org/CodeSystem/measure-population","code":"denominator","display":"Denominator"}]},"count":1},{"id":"Numerator_1","code":{"coding":[{"system":"http://terminology.hl7.org/CodeSystem/measure-population","code":"numerator","display":"Numerator"}]},"count":0},{"id":"DenominatorException_1","code":{"coding":[{"system":"http://terminology.hl7.org/CodeSystem/measure-population","code":"denominator-exception","display":"Denominator Exception"}]},"count":0}],"measureScore":{"value":1.0}},{"id":"Group_2","population":[{"id":"InitialPopulation_2","code":{"coding":[{"system":"http://terminology.hl7.org/CodeSystem/measure-population","code":"initial-population","display":"Initial Population"}]},"count":1},{"id":"Denominator_2","code":{"coding":[{"system":"http://terminology.hl7.org/CodeSystem/measure-population","code":"denominator","display":"Denominator"}]},"count":0},{"id":"Numerator_2","code":{"coding":[{"system":"http://terminology.hl7.org/CodeSystem/measure-population","code":"numerator","display":"Numerator"}]},"count":0},{"id":"DenominatorException_2","code":{"coding":[{"system":"http://terminology.hl7.org/CodeSystem/measure-population","code":"denominator-exception","display":"Denominator Exception"}]},"count":0}],"measureScore":{"value":1.0}}],"evaluatedResource":[{"reference":"Patient/4a3086cd-63f3-41c3-8ce9-f75b4b18b85c"},{"reference":"Encounter/0b0a8508-9334-4cf2-a46a-800d3cfae2b5"},{"reference":"Encounter/559b9d39-e2f7-4a0e-a8c9-c260a69cf0e2"},{"reference":"Condition/95c7acdd-94c9-4f20-8b20-60e1c6caa051"},{"reference":"Condition/cb9c88ff-7bb3-4d4e-a7ec-7b22f0db891e"},{"reference":"Condition/f8e55c60-909d-49e5-812f-1d4488c8f65a"},{"reference":"MedicationRequest/1b84067c-69ca-4310-92a9-5a27e851a203"},{"reference":"Practitioner/dac9381d-4451-4b7d-ad7f-e1ecdf17cb58"},{"reference":"Procedure/74e3f88c-6e5b-48f9-8236-b55fcb3fa9eb"}]},"request":{"method":"PUT","url":"MeasureReport/a49d4e5f-6ad8-4e73-a2ee-95f49cdfaa50"}},{"fullUrl":"Bundle/63467867896453164","resource":{"resourceType":"Bundle","id":"63467867896453164","type":"transaction","entry":[{"fullUrl":"https://madie.cms.gov/Patient/4a3086cd-63f3-41c3-8ce9-f75b4b18b85c","resource":{"resourceType":"Patient","id":"4a3086cd-63f3-41c3-8ce9-f75b4b18b85c","meta":{"profile":["http://hl7.org/fhir/us/qicore/StructureDefinition/qicore-patient"]},"extension":[{"url":"http://hl7.org/fhir/us/core/StructureDefinition/us-core-race","extension":[{"url":"ombCategory","valueCoding":{"system":"urn:oid:2.16.840.1.113883.6.238","code":"1002-5","display":"American Indian or Alaska Native"}},{"url":"text","valueString":"American Indian or Alaska Native"}]},{"url":"http://hl7.org/fhir/us/core/StructureDefinition/us-core-ethnicity","extension":[{"url":"ombCategory","valueCoding":{"system":"urn:oid:2.16.840.1.113883.6.238","code":"2186-5","display":"Not Hispanic or Latino"}},{"url":"text","valueString":"Not Hispanic or Latino"}]}],"identifier":[{"type":{"coding":[{"system":"http://terminology.hl7.org/CodeSystem/v2-0203","code":"MR"}]},"system":"https://bonnie-fhir.healthit.gov/","value":"2419678324968631646"}],"active":true,"name":[{"use":"usual","family":"DENEXCEPPop1Pass","given":["MedNotOrderedPatRsn"]}],"gender":"male","birthDate":"1968-12-14"},"request":{"method":"PUT","url":"Patient/4a3086cd-63f3-41c3-8ce9-f75b4b18b85c"}},{"fullUrl":"https://madie.cms.gov/Encounter/0b0a8508-9334-4cf2-a46a-800d3cfae2b5","resource":{"resourceType":"Encounter","id":"0b0a8508-9334-4cf2-a46a-800d3cfae2b5","meta":{"profile":["http://hl7.org/fhir/us/qicore/StructureDefinition/qicore-encounter"]},"status":"finished","class":{"system":"http://terminology.hl7.org/CodeSystem/v3-ActCode","code":"AMB","display":"ambulatory"},"type":[{"coding":[{"system":"http://www.ama-assn.org/go/cpt","version":"2024","code":"99202","display":"Office or other outpatient visit for the evaluation and management of a new patient, which requires a medically appropriate history and/or examination and straightforward medical decision making. When using time for code selection, 15-29 minutes of total time is spent on the date of the encounter."}]}],"subject":{"reference":"Patient/4a3086cd-63f3-41c3-8ce9-f75b4b18b85c"},"period":{"start":"2026-02-01T12:00:00.000+00:00","end":"2026-02-01T13:00:00.000+00:00"},"length":{"value":0,"unit":"days"}},"request":{"method":"PUT","url":"Encounter/0b0a8508-9334-4cf2-a46a-800d3cfae2b5"}},{"fullUrl":"https://madie.cms.gov/Encounter/559b9d39-e2f7-4a0e-a8c9-c260a69cf0e2","resource":{"resourceType":"Encounter","id":"559b9d39-e2f7-4a0e-a8c9-c260a69cf0e2","meta":{"profile":["http://hl7.org/fhir/us/qicore/StructureDefinition/qicore-encounter"]},"status":"finished","class":{"system":"http://terminology.hl7.org/CodeSystem/v3-ActCode","code":"AMB","display":"ambulatory"},"type":[{"coding":[{"system":"http://www.ama-assn.org/go/cpt","version":"2024","code":"99212","display":"Office or other outpatient visit for the evaluation and management of an established patient, which requires a medically appropriate history and/or examination and straightforward medical decision making. When using time for code selection, 10-19 minutes of total time is spent on the date of the encounter."}]}],"subject":{"reference":"Patient/4a3086cd-63f3-41c3-8ce9-f75b4b18b85c"},"period":{"start":"2026-10-15T12:15:00.000+00:00","end":"2026-10-15T13:15:00.000+00:00"},"length":{"value":0,"unit":"days"}},"request":{"method":"PUT","url":"Encounter/559b9d39-e2f7-4a0e-a8c9-c260a69cf0e2"}},{"fullUrl":"https://madie.cms.gov/Condition/95c7acdd-94c9-4f20-8b20-60e1c6caa051","resource":{"resourceType":"Condition","id":"95c7acdd-94c9-4f20-8b20-60e1c6caa051","meta":{"profile":["http://hl7.org/fhir/us/qicore/StructureDefinition/qicore-condition-problems-health-concerns"]},"clinicalStatus":{"coding":[{"system":"http://terminology.hl7.org/CodeSystem/condition-clinical","code":"active","display":"Active"}]},"verificationStatus":{"coding":[{"system":"http://terminology.hl7.org/CodeSystem/condition-ver-status","code":"confirmed","display":"Confirmed"}]},"category":[{"coding":[{"system":"http://terminology.hl7.org/CodeSystem/condition-category","code":"problem-list-item","display":"Problem List Item"}]}],"severity":{"coding":[{"system":"http://snomed.info/sct","version":"http://snomed.info/sct/731000124108/version/20240301","code":"24484000","display":"Severe (severity modifier) (qualifier value)"}]},"code":{"coding":[{"system":"http://snomed.info/sct","version":"http://snomed.info/sct/731000124108/version/20240301","code":"134401001"}]},"subject":{"reference":"Patient/4a3086cd-63f3-41c3-8ce9-f75b4b18b85c"},"onsetPeriod":{"start":"2026-01-31T12:00:00.000+00:00"}},"request":{"method":"PUT","url":"Condition/95c7acdd-94c9-4f20-8b20-60e1c6caa051"}},{"fullUrl":"https://madie.cms.gov/Condition/cb9c88ff-7bb3-4d4e-a7ec-7b22f0db891e","resource":{"resourceType":"Condition","id":"cb9c88ff-7bb3-4d4e-a7ec-7b22f0db891e","meta":{"profile":["http://hl7.org/fhir/us/qicore/StructureDefinition/qicore-condition-problems-health-concerns"]},"clinicalStatus":{"coding":[{"system":"http://terminology.hl7.org/CodeSystem/condition-clinical","code":"active","display":"Active"}]},"verificationStatus":{"coding":[{"system":"http://terminology.hl7.org/CodeSystem/condition-ver-status","code":"confirmed","display":"Confirmed"}]},"category":[{"coding":[{"system":"http://terminology.hl7.org/CodeSystem/condition-category","code":"problem-list-item","display":"Problem List Item"}]}],"code":{"coding":[{"system":"http://snomed.info/sct","version":"http://snomed.info/sct/731000124108/version/20240301","code":"10365005","display":"Right main coronary artery thrombosis (disorder)"}]},"subject":{"reference":"Patient/4a3086cd-63f3-41c3-8ce9-f75b4b18b85c"},"onsetPeriod":{"start":"2026-10-16T00:00:00.000+00:00"}},"request":{"method":"PUT","url":"Condition/cb9c88ff-7bb3-4d4e-a7ec-7b22f0db891e"}},{"fullUrl":"https://madie.cms.gov/Condition/f8e55c60-909d-49e5-812f-1d4488c8f65a","resource":{"resourceType":"Condition","id":"f8e55c60-909d-49e5-812f-1d4488c8f65a","meta":{"profile":["http://hl7.org/fhir/us/qicore/StructureDefinition/qicore-condition-problems-health-concerns"]},"clinicalStatus":{"coding":[{"system":"http://terminology.hl7.org/CodeSystem/condition-clinical","code":"active","display":"Active"}]},"category":[{"coding":[{"system":"http://terminology.hl7.org/CodeSystem/condition-category","code":"problem-list-item","display":"Problem List Item"}]}],"code":{"coding":[{"system":"http://snomed.info/sct","version":"http://snomed.info/sct/731000124108/version/20240301","code":"441509002","display":"Cardiac pacemaker in situ"}]},"subject":{"reference":"Patient/4a3086cd-63f3-41c3-8ce9-f75b4b18b85c"},"onsetPeriod":{"start":"2026-10-16T00:00:00.000+00:00"}},"request":{"method":"PUT","url":"Condition/f8e55c60-909d-49e5-812f-1d4488c8f65a"}},{"fullUrl":"https://madie.cms.gov/MedicationRequest/1b84067c-69ca-4310-92a9-5a27e851a203","resource":{"resourceType":"MedicationRequest","id":"1b84067c-69ca-4310-92a9-5a27e851a203","meta":{"profile":["http://hl7.org/fhir/us/qicore/StructureDefinition/qicore-mednotrequested"]},"status":"completed","intent":"order","doNotPerform":true,"medicationCodeableConcept":{"extension":[{"url":"http://hl7.org/fhir/us/qicore/StructureDefinition/qicore-notDoneValueSet","valueCanonical":"http://cts.nlm.nih.gov/fhir/ValueSet/2.16.840.1.113883.3.526.3.1184"}],"text":"Not Done Value Set: Beta Blocker Therapy for LVSD"},"subject":{"reference":"Patient/4a3086cd-63f3-41c3-8ce9-f75b4b18b85c"},"authoredOn":"2026-10-15T12:15:00.000+00:00","requester":{"reference":"Practitioner/dac9381d-4451-4b7d-ad7f-e1ecdf17cb58"},"reasonCode":[{"coding":[{"system":"http://snomed.info/sct","version":"http://snomed.info/sct/731000124108/version/20230301","code":"406149000","display":"Medication declined (situation)"}]}]},"request":{"method":"PUT","url":"MedicationRequest/1b84067c-69ca-4310-92a9-5a27e851a203"}},{"fullUrl":"https://madie.cms.gov/Practitioner/dac9381d-4451-4b7d-ad7f-e1ecdf17cb58","resource":{"resourceType":"Practitioner","id":"dac9381d-4451-4b7d-ad7f-e1ecdf17cb58","meta":{"profile":["http://hl7.org/fhir/us/qicore/StructureDefinition/qicore-practitioner"]},"identifier":[{"use":"temp","system":"urn:oid:2.16.840.1.113883.4.336","value":"Practitioner-45"}],"active":true,"name":[{"family":"Strangelove","given":["Adam"],"prefix":["Dr"]}],"qualification":[{"identifier":[{"system":"http://example.org/UniversityIdentifier","value":"12345"}],"code":{"coding":[{"system":"http://terminology.hl7.org/CodeSystem/v2-0360|2.7","code":"BS","display":"Bachelor of Science"}],"text":"Bachelor of Science"},"period":{"start":"1996"},"issuer":{"display":"Example University"}}]},"request":{"method":"PUT","url":"Practitioner/dac9381d-4451-4b7d-ad7f-e1ecdf17cb58"}},{"fullUrl":"https://madie.cms.gov/Procedure/74e3f88c-6e5b-48f9-8236-b55fcb3fa9eb","resource":{"resourceType":"Procedure","id":"74e3f88c-6e5b-48f9-8236-b55fcb3fa9eb","meta":{"profile":["http://hl7.org/fhir/us/qicore/StructureDefinition/qicore-procedure"]},"extension":[{"url":"http://hl7.org/fhir/us/qicore/StructureDefinition/qicore-recorded","valueDateTime":"2026-02-01T12:00:00.000+00:00"}],"status":"completed","code":{"coding":[{"system":"http://www.ama-assn.org/go/cpt","version":"2024","code":"33536"}]},"subject":{"reference":"Patient/4a3086cd-63f3-41c3-8ce9-f75b4b18b85c"},"performedPeriod":{"start":"2026-02-01T12:00:00.000+00:00","end":"2026-02-01T12:00:00.000+00:00"}},"request":{"method":"PUT","url":"Procedure/74e3f88c-6e5b-48f9-8236-b55fcb3fa9eb"}},{"fullUrl":"https://madie.cms.gov/MeasureReport/a49d4e5f-6ad8-4e73-a2ee-95f49cdfaa50","resource":{"resourceType":"MeasureReport","id":"a49d4e5f-6ad8-4e73-a2ee-95f49cdfaa50","meta":{"profile":["http://hl7.org/fhir/us/cqfmeasures/StructureDefinition/test-case-cqfm"]},"contained":[{"resourceType":"Parameters","id":"e1497e9e-ce90-4862-b864-45e3086f86c7-parameters","parameter":[{"name":"subject","valueString":"4a3086cd-63f3-41c3-8ce9-f75b4b18b85c"}]}],"extension":[{"url":"http://hl7.org/fhir/StructureDefinition/cqf-inputParameters","valueReference":{"reference":"#e1497e9e-ce90-4862-b864-45e3086f86c7-parameters"}},{"url":"http://hl7.org/fhir/us/cqfmeasures/StructureDefinition/cqfm-testCaseDescription","valueMarkdown":"Pt > 18, 2 visits in MP, LVSD onset in MP b4 1st visit, CAD after last visit, Cardiac Pacer in Situ after last visit, Beta Blocker not ordered at 2nd visit (patient declined) *CQL-Execution Issue 296*, and arterial grafting during 1st visit. "}],"modifierExtension":[{"url":"http://hl7.org/fhir/us/cqfmeasures/StructureDefinition/cqfm-isTestCase","valueBoolean":true}],"status":"complete","type":"individual","measure":"https://madie.cms.gov/Measure/CMS145FHIRCADBetaBlockerTherapyPriorMIorLVSD","period":{"start":"2026-01-01","end":"2026-12-31"},"group":[{"id":"Group_1","population":[{"id":"InitialPopulation_1","code":{"coding":[{"system":"http://terminology.hl7.org/CodeSystem/measure-population","code":"initial-population","display":"Initial Population"}]},"count":1},{"id":"Denominator_1","code":{"coding":[{"system":"http://terminology.hl7.org/CodeSystem/measure-population","code":"denominator","display":"Denominator"}]},"count":1},{"id":"Numerator_1","code":{"coding":[{"system":"http://terminology.hl7.org/CodeSystem/measure-population","code":"numerator","display":"Numerator"}]},"count":0},{"id":"DenominatorException_1","code":{"coding":[{"system":"http://terminology.hl7.org/CodeSystem/measure-population","code":"denominator-exception","display":"Denominator Exception"}]},"count":0}],"measureScore":{"value":1.0}},{"id":"Group_2","population":[{"id":"InitialPopulation_2","code":{"coding":[{"system":"http://terminology.hl7.org/CodeSystem/measure-population","code":"initial-population","display":"Initial Population"}]},"count":1},{"id":"Denominator_2","code":{"coding":[{"system":"http://terminology.hl7.org/CodeSystem/measure-population","code":"denominator","display":"Denominator"}]},"count":0},{"id":"Numerator_2","code":{"coding":[{"system":"http://terminology.hl7.org/CodeSystem/measure-population","code":"numerator","display":"Numerator"}]},"count":0},{"id":"DenominatorException_2","code":{"coding":[{"system":"http://terminology.hl7.org/CodeSystem/measure-population","code":"denominator-exception","display":"Denominator Exception"}]},"count":0}],"measureScore":{"value":1.0}}],"evaluatedResource":[{"reference":"Patient/4a3086cd-63f3-41c3-8ce9-f75b4b18b85c"},{"reference":"Encounter/0b0a8508-9334-4cf2-a46a-800d3cfae2b5"},{"reference":"Encounter/559b9d39-e2f7-4a0e-a8c9-c260a69cf0e2"},{"reference":"Condition/95c7acdd-94c9-4f20-8b20-60e1c6caa051"},{"reference":"Condition/cb9c88ff-7bb3-4d4e-a7ec-7b22f0db891e"},{"reference":"Condition/f8e55c60-909d-49e5-812f-1d4488c8f65a"},{"reference":"MedicationRequest/1b84067c-69ca-4310-92a9-5a27e851a203"},{"reference":"Practitioner/dac9381d-4451-4b7d-ad7f-e1ecdf17cb58"},{"reference":"Procedure/74e3f88c-6e5b-48f9-8236-b55fcb3fa9eb"}]},"request":{"method":"PUT","url":"MeasureReport/a49d4e5f-6ad8-4e73-a2ee-95f49cdfaa50"}}]},"request":{"method":"PUT","url":"Bundle/63467867896453164"}},{"fullUrl":"Condition/95c7acdd-94c9-4f20-8b20-60e1c6caa051","resource":{"resourceType":"Condition","id":"95c7acdd-94c9-4f20-8b20-60e1c6caa051","meta":{"profile":["http://hl7.org/fhir/us/qicore/StructureDefinition/qicore-condition-problems-health-concerns"]},"clinicalStatus":{"coding":[{"system":"http://terminology.hl7.org/CodeSystem/condition-clinical","code":"active","display":"Active"}]},"verificationStatus":{"coding":[{"system":"http://terminology.hl7.org/CodeSystem/condition-ver-status","code":"confirmed","display":"Confirmed"}]},"category":[{"coding":[{"system":"http://terminology.hl7.org/CodeSystem/condition-category","code":"problem-list-item","display":"Problem List Item"}]}],"severity":{"coding":[{"system":"http://snomed.info/sct","version":"http://snomed.info/sct/731000124108/version/20240301","code":"24484000","display":"Severe (severity modifier) (qualifier value)"}]},"code":{"coding":[{"system":"http://snomed.info/sct","version":"http://snomed.info/sct/731000124108/version/20240301","code":"134401001"}]},"subject":{"reference":"Patient/4a3086cd-63f3-41c3-8ce9-f75b4b18b85c"},"onsetPeriod":{"start":"2026-01-31T12:00:00.000+00:00"}},"request":{"method":"PUT","url":"Condition/95c7acdd-94c9-4f20-8b20-60e1c6caa051"}}]}