{"resourceType":"Bundle","id":"tests-7fb4cb03-569b-4c0a-8898-abe49d609c0e-bundle","type":"transaction","entry":[{"fullUrl":"MeasureReport/f6083131-8473-4454-89ad-1dec749c4b95","resource":{"resourceType":"MeasureReport","id":"f6083131-8473-4454-89ad-1dec749c4b95","meta":{"profile":["http://hl7.org/fhir/us/cqfmeasures/StructureDefinition/test-case-cqfm"]},"contained":[{"resourceType":"Parameters","id":"7ca275b2-e9cc-427a-974a-abc275cd6849-parameters","parameter":[{"name":"subject","valueString":"7fb4cb03-569b-4c0a-8898-abe49d609c0e"}]}],"extension":[{"url":"http://hl7.org/fhir/StructureDefinition/cqf-inputParameters","valueReference":{"reference":"#7ca275b2-e9cc-427a-974a-abc275cd6849-parameters"}},{"url":"http://hl7.org/fhir/us/cqfmeasures/StructureDefinition/cqfm-testCaseDescription","valueMarkdown":"Pt > 18, 2 visits in MP, Asthma overlaps b4 1st visit (starts b4 but ends after 1st visit), CAD and MI (both with onset during 1st visit)"}],"modifierExtension":[{"url":"http://hl7.org/fhir/us/cqfmeasures/StructureDefinition/cqfm-isTestCase","valueBoolean":true}],"status":"complete","type":"individual","measure":"https://madie.cms.gov/Measure/CMS145FHIRCADBetaBlockerTherapyPriorMIorLVSD","period":{"start":"2026-01-01","end":"2026-12-31"},"group":[{"id":"Group_1","population":[{"id":"InitialPopulation_1","code":{"coding":[{"system":"http://terminology.hl7.org/CodeSystem/measure-population","code":"initial-population","display":"Initial Population"}]},"count":1},{"id":"Denominator_1","code":{"coding":[{"system":"http://terminology.hl7.org/CodeSystem/measure-population","code":"denominator","display":"Denominator"}]},"count":0},{"id":"Numerator_1","code":{"coding":[{"system":"http://terminology.hl7.org/CodeSystem/measure-population","code":"numerator","display":"Numerator"}]},"count":0},{"id":"DenominatorException_1","code":{"coding":[{"system":"http://terminology.hl7.org/CodeSystem/measure-population","code":"denominator-exception","display":"Denominator Exception"}]},"count":0}],"measureScore":{"value":1.0}},{"id":"Group_2","population":[{"id":"InitialPopulation_2","code":{"coding":[{"system":"http://terminology.hl7.org/CodeSystem/measure-population","code":"initial-population","display":"Initial Population"}]},"count":1},{"id":"Denominator_2","code":{"coding":[{"system":"http://terminology.hl7.org/CodeSystem/measure-population","code":"denominator","display":"Denominator"}]},"count":1},{"id":"Numerator_2","code":{"coding":[{"system":"http://terminology.hl7.org/CodeSystem/measure-population","code":"numerator","display":"Numerator"}]},"count":0},{"id":"DenominatorException_2","code":{"coding":[{"system":"http://terminology.hl7.org/CodeSystem/measure-population","code":"denominator-exception","display":"Denominator Exception"}]},"count":0}],"measureScore":{"value":1.0}}],"evaluatedResource":[{"reference":"Patient/7fb4cb03-569b-4c0a-8898-abe49d609c0e"},{"reference":"Encounter/6defe8c2-40e2-4218-905c-36cf4aaadd41"},{"reference":"Encounter/50ea9194-2be8-4dc8-a252-ba68754c9b66"},{"reference":"Condition/2d92865b-e4da-4635-b205-5ebc4b1e7afb"},{"reference":"Condition/2c17ac9c-4d62-49a3-8813-7cf5a23f058c"},{"reference":"Condition/06bfea21-310d-464c-b115-3c717efb03a6"}]},"request":{"method":"PUT","url":"MeasureReport/f6083131-8473-4454-89ad-1dec749c4b95"}},{"fullUrl":"Encounter/50ea9194-2be8-4dc8-a252-ba68754c9b66","resource":{"resourceType":"Encounter","id":"50ea9194-2be8-4dc8-a252-ba68754c9b66","meta":{"profile":["http://hl7.org/fhir/us/qicore/StructureDefinition/qicore-encounter"]},"status":"finished","class":{"system":"http://terminology.hl7.org/CodeSystem/v3-ActCode","code":"AMB","display":"ambulatory encounter"},"type":[{"coding":[{"system":"http://www.ama-assn.org/go/cpt","version":"2024","code":"99205"}]}],"subject":{"reference":"Patient/7fb4cb03-569b-4c0a-8898-abe49d609c0e"},"period":{"start":"2026-08-23T06:00:00.000+00:00","end":"2026-08-23T07:00:00.000+00:00"}},"request":{"method":"PUT","url":"Encounter/50ea9194-2be8-4dc8-a252-ba68754c9b66"}},{"fullUrl":"Condition/2c17ac9c-4d62-49a3-8813-7cf5a23f058c","resource":{"resourceType":"Condition","id":"2c17ac9c-4d62-49a3-8813-7cf5a23f058c","meta":{"profile":["http://hl7.org/fhir/us/qicore/StructureDefinition/qicore-condition-problems-health-concerns"]},"clinicalStatus":{"coding":[{"system":"http://terminology.hl7.org/CodeSystem/condition-clinical","code":"active","display":"Active"}]},"verificationStatus":{"coding":[{"system":"http://terminology.hl7.org/CodeSystem/condition-ver-status","code":"confirmed","display":"Confirmed"}]},"category":[{"coding":[{"system":"http://terminology.hl7.org/CodeSystem/condition-category","code":"problem-list-item","display":"Problem List Item"}]}],"code":{"coding":[{"system":"http://hl7.org/fhir/sid/icd-10-cm","version":"2024","code":"I21.09"}]},"subject":{"reference":"Patient/7fb4cb03-569b-4c0a-8898-abe49d609c0e"},"onsetPeriod":{"start":"2026-03-04T19:00:00.000+00:00","end":"2026-03-04T19:15:00.000+00:00"}},"request":{"method":"PUT","url":"Condition/2c17ac9c-4d62-49a3-8813-7cf5a23f058c"}},{"fullUrl":"Encounter/6defe8c2-40e2-4218-905c-36cf4aaadd41","resource":{"resourceType":"Encounter","id":"6defe8c2-40e2-4218-905c-36cf4aaadd41","meta":{"profile":["http://hl7.org/fhir/us/qicore/StructureDefinition/qicore-encounter"]},"status":"finished","class":{"system":"http://terminology.hl7.org/CodeSystem/v3-ActCode","code":"AMB","display":"ambulatory encounter"},"type":[{"coding":[{"system":"http://www.ama-assn.org/go/cpt","version":"2024","code":"99205"}]}],"subject":{"reference":"Patient/7fb4cb03-569b-4c0a-8898-abe49d609c0e"},"period":{"start":"2026-03-04T19:00:00.000+00:00","end":"2026-03-04T20:00:00.000+00:00"}},"request":{"method":"PUT","url":"Encounter/6defe8c2-40e2-4218-905c-36cf4aaadd41"}},{"fullUrl":"Condition/06bfea21-310d-464c-b115-3c717efb03a6","resource":{"resourceType":"Condition","id":"06bfea21-310d-464c-b115-3c717efb03a6","meta":{"profile":["http://hl7.org/fhir/us/qicore/StructureDefinition/qicore-condition-problems-health-concerns"]},"clinicalStatus":{"coding":[{"system":"http://terminology.hl7.org/CodeSystem/condition-clinical","code":"active","display":"Active"}]},"verificationStatus":{"coding":[{"system":"http://terminology.hl7.org/CodeSystem/condition-ver-status","code":"confirmed","display":"Confirmed"}]},"category":[{"coding":[{"system":"http://terminology.hl7.org/CodeSystem/condition-category","code":"problem-list-item","display":"Problem List Item"}]}],"code":{"coding":[{"system":"http://snomed.info/sct","version":"http://snomed.info/sct/731000124108/version/20240301","code":"10365005","display":"Right main coronary artery thrombosis (disorder)"}]},"subject":{"reference":"Patient/7fb4cb03-569b-4c0a-8898-abe49d609c0e"},"onsetPeriod":{"start":"2026-03-04T19:00:00.000+00:00"}},"request":{"method":"PUT","url":"Condition/06bfea21-310d-464c-b115-3c717efb03a6"}},{"fullUrl":"Bundle/1654148651644984613521649","resource":{"resourceType":"Bundle","id":"1654148651644984613521649","type":"transaction","entry":[{"fullUrl":"https://madie.cms.gov/Patient/7fb4cb03-569b-4c0a-8898-abe49d609c0e","resource":{"resourceType":"Patient","id":"7fb4cb03-569b-4c0a-8898-abe49d609c0e","meta":{"profile":["http://hl7.org/fhir/us/qicore/StructureDefinition/qicore-patient"]},"extension":[{"url":"http://hl7.org/fhir/us/core/StructureDefinition/us-core-race","extension":[{"url":"ombCategory","valueCoding":{"system":"urn:oid:2.16.840.1.113883.6.238","code":"2106-3","display":"White"}},{"url":"text","valueString":"White"}]},{"url":"http://hl7.org/fhir/us/core/StructureDefinition/us-core-ethnicity","extension":[{"url":"ombCategory","valueCoding":{"system":"urn:oid:2.16.840.1.113883.6.238","code":"2186-5","display":"Not Hispanic or Latino"}},{"url":"text","valueString":"Not Hispanic or Latino"}]}],"identifier":[{"type":{"coding":[{"system":"http://terminology.hl7.org/CodeSystem/v2-0203","code":"MR"}]},"system":"https://bonnie-fhir.healthit.gov/","value":"6067458898086b57ea5aa574"}],"active":true,"name":[{"use":"usual","family":"DENEXCEPPop2Fail","given":["AsthmaEBSofLastEnc"]}],"gender":"male","birthDate":"1929-05-07"},"request":{"method":"PUT","url":"Patient/7fb4cb03-569b-4c0a-8898-abe49d609c0e"}},{"fullUrl":"https://madie.cms.gov/Encounter/6defe8c2-40e2-4218-905c-36cf4aaadd41","resource":{"resourceType":"Encounter","id":"6defe8c2-40e2-4218-905c-36cf4aaadd41","meta":{"profile":["http://hl7.org/fhir/us/qicore/StructureDefinition/qicore-encounter"]},"status":"finished","class":{"system":"http://terminology.hl7.org/CodeSystem/v3-ActCode","code":"AMB","display":"ambulatory encounter"},"type":[{"coding":[{"system":"http://www.ama-assn.org/go/cpt","version":"2024","code":"99205"}]}],"subject":{"reference":"Patient/7fb4cb03-569b-4c0a-8898-abe49d609c0e"},"period":{"start":"2026-03-04T19:00:00.000+00:00","end":"2026-03-04T20:00:00.000+00:00"}},"request":{"method":"PUT","url":"Encounter/6defe8c2-40e2-4218-905c-36cf4aaadd41"}},{"fullUrl":"https://madie.cms.gov/Encounter/50ea9194-2be8-4dc8-a252-ba68754c9b66","resource":{"resourceType":"Encounter","id":"50ea9194-2be8-4dc8-a252-ba68754c9b66","meta":{"profile":["http://hl7.org/fhir/us/qicore/StructureDefinition/qicore-encounter"]},"status":"finished","class":{"system":"http://terminology.hl7.org/CodeSystem/v3-ActCode","code":"AMB","display":"ambulatory encounter"},"type":[{"coding":[{"system":"http://www.ama-assn.org/go/cpt","version":"2024","code":"99205"}]}],"subject":{"reference":"Patient/7fb4cb03-569b-4c0a-8898-abe49d609c0e"},"period":{"start":"2026-08-23T06:00:00.000+00:00","end":"2026-08-23T07:00:00.000+00:00"}},"request":{"method":"PUT","url":"Encounter/50ea9194-2be8-4dc8-a252-ba68754c9b66"}},{"fullUrl":"https://madie.cms.gov/Condition/2d92865b-e4da-4635-b205-5ebc4b1e7afb","resource":{"resourceType":"Condition","id":"2d92865b-e4da-4635-b205-5ebc4b1e7afb","meta":{"profile":["http://hl7.org/fhir/us/qicore/StructureDefinition/qicore-condition-problems-health-concerns"]},"clinicalStatus":{"coding":[{"system":"http://terminology.hl7.org/CodeSystem/condition-clinical","code":"inactive","display":"Inactive"}]},"verificationStatus":{"coding":[{"system":"http://terminology.hl7.org/CodeSystem/condition-ver-status","code":"confirmed","display":"Confirmed"}]},"category":[{"coding":[{"system":"http://terminology.hl7.org/CodeSystem/condition-category","code":"problem-list-item","display":"Problem List Item"}]}],"code":{"coding":[{"system":"http://hl7.org/fhir/sid/icd-10-cm","version":"2024","code":"J45.20"}]},"subject":{"reference":"Patient/7fb4cb03-569b-4c0a-8898-abe49d609c0e"},"onsetPeriod":{"start":"2013-03-04T19:00:00.000+00:00","end":"2013-03-04T20:00:00.000+00:00"},"abatementPeriod":{"end":"2025-03-04T20:00:00.000+00:00"}},"request":{"method":"PUT","url":"Condition/2d92865b-e4da-4635-b205-5ebc4b1e7afb"}},{"fullUrl":"https://madie.cms.gov/Condition/2c17ac9c-4d62-49a3-8813-7cf5a23f058c","resource":{"resourceType":"Condition","id":"2c17ac9c-4d62-49a3-8813-7cf5a23f058c","meta":{"profile":["http://hl7.org/fhir/us/qicore/StructureDefinition/qicore-condition-problems-health-concerns"]},"clinicalStatus":{"coding":[{"system":"http://terminology.hl7.org/CodeSystem/condition-clinical","code":"active","display":"Active"}]},"verificationStatus":{"coding":[{"system":"http://terminology.hl7.org/CodeSystem/condition-ver-status","code":"confirmed","display":"Confirmed"}]},"category":[{"coding":[{"system":"http://terminology.hl7.org/CodeSystem/condition-category","code":"problem-list-item","display":"Problem List Item"}]}],"code":{"coding":[{"system":"http://hl7.org/fhir/sid/icd-10-cm","version":"2024","code":"I21.09"}]},"subject":{"reference":"Patient/7fb4cb03-569b-4c0a-8898-abe49d609c0e"},"onsetPeriod":{"start":"2026-03-04T19:00:00.000+00:00","end":"2026-03-04T19:15:00.000+00:00"}},"request":{"method":"PUT","url":"Condition/2c17ac9c-4d62-49a3-8813-7cf5a23f058c"}},{"fullUrl":"https://madie.cms.gov/Condition/06bfea21-310d-464c-b115-3c717efb03a6","resource":{"resourceType":"Condition","id":"06bfea21-310d-464c-b115-3c717efb03a6","meta":{"profile":["http://hl7.org/fhir/us/qicore/StructureDefinition/qicore-condition-problems-health-concerns"]},"clinicalStatus":{"coding":[{"system":"http://terminology.hl7.org/CodeSystem/condition-clinical","code":"active","display":"Active"}]},"verificationStatus":{"coding":[{"system":"http://terminology.hl7.org/CodeSystem/condition-ver-status","code":"confirmed","display":"Confirmed"}]},"category":[{"coding":[{"system":"http://terminology.hl7.org/CodeSystem/condition-category","code":"problem-list-item","display":"Problem List Item"}]}],"code":{"coding":[{"system":"http://snomed.info/sct","version":"http://snomed.info/sct/731000124108/version/20240301","code":"10365005","display":"Right main coronary artery thrombosis (disorder)"}]},"subject":{"reference":"Patient/7fb4cb03-569b-4c0a-8898-abe49d609c0e"},"onsetPeriod":{"start":"2026-03-04T19:00:00.000+00:00"}},"request":{"method":"PUT","url":"Condition/06bfea21-310d-464c-b115-3c717efb03a6"}},{"fullUrl":"https://madie.cms.gov/MeasureReport/f6083131-8473-4454-89ad-1dec749c4b95","resource":{"resourceType":"MeasureReport","id":"f6083131-8473-4454-89ad-1dec749c4b95","meta":{"profile":["http://hl7.org/fhir/us/cqfmeasures/StructureDefinition/test-case-cqfm"]},"contained":[{"resourceType":"Parameters","id":"7ca275b2-e9cc-427a-974a-abc275cd6849-parameters","parameter":[{"name":"subject","valueString":"7fb4cb03-569b-4c0a-8898-abe49d609c0e"}]}],"extension":[{"url":"http://hl7.org/fhir/StructureDefinition/cqf-inputParameters","valueReference":{"reference":"#7ca275b2-e9cc-427a-974a-abc275cd6849-parameters"}},{"url":"http://hl7.org/fhir/us/cqfmeasures/StructureDefinition/cqfm-testCaseDescription","valueMarkdown":"Pt > 18, 2 visits in MP, Asthma overlaps b4 1st visit (starts b4 but ends after 1st visit), CAD and MI (both with onset during 1st visit)"}],"modifierExtension":[{"url":"http://hl7.org/fhir/us/cqfmeasures/StructureDefinition/cqfm-isTestCase","valueBoolean":true}],"status":"complete","type":"individual","measure":"https://madie.cms.gov/Measure/CMS145FHIRCADBetaBlockerTherapyPriorMIorLVSD","period":{"start":"2026-01-01","end":"2026-12-31"},"group":[{"id":"Group_1","population":[{"id":"InitialPopulation_1","code":{"coding":[{"system":"http://terminology.hl7.org/CodeSystem/measure-population","code":"initial-population","display":"Initial Population"}]},"count":1},{"id":"Denominator_1","code":{"coding":[{"system":"http://terminology.hl7.org/CodeSystem/measure-population","code":"denominator","display":"Denominator"}]},"count":0},{"id":"Numerator_1","code":{"coding":[{"system":"http://terminology.hl7.org/CodeSystem/measure-population","code":"numerator","display":"Numerator"}]},"count":0},{"id":"DenominatorException_1","code":{"coding":[{"system":"http://terminology.hl7.org/CodeSystem/measure-population","code":"denominator-exception","display":"Denominator Exception"}]},"count":0}],"measureScore":{"value":1.0}},{"id":"Group_2","population":[{"id":"InitialPopulation_2","code":{"coding":[{"system":"http://terminology.hl7.org/CodeSystem/measure-population","code":"initial-population","display":"Initial Population"}]},"count":1},{"id":"Denominator_2","code":{"coding":[{"system":"http://terminology.hl7.org/CodeSystem/measure-population","code":"denominator","display":"Denominator"}]},"count":1},{"id":"Numerator_2","code":{"coding":[{"system":"http://terminology.hl7.org/CodeSystem/measure-population","code":"numerator","display":"Numerator"}]},"count":0},{"id":"DenominatorException_2","code":{"coding":[{"system":"http://terminology.hl7.org/CodeSystem/measure-population","code":"denominator-exception","display":"Denominator Exception"}]},"count":0}],"measureScore":{"value":1.0}}],"evaluatedResource":[{"reference":"Patient/7fb4cb03-569b-4c0a-8898-abe49d609c0e"},{"reference":"Encounter/6defe8c2-40e2-4218-905c-36cf4aaadd41"},{"reference":"Encounter/50ea9194-2be8-4dc8-a252-ba68754c9b66"},{"reference":"Condition/2d92865b-e4da-4635-b205-5ebc4b1e7afb"},{"reference":"Condition/2c17ac9c-4d62-49a3-8813-7cf5a23f058c"},{"reference":"Condition/06bfea21-310d-464c-b115-3c717efb03a6"}]},"request":{"method":"PUT","url":"MeasureReport/f6083131-8473-4454-89ad-1dec749c4b95"}}]},"request":{"method":"PUT","url":"Bundle/1654148651644984613521649"}},{"fullUrl":"Condition/2d92865b-e4da-4635-b205-5ebc4b1e7afb","resource":{"resourceType":"Condition","id":"2d92865b-e4da-4635-b205-5ebc4b1e7afb","meta":{"profile":["http://hl7.org/fhir/us/qicore/StructureDefinition/qicore-condition-problems-health-concerns"]},"clinicalStatus":{"coding":[{"system":"http://terminology.hl7.org/CodeSystem/condition-clinical","code":"inactive","display":"Inactive"}]},"verificationStatus":{"coding":[{"system":"http://terminology.hl7.org/CodeSystem/condition-ver-status","code":"confirmed","display":"Confirmed"}]},"category":[{"coding":[{"system":"http://terminology.hl7.org/CodeSystem/condition-category","code":"problem-list-item","display":"Problem List Item"}]}],"code":{"coding":[{"system":"http://hl7.org/fhir/sid/icd-10-cm","version":"2024","code":"J45.20"}]},"subject":{"reference":"Patient/7fb4cb03-569b-4c0a-8898-abe49d609c0e"},"onsetPeriod":{"start":"2013-03-04T19:00:00.000+00:00","end":"2013-03-04T20:00:00.000+00:00"},"abatementPeriod":{"end":"2025-03-04T20:00:00.000+00:00"}},"request":{"method":"PUT","url":"Condition/2d92865b-e4da-4635-b205-5ebc4b1e7afb"}},{"fullUrl":"Patient/7fb4cb03-569b-4c0a-8898-abe49d609c0e","resource":{"resourceType":"Patient","id":"7fb4cb03-569b-4c0a-8898-abe49d609c0e","meta":{"profile":["http://hl7.org/fhir/us/qicore/StructureDefinition/qicore-patient"]},"extension":[{"url":"http://hl7.org/fhir/us/core/StructureDefinition/us-core-race","extension":[{"url":"ombCategory","valueCoding":{"system":"urn:oid:2.16.840.1.113883.6.238","code":"2106-3","display":"White"}},{"url":"text","valueString":"White"}]},{"url":"http://hl7.org/fhir/us/core/StructureDefinition/us-core-ethnicity","extension":[{"url":"ombCategory","valueCoding":{"system":"urn:oid:2.16.840.1.113883.6.238","code":"2186-5","display":"Not Hispanic or Latino"}},{"url":"text","valueString":"Not Hispanic or Latino"}]}],"identifier":[{"type":{"coding":[{"system":"http://terminology.hl7.org/CodeSystem/v2-0203","code":"MR"}]},"system":"https://bonnie-fhir.healthit.gov/","value":"6067458898086b57ea5aa574"}],"active":true,"name":[{"use":"usual","family":"DENEXCEPPop2Fail","given":["AsthmaEBSofLastEnc"]}],"gender":"male","birthDate":"1929-05-07"},"request":{"method":"PUT","url":"Patient/7fb4cb03-569b-4c0a-8898-abe49d609c0e"}}]}