{
  "resourceType": "Bundle",
  "id": "tests-NUMERFail-LabTest2GT80-bundle",
  "type": "transaction",
  "entry": [ {
    "fullUrl": "https://madie.cms.gov/Encounter/cd3f83d5-13ee-429b-aea9-e6af7c95c3b3",
    "resource": {
      "resourceType": "Encounter",
      "id": "cd3f83d5-13ee-429b-aea9-e6af7c95c3b3",
      "meta": {
        "profile": [ "http://hl7.org/fhir/us/qicore/StructureDefinition/qicore-encounter" ]
      },
      "status": "finished",
      "class": {
        "system": "http://terminology.hl7.org/CodeSystem/v3-ActCode",
        "code": "IMP",
        "display": "Inpatient encounter"
      },
      "type": [ {
        "coding": [ {
          "system": "http://snomed.info/sct",
          "code": "183452005",
          "display": "Inpatient encounter"
        } ]
      } ],
      "period": {
        "start": "2026-07-11T08:00:00Z",
        "end": "2026-07-11T21:00:00Z"
      }
    },
    "request": {
      "method": "PUT",
      "url": "Encounter/cd3f83d5-13ee-429b-aea9-e6af7c95c3b3"
    }
  }, {
    "fullUrl": "https://madie.cms.gov/MedicationAdministration/3d4781a5-b9ff-451a-8d0c-9013e76e239a",
    "resource": {
      "resourceType": "MedicationAdministration",
      "id": "3d4781a5-b9ff-451a-8d0c-9013e76e239a",
      "meta": {
        "profile": [ "http://hl7.org/fhir/us/qicore/StructureDefinition/qicore-medicationadministration" ]
      },
      "status": "completed",
      "medicationCodeableConcept": {
        "coding": [ {
          "system": "http://www.nlm.nih.gov/research/umls/rxnorm",
          "code": "1652639",
          "display": "Hypoglycemics Severe Hypoglycemia"
        } ]
      },
      "subject": {
        "reference": "Patient/304052f7-e416-4da4-87ae-488e6589cab3"
      },
      "effectivePeriod": {
        "start": "2026-07-11T08:00:00Z",
        "end": "2026-07-11T09:00:00Z"
      }
    },
    "request": {
      "method": "PUT",
      "url": "MedicationAdministration/3d4781a5-b9ff-451a-8d0c-9013e76e239a"
    }
  }, {
    "fullUrl": "https://madie.cms.gov/Observation/4a2bb764-d0d1-4910-8927-4ec9babaa13d",
    "resource": {
      "resourceType": "Observation",
      "id": "4a2bb764-d0d1-4910-8927-4ec9babaa13d",
      "meta": {
        "profile": [ "http://hl7.org/fhir/us/qicore/StructureDefinition/qicore-observation-lab" ]
      },
      "status": "final",
      "code": {
        "coding": [ {
          "system": "http://loinc.org",
          "code": "1556-0",
          "display": "Glucose Lab Test Mass Per Volume"
        } ]
      },
      "subject": {
        "reference": "Patient/304052f7-e416-4da4-87ae-488e6589cab3"
      },
      "effectivePeriod": {
        "start": "2026-07-11T08:00:00Z",
        "end": "2026-07-11T08:00:00Z"
      },
      "issued": "2026-07-11T08:00:00Z",
      "valueQuantity": {
        "value": 35,
        "unit": "mg/dL"
      }
    },
    "request": {
      "method": "PUT",
      "url": "Observation/4a2bb764-d0d1-4910-8927-4ec9babaa13d"
    }
  }, {
    "fullUrl": "https://madie.cms.gov/Observation/266a1620-da29-4083-95e7-da0ef5e8f445",
    "resource": {
      "resourceType": "Observation",
      "id": "266a1620-da29-4083-95e7-da0ef5e8f445",
      "meta": {
        "profile": [ "http://hl7.org/fhir/us/qicore/StructureDefinition/qicore-observation-lab" ]
      },
      "status": "final",
      "code": {
        "coding": [ {
          "system": "http://loinc.org",
          "code": "1556-0",
          "display": "Glucose Lab Test Mass Per Volume"
        } ]
      },
      "subject": {
        "reference": "Patient/304052f7-e416-4da4-87ae-488e6589cab3"
      },
      "effectivePeriod": {
        "start": "2026-07-11T08:05:00Z",
        "end": "2026-07-11T08:05:00Z"
      },
      "issued": "2026-07-11T08:05:00Z",
      "valueQuantity": {
        "value": 80.1,
        "unit": "mg/dL"
      }
    },
    "request": {
      "method": "PUT",
      "url": "Observation/266a1620-da29-4083-95e7-da0ef5e8f445"
    }
  }, {
    "fullUrl": "https://madie.cms.gov/Patient/304052f7-e416-4da4-87ae-488e6589cab3",
    "resource": {
      "resourceType": "Patient",
      "id": "304052f7-e416-4da4-87ae-488e6589cab3",
      "meta": {
        "profile": [ "http://hl7.org/fhir/us/qicore/StructureDefinition/qicore-patient" ]
      },
      "extension": [ {
        "url": "http://hl7.org/fhir/us/core/StructureDefinition/us-core-race",
        "extension": [ {
          "url": "ombCategory",
          "valueCoding": {
            "system": "urn:oid:2.16.840.1.113883.6.238",
            "code": "2106-3",
            "display": "White"
          }
        }, {
          "url": "text",
          "valueString": "White"
        } ]
      }, {
        "url": "http://hl7.org/fhir/us/core/StructureDefinition/us-core-ethnicity",
        "extension": [ {
          "url": "ombCategory",
          "valueCoding": {
            "system": "urn:oid:2.16.840.1.113883.6.238",
            "code": "2135-2",
            "display": "Hispanic or Latino"
          }
        }, {
          "url": "text",
          "valueString": "Hispanic or Latino"
        } ]
      }, {
        "url": "http://hl7.org/fhir/us/core/StructureDefinition/us-core-sex",
        "valueCode": "248153007"
      } ],
      "identifier": [ {
        "system": "http://hospital.smarthealthit.org",
        "value": "999999999"
      } ],
      "name": [ {
        "family": "Example",
        "given": [ "Patient" ]
      } ],
      "gender": "female",
      "birthDate": "2000-07-11"
    },
    "request": {
      "method": "PUT",
      "url": "Patient/304052f7-e416-4da4-87ae-488e6589cab3"
    }
  }, {
    "fullUrl": "https://madie.cms.gov/MeasureReport/a9d0f605-da4c-486d-a87f-311bf8751986",
    "resource": {
      "resourceType": "MeasureReport",
      "id": "a9d0f605-da4c-486d-a87f-311bf8751986",
      "meta": {
        "profile": [ "http://hl7.org/fhir/us/cqfmeasures/StructureDefinition/test-case-cqfm" ]
      },
      "contained": [ {
        "resourceType": "Parameters",
        "id": "54bfb3c9-0f95-43b2-b10e-768791a1edda-parameters",
        "parameter": [ {
          "name": "subject",
          "valueString": "304052f7-e416-4da4-87ae-488e6589cab3"
        } ]
      } ],
      "extension": [ {
        "url": "http://hl7.org/fhir/StructureDefinition/cqf-inputParameters",
        "valueReference": {
          "reference": "#54bfb3c9-0f95-43b2-b10e-768791a1edda-parameters"
        }
      }, {
        "url": "http://hl7.org/fhir/us/cqfmeasures/StructureDefinition/cqfm-testCaseDescription",
        "valueMarkdown": "Encounter, meds administered, lab test 2 result GT 80 within 5 min of lab test 1 that has result of 35 mg/dL."
      } ],
      "modifierExtension": [ {
        "url": "http://hl7.org/fhir/us/cqfmeasures/StructureDefinition/cqfm-isTestCase",
        "valueBoolean": true
      } ],
      "status": "complete",
      "type": "individual",
      "measure": "https://madie.cms.gov/Measure/CMS816FHIRHHHypo",
      "period": {
        "start": "2026-01-01",
        "end": "2026-12-31"
      },
      "group": [ {
        "id": "Group_1",
        "population": [ {
          "id": "InitialPopulation_1",
          "code": {
            "coding": [ {
              "system": "http://terminology.hl7.org/CodeSystem/measure-population",
              "code": "initial-population",
              "display": "Initial Population"
            } ]
          },
          "count": 1
        }, {
          "id": "Denominator_1",
          "code": {
            "coding": [ {
              "system": "http://terminology.hl7.org/CodeSystem/measure-population",
              "code": "denominator",
              "display": "Denominator"
            } ]
          },
          "count": 1
        }, {
          "id": "Numerator_1",
          "code": {
            "coding": [ {
              "system": "http://terminology.hl7.org/CodeSystem/measure-population",
              "code": "numerator",
              "display": "Numerator"
            } ]
          },
          "count": 0
        } ],
        "measureScore": {
          "value": 0.0
        }
      } ],
      "evaluatedResource": [ {
        "reference": "Encounter/cd3f83d5-13ee-429b-aea9-e6af7c95c3b3"
      }, {
        "reference": "MedicationAdministration/3d4781a5-b9ff-451a-8d0c-9013e76e239a"
      }, {
        "reference": "Observation/4a2bb764-d0d1-4910-8927-4ec9babaa13d"
      }, {
        "reference": "Observation/266a1620-da29-4083-95e7-da0ef5e8f445"
      }, {
        "reference": "Patient/304052f7-e416-4da4-87ae-488e6589cab3"
      } ]
    },
    "request": {
      "method": "PUT",
      "url": "MeasureReport/a9d0f605-da4c-486d-a87f-311bf8751986"
    }
  } ]
}