{
  "resourceType": "Bundle",
  "id": "60f82c2e98086b570510e25f",
  "type": "transaction",
  "entry": [ {
    "fullUrl": "https://madie.cms.gov/Patient/96266910-a2b3-4294-9dc5-8a812622b70b",
    "resource": {
      "resourceType": "Patient",
      "id": "96266910-a2b3-4294-9dc5-8a812622b70b",
      "meta": {
        "profile": [ "http://hl7.org/fhir/us/qicore/StructureDefinition/qicore-patient" ]
      },
      "text": {
        "status": "generated",
        "div": "<div xmlns=\"http://www.w3.org/1999/xhtml\"><div class=\"hapiHeaderText\">MedTPA&gt;EndIPEnd <b>DENEXFAIL </b></div><table class=\"hapiPropertyTable\"><tbody><tr><td>Identifier</td><td>ae500d350c70bd42ecd45e3b5b36ed31</td></tr><tr><td>Date of birth</td><td><span>26 September 1975</span></td></tr></tbody></table></div>"
      },
      "extension": [ {
        "url": "http://hl7.org/fhir/us/core/StructureDefinition/us-core-race",
        "extension": [ {
          "url": "ombCategory",
          "valueCoding": {
            "system": "urn:oid:2.16.840.1.113883.6.238",
            "code": "2054-5",
            "display": "Black or African American",
            "userSelected": true
          }
        }, {
          "url": "text",
          "valueString": "Black or African American"
        } ]
      }, {
        "url": "http://hl7.org/fhir/us/core/StructureDefinition/us-core-ethnicity",
        "extension": [ {
          "url": "ombCategory",
          "valueCoding": {
            "system": "urn:oid:2.16.840.1.113883.6.238",
            "code": "2186-5",
            "display": "Not Hispanic or Latino",
            "userSelected": true
          }
        }, {
          "url": "text",
          "valueString": "Not Hispanic or Latino"
        } ]
      } ],
      "identifier": [ {
        "type": {
          "coding": [ {
            "system": "http://terminology.hl7.org/CodeSystem/v2-0203",
            "code": "MR"
          } ]
        },
        "system": "https://bonnie-fhir.healthit.gov/",
        "value": "60f82c2e98086b570510e25f"
      } ],
      "active": true,
      "name": [ {
        "use": "usual",
        "family": "DENEXFail",
        "given": [ "MedTPAGTEndIPEnd" ]
      } ],
      "gender": "female",
      "birthDate": "1976-09-26"
    },
    "request": {
      "method": "PUT",
      "url": "Patient/96266910-a2b3-4294-9dc5-8a812622b70b"
    }
  }, {
    "fullUrl": "https://madie.cms.gov/Encounter/8dcce6db-5979-4237-92ad-057354aafef6",
    "resource": {
      "resourceType": "Encounter",
      "id": "8dcce6db-5979-4237-92ad-057354aafef6",
      "meta": {
        "profile": [ "http://hl7.org/fhir/us/qicore/StructureDefinition/qicore-encounter" ]
      },
      "status": "finished",
      "class": {
        "system": "http://terminology.hl7.org/CodeSystem/v3-ActCode",
        "code": "EMER",
        "display": "emergency",
        "userSelected": true
      },
      "type": [ {
        "coding": [ {
          "system": "http://snomed.info/sct",
          "code": "4525004"
        } ]
      } ],
      "subject": {
        "reference": "Patient/96266910-a2b3-4294-9dc5-8a812622b70b"
      },
      "period": {
        "start": "2026-10-10T06:00:00Z",
        "end": "2026-10-10T07:01:00.000+00:00"
      },
      "length": {
        "value": 0,
        "unit": "days"
      }
    },
    "request": {
      "method": "PUT",
      "url": "Encounter/8dcce6db-5979-4237-92ad-057354aafef6"
    }
  }, {
    "fullUrl": "https://madie.cms.gov/Encounter/1f158f25-e0a5-4943-94c5-fd3731542c54",
    "resource": {
      "resourceType": "Encounter",
      "id": "1f158f25-e0a5-4943-94c5-fd3731542c54",
      "meta": {
        "profile": [ "http://hl7.org/fhir/us/qicore/StructureDefinition/qicore-encounter" ]
      },
      "status": "finished",
      "class": {
        "system": "http://terminology.hl7.org/CodeSystem/v3-ActCode",
        "code": "IMP",
        "display": "inpatient encounter",
        "userSelected": true
      },
      "type": [ {
        "coding": [ {
          "system": "http://snomed.info/sct",
          "code": "32485007"
        } ]
      } ],
      "subject": {
        "reference": "Patient/96266910-a2b3-4294-9dc5-8a812622b70b"
      },
      "period": {
        "start": "2026-10-10T09:00:00Z",
        "end": "2026-10-12T11:15:00.000+00:00"
      },
      "length": {
        "value": 2,
        "unit": "days"
      },
      "reasonReference": [ {
        "reference": "Condition/af9bfa49-7eee-41b7-be70-7f0f8e00f4a2"
      } ]
    },
    "request": {
      "method": "PUT",
      "url": "Encounter/1f158f25-e0a5-4943-94c5-fd3731542c54"
    }
  }, {
    "fullUrl": "https://madie.cms.gov/MedicationAdministration/da44493c-8674-419e-8de8-02fe35ce5cae",
    "resource": {
      "resourceType": "MedicationAdministration",
      "id": "da44493c-8674-419e-8de8-02fe35ce5cae",
      "meta": {
        "profile": [ "http://hl7.org/fhir/us/qicore/StructureDefinition/qicore-medicationadministration" ]
      },
      "status": "completed",
      "medicationCodeableConcept": {
        "coding": [ {
          "system": "http://www.nlm.nih.gov/research/umls/rxnorm",
          "code": "1804799"
        } ]
      },
      "subject": {
        "reference": "Patient/96266910-a2b3-4294-9dc5-8a812622b70b"
      },
      "effectivePeriod": {
        "start": "2026-10-12T11:16:00Z"
      }
    },
    "request": {
      "method": "PUT",
      "url": "MedicationAdministration/da44493c-8674-419e-8de8-02fe35ce5cae"
    }
  }, {
    "fullUrl": "https://madie.cms.gov/Coverage/019fb7b1-6f69-4a9c-a3b8-3c8f6c887766",
    "resource": {
      "resourceType": "Coverage",
      "id": "019fb7b1-6f69-4a9c-a3b8-3c8f6c887766",
      "status": "active",
      "beneficiary": {
        "reference": "Patient/96266910-a2b3-4294-9dc5-8a812622b70b"
      },
      "period": {
        "start": "1976-09-26T08:00:00Z"
      },
      "payor": [ {
        "reference": "Organization/eac679d7-7a74-4dc3-8f7e-076baf000747"
      } ]
    },
    "request": {
      "method": "PUT",
      "url": "Coverage/019fb7b1-6f69-4a9c-a3b8-3c8f6c887766"
    }
  }, {
    "fullUrl": "https://madie.cms.gov/Condition/af9bfa49-7eee-41b7-be70-7f0f8e00f4a2",
    "resource": {
      "resourceType": "Condition",
      "id": "af9bfa49-7eee-41b7-be70-7f0f8e00f4a2",
      "meta": {
        "profile": [ "http://hl7.org/fhir/us/qicore/StructureDefinition/qicore-condition-encounter-diagnosis" ]
      },
      "clinicalStatus": {
        "coding": [ {
          "system": "http://terminology.hl7.org/CodeSystem/condition-clinical",
          "code": "active"
        } ]
      },
      "verificationStatus": {
        "coding": [ {
          "system": "http://terminology.hl7.org/CodeSystem/condition-ver-status",
          "code": "confirmed"
        } ]
      },
      "category": [ {
        "coding": [ {
          "system": "http://terminology.hl7.org/CodeSystem/condition-category",
          "code": "encounter-diagnosis",
          "display": "Encounter Diagnosis"
        } ]
      } ],
      "code": {
        "coding": [ {
          "system": "http://snomed.info/sct",
          "version": "2020-09",
          "code": "111297002",
          "display": "Nonparalytic stroke (disorder)",
          "userSelected": true
        } ]
      },
      "subject": {
        "reference": "Patient/96266910-a2b3-4294-9dc5-8a812622b70b"
      },
      "encounter": {
        "reference": "Encounter/1f158f25-e0a5-4943-94c5-fd3731542c54"
      },
      "recordedDate": "2026-08-12T08:00:00Z"
    },
    "request": {
      "method": "PUT",
      "url": "Condition/af9bfa49-7eee-41b7-be70-7f0f8e00f4a2"
    }
  }, {
    "fullUrl": "https://madie.cms.gov/claim/5ca62962b8484628b8de1ec5",
    "resource": {
      "resourceType": "Claim",
      "id": "5ca62962b8484628b8de1ec5",
      "meta": {
        "profile": [ "http://hl7.org/fhir/us/qicore/StructureDefinition/qicore-claim" ]
      },
      "status": "active",
      "type": {
        "coding": [ {
          "system": "http://terminology.hl7.org/CodeSystem/claim-type",
          "code": "institutional"
        } ]
      },
      "use": "claim",
      "patient": {
        "reference": "Patient/5450abfd-a667-4eb9-9b59-e85feed4865c"
      },
      "created": "2026-12-01",
      "provider": {
        "reference": "Practitioner/practitioner-123456"
      },
      "priority": {
        "coding": [ {
          "system": "http://terminology.hl7.org/CodeSystem/processpriority",
          "code": "normal"
        } ]
      },
      "diagnosis": [ {
        "sequence": 1,
        "diagnosisCodeableConcept": {
          "coding": [ {
            "system": "http://hl7.org/fhir/sid/icd-10-cm",
            "code": "I63.00"
          } ]
        },
        "type": [ {
          "coding": [ {
            "system": "http://terminology.hl7.org/CodeSystem/ex-diagnosistype",
            "code": "principal"
          } ]
        } ]
      } ],
      "insurance": [ {
        "sequence": 1,
        "focal": true,
        "coverage": {
          "reference": "Coverage/5fa041661c76ba66d9959367"
        }
      } ],
      "item": [ {
        "sequence": 1,
        "diagnosisSequence": [ 1 ],
        "productOrService": {
          "coding": [ {
            "system": "http://terminology.hl7.org/CodeSystem/ex-USCLS",
            "code": "99555"
          } ]
        },
        "encounter": [ {
          "reference": "Encounter/1f158f25-e0a5-4943-94c5-fd3731542c54"
        } ]
      } ]
    },
    "request": {
      "method": "PUT",
      "url": "Claim/5ca62962b8484628b8de1ec5"
    }
  }, {
    "fullUrl": "https://madie.cms.gov/Organization/eac679d7-7a74-4dc3-8f7e-076baf000747",
    "resource": {
      "resourceType": "Organization",
      "id": "eac679d7-7a74-4dc3-8f7e-076baf000747",
      "meta": {
        "profile": [ "http://hl7.org/fhir/us/qicore/StructureDefinition/qicore-organization" ]
      },
      "identifier": [ {
        "use": "temp",
        "system": "urn:oid:2.16.840.1.113883.4.4",
        "value": "21-3259825"
      } ],
      "active": true,
      "type": [ {
        "coding": [ {
          "system": "http://terminology.hl7.org/CodeSystem/organization-type",
          "code": "pay",
          "display": "Payer"
        } ]
      } ],
      "name": "Blue Cross Blue Shield of Texas",
      "telecom": [ {
        "system": "phone",
        "value": "(+1) 972-766-6900"
      } ],
      "address": [ {
        "use": "billing",
        "type": "postal",
        "line": [ "P.O. Box 660044" ],
        "city": "Dallas",
        "state": "TX",
        "postalCode": "75266-0044",
        "country": "USA"
      } ]
    },
    "request": {
      "method": "PUT",
      "url": "Organization/eac679d7-7a74-4dc3-8f7e-076baf000747"
    }
  }, {
    "fullUrl": "https://madie.cms.gov/MeasureReport/b9cb2e33-3050-49be-87d3-f7d58daf9f78",
    "resource": {
      "resourceType": "MeasureReport",
      "id": "b9cb2e33-3050-49be-87d3-f7d58daf9f78",
      "meta": {
        "profile": [ "http://hl7.org/fhir/us/cqfmeasures/StructureDefinition/test-case-cqfm" ]
      },
      "contained": [ {
        "resourceType": "Parameters",
        "id": "680c3fd2-94c7-4e6c-97cc-18bf0e3e874d-parameters",
        "parameter": [ {
          "name": "subject",
          "valueString": "96266910-a2b3-4294-9dc5-8a812622b70b"
        } ]
      } ],
      "extension": [ {
        "url": "http://hl7.org/fhir/StructureDefinition/cqf-inputParameters",
        "valueReference": {
          "reference": "#680c3fd2-94c7-4e6c-97cc-18bf0e3e874d-parameters"
        }
      }, {
        "url": "http://hl7.org/fhir/us/cqfmeasures/StructureDefinition/cqfm-testCaseDescription",
        "valueMarkdown": "Patient receives TPA after end of IP encounter\n"
      } ],
      "modifierExtension": [ {
        "url": "http://hl7.org/fhir/us/cqfmeasures/StructureDefinition/cqfm-isTestCase",
        "valueBoolean": true
      } ],
      "status": "complete",
      "type": "individual",
      "measure": "https://madie.cms.gov/Measure/CMS72FHIRSTKAntithromboticDay2",
      "period": {
        "start": "2026-01-01",
        "end": "2026-12-31"
      },
      "group": [ {
        "id": "Group_1",
        "population": [ {
          "id": "InitialPopulation_1",
          "code": {
            "coding": [ {
              "system": "http://terminology.hl7.org/CodeSystem/measure-population",
              "code": "initial-population",
              "display": "Initial Population"
            } ]
          },
          "count": 1
        }, {
          "id": "Denominator_1",
          "code": {
            "coding": [ {
              "system": "http://terminology.hl7.org/CodeSystem/measure-population",
              "code": "denominator",
              "display": "Denominator"
            } ]
          },
          "count": 1
        }, {
          "id": "DenominatorExclusion_1",
          "code": {
            "coding": [ {
              "system": "http://terminology.hl7.org/CodeSystem/measure-population",
              "code": "denominator-exclusion",
              "display": "Denominator Exclusion"
            } ]
          },
          "count": 0
        }, {
          "id": "Numerator_1",
          "code": {
            "coding": [ {
              "system": "http://terminology.hl7.org/CodeSystem/measure-population",
              "code": "numerator",
              "display": "Numerator"
            } ]
          },
          "count": 0
        }, {
          "id": "DenominatorException_1",
          "code": {
            "coding": [ {
              "system": "http://terminology.hl7.org/CodeSystem/measure-population",
              "code": "denominator-exception",
              "display": "Denominator Exception"
            } ]
          },
          "count": 0
        } ],
        "measureScore": {
          "value": 0.0
        }
      } ],
      "evaluatedResource": [ {
        "reference": "Patient/96266910-a2b3-4294-9dc5-8a812622b70b"
      }, {
        "reference": "Encounter/8dcce6db-5979-4237-92ad-057354aafef6"
      }, {
        "reference": "Encounter/1f158f25-e0a5-4943-94c5-fd3731542c54"
      }, {
        "reference": "MedicationAdministration/da44493c-8674-419e-8de8-02fe35ce5cae"
      }, {
        "reference": "Coverage/019fb7b1-6f69-4a9c-a3b8-3c8f6c887766"
      }, {
        "reference": "Condition/af9bfa49-7eee-41b7-be70-7f0f8e00f4a2"
      }, {
        "reference": "Claim/5ca62962b8484628b8de1ec5"
      }, {
        "reference": "Organization/eac679d7-7a74-4dc3-8f7e-076baf000747"
      } ]
    },
    "request": {
      "method": "PUT",
      "url": "MeasureReport/b9cb2e33-3050-49be-87d3-f7d58daf9f78"
    }
  } ]
}