{
  "resourceType": "Bundle",
  "id": "60f82c3098086b570510e2f3",
  "type": "transaction",
  "entry": [ {
    "fullUrl": "https://madie.cms.gov/Patient/6bbc3f38-7f5f-4da9-9beb-eb32874fd1ed",
    "resource": {
      "resourceType": "Patient",
      "id": "6bbc3f38-7f5f-4da9-9beb-eb32874fd1ed",
      "meta": {
        "profile": [ "http://hl7.org/fhir/us/qicore/StructureDefinition/qicore-patient" ]
      },
      "text": {
        "status": "generated",
        "div": "<div xmlns=\"http://www.w3.org/1999/xhtml\"><div class=\"hapiHeaderText\">CMP_DayOf_RelvPerStart_1minAftIPEnd_EDEndLT1hrB4Obs_ObsEndLT1hrB4IP <b>DENEXFAIL </b></div><table class=\"hapiPropertyTable\"><tbody><tr><td>Date of birth</td><td><span>01 January 1980</span></td></tr></tbody></table></div>"
      },
      "extension": [ {
        "url": "http://hl7.org/fhir/us/core/StructureDefinition/us-core-race",
        "extension": [ {
          "url": "ombCategory",
          "valueCoding": {
            "system": "urn:oid:2.16.840.1.113883.6.238",
            "code": "2054-5",
            "display": "Black or African American",
            "userSelected": true
          }
        }, {
          "url": "text",
          "valueString": "Black or African American"
        } ]
      }, {
        "url": "http://hl7.org/fhir/us/core/StructureDefinition/us-core-ethnicity",
        "extension": [ {
          "url": "ombCategory",
          "valueCoding": {
            "system": "urn:oid:2.16.840.1.113883.6.238",
            "code": "2186-5",
            "display": "Not Hispanic or Latino",
            "userSelected": true
          }
        }, {
          "url": "text",
          "valueString": "Not Hispanic or Latino"
        } ]
      } ],
      "identifier": [ {
        "type": {
          "coding": [ {
            "system": "http://terminology.hl7.org/CodeSystem/v2-0203",
            "code": "MR"
          } ]
        },
        "system": "https://bonnie-fhir.healthit.gov/",
        "value": "60f82c3098086b570510e2f3"
      } ],
      "active": true,
      "name": [ {
        "use": "usual",
        "family": "DENEXFail",
        "given": [ "CMPDayOfRelvPerStart1minAftIPEndEDEndLT1hrB4ObsObsEndLT1hrB4IP" ]
      } ],
      "gender": "female",
      "birthDate": "1981-01-01"
    },
    "request": {
      "method": "PUT",
      "url": "Patient/6bbc3f38-7f5f-4da9-9beb-eb32874fd1ed"
    }
  }, {
    "fullUrl": "https://madie.cms.gov/Encounter/246eb7e8-f485-4232-a98c-76471f2c0e54",
    "resource": {
      "resourceType": "Encounter",
      "id": "246eb7e8-f485-4232-a98c-76471f2c0e54",
      "meta": {
        "profile": [ "http://hl7.org/fhir/us/qicore/StructureDefinition/qicore-encounter" ]
      },
      "status": "finished",
      "class": {
        "system": "http://terminology.hl7.org/CodeSystem/v3-ActCode",
        "code": "EMER",
        "display": "emergency",
        "userSelected": true
      },
      "type": [ {
        "coding": [ {
          "system": "http://snomed.info/sct",
          "code": "4525004"
        } ]
      } ],
      "subject": {
        "reference": "Patient/6bbc3f38-7f5f-4da9-9beb-eb32874fd1ed"
      },
      "period": {
        "start": "2026-11-18T07:00:00Z",
        "end": "2026-11-18T08:01:00.000+00:00"
      },
      "diagnosis": [ {
        "condition": {
          "reference": "Condition/51ccbe06-cea9-47f1-af23-033755be68f8"
        },
        "use": {
          "coding": [ {
            "system": "http://snomed.info/sct",
            "code": "111297002",
            "display": "Nonparalytic stroke (disorder)"
          } ]
        },
        "rank": 1
      } ]
    },
    "request": {
      "method": "PUT",
      "url": "Encounter/246eb7e8-f485-4232-a98c-76471f2c0e54"
    }
  }, {
    "fullUrl": "https://madie.cms.gov/Encounter/a52bf800-f623-48f0-8971-fd96d206bcbf",
    "resource": {
      "resourceType": "Encounter",
      "id": "a52bf800-f623-48f0-8971-fd96d206bcbf",
      "meta": {
        "profile": [ "http://hl7.org/fhir/us/qicore/StructureDefinition/qicore-encounter" ]
      },
      "status": "finished",
      "class": {
        "system": "http://terminology.hl7.org/CodeSystem/v3-ActCode",
        "code": "OBSENC",
        "display": "observation encounter",
        "userSelected": true
      },
      "type": [ {
        "coding": [ {
          "system": "http://snomed.info/sct",
          "code": "448951000124107"
        } ]
      } ],
      "subject": {
        "reference": "Patient/6bbc3f38-7f5f-4da9-9beb-eb32874fd1ed"
      },
      "period": {
        "start": "2026-11-18T09:00:00Z",
        "end": "2026-11-18T10:01:00.000+00:00"
      }
    },
    "request": {
      "method": "PUT",
      "url": "Encounter/a52bf800-f623-48f0-8971-fd96d206bcbf"
    }
  }, {
    "fullUrl": "https://madie.cms.gov/Encounter/ff4c301a-e063-4058-9bbe-bea69517f7db",
    "resource": {
      "resourceType": "Encounter",
      "id": "ff4c301a-e063-4058-9bbe-bea69517f7db",
      "meta": {
        "profile": [ "http://hl7.org/fhir/us/qicore/StructureDefinition/qicore-encounter" ]
      },
      "status": "finished",
      "class": {
        "system": "http://terminology.hl7.org/CodeSystem/v3-ActCode",
        "code": "IMP",
        "display": "inpatient encounter",
        "userSelected": true
      },
      "type": [ {
        "coding": [ {
          "system": "http://snomed.info/sct",
          "code": "183452005"
        } ]
      } ],
      "subject": {
        "reference": "Patient/6bbc3f38-7f5f-4da9-9beb-eb32874fd1ed"
      },
      "period": {
        "start": "2026-11-18T11:00:00Z",
        "end": "2026-11-20T08:15:00.000+00:00"
      },
      "reasonReference": [ {
        "reference": "Condition/51ccbe06-cea9-47f1-af23-033755be68f8"
      } ]
    },
    "request": {
      "method": "PUT",
      "url": "Encounter/ff4c301a-e063-4058-9bbe-bea69517f7db"
    }
  }, {
    "fullUrl": "https://madie.cms.gov/Procedure/a76ca5ba-5066-4f02-a41a-44e33031d34a",
    "resource": {
      "resourceType": "Procedure",
      "id": "a76ca5ba-5066-4f02-a41a-44e33031d34a",
      "meta": {
        "profile": [ "http://hl7.org/fhir/us/qicore/StructureDefinition/qicore-procedure" ]
      },
      "extension": [ {
        "url": "http://hl7.org/fhir/us/qicore/StructureDefinition/qicore-recorded",
        "valueDateTime": "2014-04-05T13:35:00Z"
      } ],
      "status": "completed",
      "code": {
        "coding": [ {
          "system": "http://snomed.info/sct",
          "code": "133918004"
        } ]
      },
      "subject": {
        "reference": "Patient/6bbc3f38-7f5f-4da9-9beb-eb32874fd1ed"
      },
      "performedPeriod": {
        "start": "2026-11-20T08:16:00Z",
        "end": "2026-11-20T08:16:00.000+00:00"
      }
    },
    "request": {
      "method": "PUT",
      "url": "Procedure/a76ca5ba-5066-4f02-a41a-44e33031d34a"
    }
  }, {
    "fullUrl": "https://madie.cms.gov/Condition/51ccbe06-cea9-47f1-af23-033755be68f8",
    "resource": {
      "resourceType": "Condition",
      "id": "51ccbe06-cea9-47f1-af23-033755be68f8",
      "meta": {
        "profile": [ "http://hl7.org/fhir/us/qicore/StructureDefinition/qicore-condition-encounter-diagnosis" ]
      },
      "clinicalStatus": {
        "coding": [ {
          "system": "http://terminology.hl7.org/CodeSystem/condition-clinical",
          "code": "active"
        } ]
      },
      "verificationStatus": {
        "coding": [ {
          "system": "http://terminology.hl7.org/CodeSystem/condition-ver-status",
          "code": "confirmed"
        } ]
      },
      "category": [ {
        "coding": [ {
          "system": "http://terminology.hl7.org/CodeSystem/condition-category",
          "code": "encounter-diagnosis",
          "display": "Encounter Diagnosis"
        } ]
      } ],
      "code": {
        "coding": [ {
          "system": "http://snomed.info/sct",
          "version": "2020-09",
          "code": "111297002",
          "display": "Nonparalytic stroke (disorder)",
          "userSelected": true
        } ]
      },
      "subject": {
        "reference": "Patient/6bbc3f38-7f5f-4da9-9beb-eb32874fd1ed"
      },
      "encounter": {
        "reference": "Encounter/ff4c301a-e063-4058-9bbe-bea69517f7db"
      },
      "recordedDate": "2026-08-11T08:00:00Z"
    },
    "request": {
      "method": "PUT",
      "url": "Condition/51ccbe06-cea9-47f1-af23-033755be68f8"
    }
  }, {
    "fullUrl": "https://madie.cms.gov/claim/5ca62962b8484628b8de1ec5",
    "resource": {
      "resourceType": "Claim",
      "id": "5ca62962b8484628b8de1ec5",
      "meta": {
        "profile": [ "http://hl7.org/fhir/us/qicore/StructureDefinition/qicore-claim" ]
      },
      "status": "active",
      "type": {
        "coding": [ {
          "system": "http://terminology.hl7.org/CodeSystem/claim-type",
          "code": "institutional"
        } ]
      },
      "use": "claim",
      "patient": {
        "reference": "Patient/5450abfd-a667-4eb9-9b59-e85feed4865c"
      },
      "created": "2026-12-01",
      "provider": {
        "reference": "Practitioner/practitioner-123456"
      },
      "priority": {
        "coding": [ {
          "system": "http://terminology.hl7.org/CodeSystem/processpriority",
          "code": "normal"
        } ]
      },
      "diagnosis": [ {
        "sequence": 1,
        "diagnosisCodeableConcept": {
          "coding": [ {
            "system": "http://hl7.org/fhir/sid/icd-10-cm",
            "code": "I63.00"
          } ]
        },
        "type": [ {
          "coding": [ {
            "system": "http://terminology.hl7.org/CodeSystem/ex-diagnosistype",
            "code": "principal"
          } ]
        } ]
      } ],
      "insurance": [ {
        "sequence": 1,
        "focal": true,
        "coverage": {
          "reference": "Coverage/5fa041661c76ba66d9959367"
        }
      } ],
      "item": [ {
        "sequence": 1,
        "diagnosisSequence": [ 1 ],
        "productOrService": {
          "coding": [ {
            "system": "http://terminology.hl7.org/CodeSystem/ex-USCLS",
            "code": "99555"
          } ]
        },
        "encounter": [ {
          "reference": "Encounter/ff4c301a-e063-4058-9bbe-bea69517f7db"
        } ]
      } ]
    },
    "request": {
      "method": "PUT",
      "url": "Claim/5ca62962b8484628b8de1ec5"
    }
  }, {
    "fullUrl": "https://madie.cms.gov/Coverage/c7760048-1593-4ead-9371-069af825603d",
    "resource": {
      "resourceType": "Coverage",
      "id": "c7760048-1593-4ead-9371-069af825603d",
      "meta": {
        "profile": [ "http://hl7.org/fhir/us/qicore/StructureDefinition/qicore-coverage" ]
      },
      "status": "active",
      "beneficiary": {
        "reference": "Patient/6bbc3f38-7f5f-4da9-9beb-eb32874fd1ed"
      },
      "payor": [ {
        "reference": "Organization/ba649cac-5bd8-4c14-bd9c-a81624ba0cca"
      } ]
    },
    "request": {
      "method": "PUT",
      "url": "Coverage/c7760048-1593-4ead-9371-069af825603d"
    }
  }, {
    "fullUrl": "https://madie.cms.gov/Organization/ba649cac-5bd8-4c14-bd9c-a81624ba0cca",
    "resource": {
      "resourceType": "Organization",
      "id": "ba649cac-5bd8-4c14-bd9c-a81624ba0cca",
      "meta": {
        "profile": [ "http://hl7.org/fhir/us/qicore/StructureDefinition/qicore-organization" ]
      },
      "identifier": [ {
        "use": "temp",
        "system": "urn:oid:2.16.840.1.113883.4.4",
        "value": "21-3259825"
      } ],
      "active": true,
      "type": [ {
        "coding": [ {
          "system": "http://terminology.hl7.org/CodeSystem/organization-type",
          "code": "pay",
          "display": "Payer"
        } ]
      } ],
      "name": "Blue Cross Blue Shield of Texas",
      "telecom": [ {
        "system": "phone",
        "value": "(+1) 972-766-6900"
      } ],
      "address": [ {
        "use": "billing",
        "type": "postal",
        "line": [ "P.O. Box 660044" ],
        "city": "Dallas",
        "state": "TX",
        "postalCode": "75266-0044",
        "country": "USA"
      } ]
    },
    "request": {
      "method": "PUT",
      "url": "Organization/ba649cac-5bd8-4c14-bd9c-a81624ba0cca"
    }
  }, {
    "fullUrl": "https://madie.cms.gov/MeasureReport/cc895ea0-fee2-40b2-be3c-de20076eed4f",
    "resource": {
      "resourceType": "MeasureReport",
      "id": "cc895ea0-fee2-40b2-be3c-de20076eed4f",
      "meta": {
        "profile": [ "http://hl7.org/fhir/us/cqfmeasures/StructureDefinition/test-case-cqfm" ]
      },
      "contained": [ {
        "resourceType": "Parameters",
        "id": "270fadfd-61c5-41d1-a2a2-574c942ff99e-parameters",
        "parameter": [ {
          "name": "subject",
          "valueString": "6bbc3f38-7f5f-4da9-9beb-eb32874fd1ed"
        } ]
      } ],
      "extension": [ {
        "url": "http://hl7.org/fhir/StructureDefinition/cqf-inputParameters",
        "valueReference": {
          "reference": "#270fadfd-61c5-41d1-a2a2-574c942ff99e-parameters"
        }
      }, {
        "url": "http://hl7.org/fhir/us/cqfmeasures/StructureDefinition/cqfm-testCaseDescription",
        "valueMarkdown": "Patient receives comfort measures performed on the day of hospital arrival,  1 min after IP end. ED ends less than 1 hour before Obs Start, Obs ends less than 1 hour before IP start.\n"
      } ],
      "modifierExtension": [ {
        "url": "http://hl7.org/fhir/us/cqfmeasures/StructureDefinition/cqfm-isTestCase",
        "valueBoolean": true
      } ],
      "status": "complete",
      "type": "individual",
      "measure": "https://madie.cms.gov/Measure/CMS72FHIRSTKAntithromboticDay2",
      "period": {
        "start": "2026-01-01",
        "end": "2026-12-31"
      },
      "group": [ {
        "id": "Group_1",
        "population": [ {
          "id": "InitialPopulation_1",
          "code": {
            "coding": [ {
              "system": "http://terminology.hl7.org/CodeSystem/measure-population",
              "code": "initial-population",
              "display": "Initial Population"
            } ]
          },
          "count": 1
        }, {
          "id": "Denominator_1",
          "code": {
            "coding": [ {
              "system": "http://terminology.hl7.org/CodeSystem/measure-population",
              "code": "denominator",
              "display": "Denominator"
            } ]
          },
          "count": 1
        }, {
          "id": "DenominatorExclusion_1",
          "code": {
            "coding": [ {
              "system": "http://terminology.hl7.org/CodeSystem/measure-population",
              "code": "denominator-exclusion",
              "display": "Denominator Exclusion"
            } ]
          },
          "count": 0
        }, {
          "id": "Numerator_1",
          "code": {
            "coding": [ {
              "system": "http://terminology.hl7.org/CodeSystem/measure-population",
              "code": "numerator",
              "display": "Numerator"
            } ]
          },
          "count": 0
        }, {
          "id": "DenominatorException_1",
          "code": {
            "coding": [ {
              "system": "http://terminology.hl7.org/CodeSystem/measure-population",
              "code": "denominator-exception",
              "display": "Denominator Exception"
            } ]
          },
          "count": 0
        } ],
        "measureScore": {
          "value": 0.0
        }
      } ],
      "evaluatedResource": [ {
        "reference": "Patient/6bbc3f38-7f5f-4da9-9beb-eb32874fd1ed"
      }, {
        "reference": "Encounter/246eb7e8-f485-4232-a98c-76471f2c0e54"
      }, {
        "reference": "Encounter/a52bf800-f623-48f0-8971-fd96d206bcbf"
      }, {
        "reference": "Encounter/ff4c301a-e063-4058-9bbe-bea69517f7db"
      }, {
        "reference": "Procedure/a76ca5ba-5066-4f02-a41a-44e33031d34a"
      }, {
        "reference": "Condition/51ccbe06-cea9-47f1-af23-033755be68f8"
      }, {
        "reference": "Claim/5ca62962b8484628b8de1ec5"
      }, {
        "reference": "Coverage/c7760048-1593-4ead-9371-069af825603d"
      }, {
        "reference": "Organization/ba649cac-5bd8-4c14-bd9c-a81624ba0cca"
      } ]
    },
    "request": {
      "method": "PUT",
      "url": "MeasureReport/cc895ea0-fee2-40b2-be3c-de20076eed4f"
    }
  } ]
}