{
    "entry": [
        {
            "request": {
                "method": "PUT",
                "url": "Patient/603be2ba-52a9-4abd-99a9-5fd41b1190ff"
            },
            "resource": {
                "identifier": [{
                    "system": "https://bonnie-fhir.healthit.gov/",
                    "type": {"coding": [{
                        "system": "http://terminology.hl7.org/CodeSystem/v2-0203",
                        "code": "MR"
                    }]},
                    "value": "62d02bc3d15ad008a13f69e4"
                }],
                "extension": [
                    {
                        "extension": [
                            {
                                "valueCoding": {
                                    "system": "urn:oid:2.16.840.1.113883.6.238",
                                    "code": "1002-5",
                                    "userSelected": true,
                                    "display": "American Indian or Alaska Native"
                                },
                                "url": "ombCategory"
                            },
                            {
                                "valueString": "American Indian or Alaska Native",
                                "url": "text"
                            },
                            {
                                "valueCoding": {
                                    "system": "urn:oid:2.16.840.1.113883.6.238",
                                    "code": "1653-5",
                                    "display": "Tohono O'Odham"
                                },
                                "url": "detailed"
                            }
                        ],
                        "url": "http://hl7.org/fhir/us/core/StructureDefinition/us-core-race"
                    },
                    {
                        "extension": [
                            {
                                "valueCoding": {
                                    "system": "urn:oid:2.16.840.1.113883.6.238",
                                    "code": "2135-2",
                                    "userSelected": true,
                                    "display": "Hispanic or Latino"
                                },
                                "url": "ombCategory"
                            },
                            {
                                "valueString": "Hispanic or Latino",
                                "url": "text"
                            },
                            {
                                "valueCoding": {
                                    "system": "urn:oid:2.16.840.1.113883.6.238",
                                    "code": "2153-5",
                                    "display": "Mexican American Indian"
                                },
                                "url": "detailed"
                            }
                        ],
                        "url": "http://hl7.org/fhir/us/core/StructureDefinition/us-core-ethnicity"
                    }
                ],
                "gender": "female",
                "meta": {"profile": ["http://hl7.org/fhir/us/qicore/StructureDefinition/qicore-patient"]},
                "name": [{
                    "given": ["FirstHTN140Referred"],
                    "family": "NUMERPass"
                }],
                "id": "603be2ba-52a9-4abd-99a9-5fd41b1190ff",
                "birthDate": "1962-02-28",
                "resourceType": "Patient"
            },
            "fullUrl": "https://madie.cms.gov/Patient/603be2ba-52a9-4abd-99a9-5fd41b1190ff"
        },
        {
            "request": {
                "method": "PUT",
                "url": "Encounter/10d4b8e1-f057-45c5-8cca-6194400429d5"
            },
            "resource": {
                "period": {
                    "start": "2026-01-01T08:00:00.000+00:00",
                    "end": "2026-01-01T08:30:00.000+00:00"
                },
                "meta": {"profile": ["http://hl7.org/fhir/us/qicore/StructureDefinition/qicore-encounter"]},
                "subject": {"reference": "Patient/603be2ba-52a9-4abd-99a9-5fd41b1190ff"},
                "id": "10d4b8e1-f057-45c5-8cca-6194400429d5",
                "type": [{"coding": [{
                    "system": "http://snomed.info/sct",
                    "code": "103705002",
                    "userSelected": true,
                    "display": "Patient status observation (procedure)",
                    "version": "2022-03"
                }]}],
                "class": {
                    "system": "http://terminology.hl7.org/CodeSystem/v3-ActCode",
                    "code": "AMB",
                    "display": "ambulatory"
                },
                "resourceType": "Encounter",
                "status": "finished"
            },
            "fullUrl": "https://madie.cms.gov/Encounter/10d4b8e1-f057-45c5-8cca-6194400429d5"
        },
        {
            "request": {
                "method": "PUT",
                "url": "Observation/e1ed8b65-d7ef-48c1-bd85-4aef8001f4d3"
            },
            "resource": {
                "component": [
                    {
                        "code": {"coding": [{
                            "system": "http://loinc.org",
                            "code": "8480-6",
                            "display": "Systolic blood pressure"
                        }]},
                        "valueQuantity": {
                            "unit": "mmHg",
                            "system": "http://unitsofmeasure.org",
                            "code": "mm[Hg]",
                            "value": 140
                        }
                    },
                    {
                        "code": {"coding": [{
                            "system": "http://loinc.org",
                            "code": "8462-4",
                            "display": "Diastolic blood pressure"
                        }]},
                        "valueQuantity": {
                            "unit": "mmHg",
                            "system": "http://unitsofmeasure.org",
                            "code": "mm[Hg]",
                            "value": 80
                        }
                    }
                ],
                "code": {"coding": [{
                    "system": "http://loinc.org",
                    "code": "85354-9",
                    "display": "Blood pressure panel"
                }]},
                "effectiveDateTime": "2026-01-01T08:01:00.000+00:00",
                "meta": {"profile": ["http://hl7.org/fhir/us/core/StructureDefinition/us-core-blood-pressure"]},
                "subject": {"reference": "Patient/603be2ba-52a9-4abd-99a9-5fd41b1190ff"},
                "id": "e1ed8b65-d7ef-48c1-bd85-4aef8001f4d3",
                "category": [{
                    "coding": [{
                        "system": "http://terminology.hl7.org/CodeSystem/observation-category",
                        "code": "vital-signs",
                        "display": "Vital Signs"
                    }],
                    "text": "Vital Signs"
                }],
                "resourceType": "Observation",
                "status": "final"
            },
            "fullUrl": "https://madie.cms.gov/Observation/e1ed8b65-d7ef-48c1-bd85-4aef8001f4d3"
        },
        {
            "request": {
                "method": "PUT",
                "url": "ServiceRequest/dd1fabc7-3d48-4328-99be-34672872c67b"
            },
            "resource": {
                "code": {"coding": [{
                    "system": "http://snomed.info/sct",
                    "code": "134403003",
                    "userSelected": true,
                    "display": "Urgent referral (procedure)",
                    "version": "2022-03"
                }]},
                "authoredOn": "2026-01-01T08:29:00.000+00:00",
                "meta": {"profile": ["http://hl7.org/fhir/us/qicore/StructureDefinition/qicore-servicerequest"]},
                "subject": {"reference": "Patient/603be2ba-52a9-4abd-99a9-5fd41b1190ff"},
                "id": "dd1fabc7-3d48-4328-99be-34672872c67b",
                "reasonCode": [{"coding": [{
                    "system": "http://hl7.org/fhir/sid/icd-10-cm",
                    "code": "R03.0",
                    "userSelected": true,
                    "display": "Elevated blood-pressure reading, without diagnosis of hypertension"
                }]}],
                "intent": "order",
                "resourceType": "ServiceRequest",
                "status": "active"
            },
            "fullUrl": "https://madie.cms.gov/ServiceRequest/dd1fabc7-3d48-4328-99be-34672872c67b"
        },
        {
            "request": {
                "method": "PUT",
                "url": "Coverage/f9c9a6af-4744-4d40-a777-83ce40541fae"
            },
            "resource": {
                "period": {"start": "2025-12-01T00:00:00.000+00:00"},
                "payor": [{"reference": "Organization/6e75be00-7da7-47ab-969e-e533bb98861c"}],
                "beneficiary": {"reference": "Patient/603be2ba-52a9-4abd-99a9-5fd41b1190ff"},
                "meta": {"profile": ["http://hl7.org/fhir/us/qicore/StructureDefinition/qicore-coverage"]},
                "id": "f9c9a6af-4744-4d40-a777-83ce40541fae",
                "type": {"coding": [{
                    "system": "https://nahdo.org/sopt",
                    "code": "1",
                    "display": "MEDICARE"
                }]},
                "resourceType": "Coverage",
                "status": "active"
            },
            "fullUrl": "https://madie.cms.gov/Coverage/f9c9a6af-4744-4d40-a777-83ce40541fae"
        },
        {
            "request": {
                "method": "PUT",
                "url": "Organization/6e75be00-7da7-47ab-969e-e533bb98861c"
            },
            "resource": {
                "identifier": [{
                    "system": "urn:oid:2.16.840.1.113883.4.4",
                    "use": "temp",
                    "value": "21-3259825"
                }],
                "address": [{
                    "country": "USA",
                    "city": "Dallas",
                    "use": "billing",
                    "line": ["P.O. Box 660044"],
                    "postalCode": "75266-0044",
                    "state": "TX",
                    "type": "postal"
                }],
                "meta": {"profile": ["http://hl7.org/fhir/us/qicore/StructureDefinition/qicore-organization"]},
                "name": "Blue Cross Blue Shield of Texas",
                "active": true,
                "telecom": [{
                    "system": "phone",
                    "value": "(+1) 972-766-6900"
                }],
                "id": "6e75be00-7da7-47ab-969e-e533bb98861c",
                "type": [{"coding": [{
                    "system": "http://terminology.hl7.org/CodeSystem/organization-type",
                    "code": "pay",
                    "display": "Payer"
                }]}],
                "resourceType": "Organization"
            },
            "fullUrl": "https://madie.cms.gov/Organization/6e75be00-7da7-47ab-969e-e533bb98861c"
        },
        {
            "request": {
                "method": "PUT",
                "url": "MeasureReport/a6ec0ec6-8060-408f-b4c8-5ba7f9147a27"
            },
            "resource": {
                "contained": [{
                    "parameter": [{
                        "valueString": "603be2ba-52a9-4abd-99a9-5fd41b1190ff",
                        "name": "subject"
                    }],
                    "id": "f4e4c905-1c7c-49f9-84ed-8ac1b0d9f3ac-parameters",
                    "resourceType": "Parameters"
                }],
                "extension": [
                    {
                        "valueReference": {"reference": "#f4e4c905-1c7c-49f9-84ed-8ac1b0d9f3ac-parameters"},
                        "url": "http://hl7.org/fhir/StructureDefinition/cqf-inputParameters"
                    },
                    {
                        "valueMarkdown": "Age 18+, enc. 01/01 0800-0830 during MP,  BP 140/80 at 0801, referral made 0829.\nSDE details added",
                        "url": "http://hl7.org/fhir/us/cqfmeasures/StructureDefinition/cqfm-testCaseDescription"
                    }
                ],
                "period": {
                    "start": "2026-01-01",
                    "end": "2026-12-31"
                },
                "measure": "https://madie.cms.gov/Measure/CMS22FHIRPCSBPScreeningFollowUp",
                "meta": {"profile": ["http://hl7.org/fhir/us/cqfmeasures/StructureDefinition/test-case-cqfm"]},
                "modifierExtension": [{
                    "valueBoolean": true,
                    "url": "http://hl7.org/fhir/us/cqfmeasures/StructureDefinition/cqfm-isTestCase"
                }],
                "id": "a6ec0ec6-8060-408f-b4c8-5ba7f9147a27",
                "evaluatedResource": [
                    {"reference": "Patient/603be2ba-52a9-4abd-99a9-5fd41b1190ff"},
                    {"reference": "Encounter/10d4b8e1-f057-45c5-8cca-6194400429d5"},
                    {"reference": "Observation/e1ed8b65-d7ef-48c1-bd85-4aef8001f4d3"},
                    {"reference": "ServiceRequest/dd1fabc7-3d48-4328-99be-34672872c67b"},
                    {"reference": "Coverage/f9c9a6af-4744-4d40-a777-83ce40541fae"},
                    {"reference": "Organization/6e75be00-7da7-47ab-969e-e533bb98861c"}
                ],
                "type": "individual",
                "resourceType": "MeasureReport",
                "status": "complete",
                "group": [{
                    "id": "Group_1",
                    "measureScore": {"value": 0},
                    "population": [
                        {
                            "code": {"coding": [{
                                "system": "http://terminology.hl7.org/CodeSystem/measure-population",
                                "code": "initial-population",
                                "display": "Initial Population"
                            }]},
                            "count": 1,
                            "id": "InitialPopulation_1"
                        },
                        {
                            "code": {"coding": [{
                                "system": "http://terminology.hl7.org/CodeSystem/measure-population",
                                "code": "denominator",
                                "display": "Denominator"
                            }]},
                            "count": 1,
                            "id": "Denominator_1"
                        },
                        {
                            "code": {"coding": [{
                                "system": "http://terminology.hl7.org/CodeSystem/measure-population",
                                "code": "denominator-exclusion",
                                "display": "Denominator Exclusion"
                            }]},
                            "count": 0,
                            "id": "DenominatorExclusion_1"
                        },
                        {
                            "code": {"coding": [{
                                "system": "http://terminology.hl7.org/CodeSystem/measure-population",
                                "code": "numerator",
                                "display": "Numerator"
                            }]},
                            "count": 1,
                            "id": "Numerator_1"
                        },
                        {
                            "code": {"coding": [{
                                "system": "http://terminology.hl7.org/CodeSystem/measure-population",
                                "code": "denominator-exception",
                                "display": "Denominator Exception"
                            }]},
                            "count": 0,
                            "id": "DenominatorException_1"
                        }
                    ]
                }]
            },
            "fullUrl": "https://madie.cms.gov/MeasureReport/a6ec0ec6-8060-408f-b4c8-5ba7f9147a27"
        }
    ],
    "id": "62d02bc3d15ad008a13f69e4",
    "type": "transaction",
    "resourceType": "Bundle"
}