{
  "resourceType": "Bundle",
  "id": "tests-DENOMPass-MedPeriodEndsAfterEnc-bundle",
  "type": "transaction",
  "entry": [ {
    "fullUrl": "https://madie.cms.gov/Encounter/9cadfd87-7b15-489b-8977-70d87801e27c",
    "resource": {
      "resourceType": "Encounter",
      "id": "9cadfd87-7b15-489b-8977-70d87801e27c",
      "meta": {
        "profile": [ "http://hl7.org/fhir/us/qicore/StructureDefinition/qicore-encounter" ]
      },
      "status": "finished",
      "class": {
        "system": "http://terminology.hl7.org/CodeSystem/v3-ActCode",
        "code": "IMP",
        "display": "Inpatient encounter"
      },
      "type": [ {
        "coding": [ {
          "system": "http://snomed.info/sct",
          "code": "183452005",
          "display": "Inpatient encounter"
        } ]
      } ],
      "period": {
        "start": "2026-07-11T08:00:00.000+00:00",
        "end": "2026-07-12T21:00:00.000+00:00"
      }
    },
    "request": {
      "method": "PUT",
      "url": "Encounter/9cadfd87-7b15-489b-8977-70d87801e27c"
    }
  }, {
    "fullUrl": "https://madie.cms.gov/MedicationAdministration/8e738264-1c36-4350-8963-87d8aeaa3cab",
    "resource": {
      "resourceType": "MedicationAdministration",
      "id": "8e738264-1c36-4350-8963-87d8aeaa3cab",
      "meta": {
        "profile": [ "http://hl7.org/fhir/us/qicore/StructureDefinition/qicore-medicationadministration" ]
      },
      "status": "completed",
      "medicationCodeableConcept": {
        "coding": [ {
          "system": "http://www.nlm.nih.gov/research/umls/rxnorm",
          "code": "1361493",
          "display": "Hypoglycemics Severe Hypoglycemia"
        } ]
      },
      "subject": {
        "reference": "Patient/05c8cd12-addd-4b94-8f92-da093c556a84"
      },
      "effectivePeriod": {
        "start": "2026-07-11T08:00:00.000+00:00",
        "end": "2026-07-12T21:15:00.000+00:00"
      }
    },
    "request": {
      "method": "PUT",
      "url": "MedicationAdministration/8e738264-1c36-4350-8963-87d8aeaa3cab"
    }
  }, {
    "fullUrl": "https://madie.cms.gov/Patient/05c8cd12-addd-4b94-8f92-da093c556a84",
    "resource": {
      "resourceType": "Patient",
      "id": "05c8cd12-addd-4b94-8f92-da093c556a84",
      "meta": {
        "profile": [ "http://hl7.org/fhir/us/qicore/StructureDefinition/qicore-patient" ]
      },
      "extension": [ {
        "url": "http://hl7.org/fhir/us/core/StructureDefinition/us-core-race",
        "extension": [ {
          "url": "ombCategory",
          "valueCoding": {
            "system": "urn:oid:2.16.840.1.113883.6.238",
            "code": "2106-3",
            "display": "White"
          }
        }, {
          "url": "text",
          "valueString": "White"
        } ]
      }, {
        "url": "http://hl7.org/fhir/us/core/StructureDefinition/us-core-ethnicity",
        "extension": [ {
          "url": "ombCategory",
          "valueCoding": {
            "system": "urn:oid:2.16.840.1.113883.6.238",
            "code": "2135-2",
            "display": "Hispanic or Latino"
          }
        }, {
          "url": "text",
          "valueString": "Hispanic or Latino"
        } ]
      }, {
        "url": "http://hl7.org/fhir/us/core/StructureDefinition/us-core-sex",
        "valueCode": "248153007"
      } ],
      "identifier": [ {
        "system": "http://hospital.smarthealthit.org",
        "value": "999999999"
      } ],
      "name": [ {
        "family": "Example",
        "given": [ "Patient" ]
      } ],
      "gender": "female",
      "birthDate": "1956-01-01"
    },
    "request": {
      "method": "PUT",
      "url": "Patient/05c8cd12-addd-4b94-8f92-da093c556a84"
    }
  }, {
    "fullUrl": "https://madie.cms.gov/MeasureReport/75e7c944-f8a7-4494-ada3-68a3cab96674",
    "resource": {
      "resourceType": "MeasureReport",
      "id": "75e7c944-f8a7-4494-ada3-68a3cab96674",
      "meta": {
        "profile": [ "http://hl7.org/fhir/us/cqfmeasures/StructureDefinition/test-case-cqfm" ]
      },
      "contained": [ {
        "resourceType": "Parameters",
        "id": "27328a52-3beb-4396-bbcf-c6e04a179d3d-parameters",
        "parameter": [ {
          "name": "subject",
          "valueString": "05c8cd12-addd-4b94-8f92-da093c556a84"
        } ]
      } ],
      "extension": [ {
        "url": "http://hl7.org/fhir/StructureDefinition/cqf-inputParameters",
        "valueReference": {
          "reference": "#27328a52-3beb-4396-bbcf-c6e04a179d3d-parameters"
        }
      }, {
        "url": "http://hl7.org/fhir/us/cqfmeasures/StructureDefinition/cqfm-testCaseDescription",
        "valueMarkdown": "Right age with encounter, meds administered, no lab tests. Med relevant period starts during encounter, ends after encounter. Denom pass - meets rule that med must 'start' during encounter. No rule that it must end during encounter."
      } ],
      "modifierExtension": [ {
        "url": "http://hl7.org/fhir/us/cqfmeasures/StructureDefinition/cqfm-isTestCase",
        "valueBoolean": true
      } ],
      "status": "complete",
      "type": "individual",
      "measure": "https://madie.cms.gov/Measure/CMS816FHIRHHHypo",
      "period": {
        "start": "2026-01-01",
        "end": "2026-12-31"
      },
      "group": [ {
        "id": "Group_1",
        "population": [ {
          "id": "InitialPopulation_1",
          "code": {
            "coding": [ {
              "system": "http://terminology.hl7.org/CodeSystem/measure-population",
              "code": "initial-population",
              "display": "Initial Population"
            } ]
          },
          "count": 1
        }, {
          "id": "Denominator_1",
          "code": {
            "coding": [ {
              "system": "http://terminology.hl7.org/CodeSystem/measure-population",
              "code": "denominator",
              "display": "Denominator"
            } ]
          },
          "count": 1
        }, {
          "id": "Numerator_1",
          "code": {
            "coding": [ {
              "system": "http://terminology.hl7.org/CodeSystem/measure-population",
              "code": "numerator",
              "display": "Numerator"
            } ]
          },
          "count": 0
        } ],
        "measureScore": {
          "value": 0.0
        }
      } ],
      "evaluatedResource": [ {
        "reference": "Encounter/9cadfd87-7b15-489b-8977-70d87801e27c"
      }, {
        "reference": "MedicationAdministration/8e738264-1c36-4350-8963-87d8aeaa3cab"
      }, {
        "reference": "Patient/05c8cd12-addd-4b94-8f92-da093c556a84"
      } ]
    },
    "request": {
      "method": "PUT",
      "url": "MeasureReport/75e7c944-f8a7-4494-ada3-68a3cab96674"
    }
  } ]
}