{"resourceType":"Bundle","id":"tests-7c44ff36-2963-4736-81bc-a504026c247d-bundle","type":"transaction","entry":[{"resource":{"resourceType":"AdverseEvent","id":"statin-allergen-35d9","meta":{"profile":["http://hl7.org/fhir/us/qicore/StructureDefinition/qicore-adverseevent"]},"actuality":"actual","event":{"coding":[{"system":"http://www.nlm.nih.gov/research/umls/rxnorm","version":"2022-06","code":"301542","display":"rosuvastatin","userSelected":true}]},"subject":{"reference":"Patient/7c44ff36-2963-4736-81bc-a504026c247d"},"recordedDate":"2025-12-31T08:00:00.000+00:00"},"request":{"method":"PUT","url":"AdverseEvent/statin-allergen-35d9"}},{"resource":{"resourceType":"Bundle","id":"62d9cd5ebdcc852250e535d8","type":"transaction","entry":[{"fullUrl":"https://madie.cms.gov/Patient/7c44ff36-2963-4736-81bc-a504026c247d","resource":{"resourceType":"Patient","id":"7c44ff36-2963-4736-81bc-a504026c247d","meta":{"profile":["http://hl7.org/fhir/us/qicore/StructureDefinition/qicore-patient"]},"extension":[{"url":"http://hl7.org/fhir/us/core/StructureDefinition/us-core-race","extension":[{"url":"ombCategory","valueCoding":{"system":"urn:oid:2.16.840.1.113883.6.238","code":"2028-9","display":"Asian","userSelected":true}},{"url":"text","valueString":"Asian"}]},{"url":"http://hl7.org/fhir/us/core/StructureDefinition/us-core-ethnicity","extension":[{"url":"ombCategory","valueCoding":{"system":"urn:oid:2.16.840.1.113883.6.238","code":"2186-5","display":"Not Hispanic or Latino","userSelected":true}},{"url":"text","valueString":"Not Hispanic or Latino"}]}],"identifier":[{"type":{"coding":[{"system":"http://terminology.hl7.org/CodeSystem/v2-0203","code":"MR"}]},"system":"https://bonnie-fhir.healthit.gov/","value":"62d9cd5ebdcc852250e535d8"}],"name":[{"family":"DENEXCEPPop1Pass","given":["AdverseReactionStatin"]}],"gender":"male","birthDate":"2005-12-31"},"request":{"method":"POST","url":"Patient/7c44ff36-2963-4736-81bc-a504026c247d"}},{"fullUrl":"https://madie.cms.gov/Encounter/office-visit-35d3","resource":{"resourceType":"Encounter","id":"office-visit-35d3","meta":{"profile":["http://hl7.org/fhir/us/qicore/StructureDefinition/qicore-encounter"]},"status":"finished","class":{"system":"http://terminology.hl7.org/CodeSystem/v3-ActCode","code":"AMB","display":"ambulatory"},"type":[{"coding":[{"system":"http://snomed.info/sct","version":"2022-03","code":"185463005","display":"Visit out of hours (procedure)","userSelected":true}]}],"subject":{"reference":"Patient/7c44ff36-2963-4736-81bc-a504026c247d"},"period":{"start":"2025-01-01T08:00:00.000+00:00","end":"2025-01-01T08:30:00.000+00:00"}},"request":{"method":"POST","url":"Encounter/office-visit-35d3"}},{"fullUrl":"https://madie.cms.gov/Condition/atherosclerosis-PAD-35d4","resource":{"resourceType":"Condition","id":"atherosclerosis-PAD-35d4","meta":{"profile":["http://hl7.org/fhir/us/qicore/StructureDefinition/qicore-condition-problems-health-concerns"]},"clinicalStatus":{"coding":[{"system":"http://terminology.hl7.org/CodeSystem/condition-clinical","code":"active","display":"active","userSelected":true}]},"category":[{"coding":[{"system":"http://terminology.hl7.org/CodeSystem/condition-category","code":"problem-list-item","display":"Problem List Item"}]}],"code":{"coding":[{"system":"http://snomed.info/sct","version":"2022-03","code":"421365002","display":"Peripheral circulatory disorder due to type 1 diabetes mellitus (disorder)","userSelected":true}]},"subject":{"reference":"Patient/7c44ff36-2963-4736-81bc-a504026c247d"},"onsetDateTime":"2024-12-31T08:00:00.000+00:00"},"request":{"method":"POST","url":"Condition/atherosclerosis-PAD-35d4"}},{"fullUrl":"https://madie.cms.gov/AdverseEvent/statin-allergen-35d9","resource":{"resourceType":"AdverseEvent","id":"statin-allergen-35d9","meta":{"profile":["http://hl7.org/fhir/us/qicore/StructureDefinition/qicore-adverseevent"]},"actuality":"actual","event":{"coding":[{"system":"http://www.nlm.nih.gov/research/umls/rxnorm","version":"2022-06","code":"301542","display":"rosuvastatin","userSelected":true}]},"subject":{"reference":"Patient/7c44ff36-2963-4736-81bc-a504026c247d"},"recordedDate":"2025-12-31T08:00:00.000+00:00"},"request":{"method":"POST","url":"AdverseEvent/statin-allergen-35d9"}},{"fullUrl":"https://madie.cms.gov/Coverage/1","resource":{"resourceType":"Coverage","id":"1","meta":{"profile":["http://hl7.org/fhir/us/qicore/StructureDefinition/qicore-coverage"]},"status":"active","beneficiary":{"reference":"Patient/7c44ff36-2963-4736-81bc-a504026c247d"},"payor":[{"reference":"Organization/123456"}]},"request":{"method":"POST","url":"Coverage/1"}},{"fullUrl":"https://madie.cms.gov/Organization/123456","resource":{"resourceType":"Organization","id":"123456","meta":{"profile":["http://hl7.org/fhir/us/qicore/StructureDefinition/qicore-organization"]},"identifier":[{"use":"temp","system":"urn:oid:2.16.840.1.113883.4.4","value":"21-3259825"}],"active":true,"type":[{"coding":[{"system":"http://terminology.hl7.org/CodeSystem/organization-type","code":"pay","display":"Payer"}]}],"name":"Blue Cross Blue Shield of Texas","telecom":[{"system":"phone","value":"(+1) 972-766-6900"}],"address":[{"use":"billing","type":"postal","line":["P.O. Box 660044"],"city":"Dallas","state":"TX","postalCode":"75266-0044","country":"USA"}]},"request":{"method":"POST","url":"Organization/123456"}},{"fullUrl":"https://madie.cms.gov/Practitioner/practitioner-123456","resource":{"resourceType":"Practitioner","id":"practitioner-123456","meta":{"profile":["http://hl7.org/fhir/us/qicore/StructureDefinition/qicore-practitioner"]},"identifier":[{"system":"http://hl7.org/fhir/sid/us-npi","value":"123456"}],"name":[{"family":"Evil","prefix":["Dr"]}]},"request":{"method":"POST","url":"Practitioner/practitioner-123456"}},{"fullUrl":"https://madie.cms.gov/MeasureReport/15461f3a-f396-41cb-9935-28feb16695ef","resource":{"resourceType":"MeasureReport","id":"15461f3a-f396-41cb-9935-28feb16695ef","meta":{"profile":["http://hl7.org/fhir/us/cqfmeasures/StructureDefinition/test-case-cqfm"]},"contained":[{"resourceType":"Parameters","id":"018fe658-84f8-4753-bdc4-b9373bdbbc66-parameters","parameter":[{"name":"subject","valueString":"7c44ff36-2963-4736-81bc-a504026c247d"}]}],"extension":[{"url":"http://hl7.org/fhir/us/cqfmeasures/StructureDefinition/cqfm-inputParameters","valueReference":{"reference":"#018fe658-84f8-4753-bdc4-b9373bdbbc66-parameters"}},{"url":"http://hl7.org/fhir/us/cqfmeasures/StructureDefinition/cqfm-testCaseDescription","valueMarkdown":"Enc. 1st day of MP, age 20 day before start of MP, ha Peripheral circ. disorder due to type 1 DM  (\"Atherosclerosis and PAD\") last day of prior year, had an adverse reaction to taking statins last day of prior year,  -no longer prescribed."}],"modifierExtension":[{"url":"http://hl7.org/fhir/us/cqfmeasures/StructureDefinition/cqfm-isTestCase","valueBoolean":true}],"status":"complete","type":"individual","measure":"https://madie.cms.gov/Measure/StatinsforthePreventionandTreatmentofCardiovascularDiseaseFHIR","period":{"start":"2025-01-01","end":"2025-12-31"},"group":[{"population":[{"code":{"coding":[{"system":"http://terminology.hl7.org/CodeSystem/measure-population","code":"initial-population","display":"Initial Population"}]},"count":1},{"code":{"coding":[{"system":"http://terminology.hl7.org/CodeSystem/measure-population","code":"denominator","display":"Denominator"}]},"count":1},{"code":{"coding":[{"system":"http://terminology.hl7.org/CodeSystem/measure-population","code":"denominator-exclusion","display":"Denominator Exclusion"}]},"count":0},{"code":{"coding":[{"system":"http://terminology.hl7.org/CodeSystem/measure-population","code":"numerator","display":"Numerator"}]},"count":0},{"code":{"coding":[{"system":"http://terminology.hl7.org/CodeSystem/measure-population","code":"denominator-exception","display":"Denominator Exception"}]},"count":1}]},{"population":[{"code":{"coding":[{"system":"http://terminology.hl7.org/CodeSystem/measure-population","code":"initial-population","display":"Initial Population"}]},"count":0},{"code":{"coding":[{"system":"http://terminology.hl7.org/CodeSystem/measure-population","code":"denominator","display":"Denominator"}]},"count":0},{"code":{"coding":[{"system":"http://terminology.hl7.org/CodeSystem/measure-population","code":"denominator-exclusion","display":"Denominator Exclusion"}]},"count":0},{"code":{"coding":[{"system":"http://terminology.hl7.org/CodeSystem/measure-population","code":"numerator","display":"Numerator"}]},"count":0},{"code":{"coding":[{"system":"http://terminology.hl7.org/CodeSystem/measure-population","code":"denominator-exception","display":"Denominator Exception"}]},"count":0}]},{"population":[{"code":{"coding":[{"system":"http://terminology.hl7.org/CodeSystem/measure-population","code":"initial-population","display":"Initial Population"}]},"count":0},{"code":{"coding":[{"system":"http://terminology.hl7.org/CodeSystem/measure-population","code":"denominator","display":"Denominator"}]},"count":0},{"code":{"coding":[{"system":"http://terminology.hl7.org/CodeSystem/measure-population","code":"denominator-exclusion","display":"Denominator Exclusion"}]},"count":0},{"code":{"coding":[{"system":"http://terminology.hl7.org/CodeSystem/measure-population","code":"numerator","display":"Numerator"}]},"count":0},{"code":{"coding":[{"system":"http://terminology.hl7.org/CodeSystem/measure-population","code":"denominator-exception","display":"Denominator Exception"}]},"count":0}]},{"population":[{"code":{"coding":[{"system":"http://terminology.hl7.org/CodeSystem/measure-population","code":"initial-population","display":"Initial Population"}]},"count":0},{"code":{"coding":[{"system":"http://terminology.hl7.org/CodeSystem/measure-population","code":"denominator","display":"Denominator"}]},"count":0},{"code":{"coding":[{"system":"http://terminology.hl7.org/CodeSystem/measure-population","code":"denominator-exclusion","display":"Denominator Exclusion"}]},"count":0},{"code":{"coding":[{"system":"http://terminology.hl7.org/CodeSystem/measure-population","code":"numerator","display":"Numerator"}]},"count":0},{"code":{"coding":[{"system":"http://terminology.hl7.org/CodeSystem/measure-population","code":"denominator-exception","display":"Denominator Exception"}]},"count":0}]}],"evaluatedResource":[{"reference":"https://madie.cms.gov/Patient/7c44ff36-2963-4736-81bc-a504026c247d"},{"reference":"https://madie.cms.gov/Encounter/office-visit-35d3"},{"reference":"https://madie.cms.gov/Condition/atherosclerosis-PAD-35d4"},{"reference":"https://madie.cms.gov/AdverseEvent/statin-allergen-35d9"},{"reference":"https://madie.cms.gov/Coverage/1"},{"reference":"https://madie.cms.gov/Organization/123456"},{"reference":"https://madie.cms.gov/Practitioner/practitioner-123456"}]},"request":{"method":"POST","url":"MeasureReport/15461f3a-f396-41cb-9935-28feb16695ef"}}]},"request":{"method":"PUT","url":"Bundle/62d9cd5ebdcc852250e535d8"}},{"resource":{"resourceType":"Condition","id":"atherosclerosis-PAD-35d4","meta":{"profile":["http://hl7.org/fhir/us/qicore/StructureDefinition/qicore-condition-problems-health-concerns"]},"clinicalStatus":{"coding":[{"system":"http://terminology.hl7.org/CodeSystem/condition-clinical","code":"active","display":"active","userSelected":true}]},"category":[{"coding":[{"system":"http://terminology.hl7.org/CodeSystem/condition-category","code":"problem-list-item","display":"Problem List Item"}]}],"code":{"coding":[{"system":"http://snomed.info/sct","version":"2022-03","code":"421365002","display":"Peripheral circulatory disorder due to type 1 diabetes mellitus (disorder)","userSelected":true}]},"subject":{"reference":"Patient/7c44ff36-2963-4736-81bc-a504026c247d"},"onsetDateTime":"2024-12-31T08:00:00.000+00:00"},"request":{"method":"PUT","url":"Condition/atherosclerosis-PAD-35d4"}},{"resource":{"resourceType":"Coverage","id":"1","meta":{"profile":["http://hl7.org/fhir/us/qicore/StructureDefinition/qicore-coverage"]},"status":"active","beneficiary":{"reference":"Patient/7c44ff36-2963-4736-81bc-a504026c247d"},"payor":[{"reference":"Organization/123456"}]},"request":{"method":"PUT","url":"Coverage/1"}},{"resource":{"resourceType":"Encounter","id":"office-visit-35d3","meta":{"profile":["http://hl7.org/fhir/us/qicore/StructureDefinition/qicore-encounter"]},"status":"finished","class":{"system":"http://terminology.hl7.org/CodeSystem/v3-ActCode","code":"AMB","display":"ambulatory"},"type":[{"coding":[{"system":"http://snomed.info/sct","version":"2022-03","code":"185463005","display":"Visit out of hours (procedure)","userSelected":true}]}],"subject":{"reference":"Patient/7c44ff36-2963-4736-81bc-a504026c247d"},"period":{"start":"2025-01-01T08:00:00.000+00:00","end":"2025-01-01T08:30:00.000+00:00"}},"request":{"method":"PUT","url":"Encounter/office-visit-35d3"}},{"resource":{"resourceType":"MeasureReport","id":"15461f3a-f396-41cb-9935-28feb16695ef","meta":{"profile":["http://hl7.org/fhir/us/cqfmeasures/StructureDefinition/test-case-cqfm"]},"contained":[{"resourceType":"Parameters","id":"018fe658-84f8-4753-bdc4-b9373bdbbc66-parameters","parameter":[{"name":"subject","valueString":"7c44ff36-2963-4736-81bc-a504026c247d"}]}],"extension":[{"url":"http://hl7.org/fhir/us/cqfmeasures/StructureDefinition/cqfm-inputParameters","valueReference":{"reference":"#018fe658-84f8-4753-bdc4-b9373bdbbc66-parameters"}},{"url":"http://hl7.org/fhir/us/cqfmeasures/StructureDefinition/cqfm-testCaseDescription","valueMarkdown":"Enc. 1st day of MP, age 20 day before start of MP, ha Peripheral circ. disorder due to type 1 DM  (\"Atherosclerosis and PAD\") last day of prior year, had an adverse reaction to taking statins last day of prior year,  -no longer prescribed."}],"modifierExtension":[{"url":"http://hl7.org/fhir/us/cqfmeasures/StructureDefinition/cqfm-isTestCase","valueBoolean":true}],"status":"complete","type":"individual","measure":"https://madie.cms.gov/Measure/StatinsforthePreventionandTreatmentofCardiovascularDiseaseFHIR","period":{"start":"2025-01-01","end":"2025-12-31"},"group":[{"population":[{"code":{"coding":[{"system":"http://terminology.hl7.org/CodeSystem/measure-population","code":"initial-population","display":"Initial Population"}]},"count":1},{"code":{"coding":[{"system":"http://terminology.hl7.org/CodeSystem/measure-population","code":"denominator","display":"Denominator"}]},"count":1},{"code":{"coding":[{"system":"http://terminology.hl7.org/CodeSystem/measure-population","code":"denominator-exclusion","display":"Denominator Exclusion"}]},"count":0},{"code":{"coding":[{"system":"http://terminology.hl7.org/CodeSystem/measure-population","code":"numerator","display":"Numerator"}]},"count":0},{"code":{"coding":[{"system":"http://terminology.hl7.org/CodeSystem/measure-population","code":"denominator-exception","display":"Denominator Exception"}]},"count":1}]},{"population":[{"code":{"coding":[{"system":"http://terminology.hl7.org/CodeSystem/measure-population","code":"initial-population","display":"Initial Population"}]},"count":0},{"code":{"coding":[{"system":"http://terminology.hl7.org/CodeSystem/measure-population","code":"denominator","display":"Denominator"}]},"count":0},{"code":{"coding":[{"system":"http://terminology.hl7.org/CodeSystem/measure-population","code":"denominator-exclusion","display":"Denominator Exclusion"}]},"count":0},{"code":{"coding":[{"system":"http://terminology.hl7.org/CodeSystem/measure-population","code":"numerator","display":"Numerator"}]},"count":0},{"code":{"coding":[{"system":"http://terminology.hl7.org/CodeSystem/measure-population","code":"denominator-exception","display":"Denominator Exception"}]},"count":0}]},{"population":[{"code":{"coding":[{"system":"http://terminology.hl7.org/CodeSystem/measure-population","code":"initial-population","display":"Initial Population"}]},"count":0},{"code":{"coding":[{"system":"http://terminology.hl7.org/CodeSystem/measure-population","code":"denominator","display":"Denominator"}]},"count":0},{"code":{"coding":[{"system":"http://terminology.hl7.org/CodeSystem/measure-population","code":"denominator-exclusion","display":"Denominator Exclusion"}]},"count":0},{"code":{"coding":[{"system":"http://terminology.hl7.org/CodeSystem/measure-population","code":"numerator","display":"Numerator"}]},"count":0},{"code":{"coding":[{"system":"http://terminology.hl7.org/CodeSystem/measure-population","code":"denominator-exception","display":"Denominator Exception"}]},"count":0}]},{"population":[{"code":{"coding":[{"system":"http://terminology.hl7.org/CodeSystem/measure-population","code":"initial-population","display":"Initial Population"}]},"count":0},{"code":{"coding":[{"system":"http://terminology.hl7.org/CodeSystem/measure-population","code":"denominator","display":"Denominator"}]},"count":0},{"code":{"coding":[{"system":"http://terminology.hl7.org/CodeSystem/measure-population","code":"denominator-exclusion","display":"Denominator Exclusion"}]},"count":0},{"code":{"coding":[{"system":"http://terminology.hl7.org/CodeSystem/measure-population","code":"numerator","display":"Numerator"}]},"count":0},{"code":{"coding":[{"system":"http://terminology.hl7.org/CodeSystem/measure-population","code":"denominator-exception","display":"Denominator Exception"}]},"count":0}]}],"evaluatedResource":[{"reference":"https://madie.cms.gov/Patient/7c44ff36-2963-4736-81bc-a504026c247d"},{"reference":"https://madie.cms.gov/Encounter/office-visit-35d3"},{"reference":"https://madie.cms.gov/Condition/atherosclerosis-PAD-35d4"},{"reference":"https://madie.cms.gov/AdverseEvent/statin-allergen-35d9"},{"reference":"https://madie.cms.gov/Coverage/1"},{"reference":"https://madie.cms.gov/Organization/123456"},{"reference":"https://madie.cms.gov/Practitioner/practitioner-123456"}]},"request":{"method":"PUT","url":"MeasureReport/15461f3a-f396-41cb-9935-28feb16695ef"}},{"resource":{"resourceType":"Organization","id":"123456","meta":{"profile":["http://hl7.org/fhir/us/qicore/StructureDefinition/qicore-organization"]},"identifier":[{"use":"temp","system":"urn:oid:2.16.840.1.113883.4.4","value":"21-3259825"}],"active":true,"type":[{"coding":[{"system":"http://terminology.hl7.org/CodeSystem/organization-type","code":"pay","display":"Payer"}]}],"name":"Blue Cross Blue Shield of Texas","telecom":[{"system":"phone","value":"(+1) 972-766-6900"}],"address":[{"use":"billing","type":"postal","line":["P.O. Box 660044"],"city":"Dallas","state":"TX","postalCode":"75266-0044","country":"USA"}]},"request":{"method":"PUT","url":"Organization/123456"}},{"resource":{"resourceType":"Patient","id":"7c44ff36-2963-4736-81bc-a504026c247d","meta":{"profile":["http://hl7.org/fhir/us/qicore/StructureDefinition/qicore-patient"]},"extension":[{"url":"http://hl7.org/fhir/us/core/StructureDefinition/us-core-race","extension":[{"url":"ombCategory","valueCoding":{"system":"urn:oid:2.16.840.1.113883.6.238","code":"2028-9","display":"Asian","userSelected":true}},{"url":"text","valueString":"Asian"}]},{"url":"http://hl7.org/fhir/us/core/StructureDefinition/us-core-ethnicity","extension":[{"url":"ombCategory","valueCoding":{"system":"urn:oid:2.16.840.1.113883.6.238","code":"2186-5","display":"Not Hispanic or Latino","userSelected":true}},{"url":"text","valueString":"Not Hispanic or Latino"}]}],"identifier":[{"type":{"coding":[{"system":"http://terminology.hl7.org/CodeSystem/v2-0203","code":"MR"}]},"system":"https://bonnie-fhir.healthit.gov/","value":"62d9cd5ebdcc852250e535d8"}],"name":[{"family":"DENEXCEPPop1Pass","given":["AdverseReactionStatin"]}],"gender":"male","birthDate":"2005-12-31"},"request":{"method":"PUT","url":"Patient/7c44ff36-2963-4736-81bc-a504026c247d"}},{"resource":{"resourceType":"Practitioner","id":"practitioner-123456","meta":{"profile":["http://hl7.org/fhir/us/qicore/StructureDefinition/qicore-practitioner"]},"identifier":[{"system":"http://hl7.org/fhir/sid/us-npi","value":"123456"}],"name":[{"family":"Evil","prefix":["Dr"]}]},"request":{"method":"PUT","url":"Practitioner/practitioner-123456"}}]}