{
  "resourceType": "Bundle",
  "id": "63487c300968f801225401be",
  "type": "transaction",
  "entry": [ {
    "fullUrl": "https://madie.cms.gov/Patient/2b5476ea-52e5-467f-966c-81aea3d82ff0",
    "resource": {
      "resourceType": "Patient",
      "id": "2b5476ea-52e5-467f-966c-81aea3d82ff0",
      "meta": {
        "profile": [ "http://hl7.org/fhir/us/qicore/StructureDefinition/qicore-patient" ]
      },
      "text": {
        "status": "generated",
        "div": "<div xmlns=\"http://www.w3.org/1999/xhtml\"><div class=\"hapiHeaderText\">AssessTermLastMissingResult<b>DENOMFail</b></div><table class=\"hapiPropertyTable\"><tbody><tr><td>Identifier</td><td>e6e21c3fa4edfea41e3da1195d4a7d3d8dc72d010572e04bff4dafb21a72c78e</td></tr><tr><td>Date of birth</td><td><span>14 February 1985</span></td></tr></tbody></table></div>"
      },
      "extension": [ {
        "url": "http://hl7.org/fhir/us/core/StructureDefinition/us-core-race",
        "extension": [ {
          "url": "ombCategory",
          "valueCoding": {
            "system": "urn:oid:2.16.840.1.113883.6.238",
            "code": "1002-5",
            "display": "American Indian or Alaska Native",
            "userSelected": true
          }
        }, {
          "url": "text",
          "valueString": "American Indian or Alaska Native"
        } ]
      }, {
        "url": "http://hl7.org/fhir/us/core/StructureDefinition/us-core-ethnicity",
        "extension": [ {
          "url": "ombCategory",
          "valueCoding": {
            "system": "urn:oid:2.16.840.1.113883.6.238",
            "code": "2135-2",
            "display": "Hispanic or Latino",
            "userSelected": true
          }
        }, {
          "url": "text",
          "valueString": "Hispanic or Latino"
        } ]
      } ],
      "identifier": [ {
        "type": {
          "coding": [ {
            "system": "http://terminology.hl7.org/CodeSystem/v2-0203",
            "code": "MR"
          } ]
        },
        "system": "https://bonnie-fhir.healthit.gov/",
        "value": "63487c300968f801225401be"
      } ],
      "active": true,
      "name": [ {
        "use": "usual",
        "family": "DENOMFail",
        "given": [ "AssessTermLastMissingResult" ]
      } ],
      "gender": "female",
      "birthDate": "1998-02-14"
    },
    "request": {
      "method": "PUT",
      "url": "Patient/2b5476ea-52e5-467f-966c-81aea3d82ff0"
    }
  }, {
    "fullUrl": "https://madie.cms.gov/Observation/46d32c62-9f58-4a5b-a9f3-b72d7a8be7a1",
    "resource": {
      "resourceType": "Observation",
      "id": "46d32c62-9f58-4a5b-a9f3-b72d7a8be7a1",
      "meta": {
        "profile": [ "http://hl7.org/fhir/us/qicore/StructureDefinition/qicore-simple-observation" ]
      },
      "status": "final",
      "category": [ {
        "coding": [ {
          "system": "http://terminology.hl7.org/CodeSystem/observation-category",
          "code": "exam",
          "display": "exam",
          "userSelected": true
        } ]
      } ],
      "code": {
        "coding": [ {
          "system": "http://loinc.org",
          "code": "11637-6"
        } ]
      },
      "subject": {
        "reference": "Patient/2b5476ea-52e5-467f-966c-81aea3d82ff0"
      },
      "effectiveDateTime": "2025-09-19T09:00:00.000+00:00",
      "valueInteger": 0
    },
    "request": {
      "method": "PUT",
      "url": "Observation/46d32c62-9f58-4a5b-a9f3-b72d7a8be7a1"
    }
  }, {
    "fullUrl": "https://madie.cms.gov/Observation/3865a241-6851-498d-932f-105b366e5a56",
    "resource": {
      "resourceType": "Observation",
      "id": "3865a241-6851-498d-932f-105b366e5a56",
      "meta": {
        "profile": [ "http://hl7.org/fhir/us/qicore/StructureDefinition/qicore-simple-observation" ]
      },
      "status": "final",
      "category": [ {
        "coding": [ {
          "system": "http://terminology.hl7.org/CodeSystem/observation-category",
          "code": "exam",
          "display": "exam",
          "userSelected": true
        } ]
      } ],
      "code": {
        "coding": [ {
          "system": "http://loinc.org",
          "code": "11639-2"
        } ]
      },
      "subject": {
        "reference": "Patient/2b5476ea-52e5-467f-966c-81aea3d82ff0"
      },
      "effectiveDateTime": "2025-09-19T09:00:00.000+00:00"
    },
    "request": {
      "method": "PUT",
      "url": "Observation/3865a241-6851-498d-932f-105b366e5a56"
    }
  }, {
    "fullUrl": "https://madie.cms.gov/Observation/7807fd05-22d2-4e0a-99a2-4fd53e17b759",
    "resource": {
      "resourceType": "Observation",
      "id": "7807fd05-22d2-4e0a-99a2-4fd53e17b759",
      "meta": {
        "profile": [ "http://hl7.org/fhir/us/qicore/StructureDefinition/qicore-simple-observation" ]
      },
      "status": "final",
      "category": [ {
        "coding": [ {
          "system": "http://terminology.hl7.org/CodeSystem/observation-category",
          "code": "exam",
          "display": "exam",
          "userSelected": true
        } ]
      } ],
      "code": {
        "coding": [ {
          "system": "http://loinc.org",
          "code": "11884-4"
        } ]
      },
      "subject": {
        "reference": "Patient/2b5476ea-52e5-467f-966c-81aea3d82ff0"
      },
      "effectiveDateTime": "2026-06-08T20:00:00.000+00:00",
      "valueQuantity": {
        "value": 37,
        "system": "http://unitsofmeasure.org",
        "code": "wk"
      }
    },
    "request": {
      "method": "PUT",
      "url": "Observation/7807fd05-22d2-4e0a-99a2-4fd53e17b759"
    }
  }, {
    "fullUrl": "https://madie.cms.gov/Observation/abc9974e-83f8-447e-a220-c962be0fddff",
    "resource": {
      "resourceType": "Observation",
      "id": "abc9974e-83f8-447e-a220-c962be0fddff",
      "meta": {
        "profile": [ "http://hl7.org/fhir/us/qicore/StructureDefinition/qicore-simple-observation" ]
      },
      "status": "final",
      "category": [ {
        "coding": [ {
          "system": "http://terminology.hl7.org/CodeSystem/observation-category",
          "code": "exam",
          "display": "exam",
          "userSelected": true
        } ]
      } ],
      "code": {
        "coding": [ {
          "system": "http://loinc.org",
          "code": "93857-1"
        } ]
      },
      "subject": {
        "reference": "Patient/2b5476ea-52e5-467f-966c-81aea3d82ff0"
      },
      "effectiveDateTime": "2026-06-08T20:00:00.000+00:00",
      "valueDateTime": "2026-06-08T20:00:00.000+00:00"
    },
    "request": {
      "method": "PUT",
      "url": "Observation/abc9974e-83f8-447e-a220-c962be0fddff"
    }
  }, {
    "fullUrl": "https://madie.cms.gov/Encounter/0eb18b16-4be2-4488-b55d-40ba1ee3c0f1",
    "resource": {
      "resourceType": "Encounter",
      "id": "0eb18b16-4be2-4488-b55d-40ba1ee3c0f1",
      "meta": {
        "profile": [ "http://hl7.org/fhir/us/qicore/StructureDefinition/qicore-encounter" ]
      },
      "status": "finished",
      "class": {
        "system": "http://terminology.hl7.org/CodeSystem/v3-ActCode",
        "code": "IMP",
        "display": "inpatient encounter"
      },
      "type": [ {
        "coding": [ {
          "system": "http://snomed.info/sct",
          "code": "8715000"
        } ]
      } ],
      "subject": {
        "reference": "Patient/2b5476ea-52e5-467f-966c-81aea3d82ff0"
      },
      "period": {
        "start": "2026-06-08T08:00:00.000+00:00",
        "end": "2026-06-10T08:15:00.000+00:00"
      },
      "length": {
        "value": 2,
        "unit": "days"
      },
      "reasonReference": [ {
        "reference": "Condition/38c71d4b-767e-4e32-89db-994ef0242950"
      } ]
    },
    "request": {
      "method": "PUT",
      "url": "Encounter/0eb18b16-4be2-4488-b55d-40ba1ee3c0f1"
    }
  }, {
    "fullUrl": "https://madie.cms.gov/Procedure/9014c42b-741c-4b90-9377-81d19f4cb693",
    "resource": {
      "resourceType": "Procedure",
      "id": "9014c42b-741c-4b90-9377-81d19f4cb693",
      "meta": {
        "profile": [ "http://hl7.org/fhir/us/qicore/StructureDefinition/qicore-procedure" ]
      },
      "extension": [ {
        "url": "http://hl7.org/fhir/us/qicore/StructureDefinition/qicore-recorded",
        "valueDateTime": "2014-04-05T13:35:00.000+00:00"
      } ],
      "status": "completed",
      "code": {
        "coding": [ {
          "system": "http://www.cms.gov/Medicare/Coding/ICD10",
          "code": "10D00Z0"
        }, {
          "system": "http://snomed.info/sct",
          "code": "4504004"
        } ]
      },
      "subject": {
        "reference": "Patient/2b5476ea-52e5-467f-966c-81aea3d82ff0"
      },
      "performedPeriod": {
        "start": "2026-06-08T20:00:00.000+00:00",
        "end": "2026-06-08T20:15:00.000+00:00"
      }
    },
    "request": {
      "method": "PUT",
      "url": "Procedure/9014c42b-741c-4b90-9377-81d19f4cb693"
    }
  }, {
    "fullUrl": "https://madie.cms.gov/Condition/38c71d4b-767e-4e32-89db-994ef0242950",
    "resource": {
      "resourceType": "Condition",
      "id": "38c71d4b-767e-4e32-89db-994ef0242950",
      "meta": {
        "profile": [ "http://hl7.org/fhir/us/qicore/StructureDefinition/qicore-condition-encounter-diagnosis" ]
      },
      "category": [ {
        "coding": [ {
          "system": "http://terminology.hl7.org/CodeSystem/condition-category",
          "code": "encounter-diagnosis",
          "display": "Encounter Diagnosis"
        } ]
      } ],
      "code": {
        "coding": [ {
          "system": "http://snomed.info/sct",
          "version": "2022-09",
          "code": "169826009",
          "display": "Single live birth from singleton pregnancy (finding)",
          "userSelected": true
        } ]
      },
      "subject": {
        "reference": "Patient/2b5476ea-52e5-467f-966c-81aea3d82ff0"
      },
      "encounter": {
        "reference": "Encounter/0eb18b16-4be2-4488-b55d-40ba1ee3c0f1"
      },
      "recordedDate": "2026-10-21T08:00:00.000+00:00"
    },
    "request": {
      "method": "PUT",
      "url": "Condition/38c71d4b-767e-4e32-89db-994ef0242950"
    }
  }, {
    "fullUrl": "https://madie.cms.gov/Coverage/bc6fa6a1-b599-445d-86f6-71eb7bdb60b9",
    "resource": {
      "resourceType": "Coverage",
      "id": "bc6fa6a1-b599-445d-86f6-71eb7bdb60b9",
      "meta": {
        "profile": [ "http://hl7.org/fhir/us/qicore/StructureDefinition/qicore-coverage" ]
      },
      "status": "active",
      "subscriberId": "523435",
      "beneficiary": {
        "reference": "Patient/2b5476ea-52e5-467f-966c-81aea3d82ff0"
      },
      "relationship": {
        "coding": [ {
          "system": "http://terminology.hl7.org/CodeSystem/subscriber-relationship",
          "code": "self"
        } ]
      },
      "payor": [ {
        "reference": "Organization/93505131-0364-4b9b-9e4d-1d21bcafab54"
      } ]
    },
    "request": {
      "method": "PUT",
      "url": "Coverage/bc6fa6a1-b599-445d-86f6-71eb7bdb60b9"
    }
  }, {
    "fullUrl": "https://madie.cms.gov/Organization/93505131-0364-4b9b-9e4d-1d21bcafab54",
    "resource": {
      "resourceType": "Organization",
      "id": "93505131-0364-4b9b-9e4d-1d21bcafab54",
      "meta": {
        "profile": [ "http://hl7.org/fhir/us/qicore/StructureDefinition/qicore-organization" ]
      },
      "identifier": [ {
        "use": "temp",
        "system": "urn:oid:2.16.840.1.113883.4.4",
        "value": "21-3259825"
      } ],
      "active": true,
      "type": [ {
        "coding": [ {
          "system": "http://terminology.hl7.org/CodeSystem/organization-type",
          "code": "pay",
          "display": "Payer"
        } ]
      } ],
      "name": "Blue Cross Blue Shield of Texas",
      "telecom": [ {
        "system": "phone",
        "value": "(+1) 972-766-6900"
      } ],
      "address": [ {
        "use": "billing",
        "type": "postal",
        "line": [ "P.O. Box 660044" ],
        "city": "Dallas",
        "state": "TX",
        "postalCode": "75266-0044",
        "country": "USA"
      } ]
    },
    "request": {
      "method": "PUT",
      "url": "Organization/93505131-0364-4b9b-9e4d-1d21bcafab54"
    }
  }, {
    "fullUrl": "https://madie.cms.gov/Practitioner/f8cf5805-c637-4e1b-bf3b-b0fb2975c55a",
    "resource": {
      "resourceType": "Practitioner",
      "id": "f8cf5805-c637-4e1b-bf3b-b0fb2975c55a",
      "meta": {
        "profile": [ "http://hl7.org/fhir/us/qicore/StructureDefinition/qicore-practitioner" ]
      },
      "identifier": [ {
        "system": "http://hl7.org/fhir/sid/us-npi",
        "value": "1234567890"
      } ],
      "name": [ {
        "family": "Evil",
        "prefix": [ "Dr" ]
      } ]
    },
    "request": {
      "method": "PUT",
      "url": "Practitioner/f8cf5805-c637-4e1b-bf3b-b0fb2975c55a"
    }
  }, {
    "fullUrl": "https://madie.cms.gov/MeasureReport/e500085a-c170-4149-abfa-d4bc255711c7",
    "resource": {
      "resourceType": "MeasureReport",
      "id": "e500085a-c170-4149-abfa-d4bc255711c7",
      "meta": {
        "profile": [ "http://hl7.org/fhir/us/cqfmeasures/StructureDefinition/test-case-cqfm" ]
      },
      "contained": [ {
        "resourceType": "Parameters",
        "id": "48afa8a2-450d-4580-adce-e6a9b0a5245f-parameters",
        "parameter": [ {
          "name": "subject",
          "valueString": "2b5476ea-52e5-467f-966c-81aea3d82ff0"
        } ]
      } ],
      "extension": [ {
        "url": "http://hl7.org/fhir/StructureDefinition/cqf-inputParameters",
        "valueReference": {
          "reference": "#48afa8a2-450d-4580-adce-e6a9b0a5245f-parameters"
        }
      }, {
        "url": "http://hl7.org/fhir/us/cqfmeasures/StructureDefinition/cqfm-testCaseDescription",
        "valueMarkdown": "\"Preterm Births=0, Rel Date/time < 42weeks prior to delivery\nTerm Newborn missing result, Rel Date/time < 42weeks prior to delivery\"\n"
      } ],
      "modifierExtension": [ {
        "url": "http://hl7.org/fhir/us/cqfmeasures/StructureDefinition/cqfm-isTestCase",
        "valueBoolean": true
      } ],
      "status": "complete",
      "type": "individual",
      "measure": "https://madie.cms.gov/Measure/CMS0334FHIRPCCesareanBirth",
      "period": {
        "start": "2026-01-01",
        "end": "2026-12-31"
      },
      "group": [ {
        "id": "Group_1",
        "population": [ {
          "id": "InitialPopulation_1",
          "code": {
            "coding": [ {
              "system": "http://terminology.hl7.org/CodeSystem/measure-population",
              "code": "initial-population",
              "display": "Initial Population"
            } ]
          },
          "count": 1
        }, {
          "id": "Denominator_1",
          "code": {
            "coding": [ {
              "system": "http://terminology.hl7.org/CodeSystem/measure-population",
              "code": "denominator",
              "display": "Denominator"
            } ]
          },
          "count": 0
        }, {
          "id": "DenominatorExclusion_1",
          "code": {
            "coding": [ {
              "system": "http://terminology.hl7.org/CodeSystem/measure-population",
              "code": "denominator-exclusion",
              "display": "Denominator Exclusion"
            } ]
          },
          "count": 0
        }, {
          "id": "Numerator_1",
          "code": {
            "coding": [ {
              "system": "http://terminology.hl7.org/CodeSystem/measure-population",
              "code": "numerator",
              "display": "Numerator"
            } ]
          },
          "count": 0
        } ],
        "measureScore": {
          "value": 0.0
        }
      } ],
      "evaluatedResource": [ {
        "reference": "Patient/2b5476ea-52e5-467f-966c-81aea3d82ff0"
      }, {
        "reference": "Observation/46d32c62-9f58-4a5b-a9f3-b72d7a8be7a1"
      }, {
        "reference": "Observation/3865a241-6851-498d-932f-105b366e5a56"
      }, {
        "reference": "Observation/7807fd05-22d2-4e0a-99a2-4fd53e17b759"
      }, {
        "reference": "Observation/abc9974e-83f8-447e-a220-c962be0fddff"
      }, {
        "reference": "Encounter/0eb18b16-4be2-4488-b55d-40ba1ee3c0f1"
      }, {
        "reference": "Procedure/9014c42b-741c-4b90-9377-81d19f4cb693"
      }, {
        "reference": "Condition/38c71d4b-767e-4e32-89db-994ef0242950"
      }, {
        "reference": "Coverage/bc6fa6a1-b599-445d-86f6-71eb7bdb60b9"
      }, {
        "reference": "Organization/93505131-0364-4b9b-9e4d-1d21bcafab54"
      }, {
        "reference": "Practitioner/f8cf5805-c637-4e1b-bf3b-b0fb2975c55a"
      } ]
    },
    "request": {
      "method": "PUT",
      "url": "MeasureReport/e500085a-c170-4149-abfa-d4bc255711c7"
    }
  } ]
}