{
  "resourceType": "Bundle",
  "id": "6109658e98086b538055b9d0",
  "type": "transaction",
  "entry": [ {
    "fullUrl": "https://madie.cms.gov/Patient/68109c29-0e38-4fb1-b994-846311eb3079",
    "resource": {
      "resourceType": "Patient",
      "id": "68109c29-0e38-4fb1-b994-846311eb3079",
      "meta": {
        "profile": [ "http://hl7.org/fhir/us/qicore/StructureDefinition/qicore-patient" ]
      },
      "extension": [ {
        "url": "http://hl7.org/fhir/us/core/StructureDefinition/us-core-race",
        "extension": [ {
          "url": "ombCategory",
          "valueCoding": {
            "system": "urn:oid:2.16.840.1.113883.6.238",
            "code": "2106-3",
            "display": "White",
            "userSelected": true
          }
        }, {
          "url": "text",
          "valueString": "White"
        } ]
      }, {
        "url": "http://hl7.org/fhir/us/core/StructureDefinition/us-core-ethnicity",
        "extension": [ {
          "url": "ombCategory",
          "valueCoding": {
            "system": "urn:oid:2.16.840.1.113883.6.238",
            "code": "2135-2",
            "display": "Hispanic or Latino",
            "userSelected": true
          }
        }, {
          "url": "text",
          "valueString": "Hispanic or Latino"
        } ]
      } ],
      "identifier": [ {
        "type": {
          "coding": [ {
            "system": "http://terminology.hl7.org/CodeSystem/v2-0203",
            "code": "MR"
          } ]
        },
        "system": "https://GoodHealthCare.com/",
        "value": "6109658e98086b538055b9d0"
      } ],
      "active": true,
      "name": [ {
        "use": "usual",
        "family": "NUMERPass",
        "given": [ "OpticDiscExm1MinB4EncEdge" ]
      } ],
      "gender": "male",
      "birthDate": "1971-03-15"
    },
    "request": {
      "method": "PUT",
      "url": "Patient/68109c29-0e38-4fb1-b994-846311eb3079"
    }
  }, {
    "fullUrl": "https://madie.cms.gov/Condition/007b0509-1b5c-43b6-8efe-0ecb1e45be77",
    "resource": {
      "resourceType": "Condition",
      "id": "007b0509-1b5c-43b6-8efe-0ecb1e45be77",
      "meta": {
        "profile": [ "http://hl7.org/fhir/us/qicore/StructureDefinition/qicore-condition-problems-health-concerns" ]
      },
      "clinicalStatus": {
        "coding": [ {
          "system": "http://terminology.hl7.org/CodeSystem/condition-clinical",
          "code": "active",
          "display": "active",
          "userSelected": true
        } ]
      },
      "category": [ {
        "coding": [ {
          "system": "http://terminology.hl7.org/CodeSystem/condition-category",
          "code": "problem-list-item",
          "display": "problem-list-item",
          "userSelected": true
        } ]
      } ],
      "code": {
        "coding": [ {
          "system": "http://hl7.org/fhir/sid/icd-10-cm",
          "version": "2023",
          "code": "H40.1121"
        } ]
      },
      "subject": {
        "reference": "Patient/68109c29-0e38-4fb1-b994-846311eb3079"
      },
      "onsetDateTime": "2021-03-15T07:30:00+00:00"
    },
    "request": {
      "method": "PUT",
      "url": "Condition/007b0509-1b5c-43b6-8efe-0ecb1e45be77"
    }
  }, {
    "fullUrl": "https://madie.cms.gov/Observation/29dc944c-c2b9-4963-a188-4593e8d5dd79",
    "resource": {
      "resourceType": "Observation",
      "id": "29dc944c-c2b9-4963-a188-4593e8d5dd79",
      "meta": {
        "profile": [ "http://hl7.org/fhir/us/qicore/StructureDefinition/qicore-observation-clinical-result" ]
      },
      "status": "final",
      "category": [ {
        "coding": [ {
          "system": "http://terminology.hl7.org/CodeSystem/observation-category",
          "code": "laboratory",
          "display": "laboratory",
          "userSelected": true
        } ]
      } ],
      "code": {
        "coding": [ {
          "system": "http://loinc.org",
          "version": "2.73",
          "code": "71487-3"
        } ]
      },
      "subject": {
        "reference": "Patient/68109c29-0e38-4fb1-b994-846311eb3079"
      },
      "effectiveDateTime": "2026-01-28T08:00:00.000+00:00",
      "valueQuantity": {
        "value": 0.8
      }
    },
    "request": {
      "method": "PUT",
      "url": "Observation/29dc944c-c2b9-4963-a188-4593e8d5dd79"
    }
  }, {
    "fullUrl": "https://madie.cms.gov/Observation/9fef06af-8a81-4e90-9cf3-261bff1fce9a",
    "resource": {
      "resourceType": "Observation",
      "id": "9fef06af-8a81-4e90-9cf3-261bff1fce9a",
      "meta": {
        "profile": [ "http://hl7.org/fhir/us/qicore/StructureDefinition/qicore-observation-clinical-result" ]
      },
      "status": "final",
      "category": [ {
        "coding": [ {
          "system": "http://terminology.hl7.org/CodeSystem/observation-category",
          "code": "laboratory",
          "display": "laboratory",
          "userSelected": true
        } ]
      } ],
      "code": {
        "coding": [ {
          "system": "http://loinc.org",
          "version": "2.73",
          "code": "71484-0"
        } ]
      },
      "subject": {
        "reference": "Patient/68109c29-0e38-4fb1-b994-846311eb3079"
      },
      "effectiveDateTime": "2026-01-28T08:29:00.000+00:00",
      "valueQuantity": {
        "value": 0.7
      }
    },
    "request": {
      "method": "PUT",
      "url": "Observation/9fef06af-8a81-4e90-9cf3-261bff1fce9a"
    }
  }, {
    "fullUrl": "https://madie.cms.gov/Encounter/126da6fc-24a6-46c1-b7ae-1019cb4992b8",
    "resource": {
      "resourceType": "Encounter",
      "id": "126da6fc-24a6-46c1-b7ae-1019cb4992b8",
      "meta": {
        "profile": [ "http://hl7.org/fhir/us/qicore/StructureDefinition/qicore-encounter" ]
      },
      "status": "finished",
      "class": {
        "system": "http://terminology.hl7.org/CodeSystem/v3-ActCode",
        "code": "AMB",
        "display": "ambulatory",
        "userSelected": true
      },
      "type": [ {
        "coding": [ {
          "system": "http://www.ama-assn.org/go/cpt",
          "version": "2023",
          "code": "99309"
        } ]
      } ],
      "subject": {
        "reference": "Patient/68109c29-0e38-4fb1-b994-846311eb3079"
      },
      "period": {
        "start": "2026-01-28T08:00:00.000+00:00",
        "end": "2026-01-28T08:30:00.000+00:00"
      },
      "length": {
        "value": 0.0,
        "unit": "days"
      }
    },
    "request": {
      "method": "PUT",
      "url": "Encounter/126da6fc-24a6-46c1-b7ae-1019cb4992b8"
    }
  }, {
    "fullUrl": "https://madie.cms.gov/MeasureReport/d7692c92-674d-40e1-9be3-bfd6d124f4a2",
    "resource": {
      "resourceType": "MeasureReport",
      "id": "d7692c92-674d-40e1-9be3-bfd6d124f4a2",
      "meta": {
        "profile": [ "http://hl7.org/fhir/us/cqfmeasures/StructureDefinition/test-case-cqfm" ]
      },
      "contained": [ {
        "resourceType": "Parameters",
        "id": "665b2bbf-643c-4397-a839-89e22c8a1dde-parameters",
        "parameter": [ {
          "name": "subject",
          "valueString": "68109c29-0e38-4fb1-b994-846311eb3079"
        } ]
      } ],
      "extension": [ {
        "url": "http://hl7.org/fhir/StructureDefinition/cqf-inputParameters",
        "valueReference": {
          "reference": "#665b2bbf-643c-4397-a839-89e22c8a1dde-parameters"
        }
      }, {
        "url": "http://hl7.org/fhir/us/cqfmeasures/StructureDefinition/cqfm-testCaseDescription",
        "valueMarkdown": "Numerator required optic disc exam occurs 1 minute before end of encounter."
      } ],
      "modifierExtension": [ {
        "url": "http://hl7.org/fhir/us/cqfmeasures/StructureDefinition/cqfm-isTestCase",
        "valueBoolean": true
      } ],
      "status": "complete",
      "type": "individual",
      "measure": "https://madie.cms.gov/Measure/CMS143FHIRPOAGOpticNerveEvaluation",
      "period": {
        "start": "2026-01-01",
        "end": "2026-12-31"
      },
      "group": [ {
        "id": "Group_1",
        "population": [ {
          "id": "InitialPopulation_1",
          "code": {
            "coding": [ {
              "system": "http://terminology.hl7.org/CodeSystem/measure-population",
              "code": "initial-population",
              "display": "Initial Population"
            } ]
          },
          "count": 1
        }, {
          "id": "Denominator_1",
          "code": {
            "coding": [ {
              "system": "http://terminology.hl7.org/CodeSystem/measure-population",
              "code": "denominator",
              "display": "Denominator"
            } ]
          },
          "count": 1
        }, {
          "id": "Numerator_1",
          "code": {
            "coding": [ {
              "system": "http://terminology.hl7.org/CodeSystem/measure-population",
              "code": "numerator",
              "display": "Numerator"
            } ]
          },
          "count": 1
        }, {
          "id": "DenominatorException_1",
          "code": {
            "coding": [ {
              "system": "http://terminology.hl7.org/CodeSystem/measure-population",
              "code": "denominator-exception",
              "display": "Denominator Exception"
            } ]
          },
          "count": 0
        } ],
        "measureScore": {
          "value": 1.0
        }
      } ],
      "evaluatedResource": [ {
        "reference": "Patient/68109c29-0e38-4fb1-b994-846311eb3079"
      }, {
        "reference": "Condition/007b0509-1b5c-43b6-8efe-0ecb1e45be77"
      }, {
        "reference": "Observation/29dc944c-c2b9-4963-a188-4593e8d5dd79"
      }, {
        "reference": "Observation/9fef06af-8a81-4e90-9cf3-261bff1fce9a"
      }, {
        "reference": "Encounter/126da6fc-24a6-46c1-b7ae-1019cb4992b8"
      } ]
    },
    "request": {
      "method": "PUT",
      "url": "MeasureReport/d7692c92-674d-40e1-9be3-bfd6d124f4a2"
    }
  } ]
}