{
  "resourceType": "Bundle",
  "id": "IPPPass-HypertensionDuringFirst6Months",
  "type": "transaction",
  "entry": [ {
    "fullUrl": "https://madie.cms.gov/Patient/4d50f3eb-f56f-4f13-8fcf-4d26e05b9a6a",
    "resource": {
      "resourceType": "Patient",
      "id": "4d50f3eb-f56f-4f13-8fcf-4d26e05b9a6a",
      "meta": {
        "profile": [ "http://hl7.org/fhir/us/qicore/StructureDefinition/qicore-patient" ]
      },
      "extension": [ {
        "url": "http://hl7.org/fhir/us/core/StructureDefinition/us-core-race",
        "extension": [ {
          "url": "ombCategory",
          "valueCoding": {
            "system": "urn:oid:2.16.840.1.113883.6.238",
            "code": "2028-9",
            "display": "Asian"
          }
        }, {
          "url": "text",
          "valueString": "Asian"
        } ]
      }, {
        "url": "http://hl7.org/fhir/us/core/StructureDefinition/us-core-ethnicity",
        "extension": [ {
          "url": "ombCategory",
          "valueCoding": {
            "system": "urn:oid:2.16.840.1.113883.6.238",
            "code": "2135-2",
            "display": "Hispanic or Latino"
          }
        }, {
          "url": "text",
          "valueString": "Hispanic or Latino"
        } ]
      } ],
      "identifier": [ {
        "system": "http://hospital.smarthealthit.org",
        "value": "999999995"
      } ],
      "name": [ {
        "family": "IPPass",
        "given": [ "HypertensionDuringFirst6Months" ]
      } ],
      "gender": "female",
      "birthDate": "2007-12-31"
    },
    "request": {
      "method": "PUT",
      "url": "Patient/4d50f3eb-f56f-4f13-8fcf-4d26e05b9a6a"
    }
  }, {
    "fullUrl": "https://madie.cms.gov/Encounter/e08abd7c-3827-462f-b2ee-1a31480ce8c3",
    "resource": {
      "resourceType": "Encounter",
      "id": "e08abd7c-3827-462f-b2ee-1a31480ce8c3",
      "meta": {
        "profile": [ "http://hl7.org/fhir/us/qicore/StructureDefinition/qicore-encounter" ]
      },
      "status": "finished",
      "class": {
        "system": "http://terminology.hl7.org/CodeSystem/v3-ActCode",
        "code": "AMB",
        "display": "ambulatory"
      },
      "type": [ {
        "coding": [ {
          "system": "http://snomed.info/sct",
          "code": "3391000175108",
          "display": "Office visit for pediatric care and assessment (procedure)"
        } ]
      } ],
      "subject": {
        "reference": "Patient/4d50f3eb-f56f-4f13-8fcf-4d26e05b9a6a"
      },
      "period": {
        "start": "2026-01-01T00:00:00.000+00:00",
        "end": "2026-01-01T01:00:00.000+00:00"
      }
    },
    "request": {
      "method": "PUT",
      "url": "Encounter/e08abd7c-3827-462f-b2ee-1a31480ce8c3"
    }
  }, {
    "fullUrl": "https://madie.cms.gov/Condition/068c13a2-5d2b-4aab-ac6f-c8782a8e60b5",
    "resource": {
      "resourceType": "Condition",
      "id": "068c13a2-5d2b-4aab-ac6f-c8782a8e60b5",
      "meta": {
        "profile": [ "http://hl7.org/fhir/us/qicore/StructureDefinition/qicore-condition-encounter-diagnosis" ]
      },
      "clinicalStatus": {
        "coding": [ {
          "system": "http://terminology.hl7.org/CodeSystem/condition-clinical",
          "code": "active"
        } ]
      },
      "category": [ {
        "coding": [ {
          "system": "http://terminology.hl7.org/CodeSystem/condition-category",
          "code": "encounter-diagnosis",
          "display": "Encounter Diagnosis"
        } ]
      } ],
      "code": {
        "coding": [ {
          "system": "http://snomed.info/sct",
          "code": "371125006",
          "display": "Labile essential hypertension (disorder)"
        } ]
      },
      "subject": {
        "reference": "Patient/4d50f3eb-f56f-4f13-8fcf-4d26e05b9a6a"
      },
      "onsetDateTime": "2026-06-30T23:59:59.000+00:00"
    },
    "request": {
      "method": "PUT",
      "url": "Condition/068c13a2-5d2b-4aab-ac6f-c8782a8e60b5"
    }
  }, {
    "fullUrl": "https://madie.cms.gov/Coverage/746497f7-a916-47ea-9a29-4cd42905a957",
    "resource": {
      "resourceType": "Coverage",
      "id": "746497f7-a916-47ea-9a29-4cd42905a957",
      "meta": {
        "profile": [ "http://hl7.org/fhir/us/qicore/StructureDefinition/qicore-coverage" ]
      },
      "status": "active",
      "type": {
        "coding": [ {
          "system": "https://nahdo.org/sopt",
          "code": "99",
          "display": "No Typology Code available for payment source"
        } ]
      },
      "subscriberId": "12191",
      "beneficiary": {
        "reference": "Patient/4d50f3eb-f56f-4f13-8fcf-4d26e05b9a6a"
      },
      "relationship": {
        "coding": [ {
          "system": "http://terminology.hl7.org/CodeSystem/subscriber-relationship",
          "code": "self"
        } ]
      },
      "payor": [ {
        "reference": "Organization/example"
      } ]
    },
    "request": {
      "method": "PUT",
      "url": "Coverage/746497f7-a916-47ea-9a29-4cd42905a957"
    }
  }, {
    "fullUrl": "https://madie.cms.gov/MeasureReport/eab71f3d-3ed5-4533-8e47-cca2f8f9240b",
    "resource": {
      "resourceType": "MeasureReport",
      "id": "eab71f3d-3ed5-4533-8e47-cca2f8f9240b",
      "meta": {
        "profile": [ "http://hl7.org/fhir/us/cqfmeasures/StructureDefinition/test-case-cqfm" ]
      },
      "contained": [ {
        "resourceType": "Parameters",
        "id": "8103d6b6-49a0-4f71-93f8-c6623598bfc9-parameters",
        "parameter": [ {
          "name": "subject",
          "valueString": "4d50f3eb-f56f-4f13-8fcf-4d26e05b9a6a"
        } ]
      } ],
      "extension": [ {
        "url": "http://hl7.org/fhir/StructureDefinition/cqf-inputParameters",
        "valueReference": {
          "reference": "#8103d6b6-49a0-4f71-93f8-c6623598bfc9-parameters"
        }
      }, {
        "url": "http://hl7.org/fhir/us/cqfmeasures/StructureDefinition/cqfm-testCaseDescription",
        "valueMarkdown": "Hypertension onsets on 6/30"
      } ],
      "modifierExtension": [ {
        "url": "http://hl7.org/fhir/us/cqfmeasures/StructureDefinition/cqfm-isTestCase",
        "valueBoolean": true
      } ],
      "status": "complete",
      "type": "individual",
      "measure": "https://madie.cms.gov/Measure/CMS165FHIRControllingHighBloodPressure",
      "period": {
        "start": "2026-01-01",
        "end": "2026-12-31"
      },
      "group": [ {
        "id": "Group_1",
        "population": [ {
          "id": "InitialPopulation_1",
          "code": {
            "coding": [ {
              "system": "http://terminology.hl7.org/CodeSystem/measure-population",
              "code": "initial-population",
              "display": "Initial Population"
            } ]
          },
          "count": 1
        }, {
          "id": "Denominator_1",
          "code": {
            "coding": [ {
              "system": "http://terminology.hl7.org/CodeSystem/measure-population",
              "code": "denominator",
              "display": "Denominator"
            } ]
          },
          "count": 1
        }, {
          "id": "DenominatorExclusion_1",
          "code": {
            "coding": [ {
              "system": "http://terminology.hl7.org/CodeSystem/measure-population",
              "code": "denominator-exclusion",
              "display": "Denominator Exclusion"
            } ]
          },
          "count": 0
        }, {
          "id": "Numerator_1",
          "code": {
            "coding": [ {
              "system": "http://terminology.hl7.org/CodeSystem/measure-population",
              "code": "numerator",
              "display": "Numerator"
            } ]
          },
          "count": 0
        } ],
        "measureScore": {
          "value": 1.0
        }
      } ],
      "evaluatedResource": [ {
        "reference": "Patient/4d50f3eb-f56f-4f13-8fcf-4d26e05b9a6a"
      }, {
        "reference": "Encounter/e08abd7c-3827-462f-b2ee-1a31480ce8c3"
      }, {
        "reference": "Condition/068c13a2-5d2b-4aab-ac6f-c8782a8e60b5"
      }, {
        "reference": "Coverage/746497f7-a916-47ea-9a29-4cd42905a957"
      } ]
    },
    "request": {
      "method": "PUT",
      "url": "MeasureReport/eab71f3d-3ed5-4533-8e47-cca2f8f9240b"
    }
  } ]
}