{
  "resourceType": "Bundle",
  "id": "DENEXPass-DementiaMedAsReference",
  "type": "transaction",
  "entry": [ {
    "fullUrl": "https://madie.cms.gov/Patient/45e01fed-56bb-483d-a860-af3d566bda11",
    "resource": {
      "resourceType": "Patient",
      "id": "45e01fed-56bb-483d-a860-af3d566bda11",
      "meta": {
        "profile": [ "http://hl7.org/fhir/us/qicore/StructureDefinition/qicore-patient" ]
      },
      "extension": [ {
        "url": "http://hl7.org/fhir/us/core/StructureDefinition/us-core-race",
        "extension": [ {
          "url": "ombCategory",
          "valueCoding": {
            "system": "urn:oid:2.16.840.1.113883.6.238",
            "code": "2028-9",
            "display": "Asian",
            "userSelected": true
          }
        }, {
          "url": "text",
          "valueString": "Asian"
        } ]
      }, {
        "url": "http://hl7.org/fhir/us/core/StructureDefinition/us-core-ethnicity",
        "extension": [ {
          "url": "ombCategory",
          "valueCoding": {
            "system": "urn:oid:2.16.840.1.113883.6.238",
            "code": "2135-2",
            "display": "Hispanic or Latino",
            "userSelected": true
          }
        }, {
          "url": "text",
          "valueString": "Hispanic or Latino"
        } ]
      } ],
      "identifier": [ {
        "type": {
          "coding": [ {
            "system": "http://terminology.hl7.org/CodeSystem/v2-0203",
            "code": "MR"
          } ]
        },
        "system": "http://hospital.smarthealthit.org",
        "value": "999999995"
      } ],
      "name": [ {
        "family": "Bertha",
        "given": [ "Betty" ]
      } ],
      "gender": "female",
      "birthDate": "1958-12-31"
    },
    "request": {
      "method": "PUT",
      "url": "Patient/45e01fed-56bb-483d-a860-af3d566bda11"
    }
  }, {
    "fullUrl": "https://madie.cms.gov/Encounter/5b530992-df04-42ad-a433-381cadaccfdb",
    "resource": {
      "resourceType": "Encounter",
      "id": "5b530992-df04-42ad-a433-381cadaccfdb",
      "meta": {
        "profile": [ "http://hl7.org/fhir/us/qicore/StructureDefinition/qicore-encounter" ]
      },
      "status": "finished",
      "class": {
        "system": "http://terminology.hl7.org/CodeSystem/v3-ActCode",
        "code": "AMB",
        "display": "ambulatory"
      },
      "type": [ {
        "coding": [ {
          "system": "http://snomed.info/sct",
          "code": "3391000175108",
          "display": "Office visit for pediatric care and assessment (procedure)"
        } ]
      } ],
      "subject": {
        "reference": "Patient/45e01fed-56bb-483d-a860-af3d566bda11"
      },
      "period": {
        "start": "2026-01-01T00:00:00.000Z",
        "end": "2026-01-01T01:00:00.000Z"
      }
    },
    "request": {
      "method": "PUT",
      "url": "Encounter/5b530992-df04-42ad-a433-381cadaccfdb"
    }
  }, {
    "fullUrl": "https://madie.cms.gov/Condition/ebfd8423-12d3-4bfd-bcba-39bf098c58e8",
    "resource": {
      "resourceType": "Condition",
      "id": "ebfd8423-12d3-4bfd-bcba-39bf098c58e8",
      "meta": {
        "profile": [ "http://hl7.org/fhir/us/qicore/StructureDefinition/qicore-condition-encounter-diagnosis" ]
      },
      "clinicalStatus": {
        "coding": [ {
          "system": "http://terminology.hl7.org/CodeSystem/condition-clinical",
          "code": "active"
        } ]
      },
      "category": [ {
        "coding": [ {
          "system": "http://terminology.hl7.org/CodeSystem/condition-category",
          "code": "problem-list-item",
          "display": "Problem List Item"
        } ]
      } ],
      "code": {
        "coding": [ {
          "system": "http://snomed.info/sct",
          "code": "371125006",
          "display": "Labile essential hypertension (disorder)"
        } ]
      },
      "subject": {
        "reference": "Patient/45e01fed-56bb-483d-a860-af3d566bda11"
      },
      "onsetDateTime": "2026-06-30T23:59:59.000Z"
    },
    "request": {
      "method": "PUT",
      "url": "Condition/ebfd8423-12d3-4bfd-bcba-39bf098c58e8"
    }
  }, {
    "fullUrl": "https://madie.cms.gov/MedicationRequest/18f17787-dcfd-4f00-a5ea-af3aaf4b4055",
    "resource": {
      "resourceType": "MedicationRequest",
      "id": "18f17787-dcfd-4f00-a5ea-af3aaf4b4055",
      "meta": {
        "profile": [ "http://hl7.org/fhir/us/qicore/StructureDefinition/qicore-medicationrequest" ]
      },
      "status": "active",
      "intent": "order",
      "doNotPerform": false,
      "medicationReference": {
        "reference": "Medication/25119e27-2051-471a-b2ca-e8a09edc03d9"
      },
      "subject": {
        "reference": "Patient/45e01fed-56bb-483d-a860-af3d566bda11"
      },
      "authoredOn": "2026-12-30T00:00:00.000Z",
      "requester": {
        "reference": "Practitioner/example"
      },
      "dispenseRequest": {
        "expectedSupplyDuration": {
          "value": 90,
          "system": "http://unitsofmeasure.org",
          "code": "days"
        }
      }
    },
    "request": {
      "method": "PUT",
      "url": "MedicationRequest/18f17787-dcfd-4f00-a5ea-af3aaf4b4055"
    }
  }, {
    "fullUrl": "https://madie.cms.gov/Medication/25119e27-2051-471a-b2ca-e8a09edc03d9",
    "resource": {
      "resourceType": "Medication",
      "id": "25119e27-2051-471a-b2ca-e8a09edc03d9",
      "meta": {
        "profile": [ "http://hl7.org/fhir/us/qicore/StructureDefinition/qicore-medication" ]
      },
      "code": {
        "coding": [ {
          "system": "http://www.nlm.nih.gov/research/umls/rxnorm",
          "code": "312836",
          "display": "rivastigmine 6 MG Oral Capsule"
        } ]
      }
    },
    "request": {
      "method": "PUT",
      "url": "Medication/25119e27-2051-471a-b2ca-e8a09edc03d9"
    }
  }, {
    "fullUrl": "https://madie.cms.gov/DeviceRequest/a50e3668-aabe-4d0b-89f9-ad95ae17f7cf",
    "resource": {
      "resourceType": "DeviceRequest",
      "id": "a50e3668-aabe-4d0b-89f9-ad95ae17f7cf",
      "meta": {
        "profile": [ "http://hl7.org/fhir/us/qicore/StructureDefinition/qicore-devicerequest" ]
      },
      "modifierExtension": [ {
        "url": "http://hl7.org/fhir/us/qicore/StructureDefinition/qicore-doNotPeform",
        "valueBoolean": false
      } ],
      "status": "completed",
      "intent": "order",
      "codeCodeableConcept": {
        "coding": [ {
          "system": "http://snomed.info/sct",
          "code": "183240000",
          "display": "Self-propelled wheelchair (physical object)"
        } ]
      },
      "subject": {
        "reference": "Patient/45e01fed-56bb-483d-a860-af3d566bda11"
      },
      "authoredOn": "2026-11-01T23:59:00.000Z"
    },
    "request": {
      "method": "PUT",
      "url": "DeviceRequest/a50e3668-aabe-4d0b-89f9-ad95ae17f7cf"
    }
  }, {
    "fullUrl": "https://madie.cms.gov/MeasureReport/f76c04c0-f7db-46cd-8885-17a0acdcf770",
    "resource": {
      "resourceType": "MeasureReport",
      "id": "f76c04c0-f7db-46cd-8885-17a0acdcf770",
      "meta": {
        "profile": [ "http://hl7.org/fhir/us/cqfmeasures/StructureDefinition/test-case-cqfm" ]
      },
      "contained": [ {
        "resourceType": "Parameters",
        "id": "2cf5a2b5-49d7-4c78-9e4c-022a4070ddb5-parameters",
        "parameter": [ {
          "name": "subject",
          "valueString": "45e01fed-56bb-483d-a860-af3d566bda11"
        } ]
      } ],
      "extension": [ {
        "url": "http://hl7.org/fhir/StructureDefinition/cqf-inputParameters",
        "valueReference": {
          "reference": "#2cf5a2b5-49d7-4c78-9e4c-022a4070ddb5-parameters"
        }
      }, {
        "url": "http://hl7.org/fhir/us/cqfmeasures/StructureDefinition/cqfm-testCaseDescription",
        "valueMarkdown": "Dementia MedicationRequest.medication as Reference. Not meeting DENEX due to outstanding issues: https://github.com/cqframework/CQL-Formatting-and-Usage-Wiki/wiki/Authoring-Patterns---QICore-v4.1.1#medication-ordered-as-a-reference, and CQLIT-412."
      } ],
      "modifierExtension": [ {
        "url": "http://hl7.org/fhir/us/cqfmeasures/StructureDefinition/cqfm-isTestCase",
        "valueBoolean": true
      } ],
      "status": "complete",
      "type": "individual",
      "measure": "https://madie.cms.gov/Measure/CMS165FHIRControllingHighBloodPressure",
      "period": {
        "start": "2026-01-01",
        "end": "2026-12-31"
      },
      "group": [ {
        "id": "Group_1",
        "population": [ {
          "id": "InitialPopulation_1",
          "code": {
            "coding": [ {
              "system": "http://terminology.hl7.org/CodeSystem/measure-population",
              "code": "initial-population",
              "display": "Initial Population"
            } ]
          },
          "count": 1
        }, {
          "id": "Denominator_1",
          "code": {
            "coding": [ {
              "system": "http://terminology.hl7.org/CodeSystem/measure-population",
              "code": "denominator",
              "display": "Denominator"
            } ]
          },
          "count": 1
        }, {
          "id": "DenominatorExclusion_1",
          "code": {
            "coding": [ {
              "system": "http://terminology.hl7.org/CodeSystem/measure-population",
              "code": "denominator-exclusion",
              "display": "Denominator Exclusion"
            } ]
          },
          "count": 0
        }, {
          "id": "Numerator_1",
          "code": {
            "coding": [ {
              "system": "http://terminology.hl7.org/CodeSystem/measure-population",
              "code": "numerator",
              "display": "Numerator"
            } ]
          },
          "count": 0
        } ],
        "measureScore": {
          "value": 1.0
        }
      } ],
      "evaluatedResource": [ {
        "reference": "Patient/45e01fed-56bb-483d-a860-af3d566bda11"
      }, {
        "reference": "Encounter/5b530992-df04-42ad-a433-381cadaccfdb"
      }, {
        "reference": "Condition/ebfd8423-12d3-4bfd-bcba-39bf098c58e8"
      }, {
        "reference": "MedicationRequest/18f17787-dcfd-4f00-a5ea-af3aaf4b4055"
      }, {
        "reference": "Medication/25119e27-2051-471a-b2ca-e8a09edc03d9"
      }, {
        "reference": "DeviceRequest/a50e3668-aabe-4d0b-89f9-ad95ae17f7cf"
      } ]
    },
    "request": {
      "method": "PUT",
      "url": "MeasureReport/f76c04c0-f7db-46cd-8885-17a0acdcf770"
    }
  } ]
}