{
  "resourceType": "Bundle",
  "id": "DENEXPass-DementiaMedAsReference",
  "type": "transaction",
  "entry": [ {
    "fullUrl": "https://madie.cms.gov/Patient/45e01fed-56bb-483d-a860-af3d566bda11",
    "resource": {
      "resourceType": "Patient",
      "id": "45e01fed-56bb-483d-a860-af3d566bda11",
      "meta": {
        "profile": [ "http://hl7.org/fhir/us/qicore/StructureDefinition/qicore-patient" ]
      },
      "extension": [ {
        "url": "http://hl7.org/fhir/us/core/StructureDefinition/us-core-race",
        "extension": [ {
          "url": "ombCategory",
          "valueCoding": {
            "system": "urn:oid:2.16.840.1.113883.6.238",
            "code": "2028-9",
            "display": "Asian",
            "userSelected": true
          }
        }, {
          "url": "text",
          "valueString": "Asian"
        } ]
      }, {
        "url": "http://hl7.org/fhir/us/core/StructureDefinition/us-core-ethnicity",
        "extension": [ {
          "url": "ombCategory",
          "valueCoding": {
            "system": "urn:oid:2.16.840.1.113883.6.238",
            "code": "2135-2",
            "display": "Hispanic or Latino",
            "userSelected": true
          }
        }, {
          "url": "text",
          "valueString": "Hispanic or Latino"
        } ]
      } ],
      "identifier": [ {
        "type": {
          "coding": [ {
            "system": "http://terminology.hl7.org/CodeSystem/v2-0203",
            "code": "MR"
          } ]
        },
        "system": "http://hospital.smarthealthit.org",
        "value": "999999995"
      } ],
      "name": [ {
        "family": "Bertha",
        "given": [ "Betty" ]
      } ],
      "gender": "female",
      "birthDate": "1958-12-31"
    },
    "request": {
      "method": "PUT",
      "url": "Patient/45e01fed-56bb-483d-a860-af3d566bda11"
    }
  }, {
    "fullUrl": "https://madie.cms.gov/Encounter/479bc2f3-6691-4cd5-ba30-0f424cee5850",
    "resource": {
      "resourceType": "Encounter",
      "id": "479bc2f3-6691-4cd5-ba30-0f424cee5850",
      "meta": {
        "profile": [ "http://hl7.org/fhir/us/qicore/StructureDefinition/qicore-encounter" ]
      },
      "status": "finished",
      "class": {
        "system": "http://terminology.hl7.org/CodeSystem/v3-ActCode",
        "code": "AMB",
        "display": "ambulatory"
      },
      "type": [ {
        "coding": [ {
          "system": "http://snomed.info/sct",
          "code": "3391000175108",
          "display": "Office visit for pediatric care and assessment (procedure)"
        } ]
      } ],
      "subject": {
        "reference": "Patient/45e01fed-56bb-483d-a860-af3d566bda11"
      },
      "period": {
        "start": "2026-01-01T00:00:00.000+00:00",
        "end": "2026-01-01T01:00:00.000+00:00"
      }
    },
    "request": {
      "method": "PUT",
      "url": "Encounter/479bc2f3-6691-4cd5-ba30-0f424cee5850"
    }
  }, {
    "fullUrl": "https://madie.cms.gov/Condition/b84aa2fe-61d2-4f74-96c2-355575c48200",
    "resource": {
      "resourceType": "Condition",
      "id": "b84aa2fe-61d2-4f74-96c2-355575c48200",
      "meta": {
        "profile": [ "http://hl7.org/fhir/us/qicore/StructureDefinition/qicore-condition-encounter-diagnosis" ]
      },
      "clinicalStatus": {
        "coding": [ {
          "system": "http://terminology.hl7.org/CodeSystem/condition-clinical",
          "code": "active"
        } ]
      },
      "category": [ {
        "coding": [ {
          "system": "http://terminology.hl7.org/CodeSystem/condition-category",
          "code": "encounter-diagnosis",
          "display": "Encounter Diagnosis"
        } ]
      } ],
      "code": {
        "coding": [ {
          "system": "http://snomed.info/sct",
          "code": "371125006",
          "display": "Labile essential hypertension (disorder)"
        } ]
      },
      "subject": {
        "reference": "Patient/45e01fed-56bb-483d-a860-af3d566bda11"
      },
      "onsetDateTime": "2026-06-29T23:59:59.000+00:00"
    },
    "request": {
      "method": "PUT",
      "url": "Condition/b84aa2fe-61d2-4f74-96c2-355575c48200"
    }
  }, {
    "fullUrl": "https://madie.cms.gov/MedicationRequest/b4d89ccf-2291-4f04-a017-5641770e0464",
    "resource": {
      "resourceType": "MedicationRequest",
      "id": "b4d89ccf-2291-4f04-a017-5641770e0464",
      "meta": {
        "profile": [ "http://hl7.org/fhir/us/qicore/StructureDefinition/qicore-medicationrequest" ]
      },
      "status": "active",
      "intent": "order",
      "doNotPerform": false,
      "medicationReference": {
        "reference": "Medication/f36ed433-5af7-49aa-921b-135d0719f1e9"
      },
      "subject": {
        "reference": "Patient/45e01fed-56bb-483d-a860-af3d566bda11"
      },
      "authoredOn": "2026-12-30T00:00:00.000+00:00",
      "requester": {
        "reference": "Practitioner/example"
      },
      "dispenseRequest": {
        "expectedSupplyDuration": {
          "value": 90,
          "system": "http://unitsofmeasure.org",
          "code": "days"
        }
      }
    },
    "request": {
      "method": "PUT",
      "url": "MedicationRequest/b4d89ccf-2291-4f04-a017-5641770e0464"
    }
  }, {
    "fullUrl": "https://madie.cms.gov/Medication/f36ed433-5af7-49aa-921b-135d0719f1e9",
    "resource": {
      "resourceType": "Medication",
      "id": "f36ed433-5af7-49aa-921b-135d0719f1e9",
      "meta": {
        "profile": [ "http://hl7.org/fhir/us/qicore/StructureDefinition/qicore-medication" ]
      },
      "code": {
        "coding": [ {
          "system": "http://www.nlm.nih.gov/research/umls/rxnorm",
          "code": "312836",
          "display": "rivastigmine 6 MG Oral Capsule"
        } ]
      }
    },
    "request": {
      "method": "PUT",
      "url": "Medication/f36ed433-5af7-49aa-921b-135d0719f1e9"
    }
  }, {
    "fullUrl": "https://madie.cms.gov/DeviceRequest/6ac70163-24c1-4b23-9c9f-598a1b83d8ab",
    "resource": {
      "resourceType": "DeviceRequest",
      "id": "6ac70163-24c1-4b23-9c9f-598a1b83d8ab",
      "meta": {
        "profile": [ "http://hl7.org/fhir/us/qicore/StructureDefinition/qicore-devicerequest" ]
      },
      "modifierExtension": [ {
        "url": "http://hl7.org/fhir/5.0/StructureDefinition/extension-DeviceRequest.doNotPerform",
        "valueBoolean": false
      } ],
      "status": "completed",
      "intent": "order",
      "codeCodeableConcept": {
        "coding": [ {
          "system": "http://snomed.info/sct",
          "code": "183240000",
          "display": "Self-propelled wheelchair (physical object)"
        } ]
      },
      "subject": {
        "reference": "Patient/45e01fed-56bb-483d-a860-af3d566bda11"
      },
      "authoredOn": "2026-11-01T23:59:00.000+00:00"
    },
    "request": {
      "method": "PUT",
      "url": "DeviceRequest/6ac70163-24c1-4b23-9c9f-598a1b83d8ab"
    }
  }, {
    "fullUrl": "https://madie.cms.gov/MeasureReport/2cea029b-b685-4314-827d-fa85a7432a6c",
    "resource": {
      "resourceType": "MeasureReport",
      "id": "2cea029b-b685-4314-827d-fa85a7432a6c",
      "meta": {
        "profile": [ "http://hl7.org/fhir/us/cqfmeasures/StructureDefinition/test-case-cqfm" ]
      },
      "contained": [ {
        "resourceType": "Parameters",
        "id": "623a28d5-9d1d-4858-9e22-07fbc0eaa604-parameters",
        "parameter": [ {
          "name": "subject",
          "valueString": "45e01fed-56bb-483d-a860-af3d566bda11"
        } ]
      } ],
      "extension": [ {
        "url": "http://hl7.org/fhir/StructureDefinition/cqf-inputParameters",
        "valueReference": {
          "reference": "#623a28d5-9d1d-4858-9e22-07fbc0eaa604-parameters"
        }
      }, {
        "url": "http://hl7.org/fhir/us/cqfmeasures/StructureDefinition/cqfm-testCaseDescription",
        "valueMarkdown": "Dementia MedicationRequest.medication as Reference. QICore 4.1.1 issue per CQLIT-412 now resolved."
      } ],
      "modifierExtension": [ {
        "url": "http://hl7.org/fhir/us/cqfmeasures/StructureDefinition/cqfm-isTestCase",
        "valueBoolean": true
      } ],
      "status": "complete",
      "type": "individual",
      "measure": "https://madie.cms.gov/Measure/CMS165FHIRControllingHighBloodPressure",
      "period": {
        "start": "2026-01-01",
        "end": "2026-12-31"
      },
      "group": [ {
        "id": "Group_1",
        "population": [ {
          "id": "InitialPopulation_1",
          "code": {
            "coding": [ {
              "system": "http://terminology.hl7.org/CodeSystem/measure-population",
              "code": "initial-population",
              "display": "Initial Population"
            } ]
          },
          "count": 1
        }, {
          "id": "Denominator_1",
          "code": {
            "coding": [ {
              "system": "http://terminology.hl7.org/CodeSystem/measure-population",
              "code": "denominator",
              "display": "Denominator"
            } ]
          },
          "count": 1
        }, {
          "id": "DenominatorExclusion_1",
          "code": {
            "coding": [ {
              "system": "http://terminology.hl7.org/CodeSystem/measure-population",
              "code": "denominator-exclusion",
              "display": "Denominator Exclusion"
            } ]
          },
          "count": 1
        }, {
          "id": "Numerator_1",
          "code": {
            "coding": [ {
              "system": "http://terminology.hl7.org/CodeSystem/measure-population",
              "code": "numerator",
              "display": "Numerator"
            } ]
          },
          "count": 0
        } ],
        "measureScore": {
          "value": 1.0
        }
      } ],
      "evaluatedResource": [ {
        "reference": "Patient/45e01fed-56bb-483d-a860-af3d566bda11"
      }, {
        "reference": "Encounter/479bc2f3-6691-4cd5-ba30-0f424cee5850"
      }, {
        "reference": "Condition/b84aa2fe-61d2-4f74-96c2-355575c48200"
      }, {
        "reference": "MedicationRequest/b4d89ccf-2291-4f04-a017-5641770e0464"
      }, {
        "reference": "Medication/f36ed433-5af7-49aa-921b-135d0719f1e9"
      }, {
        "reference": "DeviceRequest/6ac70163-24c1-4b23-9c9f-598a1b83d8ab"
      } ]
    },
    "request": {
      "method": "PUT",
      "url": "MeasureReport/2cea029b-b685-4314-827d-fa85a7432a6c"
    }
  } ]
}