{
  "resourceType": "Bundle",
  "id": "DENEXFail-HospiceServiceRequestBeforeMP",
  "type": "transaction",
  "entry": [ {
    "fullUrl": "https://madie.cms.gov/Patient/e309147e-afe3-40da-80d8-b10818c85bfb",
    "resource": {
      "resourceType": "Patient",
      "id": "e309147e-afe3-40da-80d8-b10818c85bfb",
      "meta": {
        "profile": [ "http://hl7.org/fhir/us/qicore/StructureDefinition/qicore-patient" ]
      },
      "extension": [ {
        "url": "http://hl7.org/fhir/us/core/StructureDefinition/us-core-race",
        "extension": [ {
          "url": "ombCategory",
          "valueCoding": {
            "system": "urn:oid:2.16.840.1.113883.6.238",
            "code": "2028-9",
            "display": "Asian"
          }
        }, {
          "url": "text",
          "valueString": "Asian"
        } ]
      }, {
        "url": "http://hl7.org/fhir/us/core/StructureDefinition/us-core-ethnicity",
        "extension": [ {
          "url": "ombCategory",
          "valueCoding": {
            "system": "urn:oid:2.16.840.1.113883.6.238",
            "code": "2135-2",
            "display": "Hispanic or Latino"
          }
        }, {
          "url": "text",
          "valueString": "Hispanic or Latino"
        } ]
      } ],
      "identifier": [ {
        "system": "http://hospital.smarthealthit.org",
        "value": "999999995"
      } ],
      "name": [ {
        "family": "Bertha",
        "given": [ "Betty" ]
      } ],
      "gender": "female",
      "birthDate": "2007-01-01"
    },
    "request": {
      "method": "PUT",
      "url": "Patient/e309147e-afe3-40da-80d8-b10818c85bfb"
    }
  }, {
    "fullUrl": "https://madie.cms.gov/Encounter/6f9f09d9-ecf1-44f9-b50b-0d173785f5d8",
    "resource": {
      "resourceType": "Encounter",
      "id": "6f9f09d9-ecf1-44f9-b50b-0d173785f5d8",
      "meta": {
        "profile": [ "http://hl7.org/fhir/us/qicore/StructureDefinition/qicore-encounter" ]
      },
      "status": "finished",
      "class": {
        "system": "http://terminology.hl7.org/CodeSystem/v3-ActCode",
        "code": "AMB",
        "display": "ambulatory"
      },
      "type": [ {
        "coding": [ {
          "system": "http://snomed.info/sct",
          "code": "281036007",
          "display": "Follow-up consultation (procedure)"
        } ]
      } ],
      "subject": {
        "reference": "Patient/e309147e-afe3-40da-80d8-b10818c85bfb"
      },
      "period": {
        "start": "2025-11-01T00:00:00.000Z",
        "end": "2025-11-01T01:15:00.000Z"
      }
    },
    "request": {
      "method": "PUT",
      "url": "Encounter/6f9f09d9-ecf1-44f9-b50b-0d173785f5d8"
    }
  }, {
    "fullUrl": "https://madie.cms.gov/Procedure/2ede214e-1739-4081-a5f8-871a89cc7ad8",
    "resource": {
      "resourceType": "Procedure",
      "id": "2ede214e-1739-4081-a5f8-871a89cc7ad8",
      "meta": {
        "profile": [ "http://hl7.org/fhir/us/qicore/StructureDefinition/qicore-procedure" ]
      },
      "extension": [ {
        "url": "http://hl7.org/fhir/us/qicore/StructureDefinition/qicore-recorded",
        "valueDateTime": "2026-01-15T00:00:00.000Z"
      } ],
      "status": "completed",
      "code": {
        "coding": [ {
          "system": "http://www.cms.gov/Medicare/Coding/ICD10",
          "code": "0SR9019",
          "display": "Replacement of Right Hip Joint with Metal Synthetic Substitute, Cemented, Open Approach"
        } ]
      },
      "subject": {
        "reference": "Patient/e309147e-afe3-40da-80d8-b10818c85bfb"
      },
      "performedPeriod": {
        "start": "2024-11-01T00:00:00.000Z",
        "end": "2024-11-01T01:00:00.000Z"
      }
    },
    "request": {
      "method": "PUT",
      "url": "Procedure/2ede214e-1739-4081-a5f8-871a89cc7ad8"
    }
  }, {
    "fullUrl": "https://madie.cms.gov/ServiceRequest/d4128370-d763-4bfd-a07c-8f6f0a21dc05",
    "resource": {
      "resourceType": "ServiceRequest",
      "id": "d4128370-d763-4bfd-a07c-8f6f0a21dc05",
      "meta": {
        "profile": [ "http://hl7.org/fhir/us/qicore/StructureDefinition/qicore-servicerequest" ]
      },
      "status": "draft",
      "intent": "order",
      "category": [ {
        "coding": [ {
          "system": "http://snomed.info/sct",
          "code": "387713003",
          "display": "Surgical procedure"
        } ]
      } ],
      "priority": "routine",
      "code": {
        "coding": [ {
          "system": "http://snomed.info/sct",
          "code": "385765002",
          "display": "Hospice care management (procedure)"
        } ]
      },
      "subject": {
        "reference": "Patient/e309147e-afe3-40da-80d8-b10818c85bfb"
      },
      "authoredOn": "2025-12-31T23:59:00.000Z",
      "performerType": {
        "coding": [ {
          "system": "http://snomed.info/sct",
          "code": "405279007",
          "display": "Attending physician (occupation)"
        } ]
      }
    },
    "request": {
      "method": "PUT",
      "url": "ServiceRequest/d4128370-d763-4bfd-a07c-8f6f0a21dc05"
    }
  }, {
    "fullUrl": "https://madie.cms.gov/MeasureReport/d2bd2d44-99ea-4e1c-a436-8f5ba623c214",
    "resource": {
      "resourceType": "MeasureReport",
      "id": "d2bd2d44-99ea-4e1c-a436-8f5ba623c214",
      "meta": {
        "profile": [ "http://hl7.org/fhir/us/cqfmeasures/StructureDefinition/test-case-cqfm" ]
      },
      "contained": [ {
        "resourceType": "Parameters",
        "id": "45e31de3-ecdb-4d9b-ae7c-7f859fa7ccad-parameters",
        "parameter": [ {
          "name": "subject",
          "valueString": "e309147e-afe3-40da-80d8-b10818c85bfb"
        } ]
      } ],
      "extension": [ {
        "url": "http://hl7.org/fhir/StructureDefinition/cqf-inputParameters",
        "valueReference": {
          "reference": "#45e31de3-ecdb-4d9b-ae7c-7f859fa7ccad-parameters"
        }
      }, {
        "url": "http://hl7.org/fhir/us/cqfmeasures/StructureDefinition/cqfm-testCaseDescription",
        "valueMarkdown": "Patient has a hospice service request the year prior to the measurement period"
      } ],
      "modifierExtension": [ {
        "url": "http://hl7.org/fhir/us/cqfmeasures/StructureDefinition/cqfm-isTestCase",
        "valueBoolean": true
      } ],
      "status": "complete",
      "type": "individual",
      "measure": "https://madie.cms.gov/Measure/CMS56FHIRFunctionalStatusAssessmentforTotalHipReplacement",
      "period": {
        "start": "2026-01-01",
        "end": "2026-12-31"
      },
      "group": [ {
        "id": "Group_1",
        "population": [ {
          "id": "InitialPopulation_1",
          "code": {
            "coding": [ {
              "system": "http://terminology.hl7.org/CodeSystem/measure-population",
              "code": "initial-population",
              "display": "Initial Population"
            } ]
          },
          "count": 1
        }, {
          "id": "Denominator_1",
          "code": {
            "coding": [ {
              "system": "http://terminology.hl7.org/CodeSystem/measure-population",
              "code": "denominator",
              "display": "Denominator"
            } ]
          },
          "count": 1
        }, {
          "id": "DenominatorExclusion_1",
          "code": {
            "coding": [ {
              "system": "http://terminology.hl7.org/CodeSystem/measure-population",
              "code": "denominator-exclusion",
              "display": "Denominator Exclusion"
            } ]
          },
          "count": 0
        }, {
          "id": "Numerator_1",
          "code": {
            "coding": [ {
              "system": "http://terminology.hl7.org/CodeSystem/measure-population",
              "code": "numerator",
              "display": "Numerator"
            } ]
          },
          "count": 0
        } ],
        "measureScore": {
          "value": 1.0
        }
      } ],
      "evaluatedResource": [ {
        "reference": "Patient/e309147e-afe3-40da-80d8-b10818c85bfb"
      }, {
        "reference": "Encounter/6f9f09d9-ecf1-44f9-b50b-0d173785f5d8"
      }, {
        "reference": "Procedure/2ede214e-1739-4081-a5f8-871a89cc7ad8"
      }, {
        "reference": "ServiceRequest/d4128370-d763-4bfd-a07c-8f6f0a21dc05"
      } ]
    },
    "request": {
      "method": "PUT",
      "url": "MeasureReport/d2bd2d44-99ea-4e1c-a436-8f5ba623c214"
    }
  } ]
}