{
  "resourceType": "Bundle",
  "id": "DENEXFail-Death301DaysAfterTHAProcNov1",
  "type": "transaction",
  "entry": [ {
    "fullUrl": "https://madie.cms.gov/Patient/30cbffa6-2fd2-47b2-ad9c-381360e6c2c7",
    "resource": {
      "resourceType": "Patient",
      "id": "30cbffa6-2fd2-47b2-ad9c-381360e6c2c7",
      "meta": {
        "profile": [ "http://hl7.org/fhir/us/qicore/StructureDefinition/qicore-patient" ]
      },
      "extension": [ {
        "url": "http://hl7.org/fhir/us/core/StructureDefinition/us-core-race",
        "extension": [ {
          "url": "ombCategory",
          "valueCoding": {
            "system": "urn:oid:2.16.840.1.113883.6.238",
            "code": "2028-9",
            "display": "Asian"
          }
        }, {
          "url": "text",
          "valueString": "Asian"
        } ]
      }, {
        "url": "http://hl7.org/fhir/us/core/StructureDefinition/us-core-ethnicity",
        "extension": [ {
          "url": "ombCategory",
          "valueCoding": {
            "system": "urn:oid:2.16.840.1.113883.6.238",
            "code": "2135-2",
            "display": "Hispanic or Latino"
          }
        }, {
          "url": "text",
          "valueString": "Hispanic or Latino"
        } ]
      } ],
      "identifier": [ {
        "system": "http://hospital.smarthealthit.org",
        "value": "999999995"
      } ],
      "name": [ {
        "family": "Bertha",
        "given": [ "Betty" ]
      } ],
      "gender": "female",
      "birthDate": "2007-01-01",
      "deceasedDateTime": "2025-08-29T00:00:00.000Z"
    },
    "request": {
      "method": "PUT",
      "url": "Patient/30cbffa6-2fd2-47b2-ad9c-381360e6c2c7"
    }
  }, {
    "fullUrl": "https://madie.cms.gov/Procedure/a2c7f34e-b6cc-4cff-9864-9e4f152fcd55",
    "resource": {
      "resourceType": "Procedure",
      "id": "a2c7f34e-b6cc-4cff-9864-9e4f152fcd55",
      "meta": {
        "profile": [ "http://hl7.org/fhir/us/qicore/StructureDefinition/qicore-procedure" ]
      },
      "extension": [ {
        "url": "http://hl7.org/fhir/us/qicore/StructureDefinition/qicore-recorded",
        "valueDateTime": "2024-11-01T00:00:00.000Z"
      } ],
      "status": "completed",
      "code": {
        "coding": [ {
          "system": "http://www.cms.gov/Medicare/Coding/ICD10",
          "code": "0SR9019",
          "display": "Replacement of Right Hip Joint with Metal Synthetic Substitute, Cemented, Open Approach"
        } ]
      },
      "subject": {
        "reference": "Patient/30cbffa6-2fd2-47b2-ad9c-381360e6c2c7"
      },
      "performedPeriod": {
        "start": "2024-11-01T00:00:00.000Z",
        "end": "2024-11-01T01:00:00.000Z"
      }
    },
    "request": {
      "method": "PUT",
      "url": "Procedure/a2c7f34e-b6cc-4cff-9864-9e4f152fcd55"
    }
  }, {
    "fullUrl": "https://madie.cms.gov/Encounter/96b04cdf-56ec-41cf-b4d0-504d9180b118",
    "resource": {
      "resourceType": "Encounter",
      "id": "96b04cdf-56ec-41cf-b4d0-504d9180b118",
      "meta": {
        "profile": [ "http://hl7.org/fhir/us/qicore/StructureDefinition/qicore-encounter" ]
      },
      "status": "finished",
      "class": {
        "system": "http://terminology.hl7.org/CodeSystem/v3-ActCode",
        "code": "AMB",
        "display": "ambulatory"
      },
      "type": [ {
        "coding": [ {
          "system": "http://snomed.info/sct",
          "code": "281036007",
          "display": "Follow-up consultation (procedure)"
        } ]
      } ],
      "subject": {
        "reference": "Patient/30cbffa6-2fd2-47b2-ad9c-381360e6c2c7"
      },
      "period": {
        "start": "2025-11-01T00:00:00.000Z",
        "end": "2025-11-01T01:15:00.000Z"
      }
    },
    "request": {
      "method": "PUT",
      "url": "Encounter/96b04cdf-56ec-41cf-b4d0-504d9180b118"
    }
  }, {
    "fullUrl": "https://madie.cms.gov/MeasureReport/16f917dd-9d86-4342-9a72-aec0e0943b75",
    "resource": {
      "resourceType": "MeasureReport",
      "id": "16f917dd-9d86-4342-9a72-aec0e0943b75",
      "meta": {
        "profile": [ "http://hl7.org/fhir/us/cqfmeasures/StructureDefinition/test-case-cqfm" ]
      },
      "contained": [ {
        "resourceType": "Parameters",
        "id": "a1972907-0737-449c-9da2-3b173e6bace5-parameters",
        "parameter": [ {
          "name": "subject",
          "valueString": "30cbffa6-2fd2-47b2-ad9c-381360e6c2c7"
        } ]
      } ],
      "extension": [ {
        "url": "http://hl7.org/fhir/StructureDefinition/cqf-inputParameters",
        "valueReference": {
          "reference": "#a1972907-0737-449c-9da2-3b173e6bace5-parameters"
        }
      }, {
        "url": "http://hl7.org/fhir/us/cqfmeasures/StructureDefinition/cqfm-testCaseDescription",
        "valueMarkdown": "Patient deceased 301 days after THAProcedure on 11/1."
      } ],
      "modifierExtension": [ {
        "url": "http://hl7.org/fhir/us/cqfmeasures/StructureDefinition/cqfm-isTestCase",
        "valueBoolean": true
      } ],
      "status": "complete",
      "type": "individual",
      "measure": "https://madie.cms.gov/Measure/CMS56FHIRFunctionalStatusAssessmentforTotalHipReplacement",
      "period": {
        "start": "2026-01-01",
        "end": "2026-12-31"
      },
      "group": [ {
        "id": "Group_1",
        "population": [ {
          "id": "InitialPopulation_1",
          "code": {
            "coding": [ {
              "system": "http://terminology.hl7.org/CodeSystem/measure-population",
              "code": "initial-population",
              "display": "Initial Population"
            } ]
          },
          "count": 1
        }, {
          "id": "Denominator_1",
          "code": {
            "coding": [ {
              "system": "http://terminology.hl7.org/CodeSystem/measure-population",
              "code": "denominator",
              "display": "Denominator"
            } ]
          },
          "count": 1
        }, {
          "id": "DenominatorExclusion_1",
          "code": {
            "coding": [ {
              "system": "http://terminology.hl7.org/CodeSystem/measure-population",
              "code": "denominator-exclusion",
              "display": "Denominator Exclusion"
            } ]
          },
          "count": 0
        }, {
          "id": "Numerator_1",
          "code": {
            "coding": [ {
              "system": "http://terminology.hl7.org/CodeSystem/measure-population",
              "code": "numerator",
              "display": "Numerator"
            } ]
          },
          "count": 0
        } ],
        "measureScore": {
          "value": 1.0
        }
      } ],
      "evaluatedResource": [ {
        "reference": "Patient/30cbffa6-2fd2-47b2-ad9c-381360e6c2c7"
      }, {
        "reference": "Procedure/a2c7f34e-b6cc-4cff-9864-9e4f152fcd55"
      }, {
        "reference": "Encounter/96b04cdf-56ec-41cf-b4d0-504d9180b118"
      } ]
    },
    "request": {
      "method": "PUT",
      "url": "MeasureReport/16f917dd-9d86-4342-9a72-aec0e0943b75"
    }
  } ]
}