{"resourceType":"Bundle","id":"tests-faeabeab-c8ca-4e6f-91c8-83edc69a464a-bundle","type":"transaction","entry":[{"fullUrl":"Observation/9185b88b-bb14-47f4-81eb-ffb291363772","resource":{"resourceType":"Observation","id":"9185b88b-bb14-47f4-81eb-ffb291363772","meta":{"profile":["http://hl7.org/fhir/us/qicore/StructureDefinition/qicore-observation-screening-assessment"]},"status":"final","category":[{"coding":[{"system":"http://terminology.hl7.org/CodeSystem/observation-category","code":"survey"}]}],"code":{"coding":[{"system":"http://loinc.org","code":"71971-6","display":"PROMIS-10 Global Physical Health (GPH) score T-score"}]},"subject":{"reference":"Patient/faeabeab-c8ca-4e6f-91c8-83edc69a464a"},"effectivePeriod":{"start":"2025-08-28T00:00:00.000Z","end":"2025-08-28T01:00:00.000Z"},"valueInteger":60},"request":{"method":"PUT","url":"Observation/9185b88b-bb14-47f4-81eb-ffb291363772"}},{"fullUrl":"Encounter/6277deff-16c4-43e2-943f-c3c01c4fb688","resource":{"resourceType":"Encounter","id":"6277deff-16c4-43e2-943f-c3c01c4fb688","meta":{"profile":["http://hl7.org/fhir/us/qicore/StructureDefinition/qicore-encounter"]},"status":"finished","class":{"system":"http://terminology.hl7.org/CodeSystem/v3-ActCode","code":"AMB","display":"ambulatory"},"type":[{"coding":[{"system":"http://snomed.info/sct","code":"281036007","display":"Follow-up consultation (procedure)"}]}],"subject":{"reference":"Patient/faeabeab-c8ca-4e6f-91c8-83edc69a464a"},"period":{"start":"2025-11-01T00:00:00.000Z","end":"2025-11-01T01:15:00.000Z"}},"request":{"method":"PUT","url":"Encounter/6277deff-16c4-43e2-943f-c3c01c4fb688"}},{"fullUrl":"Patient/faeabeab-c8ca-4e6f-91c8-83edc69a464a","resource":{"resourceType":"Patient","id":"faeabeab-c8ca-4e6f-91c8-83edc69a464a","meta":{"profile":["http://hl7.org/fhir/us/qicore/StructureDefinition/qicore-patient"]},"extension":[{"url":"http://hl7.org/fhir/us/core/StructureDefinition/us-core-race","extension":[{"url":"ombCategory","valueCoding":{"system":"urn:oid:2.16.840.1.113883.6.238","code":"2028-9","display":"Asian"}},{"url":"text","valueString":"Asian"}]},{"url":"http://hl7.org/fhir/us/core/StructureDefinition/us-core-ethnicity","extension":[{"url":"ombCategory","valueCoding":{"system":"urn:oid:2.16.840.1.113883.6.238","code":"2135-2","display":"Hispanic or Latino"}},{"url":"text","valueString":"Hispanic or Latino"}]}],"identifier":[{"system":"http://hospital.smarthealthit.org","value":"999999995"}],"name":[{"family":"Bertha","given":["Betty"]}],"gender":"female","birthDate":"2007-01-01"},"request":{"method":"PUT","url":"Patient/faeabeab-c8ca-4e6f-91c8-83edc69a464a"}},{"fullUrl":"Bundle/NUMPass-InitPROMISameDayAsTHAFUPROMIS300DaysAfterTHA","resource":{"resourceType":"Bundle","id":"NUMPass-InitPROMISameDayAsTHAFUPROMIS300DaysAfterTHA","type":"transaction","entry":[{"fullUrl":"https://madie.cms.gov/Patient/faeabeab-c8ca-4e6f-91c8-83edc69a464a","resource":{"resourceType":"Patient","id":"faeabeab-c8ca-4e6f-91c8-83edc69a464a","meta":{"profile":["http://hl7.org/fhir/us/qicore/StructureDefinition/qicore-patient"]},"extension":[{"url":"http://hl7.org/fhir/us/core/StructureDefinition/us-core-race","extension":[{"url":"ombCategory","valueCoding":{"system":"urn:oid:2.16.840.1.113883.6.238","code":"2028-9","display":"Asian"}},{"url":"text","valueString":"Asian"}]},{"url":"http://hl7.org/fhir/us/core/StructureDefinition/us-core-ethnicity","extension":[{"url":"ombCategory","valueCoding":{"system":"urn:oid:2.16.840.1.113883.6.238","code":"2135-2","display":"Hispanic or Latino"}},{"url":"text","valueString":"Hispanic or Latino"}]}],"identifier":[{"system":"http://hospital.smarthealthit.org","value":"999999995"}],"name":[{"family":"Bertha","given":["Betty"]}],"gender":"female","birthDate":"2007-01-01"},"request":{"method":"PUT","url":"Patient/faeabeab-c8ca-4e6f-91c8-83edc69a464a"}},{"fullUrl":"https://madie.cms.gov/Procedure/62df827d-84c5-466a-a325-236d44add39b","resource":{"resourceType":"Procedure","id":"62df827d-84c5-466a-a325-236d44add39b","meta":{"profile":["http://hl7.org/fhir/us/qicore/StructureDefinition/qicore-procedure"]},"extension":[{"url":"http://hl7.org/fhir/us/qicore/StructureDefinition/qicore-recorded","valueDateTime":"2024-11-01T00:00:00.000Z"}],"status":"completed","code":{"coding":[{"system":"http://www.cms.gov/Medicare/Coding/ICD10","code":"0SR9019","display":"Replacement of Right Hip Joint with Metal Synthetic Substitute, Cemented, Open Approach"}]},"subject":{"reference":"Patient/faeabeab-c8ca-4e6f-91c8-83edc69a464a"},"performedPeriod":{"start":"2024-11-01T00:00:00.000Z","end":"2024-11-01T01:00:00.000Z"}},"request":{"method":"PUT","url":"Procedure/62df827d-84c5-466a-a325-236d44add39b"}},{"fullUrl":"https://madie.cms.gov/Encounter/6277deff-16c4-43e2-943f-c3c01c4fb688","resource":{"resourceType":"Encounter","id":"6277deff-16c4-43e2-943f-c3c01c4fb688","meta":{"profile":["http://hl7.org/fhir/us/qicore/StructureDefinition/qicore-encounter"]},"status":"finished","class":{"system":"http://terminology.hl7.org/CodeSystem/v3-ActCode","code":"AMB","display":"ambulatory"},"type":[{"coding":[{"system":"http://snomed.info/sct","code":"281036007","display":"Follow-up consultation (procedure)"}]}],"subject":{"reference":"Patient/faeabeab-c8ca-4e6f-91c8-83edc69a464a"},"period":{"start":"2025-11-01T00:00:00.000Z","end":"2025-11-01T01:15:00.000Z"}},"request":{"method":"PUT","url":"Encounter/6277deff-16c4-43e2-943f-c3c01c4fb688"}},{"fullUrl":"https://madie.cms.gov/Observation/47360b4e-1d47-4bce-8a2f-fc112ad050c5","resource":{"resourceType":"Observation","id":"47360b4e-1d47-4bce-8a2f-fc112ad050c5","meta":{"profile":["http://hl7.org/fhir/us/qicore/StructureDefinition/qicore-observation-screening-assessment"]},"status":"final","category":[{"coding":[{"system":"http://terminology.hl7.org/CodeSystem/observation-category","code":"survey"}]}],"code":{"coding":[{"system":"http://loinc.org","code":"71969-0","display":"PROMIS-10 Global Mental Health (GMH) score T-score"}]},"subject":{"reference":"Patient/faeabeab-c8ca-4e6f-91c8-83edc69a464a"},"effectivePeriod":{"start":"2024-11-01T00:00:00.000Z","end":"2024-11-01T01:00:00.000Z"},"valueInteger":60},"request":{"method":"PUT","url":"Observation/47360b4e-1d47-4bce-8a2f-fc112ad050c5"}},{"fullUrl":"https://madie.cms.gov/Observation/6bc99811-7483-4d01-8944-ce696b04edeb","resource":{"resourceType":"Observation","id":"6bc99811-7483-4d01-8944-ce696b04edeb","meta":{"profile":["http://hl7.org/fhir/us/qicore/StructureDefinition/qicore-observation-screening-assessment"]},"status":"final","category":[{"coding":[{"system":"http://terminology.hl7.org/CodeSystem/observation-category","code":"survey"}]}],"code":{"coding":[{"system":"http://loinc.org","code":"71971-6","display":"PROMIS-10 Global Physical Health (GPH) score T-score"}]},"subject":{"reference":"Patient/faeabeab-c8ca-4e6f-91c8-83edc69a464a"},"effectivePeriod":{"start":"2024-11-01T00:00:00.000Z","end":"2024-11-01T01:00:00.000Z"},"valueInteger":60},"request":{"method":"PUT","url":"Observation/6bc99811-7483-4d01-8944-ce696b04edeb"}},{"fullUrl":"https://madie.cms.gov/Observation/8ccf066b-e15a-4b79-9621-a05d61389476","resource":{"resourceType":"Observation","id":"8ccf066b-e15a-4b79-9621-a05d61389476","meta":{"profile":["http://hl7.org/fhir/us/qicore/StructureDefinition/qicore-observation-screening-assessment"]},"status":"final","category":[{"coding":[{"system":"http://terminology.hl7.org/CodeSystem/observation-category","code":"survey"}]}],"code":{"coding":[{"system":"http://loinc.org","code":"71969-0","display":"PROMIS-10 Global Mental Health (GMH) score T-score'"}]},"subject":{"reference":"Patient/faeabeab-c8ca-4e6f-91c8-83edc69a464a"},"effectivePeriod":{"start":"2025-08-28T00:00:00.000Z","end":"2025-08-28T01:00:00.000Z"},"valueInteger":60},"request":{"method":"PUT","url":"Observation/8ccf066b-e15a-4b79-9621-a05d61389476"}},{"fullUrl":"https://madie.cms.gov/Observation/9185b88b-bb14-47f4-81eb-ffb291363772","resource":{"resourceType":"Observation","id":"9185b88b-bb14-47f4-81eb-ffb291363772","meta":{"profile":["http://hl7.org/fhir/us/qicore/StructureDefinition/qicore-observation-screening-assessment"]},"status":"final","category":[{"coding":[{"system":"http://terminology.hl7.org/CodeSystem/observation-category","code":"survey"}]}],"code":{"coding":[{"system":"http://loinc.org","code":"71971-6","display":"PROMIS-10 Global Physical Health (GPH) score T-score"}]},"subject":{"reference":"Patient/faeabeab-c8ca-4e6f-91c8-83edc69a464a"},"effectivePeriod":{"start":"2025-08-28T00:00:00.000Z","end":"2025-08-28T01:00:00.000Z"},"valueInteger":60},"request":{"method":"PUT","url":"Observation/9185b88b-bb14-47f4-81eb-ffb291363772"}},{"fullUrl":"https://madie.cms.gov/MeasureReport/34c4a2e5-56ca-457e-b0ef-551be4ad5274","resource":{"resourceType":"MeasureReport","id":"34c4a2e5-56ca-457e-b0ef-551be4ad5274","meta":{"profile":["http://hl7.org/fhir/us/cqfmeasures/StructureDefinition/test-case-cqfm"]},"contained":[{"resourceType":"Parameters","id":"8ba4ba5f-c5d4-4f02-8686-bbbdb9ef091b-parameters","parameter":[{"name":"subject","valueString":"faeabeab-c8ca-4e6f-91c8-83edc69a464a"}]}],"extension":[{"url":"http://hl7.org/fhir/StructureDefinition/cqf-inputParameters","valueReference":{"reference":"#8ba4ba5f-c5d4-4f02-8686-bbbdb9ef091b-parameters"}},{"url":"http://hl7.org/fhir/us/cqfmeasures/StructureDefinition/cqfm-testCaseDescription","valueMarkdown":"Patient w/ a THA Procedure 11/1, Initial Hip Assessment PROMIS10 Same day as THA Procedure(11/1), and FollowUp Hip Assessment PROMIS10 300 days after THA Procedure (8/27)"}],"modifierExtension":[{"url":"http://hl7.org/fhir/us/cqfmeasures/StructureDefinition/cqfm-isTestCase","valueBoolean":true}],"status":"complete","type":"individual","measure":"https://madie.cms.gov/Measure/CMS56FHIRFunctionalStatusAssessmentforTotalHipReplacement","period":{"start":"2026-01-01","end":"2026-12-31"},"group":[{"id":"Group_1","population":[{"id":"InitialPopulation_1","code":{"coding":[{"system":"http://terminology.hl7.org/CodeSystem/measure-population","code":"initial-population","display":"Initial Population"}]},"count":1},{"id":"Denominator_1","code":{"coding":[{"system":"http://terminology.hl7.org/CodeSystem/measure-population","code":"denominator","display":"Denominator"}]},"count":1},{"id":"DenominatorExclusion_1","code":{"coding":[{"system":"http://terminology.hl7.org/CodeSystem/measure-population","code":"denominator-exclusion","display":"Denominator Exclusion"}]},"count":0},{"id":"Numerator_1","code":{"coding":[{"system":"http://terminology.hl7.org/CodeSystem/measure-population","code":"numerator","display":"Numerator"}]},"count":1}],"measureScore":{"value":1.0}}],"evaluatedResource":[{"reference":"Patient/faeabeab-c8ca-4e6f-91c8-83edc69a464a"},{"reference":"Procedure/62df827d-84c5-466a-a325-236d44add39b"},{"reference":"Encounter/6277deff-16c4-43e2-943f-c3c01c4fb688"},{"reference":"Observation/47360b4e-1d47-4bce-8a2f-fc112ad050c5"},{"reference":"Observation/6bc99811-7483-4d01-8944-ce696b04edeb"},{"reference":"Observation/8ccf066b-e15a-4b79-9621-a05d61389476"},{"reference":"Observation/9185b88b-bb14-47f4-81eb-ffb291363772"}]},"request":{"method":"PUT","url":"MeasureReport/34c4a2e5-56ca-457e-b0ef-551be4ad5274"}}]},"request":{"method":"PUT","url":"Bundle/NUMPass-InitPROMISameDayAsTHAFUPROMIS300DaysAfterTHA"}},{"fullUrl":"Observation/47360b4e-1d47-4bce-8a2f-fc112ad050c5","resource":{"resourceType":"Observation","id":"47360b4e-1d47-4bce-8a2f-fc112ad050c5","meta":{"profile":["http://hl7.org/fhir/us/qicore/StructureDefinition/qicore-observation-screening-assessment"]},"status":"final","category":[{"coding":[{"system":"http://terminology.hl7.org/CodeSystem/observation-category","code":"survey"}]}],"code":{"coding":[{"system":"http://loinc.org","code":"71969-0","display":"PROMIS-10 Global Mental Health (GMH) score T-score"}]},"subject":{"reference":"Patient/faeabeab-c8ca-4e6f-91c8-83edc69a464a"},"effectivePeriod":{"start":"2024-11-01T00:00:00.000Z","end":"2024-11-01T01:00:00.000Z"},"valueInteger":60},"request":{"method":"PUT","url":"Observation/47360b4e-1d47-4bce-8a2f-fc112ad050c5"}},{"fullUrl":"MeasureReport/34c4a2e5-56ca-457e-b0ef-551be4ad5274","resource":{"resourceType":"MeasureReport","id":"34c4a2e5-56ca-457e-b0ef-551be4ad5274","meta":{"profile":["http://hl7.org/fhir/us/cqfmeasures/StructureDefinition/test-case-cqfm"]},"contained":[{"resourceType":"Parameters","id":"8ba4ba5f-c5d4-4f02-8686-bbbdb9ef091b-parameters","parameter":[{"name":"subject","valueString":"faeabeab-c8ca-4e6f-91c8-83edc69a464a"}]}],"extension":[{"url":"http://hl7.org/fhir/StructureDefinition/cqf-inputParameters","valueReference":{"reference":"#8ba4ba5f-c5d4-4f02-8686-bbbdb9ef091b-parameters"}},{"url":"http://hl7.org/fhir/us/cqfmeasures/StructureDefinition/cqfm-testCaseDescription","valueMarkdown":"Patient w/ a THA Procedure 11/1, Initial Hip Assessment PROMIS10 Same day as THA Procedure(11/1), and FollowUp Hip Assessment PROMIS10 300 days after THA Procedure (8/27)"}],"modifierExtension":[{"url":"http://hl7.org/fhir/us/cqfmeasures/StructureDefinition/cqfm-isTestCase","valueBoolean":true}],"status":"complete","type":"individual","measure":"https://madie.cms.gov/Measure/CMS56FHIRFunctionalStatusAssessmentforTotalHipReplacement","period":{"start":"2026-01-01","end":"2026-12-31"},"group":[{"id":"Group_1","population":[{"id":"InitialPopulation_1","code":{"coding":[{"system":"http://terminology.hl7.org/CodeSystem/measure-population","code":"initial-population","display":"Initial Population"}]},"count":1},{"id":"Denominator_1","code":{"coding":[{"system":"http://terminology.hl7.org/CodeSystem/measure-population","code":"denominator","display":"Denominator"}]},"count":1},{"id":"DenominatorExclusion_1","code":{"coding":[{"system":"http://terminology.hl7.org/CodeSystem/measure-population","code":"denominator-exclusion","display":"Denominator Exclusion"}]},"count":0},{"id":"Numerator_1","code":{"coding":[{"system":"http://terminology.hl7.org/CodeSystem/measure-population","code":"numerator","display":"Numerator"}]},"count":1}],"measureScore":{"value":1.0}}],"evaluatedResource":[{"reference":"Patient/faeabeab-c8ca-4e6f-91c8-83edc69a464a"},{"reference":"Procedure/62df827d-84c5-466a-a325-236d44add39b"},{"reference":"Encounter/6277deff-16c4-43e2-943f-c3c01c4fb688"},{"reference":"Observation/47360b4e-1d47-4bce-8a2f-fc112ad050c5"},{"reference":"Observation/6bc99811-7483-4d01-8944-ce696b04edeb"},{"reference":"Observation/8ccf066b-e15a-4b79-9621-a05d61389476"},{"reference":"Observation/9185b88b-bb14-47f4-81eb-ffb291363772"}]},"request":{"method":"PUT","url":"MeasureReport/34c4a2e5-56ca-457e-b0ef-551be4ad5274"}},{"fullUrl":"Observation/8ccf066b-e15a-4b79-9621-a05d61389476","resource":{"resourceType":"Observation","id":"8ccf066b-e15a-4b79-9621-a05d61389476","meta":{"profile":["http://hl7.org/fhir/us/qicore/StructureDefinition/qicore-observation-screening-assessment"]},"status":"final","category":[{"coding":[{"system":"http://terminology.hl7.org/CodeSystem/observation-category","code":"survey"}]}],"code":{"coding":[{"system":"http://loinc.org","code":"71969-0","display":"PROMIS-10 Global Mental Health (GMH) score T-score'"}]},"subject":{"reference":"Patient/faeabeab-c8ca-4e6f-91c8-83edc69a464a"},"effectivePeriod":{"start":"2025-08-28T00:00:00.000Z","end":"2025-08-28T01:00:00.000Z"},"valueInteger":60},"request":{"method":"PUT","url":"Observation/8ccf066b-e15a-4b79-9621-a05d61389476"}},{"fullUrl":"Procedure/62df827d-84c5-466a-a325-236d44add39b","resource":{"resourceType":"Procedure","id":"62df827d-84c5-466a-a325-236d44add39b","meta":{"profile":["http://hl7.org/fhir/us/qicore/StructureDefinition/qicore-procedure"]},"extension":[{"url":"http://hl7.org/fhir/us/qicore/StructureDefinition/qicore-recorded","valueDateTime":"2024-11-01T00:00:00.000Z"}],"status":"completed","code":{"coding":[{"system":"http://www.cms.gov/Medicare/Coding/ICD10","code":"0SR9019","display":"Replacement of Right Hip Joint with Metal Synthetic Substitute, Cemented, Open Approach"}]},"subject":{"reference":"Patient/faeabeab-c8ca-4e6f-91c8-83edc69a464a"},"performedPeriod":{"start":"2024-11-01T00:00:00.000Z","end":"2024-11-01T01:00:00.000Z"}},"request":{"method":"PUT","url":"Procedure/62df827d-84c5-466a-a325-236d44add39b"}},{"fullUrl":"Observation/6bc99811-7483-4d01-8944-ce696b04edeb","resource":{"resourceType":"Observation","id":"6bc99811-7483-4d01-8944-ce696b04edeb","meta":{"profile":["http://hl7.org/fhir/us/qicore/StructureDefinition/qicore-observation-screening-assessment"]},"status":"final","category":[{"coding":[{"system":"http://terminology.hl7.org/CodeSystem/observation-category","code":"survey"}]}],"code":{"coding":[{"system":"http://loinc.org","code":"71971-6","display":"PROMIS-10 Global Physical Health (GPH) score T-score"}]},"subject":{"reference":"Patient/faeabeab-c8ca-4e6f-91c8-83edc69a464a"},"effectivePeriod":{"start":"2024-11-01T00:00:00.000Z","end":"2024-11-01T01:00:00.000Z"},"valueInteger":60},"request":{"method":"PUT","url":"Observation/6bc99811-7483-4d01-8944-ce696b04edeb"}}]}