{"resourceType":"Bundle","id":"tests-80ed4488-76a7-41af-ac4d-58362b0753e2-bundle","type":"transaction","entry":[{"resource":{"resourceType":"Observation","id":"3fd4aaec-23bd-409a-aa0a-b003585bea64","meta":{"profile":["http://hl7.org/fhir/us/qicore/StructureDefinition/qicore-observation-screening-assessment"]},"status":"final","category":[{"coding":[{"system":"http://terminology.hl7.org/CodeSystem/observation-category","code":"survey"}]}],"code":{"coding":[{"system":"http://loinc.org","code":"72027-6","display":"VR-12 Physical component summary (PCS) score - orthogonal method T-score"}]},"subject":{"reference":"Patient/80ed4488-76a7-41af-ac4d-58362b0753e2"},"effectivePeriod":{"start":"2025-08-28T00:00:00.000Z","end":"2025-08-28T01:00:00.000Z"},"valueInteger":60},"request":{"method":"PUT","url":"Observation/3fd4aaec-23bd-409a-aa0a-b003585bea64"}},{"resource":{"resourceType":"Encounter","id":"c1dd59ea-6ac5-4a64-80e5-9b4a143c2110","meta":{"profile":["http://hl7.org/fhir/us/qicore/StructureDefinition/qicore-encounter"]},"status":"finished","class":{"system":"http://terminology.hl7.org/CodeSystem/v3-ActCode","code":"AMB","display":"ambulatory"},"type":[{"coding":[{"system":"http://snomed.info/sct","code":"281036007","display":"Follow-up consultation (procedure)"}]}],"subject":{"reference":"Patient/80ed4488-76a7-41af-ac4d-58362b0753e2"},"period":{"start":"2025-11-01T00:00:00.000Z","end":"2025-11-01T01:15:00.000Z"}},"request":{"method":"PUT","url":"Encounter/c1dd59ea-6ac5-4a64-80e5-9b4a143c2110"}},{"resource":{"resourceType":"MeasureReport","id":"9036734e-7ea2-4f0e-92af-cc9fe73cf644","meta":{"profile":["http://hl7.org/fhir/us/cqfmeasures/StructureDefinition/test-case-cqfm"]},"contained":[{"resourceType":"Parameters","id":"d1d4b4da-148d-4e54-9ef4-0577bd3c28f4-parameters","parameter":[{"name":"subject","valueString":"80ed4488-76a7-41af-ac4d-58362b0753e2"}]}],"extension":[{"url":"http://hl7.org/fhir/StructureDefinition/cqf-inputParameters","valueReference":{"reference":"#d1d4b4da-148d-4e54-9ef4-0577bd3c28f4-parameters"}},{"url":"http://hl7.org/fhir/us/cqfmeasures/StructureDefinition/cqfm-testCaseDescription","valueMarkdown":"Patient w/ a THA Procedure 11/1, Initial Hip Assessment Orthogonal Same day as THA Procedure(11/1), and FollowUp Hip Assessment Orthogonal 300 days after THA Procedure (8/27)"}],"modifierExtension":[{"url":"http://hl7.org/fhir/us/cqfmeasures/StructureDefinition/cqfm-isTestCase","valueBoolean":true}],"status":"complete","type":"individual","measure":"https://madie.cms.gov/Measure/CMS56FHIRFunctionalStatusAssessmentforTotalHipReplacement","period":{"start":"2026-01-01","end":"2026-12-31"},"group":[{"id":"Group_1","population":[{"id":"InitialPopulation_1","code":{"coding":[{"system":"http://terminology.hl7.org/CodeSystem/measure-population","code":"initial-population","display":"Initial Population"}]},"count":1},{"id":"Denominator_1","code":{"coding":[{"system":"http://terminology.hl7.org/CodeSystem/measure-population","code":"denominator","display":"Denominator"}]},"count":1},{"id":"DenominatorExclusion_1","code":{"coding":[{"system":"http://terminology.hl7.org/CodeSystem/measure-population","code":"denominator-exclusion","display":"Denominator Exclusion"}]},"count":0},{"id":"Numerator_1","code":{"coding":[{"system":"http://terminology.hl7.org/CodeSystem/measure-population","code":"numerator","display":"Numerator"}]},"count":1}],"measureScore":{"value":1.0}}],"evaluatedResource":[{"reference":"Patient/80ed4488-76a7-41af-ac4d-58362b0753e2"},{"reference":"Procedure/29eed2cd-3973-42a0-b4ab-6005bd45ed4d"},{"reference":"Encounter/c1dd59ea-6ac5-4a64-80e5-9b4a143c2110"},{"reference":"Observation/2a8f0536-83e4-45f8-8f0e-0351921a887e"},{"reference":"Observation/f415c87c-3ff6-418a-a5b5-7de22fd4e02a"},{"reference":"Observation/06aa5f00-03ff-4ecb-b302-b9e44562a8ec"},{"reference":"Observation/3fd4aaec-23bd-409a-aa0a-b003585bea64"}]},"request":{"method":"PUT","url":"MeasureReport/9036734e-7ea2-4f0e-92af-cc9fe73cf644"}},{"resource":{"resourceType":"Observation","id":"2a8f0536-83e4-45f8-8f0e-0351921a887e","meta":{"profile":["http://hl7.org/fhir/us/qicore/StructureDefinition/qicore-observation-screening-assessment"]},"status":"final","category":[{"coding":[{"system":"http://terminology.hl7.org/CodeSystem/observation-category","code":"survey"}]}],"code":{"coding":[{"system":"http://loinc.org","code":"72028-4","display":"VR-12 Mental component summary (MCS) score - oblique method T-score"}]},"subject":{"reference":"Patient/80ed4488-76a7-41af-ac4d-58362b0753e2"},"effectivePeriod":{"start":"2024-11-01T00:00:00.000Z","end":"2024-11-01T01:00:00.000Z"},"valueInteger":60},"request":{"method":"PUT","url":"Observation/2a8f0536-83e4-45f8-8f0e-0351921a887e"}},{"resource":{"resourceType":"Observation","id":"06aa5f00-03ff-4ecb-b302-b9e44562a8ec","meta":{"profile":["http://hl7.org/fhir/us/qicore/StructureDefinition/qicore-observation-screening-assessment"]},"status":"final","category":[{"coding":[{"system":"http://terminology.hl7.org/CodeSystem/observation-category","code":"survey"}]}],"code":{"coding":[{"system":"http://loinc.org","code":"72028-4","display":"VR-12 Mental component summary (MCS) score - oblique method T-score"}]},"subject":{"reference":"Patient/80ed4488-76a7-41af-ac4d-58362b0753e2"},"effectivePeriod":{"start":"2025-08-28T00:00:00.000Z","end":"2025-08-28T01:00:00.000Z"},"valueInteger":60},"request":{"method":"PUT","url":"Observation/06aa5f00-03ff-4ecb-b302-b9e44562a8ec"}},{"resource":{"resourceType":"Procedure","id":"29eed2cd-3973-42a0-b4ab-6005bd45ed4d","meta":{"profile":["http://hl7.org/fhir/us/qicore/StructureDefinition/qicore-procedure"]},"extension":[{"url":"http://hl7.org/fhir/us/qicore/StructureDefinition/qicore-recorded","valueDateTime":"2024-11-01T00:00:00.000Z"}],"status":"completed","code":{"coding":[{"system":"http://www.cms.gov/Medicare/Coding/ICD10","code":"0SR9019","display":"Replacement of Right Hip Joint with Metal Synthetic Substitute, Cemented, Open Approach"}]},"subject":{"reference":"Patient/80ed4488-76a7-41af-ac4d-58362b0753e2"},"performedPeriod":{"start":"2024-11-01T00:00:00.000Z","end":"2024-11-01T01:00:00.000Z"}},"request":{"method":"PUT","url":"Procedure/29eed2cd-3973-42a0-b4ab-6005bd45ed4d"}},{"resource":{"resourceType":"Patient","id":"80ed4488-76a7-41af-ac4d-58362b0753e2","meta":{"profile":["http://hl7.org/fhir/us/qicore/StructureDefinition/qicore-patient"]},"extension":[{"url":"http://hl7.org/fhir/us/core/StructureDefinition/us-core-race","extension":[{"url":"ombCategory","valueCoding":{"system":"urn:oid:2.16.840.1.113883.6.238","code":"2028-9","display":"Asian"}},{"url":"text","valueString":"Asian"}]},{"url":"http://hl7.org/fhir/us/core/StructureDefinition/us-core-ethnicity","extension":[{"url":"ombCategory","valueCoding":{"system":"urn:oid:2.16.840.1.113883.6.238","code":"2135-2","display":"Hispanic or Latino"}},{"url":"text","valueString":"Hispanic or Latino"}]}],"identifier":[{"system":"http://hospital.smarthealthit.org","value":"999999995"}],"name":[{"family":"Bertha","given":["Betty"]}],"gender":"female","birthDate":"2007-01-01"},"request":{"method":"PUT","url":"Patient/80ed4488-76a7-41af-ac4d-58362b0753e2"}},{"resource":{"resourceType":"Bundle","id":"NUMPass-InitOrthogSameDayAsTHAFUOrthog300DaysAfterTHA","type":"transaction","entry":[{"fullUrl":"https://madie.cms.gov/Patient/80ed4488-76a7-41af-ac4d-58362b0753e2","resource":{"resourceType":"Patient","id":"80ed4488-76a7-41af-ac4d-58362b0753e2","meta":{"profile":["http://hl7.org/fhir/us/qicore/StructureDefinition/qicore-patient"]},"extension":[{"url":"http://hl7.org/fhir/us/core/StructureDefinition/us-core-race","extension":[{"url":"ombCategory","valueCoding":{"system":"urn:oid:2.16.840.1.113883.6.238","code":"2028-9","display":"Asian"}},{"url":"text","valueString":"Asian"}]},{"url":"http://hl7.org/fhir/us/core/StructureDefinition/us-core-ethnicity","extension":[{"url":"ombCategory","valueCoding":{"system":"urn:oid:2.16.840.1.113883.6.238","code":"2135-2","display":"Hispanic or Latino"}},{"url":"text","valueString":"Hispanic or Latino"}]}],"identifier":[{"system":"http://hospital.smarthealthit.org","value":"999999995"}],"name":[{"family":"Bertha","given":["Betty"]}],"gender":"female","birthDate":"2007-01-01"},"request":{"method":"PUT","url":"Patient/80ed4488-76a7-41af-ac4d-58362b0753e2"}},{"fullUrl":"https://madie.cms.gov/Procedure/29eed2cd-3973-42a0-b4ab-6005bd45ed4d","resource":{"resourceType":"Procedure","id":"29eed2cd-3973-42a0-b4ab-6005bd45ed4d","meta":{"profile":["http://hl7.org/fhir/us/qicore/StructureDefinition/qicore-procedure"]},"extension":[{"url":"http://hl7.org/fhir/us/qicore/StructureDefinition/qicore-recorded","valueDateTime":"2024-11-01T00:00:00.000Z"}],"status":"completed","code":{"coding":[{"system":"http://www.cms.gov/Medicare/Coding/ICD10","code":"0SR9019","display":"Replacement of Right Hip Joint with Metal Synthetic Substitute, Cemented, Open Approach"}]},"subject":{"reference":"Patient/80ed4488-76a7-41af-ac4d-58362b0753e2"},"performedPeriod":{"start":"2024-11-01T00:00:00.000Z","end":"2024-11-01T01:00:00.000Z"}},"request":{"method":"PUT","url":"Procedure/29eed2cd-3973-42a0-b4ab-6005bd45ed4d"}},{"fullUrl":"https://madie.cms.gov/Encounter/c1dd59ea-6ac5-4a64-80e5-9b4a143c2110","resource":{"resourceType":"Encounter","id":"c1dd59ea-6ac5-4a64-80e5-9b4a143c2110","meta":{"profile":["http://hl7.org/fhir/us/qicore/StructureDefinition/qicore-encounter"]},"status":"finished","class":{"system":"http://terminology.hl7.org/CodeSystem/v3-ActCode","code":"AMB","display":"ambulatory"},"type":[{"coding":[{"system":"http://snomed.info/sct","code":"281036007","display":"Follow-up consultation (procedure)"}]}],"subject":{"reference":"Patient/80ed4488-76a7-41af-ac4d-58362b0753e2"},"period":{"start":"2025-11-01T00:00:00.000Z","end":"2025-11-01T01:15:00.000Z"}},"request":{"method":"PUT","url":"Encounter/c1dd59ea-6ac5-4a64-80e5-9b4a143c2110"}},{"fullUrl":"https://madie.cms.gov/Observation/2a8f0536-83e4-45f8-8f0e-0351921a887e","resource":{"resourceType":"Observation","id":"2a8f0536-83e4-45f8-8f0e-0351921a887e","meta":{"profile":["http://hl7.org/fhir/us/qicore/StructureDefinition/qicore-observation-screening-assessment"]},"status":"final","category":[{"coding":[{"system":"http://terminology.hl7.org/CodeSystem/observation-category","code":"survey"}]}],"code":{"coding":[{"system":"http://loinc.org","code":"72028-4","display":"VR-12 Mental component summary (MCS) score - oblique method T-score"}]},"subject":{"reference":"Patient/80ed4488-76a7-41af-ac4d-58362b0753e2"},"effectivePeriod":{"start":"2024-11-01T00:00:00.000Z","end":"2024-11-01T01:00:00.000Z"},"valueInteger":60},"request":{"method":"PUT","url":"Observation/2a8f0536-83e4-45f8-8f0e-0351921a887e"}},{"fullUrl":"https://madie.cms.gov/Observation/f415c87c-3ff6-418a-a5b5-7de22fd4e02a","resource":{"resourceType":"Observation","id":"f415c87c-3ff6-418a-a5b5-7de22fd4e02a","meta":{"profile":["http://hl7.org/fhir/us/qicore/StructureDefinition/qicore-observation-screening-assessment"]},"status":"final","category":[{"coding":[{"system":"http://terminology.hl7.org/CodeSystem/observation-category","code":"survey"}]}],"code":{"coding":[{"system":"http://loinc.org","code":"72027-6","display":"VR-12 Physical component summary (PCS) score - orthogonal method T-score"}]},"subject":{"reference":"Patient/80ed4488-76a7-41af-ac4d-58362b0753e2"},"effectivePeriod":{"start":"2024-11-01T00:00:00.000Z","end":"2024-11-01T01:00:00.000Z"},"valueInteger":60},"request":{"method":"PUT","url":"Observation/f415c87c-3ff6-418a-a5b5-7de22fd4e02a"}},{"fullUrl":"https://madie.cms.gov/Observation/06aa5f00-03ff-4ecb-b302-b9e44562a8ec","resource":{"resourceType":"Observation","id":"06aa5f00-03ff-4ecb-b302-b9e44562a8ec","meta":{"profile":["http://hl7.org/fhir/us/qicore/StructureDefinition/qicore-observation-screening-assessment"]},"status":"final","category":[{"coding":[{"system":"http://terminology.hl7.org/CodeSystem/observation-category","code":"survey"}]}],"code":{"coding":[{"system":"http://loinc.org","code":"72028-4","display":"VR-12 Mental component summary (MCS) score - oblique method T-score"}]},"subject":{"reference":"Patient/80ed4488-76a7-41af-ac4d-58362b0753e2"},"effectivePeriod":{"start":"2025-08-28T00:00:00.000Z","end":"2025-08-28T01:00:00.000Z"},"valueInteger":60},"request":{"method":"PUT","url":"Observation/06aa5f00-03ff-4ecb-b302-b9e44562a8ec"}},{"fullUrl":"https://madie.cms.gov/Observation/3fd4aaec-23bd-409a-aa0a-b003585bea64","resource":{"resourceType":"Observation","id":"3fd4aaec-23bd-409a-aa0a-b003585bea64","meta":{"profile":["http://hl7.org/fhir/us/qicore/StructureDefinition/qicore-observation-screening-assessment"]},"status":"final","category":[{"coding":[{"system":"http://terminology.hl7.org/CodeSystem/observation-category","code":"survey"}]}],"code":{"coding":[{"system":"http://loinc.org","code":"72027-6","display":"VR-12 Physical component summary (PCS) score - orthogonal method T-score"}]},"subject":{"reference":"Patient/80ed4488-76a7-41af-ac4d-58362b0753e2"},"effectivePeriod":{"start":"2025-08-28T00:00:00.000Z","end":"2025-08-28T01:00:00.000Z"},"valueInteger":60},"request":{"method":"PUT","url":"Observation/3fd4aaec-23bd-409a-aa0a-b003585bea64"}},{"fullUrl":"https://madie.cms.gov/MeasureReport/9036734e-7ea2-4f0e-92af-cc9fe73cf644","resource":{"resourceType":"MeasureReport","id":"9036734e-7ea2-4f0e-92af-cc9fe73cf644","meta":{"profile":["http://hl7.org/fhir/us/cqfmeasures/StructureDefinition/test-case-cqfm"]},"contained":[{"resourceType":"Parameters","id":"d1d4b4da-148d-4e54-9ef4-0577bd3c28f4-parameters","parameter":[{"name":"subject","valueString":"80ed4488-76a7-41af-ac4d-58362b0753e2"}]}],"extension":[{"url":"http://hl7.org/fhir/StructureDefinition/cqf-inputParameters","valueReference":{"reference":"#d1d4b4da-148d-4e54-9ef4-0577bd3c28f4-parameters"}},{"url":"http://hl7.org/fhir/us/cqfmeasures/StructureDefinition/cqfm-testCaseDescription","valueMarkdown":"Patient w/ a THA Procedure 11/1, Initial Hip Assessment Orthogonal Same day as THA Procedure(11/1), and FollowUp Hip Assessment Orthogonal 300 days after THA Procedure (8/27)"}],"modifierExtension":[{"url":"http://hl7.org/fhir/us/cqfmeasures/StructureDefinition/cqfm-isTestCase","valueBoolean":true}],"status":"complete","type":"individual","measure":"https://madie.cms.gov/Measure/CMS56FHIRFunctionalStatusAssessmentforTotalHipReplacement","period":{"start":"2026-01-01","end":"2026-12-31"},"group":[{"id":"Group_1","population":[{"id":"InitialPopulation_1","code":{"coding":[{"system":"http://terminology.hl7.org/CodeSystem/measure-population","code":"initial-population","display":"Initial Population"}]},"count":1},{"id":"Denominator_1","code":{"coding":[{"system":"http://terminology.hl7.org/CodeSystem/measure-population","code":"denominator","display":"Denominator"}]},"count":1},{"id":"DenominatorExclusion_1","code":{"coding":[{"system":"http://terminology.hl7.org/CodeSystem/measure-population","code":"denominator-exclusion","display":"Denominator Exclusion"}]},"count":0},{"id":"Numerator_1","code":{"coding":[{"system":"http://terminology.hl7.org/CodeSystem/measure-population","code":"numerator","display":"Numerator"}]},"count":1}],"measureScore":{"value":1.0}}],"evaluatedResource":[{"reference":"Patient/80ed4488-76a7-41af-ac4d-58362b0753e2"},{"reference":"Procedure/29eed2cd-3973-42a0-b4ab-6005bd45ed4d"},{"reference":"Encounter/c1dd59ea-6ac5-4a64-80e5-9b4a143c2110"},{"reference":"Observation/2a8f0536-83e4-45f8-8f0e-0351921a887e"},{"reference":"Observation/f415c87c-3ff6-418a-a5b5-7de22fd4e02a"},{"reference":"Observation/06aa5f00-03ff-4ecb-b302-b9e44562a8ec"},{"reference":"Observation/3fd4aaec-23bd-409a-aa0a-b003585bea64"}]},"request":{"method":"PUT","url":"MeasureReport/9036734e-7ea2-4f0e-92af-cc9fe73cf644"}}]},"request":{"method":"PUT","url":"Bundle/NUMPass-InitOrthogSameDayAsTHAFUOrthog300DaysAfterTHA"}},{"resource":{"resourceType":"Observation","id":"f415c87c-3ff6-418a-a5b5-7de22fd4e02a","meta":{"profile":["http://hl7.org/fhir/us/qicore/StructureDefinition/qicore-observation-screening-assessment"]},"status":"final","category":[{"coding":[{"system":"http://terminology.hl7.org/CodeSystem/observation-category","code":"survey"}]}],"code":{"coding":[{"system":"http://loinc.org","code":"72027-6","display":"VR-12 Physical component summary (PCS) score - orthogonal method T-score"}]},"subject":{"reference":"Patient/80ed4488-76a7-41af-ac4d-58362b0753e2"},"effectivePeriod":{"start":"2024-11-01T00:00:00.000Z","end":"2024-11-01T01:00:00.000Z"},"valueInteger":60},"request":{"method":"PUT","url":"Observation/f415c87c-3ff6-418a-a5b5-7de22fd4e02a"}}]}