{"resourceType":"Bundle","id":"tests-4ef5774f-50b0-48ec-b86f-f83664e40ad7-bundle","type":"transaction","entry":[{"resource":{"resourceType":"Condition","id":"b95c4ed2-ebe4-4a28-9fe9-864babb323d2","meta":{"profile":["http://hl7.org/fhir/us/qicore/StructureDefinition/qicore-condition-problems-health-concerns"]},"clinicalStatus":{"coding":[{"system":"http://terminology.hl7.org/CodeSystem/condition-clinical","code":"active"}]},"category":[{"coding":[{"system":"http://terminology.hl7.org/CodeSystem/condition-category","code":"problem-list-item","display":"Problem List Item"}]}],"code":{"coding":[{"system":"http://snomed.info/sct","code":"10624611000119102","display":"Stress fracture of lateral condyle of right femur (disorder)”) "}]},"subject":{"reference":"Patient/4ef5774f-50b0-48ec-b86f-f83664e40ad7"},"onsetDateTime":"2025-10-30T11:59:59.000Z"},"request":{"method":"PUT","url":"Condition/b95c4ed2-ebe4-4a28-9fe9-864babb323d2"}},{"resource":{"resourceType":"Encounter","id":"0cae37d3-9d15-4992-ac3e-fea5bbb6b91a","meta":{"profile":["http://hl7.org/fhir/us/qicore/StructureDefinition/qicore-encounter"]},"status":"finished","class":{"system":"http://terminology.hl7.org/CodeSystem/v3-ActCode","code":"AMB","display":"ambulatory"},"type":[{"coding":[{"system":"http://snomed.info/sct","code":"281036007","display":"Follow-up consultation (procedure)"}]}],"subject":{"reference":"Patient/4ef5774f-50b0-48ec-b86f-f83664e40ad7"},"period":{"start":"2025-11-01T00:00:00.000Z","end":"2025-11-01T01:15:00.000Z"}},"request":{"method":"PUT","url":"Encounter/0cae37d3-9d15-4992-ac3e-fea5bbb6b91a"}},{"resource":{"resourceType":"MeasureReport","id":"746477c1-0368-44f1-b475-2f01b403fa21","meta":{"profile":["http://hl7.org/fhir/us/cqfmeasures/StructureDefinition/test-case-cqfm"]},"contained":[{"resourceType":"Parameters","id":"0e858310-4998-4693-b503-128b7f27e5d9-parameters","parameter":[{"name":"subject","valueString":"4ef5774f-50b0-48ec-b86f-f83664e40ad7"}]}],"extension":[{"url":"http://hl7.org/fhir/StructureDefinition/cqf-inputParameters","valueReference":{"reference":"#0e858310-4998-4693-b503-128b7f27e5d9-parameters"}},{"url":"http://hl7.org/fhir/us/cqfmeasures/StructureDefinition/cqfm-testCaseDescription","valueMarkdown":"Patient has Dx of 1 or ore Lower Body Fractures 24 hrs and 1 second before start of THA Procedure"}],"modifierExtension":[{"url":"http://hl7.org/fhir/us/cqfmeasures/StructureDefinition/cqfm-isTestCase","valueBoolean":true}],"status":"complete","type":"individual","measure":"https://madie.cms.gov/Measure/CMS56FHIRFunctionalStatusAssessmentforTotalHipReplacement","period":{"start":"2026-01-01","end":"2026-12-31"},"group":[{"id":"Group_1","population":[{"id":"InitialPopulation_1","code":{"coding":[{"system":"http://terminology.hl7.org/CodeSystem/measure-population","code":"initial-population","display":"Initial Population"}]},"count":1},{"id":"Denominator_1","code":{"coding":[{"system":"http://terminology.hl7.org/CodeSystem/measure-population","code":"denominator","display":"Denominator"}]},"count":1},{"id":"DenominatorExclusion_1","code":{"coding":[{"system":"http://terminology.hl7.org/CodeSystem/measure-population","code":"denominator-exclusion","display":"Denominator Exclusion"}]},"count":0},{"id":"Numerator_1","code":{"coding":[{"system":"http://terminology.hl7.org/CodeSystem/measure-population","code":"numerator","display":"Numerator"}]},"count":0}],"measureScore":{"value":1.0}}],"evaluatedResource":[{"reference":"Patient/4ef5774f-50b0-48ec-b86f-f83664e40ad7"},{"reference":"Procedure/f0423349-6b05-40b8-a1f6-4560a8b2c789"},{"reference":"Encounter/0cae37d3-9d15-4992-ac3e-fea5bbb6b91a"},{"reference":"Condition/b95c4ed2-ebe4-4a28-9fe9-864babb323d2"}]},"request":{"method":"PUT","url":"MeasureReport/746477c1-0368-44f1-b475-2f01b403fa21"}},{"resource":{"resourceType":"Bundle","id":"DENEXFail-LBFracture24Hrs1SecB4THAProc","type":"transaction","entry":[{"fullUrl":"https://madie.cms.gov/Patient/4ef5774f-50b0-48ec-b86f-f83664e40ad7","resource":{"resourceType":"Patient","id":"4ef5774f-50b0-48ec-b86f-f83664e40ad7","meta":{"profile":["http://hl7.org/fhir/us/qicore/StructureDefinition/qicore-patient"]},"extension":[{"url":"http://hl7.org/fhir/us/core/StructureDefinition/us-core-race","extension":[{"url":"ombCategory","valueCoding":{"system":"urn:oid:2.16.840.1.113883.6.238","code":"2028-9","display":"Asian"}},{"url":"text","valueString":"Asian"}]},{"url":"http://hl7.org/fhir/us/core/StructureDefinition/us-core-ethnicity","extension":[{"url":"ombCategory","valueCoding":{"system":"urn:oid:2.16.840.1.113883.6.238","code":"2135-2","display":"Hispanic or Latino"}},{"url":"text","valueString":"Hispanic or Latino"}]}],"identifier":[{"system":"http://hospital.smarthealthit.org","value":"999999995"}],"name":[{"family":"Bertha","given":["Betty"]}],"gender":"female","birthDate":"2007-01-01"},"request":{"method":"PUT","url":"Patient/4ef5774f-50b0-48ec-b86f-f83664e40ad7"}},{"fullUrl":"https://madie.cms.gov/Procedure/f0423349-6b05-40b8-a1f6-4560a8b2c789","resource":{"resourceType":"Procedure","id":"f0423349-6b05-40b8-a1f6-4560a8b2c789","meta":{"profile":["http://hl7.org/fhir/us/qicore/StructureDefinition/qicore-procedure"]},"extension":[{"url":"http://hl7.org/fhir/us/qicore/StructureDefinition/qicore-recorded","valueDateTime":"2026-01-15T00:00:00.000Z"}],"status":"completed","code":{"coding":[{"system":"http://www.cms.gov/Medicare/Coding/ICD10","code":"0SR9019","display":"Replacement of Right Hip Joint with Metal Synthetic Substitute, Cemented, Open Approach"}]},"subject":{"reference":"Patient/4ef5774f-50b0-48ec-b86f-f83664e40ad7"},"performedPeriod":{"start":"2024-11-01T00:00:00.000Z","end":"2024-11-01T01:00:00.000Z"}},"request":{"method":"PUT","url":"Procedure/f0423349-6b05-40b8-a1f6-4560a8b2c789"}},{"fullUrl":"https://madie.cms.gov/Encounter/0cae37d3-9d15-4992-ac3e-fea5bbb6b91a","resource":{"resourceType":"Encounter","id":"0cae37d3-9d15-4992-ac3e-fea5bbb6b91a","meta":{"profile":["http://hl7.org/fhir/us/qicore/StructureDefinition/qicore-encounter"]},"status":"finished","class":{"system":"http://terminology.hl7.org/CodeSystem/v3-ActCode","code":"AMB","display":"ambulatory"},"type":[{"coding":[{"system":"http://snomed.info/sct","code":"281036007","display":"Follow-up consultation (procedure)"}]}],"subject":{"reference":"Patient/4ef5774f-50b0-48ec-b86f-f83664e40ad7"},"period":{"start":"2025-11-01T00:00:00.000Z","end":"2025-11-01T01:15:00.000Z"}},"request":{"method":"PUT","url":"Encounter/0cae37d3-9d15-4992-ac3e-fea5bbb6b91a"}},{"fullUrl":"https://madie.cms.gov/Condition/b95c4ed2-ebe4-4a28-9fe9-864babb323d2","resource":{"resourceType":"Condition","id":"b95c4ed2-ebe4-4a28-9fe9-864babb323d2","meta":{"profile":["http://hl7.org/fhir/us/qicore/StructureDefinition/qicore-condition-problems-health-concerns"]},"clinicalStatus":{"coding":[{"system":"http://terminology.hl7.org/CodeSystem/condition-clinical","code":"active"}]},"category":[{"coding":[{"system":"http://terminology.hl7.org/CodeSystem/condition-category","code":"problem-list-item","display":"Problem List Item"}]}],"code":{"coding":[{"system":"http://snomed.info/sct","code":"10624611000119102","display":"Stress fracture of lateral condyle of right femur (disorder)”) "}]},"subject":{"reference":"Patient/4ef5774f-50b0-48ec-b86f-f83664e40ad7"},"onsetDateTime":"2025-10-30T11:59:59.000Z"},"request":{"method":"PUT","url":"Condition/b95c4ed2-ebe4-4a28-9fe9-864babb323d2"}},{"fullUrl":"https://madie.cms.gov/MeasureReport/746477c1-0368-44f1-b475-2f01b403fa21","resource":{"resourceType":"MeasureReport","id":"746477c1-0368-44f1-b475-2f01b403fa21","meta":{"profile":["http://hl7.org/fhir/us/cqfmeasures/StructureDefinition/test-case-cqfm"]},"contained":[{"resourceType":"Parameters","id":"0e858310-4998-4693-b503-128b7f27e5d9-parameters","parameter":[{"name":"subject","valueString":"4ef5774f-50b0-48ec-b86f-f83664e40ad7"}]}],"extension":[{"url":"http://hl7.org/fhir/StructureDefinition/cqf-inputParameters","valueReference":{"reference":"#0e858310-4998-4693-b503-128b7f27e5d9-parameters"}},{"url":"http://hl7.org/fhir/us/cqfmeasures/StructureDefinition/cqfm-testCaseDescription","valueMarkdown":"Patient has Dx of 1 or ore Lower Body Fractures 24 hrs and 1 second before start of THA Procedure"}],"modifierExtension":[{"url":"http://hl7.org/fhir/us/cqfmeasures/StructureDefinition/cqfm-isTestCase","valueBoolean":true}],"status":"complete","type":"individual","measure":"https://madie.cms.gov/Measure/CMS56FHIRFunctionalStatusAssessmentforTotalHipReplacement","period":{"start":"2026-01-01","end":"2026-12-31"},"group":[{"id":"Group_1","population":[{"id":"InitialPopulation_1","code":{"coding":[{"system":"http://terminology.hl7.org/CodeSystem/measure-population","code":"initial-population","display":"Initial Population"}]},"count":1},{"id":"Denominator_1","code":{"coding":[{"system":"http://terminology.hl7.org/CodeSystem/measure-population","code":"denominator","display":"Denominator"}]},"count":1},{"id":"DenominatorExclusion_1","code":{"coding":[{"system":"http://terminology.hl7.org/CodeSystem/measure-population","code":"denominator-exclusion","display":"Denominator Exclusion"}]},"count":0},{"id":"Numerator_1","code":{"coding":[{"system":"http://terminology.hl7.org/CodeSystem/measure-population","code":"numerator","display":"Numerator"}]},"count":0}],"measureScore":{"value":1.0}}],"evaluatedResource":[{"reference":"Patient/4ef5774f-50b0-48ec-b86f-f83664e40ad7"},{"reference":"Procedure/f0423349-6b05-40b8-a1f6-4560a8b2c789"},{"reference":"Encounter/0cae37d3-9d15-4992-ac3e-fea5bbb6b91a"},{"reference":"Condition/b95c4ed2-ebe4-4a28-9fe9-864babb323d2"}]},"request":{"method":"PUT","url":"MeasureReport/746477c1-0368-44f1-b475-2f01b403fa21"}}]},"request":{"method":"PUT","url":"Bundle/DENEXFail-LBFracture24Hrs1SecB4THAProc"}},{"resource":{"resourceType":"Patient","id":"4ef5774f-50b0-48ec-b86f-f83664e40ad7","meta":{"profile":["http://hl7.org/fhir/us/qicore/StructureDefinition/qicore-patient"]},"extension":[{"url":"http://hl7.org/fhir/us/core/StructureDefinition/us-core-race","extension":[{"url":"ombCategory","valueCoding":{"system":"urn:oid:2.16.840.1.113883.6.238","code":"2028-9","display":"Asian"}},{"url":"text","valueString":"Asian"}]},{"url":"http://hl7.org/fhir/us/core/StructureDefinition/us-core-ethnicity","extension":[{"url":"ombCategory","valueCoding":{"system":"urn:oid:2.16.840.1.113883.6.238","code":"2135-2","display":"Hispanic or Latino"}},{"url":"text","valueString":"Hispanic or Latino"}]}],"identifier":[{"system":"http://hospital.smarthealthit.org","value":"999999995"}],"name":[{"family":"Bertha","given":["Betty"]}],"gender":"female","birthDate":"2007-01-01"},"request":{"method":"PUT","url":"Patient/4ef5774f-50b0-48ec-b86f-f83664e40ad7"}},{"resource":{"resourceType":"Procedure","id":"f0423349-6b05-40b8-a1f6-4560a8b2c789","meta":{"profile":["http://hl7.org/fhir/us/qicore/StructureDefinition/qicore-procedure"]},"extension":[{"url":"http://hl7.org/fhir/us/qicore/StructureDefinition/qicore-recorded","valueDateTime":"2026-01-15T00:00:00.000Z"}],"status":"completed","code":{"coding":[{"system":"http://www.cms.gov/Medicare/Coding/ICD10","code":"0SR9019","display":"Replacement of Right Hip Joint with Metal Synthetic Substitute, Cemented, Open Approach"}]},"subject":{"reference":"Patient/4ef5774f-50b0-48ec-b86f-f83664e40ad7"},"performedPeriod":{"start":"2024-11-01T00:00:00.000Z","end":"2024-11-01T01:00:00.000Z"}},"request":{"method":"PUT","url":"Procedure/f0423349-6b05-40b8-a1f6-4560a8b2c789"}}]}