{"resourceType":"Bundle","id":"tests-b8975a7a-adfa-422f-94af-0903269721cd-bundle","type":"transaction","entry":[{"fullUrl":"Procedure/db486422-1c4d-4d3f-914e-fccb85fe1096.1","resource":{"resourceType":"Procedure","id":"db486422-1c4d-4d3f-914e-fccb85fe1096.1","meta":{"profile":["http://hl7.org/fhir/us/qicore/StructureDefinition/qicore-procedure"]},"extension":[{"url":"http://hl7.org/fhir/us/qicore/StructureDefinition/qicore-recorded","valueDateTime":"2024-11-01T00:00:00.000Z"}],"status":"completed","code":{"coding":[{"system":"http://www.cms.gov/Medicare/Coding/ICD10","code":"0SRB019","display":"Replacement of Left Hip Joint with Metal Synthetic Substitute, Cemented, Open Approach"}]},"subject":{"reference":"Patient/b8975a7a-adfa-422f-94af-0903269721cd"},"performedPeriod":{"start":"2023-11-01T00:00:00.000Z","end":"2023-11-01T01:00:00.000Z"}},"request":{"method":"PUT","url":"Procedure/db486422-1c4d-4d3f-914e-fccb85fe1096.1"}},{"fullUrl":"Procedure/db486422-1c4d-4d3f-914e-fccb85fe1096","resource":{"resourceType":"Procedure","id":"db486422-1c4d-4d3f-914e-fccb85fe1096","meta":{"profile":["http://hl7.org/fhir/us/qicore/StructureDefinition/qicore-procedure"]},"extension":[{"url":"http://hl7.org/fhir/us/qicore/StructureDefinition/qicore-recorded","valueDateTime":"2026-11-01T00:00:00.000Z"}],"status":"completed","code":{"coding":[{"system":"http://www.cms.gov/Medicare/Coding/ICD10","code":"0SR9019","display":"Replacement of Right Hip Joint with Metal Synthetic Substitute, Cemented, Open Approach"}]},"subject":{"reference":"Patient/b8975a7a-adfa-422f-94af-0903269721cd"},"performedPeriod":{"start":"2024-11-01T00:00:00.000Z","end":"2024-11-01T01:00:00.000Z"}},"request":{"method":"PUT","url":"Procedure/db486422-1c4d-4d3f-914e-fccb85fe1096"}},{"fullUrl":"Bundle/DENEXPass-ElectiveTHAProc1YrB4THAProc","resource":{"resourceType":"Bundle","id":"DENEXPass-ElectiveTHAProc1YrB4THAProc","type":"transaction","entry":[{"fullUrl":"https://madie.cms.gov/Patient/b8975a7a-adfa-422f-94af-0903269721cd","resource":{"resourceType":"Patient","id":"b8975a7a-adfa-422f-94af-0903269721cd","meta":{"profile":["http://hl7.org/fhir/us/qicore/StructureDefinition/qicore-patient"]},"extension":[{"url":"http://hl7.org/fhir/us/core/StructureDefinition/us-core-race","extension":[{"url":"ombCategory","valueCoding":{"system":"urn:oid:2.16.840.1.113883.6.238","code":"2028-9","display":"Asian"}},{"url":"text","valueString":"Asian"}]},{"url":"http://hl7.org/fhir/us/core/StructureDefinition/us-core-ethnicity","extension":[{"url":"ombCategory","valueCoding":{"system":"urn:oid:2.16.840.1.113883.6.238","code":"2135-2","display":"Hispanic or Latino"}},{"url":"text","valueString":"Hispanic or Latino"}]}],"identifier":[{"system":"http://hospital.smarthealthit.org","value":"999999995"}],"name":[{"family":"Bertha","given":["Betty"]}],"gender":"female","birthDate":"2007-01-01"},"request":{"method":"PUT","url":"Patient/b8975a7a-adfa-422f-94af-0903269721cd"}},{"fullUrl":"https://madie.cms.gov/Procedure/db486422-1c4d-4d3f-914e-fccb85fe1096","resource":{"resourceType":"Procedure","id":"db486422-1c4d-4d3f-914e-fccb85fe1096","meta":{"profile":["http://hl7.org/fhir/us/qicore/StructureDefinition/qicore-procedure"]},"extension":[{"url":"http://hl7.org/fhir/us/qicore/StructureDefinition/qicore-recorded","valueDateTime":"2026-11-01T00:00:00.000Z"}],"status":"completed","code":{"coding":[{"system":"http://www.cms.gov/Medicare/Coding/ICD10","code":"0SR9019","display":"Replacement of Right Hip Joint with Metal Synthetic Substitute, Cemented, Open Approach"}]},"subject":{"reference":"Patient/b8975a7a-adfa-422f-94af-0903269721cd"},"performedPeriod":{"start":"2024-11-01T00:00:00.000Z","end":"2024-11-01T01:00:00.000Z"}},"request":{"method":"PUT","url":"Procedure/db486422-1c4d-4d3f-914e-fccb85fe1096"}},{"fullUrl":"https://madie.cms.gov/Encounter/dc56c9e9-a554-4e42-bfe2-5c4f0d3a5225","resource":{"resourceType":"Encounter","id":"dc56c9e9-a554-4e42-bfe2-5c4f0d3a5225","meta":{"profile":["http://hl7.org/fhir/us/qicore/StructureDefinition/qicore-encounter"]},"status":"finished","class":{"system":"http://terminology.hl7.org/CodeSystem/v3-ActCode","code":"AMB","display":"ambulatory"},"type":[{"coding":[{"system":"http://snomed.info/sct","code":"281036007","display":"Follow-up consultation (procedure)"}]}],"subject":{"reference":"Patient/b8975a7a-adfa-422f-94af-0903269721cd"},"period":{"start":"2025-11-01T00:00:00.000Z","end":"2025-11-01T01:15:00.000Z"}},"request":{"method":"PUT","url":"Encounter/dc56c9e9-a554-4e42-bfe2-5c4f0d3a5225"}},{"fullUrl":"https://madie.cms.gov/Procedure/db486422-1c4d-4d3f-914e-fccb85fe1096.1","resource":{"resourceType":"Procedure","id":"db486422-1c4d-4d3f-914e-fccb85fe1096.1","meta":{"profile":["http://hl7.org/fhir/us/qicore/StructureDefinition/qicore-procedure"]},"extension":[{"url":"http://hl7.org/fhir/us/qicore/StructureDefinition/qicore-recorded","valueDateTime":"2024-11-01T00:00:00.000Z"}],"status":"completed","code":{"coding":[{"system":"http://www.cms.gov/Medicare/Coding/ICD10","code":"0SRB019","display":"Replacement of Left Hip Joint with Metal Synthetic Substitute, Cemented, Open Approach"}]},"subject":{"reference":"Patient/b8975a7a-adfa-422f-94af-0903269721cd"},"performedPeriod":{"start":"2023-11-01T00:00:00.000Z","end":"2023-11-01T01:00:00.000Z"}},"request":{"method":"PUT","url":"Procedure/db486422-1c4d-4d3f-914e-fccb85fe1096.1"}},{"fullUrl":"https://madie.cms.gov/MeasureReport/912d5b83-a3ed-4242-91c7-224c9b9b8a5d","resource":{"resourceType":"MeasureReport","id":"912d5b83-a3ed-4242-91c7-224c9b9b8a5d","meta":{"profile":["http://hl7.org/fhir/us/cqfmeasures/StructureDefinition/test-case-cqfm"]},"contained":[{"resourceType":"Parameters","id":"33663958-dbfa-465f-a55a-9c2e77173472-parameters","parameter":[{"name":"subject","valueString":"b8975a7a-adfa-422f-94af-0903269721cd"}]}],"extension":[{"url":"http://hl7.org/fhir/StructureDefinition/cqf-inputParameters","valueReference":{"reference":"#33663958-dbfa-465f-a55a-9c2e77173472-parameters"}},{"url":"http://hl7.org/fhir/us/cqfmeasures/StructureDefinition/cqfm-testCaseDescription","valueMarkdown":"Patient Has Elective THAProcedure 1 year after Initial THAProcedure"}],"modifierExtension":[{"url":"http://hl7.org/fhir/us/cqfmeasures/StructureDefinition/cqfm-isTestCase","valueBoolean":true}],"status":"complete","type":"individual","measure":"https://madie.cms.gov/Measure/CMS56FHIRFunctionalStatusAssessmentforTotalHipReplacement","period":{"start":"2026-01-01","end":"2026-12-31"},"group":[{"id":"Group_1","population":[{"id":"InitialPopulation_1","code":{"coding":[{"system":"http://terminology.hl7.org/CodeSystem/measure-population","code":"initial-population","display":"Initial Population"}]},"count":1},{"id":"Denominator_1","code":{"coding":[{"system":"http://terminology.hl7.org/CodeSystem/measure-population","code":"denominator","display":"Denominator"}]},"count":1},{"id":"DenominatorExclusion_1","code":{"coding":[{"system":"http://terminology.hl7.org/CodeSystem/measure-population","code":"denominator-exclusion","display":"Denominator Exclusion"}]},"count":1},{"id":"Numerator_1","code":{"coding":[{"system":"http://terminology.hl7.org/CodeSystem/measure-population","code":"numerator","display":"Numerator"}]},"count":0}],"measureScore":{"value":1.0}}],"evaluatedResource":[{"reference":"Patient/b8975a7a-adfa-422f-94af-0903269721cd"},{"reference":"Procedure/db486422-1c4d-4d3f-914e-fccb85fe1096"},{"reference":"Encounter/dc56c9e9-a554-4e42-bfe2-5c4f0d3a5225"},{"reference":"Procedure/db486422-1c4d-4d3f-914e-fccb85fe1096.1"}]},"request":{"method":"PUT","url":"MeasureReport/912d5b83-a3ed-4242-91c7-224c9b9b8a5d"}}]},"request":{"method":"PUT","url":"Bundle/DENEXPass-ElectiveTHAProc1YrB4THAProc"}},{"fullUrl":"Patient/b8975a7a-adfa-422f-94af-0903269721cd","resource":{"resourceType":"Patient","id":"b8975a7a-adfa-422f-94af-0903269721cd","meta":{"profile":["http://hl7.org/fhir/us/qicore/StructureDefinition/qicore-patient"]},"extension":[{"url":"http://hl7.org/fhir/us/core/StructureDefinition/us-core-race","extension":[{"url":"ombCategory","valueCoding":{"system":"urn:oid:2.16.840.1.113883.6.238","code":"2028-9","display":"Asian"}},{"url":"text","valueString":"Asian"}]},{"url":"http://hl7.org/fhir/us/core/StructureDefinition/us-core-ethnicity","extension":[{"url":"ombCategory","valueCoding":{"system":"urn:oid:2.16.840.1.113883.6.238","code":"2135-2","display":"Hispanic or Latino"}},{"url":"text","valueString":"Hispanic or Latino"}]}],"identifier":[{"system":"http://hospital.smarthealthit.org","value":"999999995"}],"name":[{"family":"Bertha","given":["Betty"]}],"gender":"female","birthDate":"2007-01-01"},"request":{"method":"PUT","url":"Patient/b8975a7a-adfa-422f-94af-0903269721cd"}},{"fullUrl":"MeasureReport/912d5b83-a3ed-4242-91c7-224c9b9b8a5d","resource":{"resourceType":"MeasureReport","id":"912d5b83-a3ed-4242-91c7-224c9b9b8a5d","meta":{"profile":["http://hl7.org/fhir/us/cqfmeasures/StructureDefinition/test-case-cqfm"]},"contained":[{"resourceType":"Parameters","id":"33663958-dbfa-465f-a55a-9c2e77173472-parameters","parameter":[{"name":"subject","valueString":"b8975a7a-adfa-422f-94af-0903269721cd"}]}],"extension":[{"url":"http://hl7.org/fhir/StructureDefinition/cqf-inputParameters","valueReference":{"reference":"#33663958-dbfa-465f-a55a-9c2e77173472-parameters"}},{"url":"http://hl7.org/fhir/us/cqfmeasures/StructureDefinition/cqfm-testCaseDescription","valueMarkdown":"Patient Has Elective THAProcedure 1 year after Initial THAProcedure"}],"modifierExtension":[{"url":"http://hl7.org/fhir/us/cqfmeasures/StructureDefinition/cqfm-isTestCase","valueBoolean":true}],"status":"complete","type":"individual","measure":"https://madie.cms.gov/Measure/CMS56FHIRFunctionalStatusAssessmentforTotalHipReplacement","period":{"start":"2026-01-01","end":"2026-12-31"},"group":[{"id":"Group_1","population":[{"id":"InitialPopulation_1","code":{"coding":[{"system":"http://terminology.hl7.org/CodeSystem/measure-population","code":"initial-population","display":"Initial Population"}]},"count":1},{"id":"Denominator_1","code":{"coding":[{"system":"http://terminology.hl7.org/CodeSystem/measure-population","code":"denominator","display":"Denominator"}]},"count":1},{"id":"DenominatorExclusion_1","code":{"coding":[{"system":"http://terminology.hl7.org/CodeSystem/measure-population","code":"denominator-exclusion","display":"Denominator Exclusion"}]},"count":1},{"id":"Numerator_1","code":{"coding":[{"system":"http://terminology.hl7.org/CodeSystem/measure-population","code":"numerator","display":"Numerator"}]},"count":0}],"measureScore":{"value":1.0}}],"evaluatedResource":[{"reference":"Patient/b8975a7a-adfa-422f-94af-0903269721cd"},{"reference":"Procedure/db486422-1c4d-4d3f-914e-fccb85fe1096"},{"reference":"Encounter/dc56c9e9-a554-4e42-bfe2-5c4f0d3a5225"},{"reference":"Procedure/db486422-1c4d-4d3f-914e-fccb85fe1096.1"}]},"request":{"method":"PUT","url":"MeasureReport/912d5b83-a3ed-4242-91c7-224c9b9b8a5d"}},{"fullUrl":"Encounter/dc56c9e9-a554-4e42-bfe2-5c4f0d3a5225","resource":{"resourceType":"Encounter","id":"dc56c9e9-a554-4e42-bfe2-5c4f0d3a5225","meta":{"profile":["http://hl7.org/fhir/us/qicore/StructureDefinition/qicore-encounter"]},"status":"finished","class":{"system":"http://terminology.hl7.org/CodeSystem/v3-ActCode","code":"AMB","display":"ambulatory"},"type":[{"coding":[{"system":"http://snomed.info/sct","code":"281036007","display":"Follow-up consultation (procedure)"}]}],"subject":{"reference":"Patient/b8975a7a-adfa-422f-94af-0903269721cd"},"period":{"start":"2025-11-01T00:00:00.000Z","end":"2025-11-01T01:15:00.000Z"}},"request":{"method":"PUT","url":"Encounter/dc56c9e9-a554-4e42-bfe2-5c4f0d3a5225"}}]}