{"resourceType":"Bundle","id":"tests-e16fa825-6796-4673-acc3-7226af352294-bundle","type":"transaction","entry":[{"fullUrl":"MeasureReport/55aa1065-48fa-43a3-8109-d960ce9ae6b1","resource":{"resourceType":"MeasureReport","id":"55aa1065-48fa-43a3-8109-d960ce9ae6b1","meta":{"profile":["http://hl7.org/fhir/us/cqfmeasures/StructureDefinition/test-case-cqfm"]},"contained":[{"resourceType":"Parameters","id":"c08dcc33-938f-46b4-8188-cffbffdf79e2-parameters","parameter":[{"name":"subject","valueString":"e16fa825-6796-4673-acc3-7226af352294"}]}],"extension":[{"url":"http://hl7.org/fhir/StructureDefinition/cqf-inputParameters","valueReference":{"reference":"#c08dcc33-938f-46b4-8188-cffbffdf79e2-parameters"}},{"url":"http://hl7.org/fhir/us/cqfmeasures/StructureDefinition/cqfm-testCaseDescription","valueMarkdown":"Patient w/ a THA Procedure 11/1, Initial Hip Assessment HOOSJr Same day as THA Procedure(11/1), and FollowUp Hip Assessment HOOSJr 300 days after THA Procedure (8/27)"}],"modifierExtension":[{"url":"http://hl7.org/fhir/us/cqfmeasures/StructureDefinition/cqfm-isTestCase","valueBoolean":true}],"status":"complete","type":"individual","measure":"https://madie.cms.gov/Measure/CMS56FHIRFunctionalStatusAssessmentforTotalHipReplacement","period":{"start":"2026-01-01","end":"2026-12-31"},"group":[{"id":"Group_1","population":[{"id":"InitialPopulation_1","code":{"coding":[{"system":"http://terminology.hl7.org/CodeSystem/measure-population","code":"initial-population","display":"Initial Population"}]},"count":1},{"id":"Denominator_1","code":{"coding":[{"system":"http://terminology.hl7.org/CodeSystem/measure-population","code":"denominator","display":"Denominator"}]},"count":1},{"id":"DenominatorExclusion_1","code":{"coding":[{"system":"http://terminology.hl7.org/CodeSystem/measure-population","code":"denominator-exclusion","display":"Denominator Exclusion"}]},"count":0},{"id":"Numerator_1","code":{"coding":[{"system":"http://terminology.hl7.org/CodeSystem/measure-population","code":"numerator","display":"Numerator"}]},"count":1}],"measureScore":{"value":1.0}}],"evaluatedResource":[{"reference":"Patient/e16fa825-6796-4673-acc3-7226af352294"},{"reference":"Procedure/927af9af-ecbd-4be5-b6e1-7da18b84ae7a"},{"reference":"Encounter/717a8a8d-9b5a-4328-9d72-4871edf6c95d"},{"reference":"Observation/f9a0642a-4379-4c94-a7df-07cc4b671825"},{"reference":"Observation/50d26079-fd16-4238-bd8e-044192b5f251"}]},"request":{"method":"PUT","url":"MeasureReport/55aa1065-48fa-43a3-8109-d960ce9ae6b1"}},{"fullUrl":"Observation/f9a0642a-4379-4c94-a7df-07cc4b671825","resource":{"resourceType":"Observation","id":"f9a0642a-4379-4c94-a7df-07cc4b671825","meta":{"profile":["http://hl7.org/fhir/us/qicore/StructureDefinition/qicore-observation-screening-assessment"]},"status":"final","category":[{"coding":[{"system":"http://terminology.hl7.org/CodeSystem/observation-category","code":"survey"}]}],"code":{"coding":[{"system":"http://loinc.org","code":"82323-7","display":"Total interval score [HOOSJR]"}]},"subject":{"reference":"Patient/e16fa825-6796-4673-acc3-7226af352294"},"effectivePeriod":{"start":"2024-11-01T00:00:00.000Z","end":"2024-11-01T01:00:00.000Z"},"valueInteger":60},"request":{"method":"PUT","url":"Observation/f9a0642a-4379-4c94-a7df-07cc4b671825"}},{"fullUrl":"Patient/e16fa825-6796-4673-acc3-7226af352294","resource":{"resourceType":"Patient","id":"e16fa825-6796-4673-acc3-7226af352294","meta":{"profile":["http://hl7.org/fhir/us/qicore/StructureDefinition/qicore-patient"]},"extension":[{"url":"http://hl7.org/fhir/us/core/StructureDefinition/us-core-race","extension":[{"url":"ombCategory","valueCoding":{"system":"urn:oid:2.16.840.1.113883.6.238","code":"2028-9","display":"Asian"}},{"url":"text","valueString":"Asian"}]},{"url":"http://hl7.org/fhir/us/core/StructureDefinition/us-core-ethnicity","extension":[{"url":"ombCategory","valueCoding":{"system":"urn:oid:2.16.840.1.113883.6.238","code":"2135-2","display":"Hispanic or Latino"}},{"url":"text","valueString":"Hispanic or Latino"}]}],"identifier":[{"system":"http://hospital.smarthealthit.org","value":"999999995"}],"name":[{"family":"Bertha","given":["Betty"]}],"gender":"female","birthDate":"2007-01-01"},"request":{"method":"PUT","url":"Patient/e16fa825-6796-4673-acc3-7226af352294"}},{"fullUrl":"Observation/50d26079-fd16-4238-bd8e-044192b5f251","resource":{"resourceType":"Observation","id":"50d26079-fd16-4238-bd8e-044192b5f251","meta":{"profile":["http://hl7.org/fhir/us/qicore/StructureDefinition/qicore-observation-screening-assessment"]},"status":"final","category":[{"coding":[{"system":"http://terminology.hl7.org/CodeSystem/observation-category","code":"survey"}]}],"code":{"coding":[{"system":"http://loinc.org","code":"82323-7","display":"Total interval score [HOOSJR]"}]},"subject":{"reference":"Patient/e16fa825-6796-4673-acc3-7226af352294"},"effectivePeriod":{"start":"2025-08-28T00:00:00.000Z","end":"2025-08-28T01:00:00.000Z"},"valueInteger":60},"request":{"method":"PUT","url":"Observation/50d26079-fd16-4238-bd8e-044192b5f251"}},{"fullUrl":"Bundle/NUMPass-InitHOOSJrSameDayAsTHAFUHOOSJr300DaysAfterTHA","resource":{"resourceType":"Bundle","id":"NUMPass-InitHOOSJrSameDayAsTHAFUHOOSJr300DaysAfterTHA","type":"transaction","entry":[{"fullUrl":"https://madie.cms.gov/Patient/e16fa825-6796-4673-acc3-7226af352294","resource":{"resourceType":"Patient","id":"e16fa825-6796-4673-acc3-7226af352294","meta":{"profile":["http://hl7.org/fhir/us/qicore/StructureDefinition/qicore-patient"]},"extension":[{"url":"http://hl7.org/fhir/us/core/StructureDefinition/us-core-race","extension":[{"url":"ombCategory","valueCoding":{"system":"urn:oid:2.16.840.1.113883.6.238","code":"2028-9","display":"Asian"}},{"url":"text","valueString":"Asian"}]},{"url":"http://hl7.org/fhir/us/core/StructureDefinition/us-core-ethnicity","extension":[{"url":"ombCategory","valueCoding":{"system":"urn:oid:2.16.840.1.113883.6.238","code":"2135-2","display":"Hispanic or Latino"}},{"url":"text","valueString":"Hispanic or Latino"}]}],"identifier":[{"system":"http://hospital.smarthealthit.org","value":"999999995"}],"name":[{"family":"Bertha","given":["Betty"]}],"gender":"female","birthDate":"2007-01-01"},"request":{"method":"PUT","url":"Patient/e16fa825-6796-4673-acc3-7226af352294"}},{"fullUrl":"https://madie.cms.gov/Procedure/927af9af-ecbd-4be5-b6e1-7da18b84ae7a","resource":{"resourceType":"Procedure","id":"927af9af-ecbd-4be5-b6e1-7da18b84ae7a","meta":{"profile":["http://hl7.org/fhir/us/qicore/StructureDefinition/qicore-procedure"]},"extension":[{"url":"http://hl7.org/fhir/us/qicore/StructureDefinition/qicore-recorded","valueDateTime":"2024-11-01T00:00:00.000Z"}],"status":"completed","code":{"coding":[{"system":"http://www.cms.gov/Medicare/Coding/ICD10","code":"0SR9019","display":"Replacement of Right Hip Joint with Metal Synthetic Substitute, Cemented, Open Approach"}]},"subject":{"reference":"Patient/e16fa825-6796-4673-acc3-7226af352294"},"performedPeriod":{"start":"2024-11-01T00:00:00.000Z","end":"2024-11-01T01:00:00.000Z"}},"request":{"method":"PUT","url":"Procedure/927af9af-ecbd-4be5-b6e1-7da18b84ae7a"}},{"fullUrl":"https://madie.cms.gov/Encounter/717a8a8d-9b5a-4328-9d72-4871edf6c95d","resource":{"resourceType":"Encounter","id":"717a8a8d-9b5a-4328-9d72-4871edf6c95d","meta":{"profile":["http://hl7.org/fhir/us/qicore/StructureDefinition/qicore-encounter"]},"status":"finished","class":{"system":"http://terminology.hl7.org/CodeSystem/v3-ActCode","code":"AMB","display":"ambulatory"},"type":[{"coding":[{"system":"http://snomed.info/sct","code":"281036007","display":"Follow-up consultation (procedure)"}]}],"subject":{"reference":"Patient/e16fa825-6796-4673-acc3-7226af352294"},"period":{"start":"2025-11-01T00:00:00.000Z","end":"2025-11-01T01:15:00.000Z"}},"request":{"method":"PUT","url":"Encounter/717a8a8d-9b5a-4328-9d72-4871edf6c95d"}},{"fullUrl":"https://madie.cms.gov/Observation/f9a0642a-4379-4c94-a7df-07cc4b671825","resource":{"resourceType":"Observation","id":"f9a0642a-4379-4c94-a7df-07cc4b671825","meta":{"profile":["http://hl7.org/fhir/us/qicore/StructureDefinition/qicore-observation-screening-assessment"]},"status":"final","category":[{"coding":[{"system":"http://terminology.hl7.org/CodeSystem/observation-category","code":"survey"}]}],"code":{"coding":[{"system":"http://loinc.org","code":"82323-7","display":"Total interval score [HOOSJR]"}]},"subject":{"reference":"Patient/e16fa825-6796-4673-acc3-7226af352294"},"effectivePeriod":{"start":"2024-11-01T00:00:00.000Z","end":"2024-11-01T01:00:00.000Z"},"valueInteger":60},"request":{"method":"PUT","url":"Observation/f9a0642a-4379-4c94-a7df-07cc4b671825"}},{"fullUrl":"https://madie.cms.gov/Observation/50d26079-fd16-4238-bd8e-044192b5f251","resource":{"resourceType":"Observation","id":"50d26079-fd16-4238-bd8e-044192b5f251","meta":{"profile":["http://hl7.org/fhir/us/qicore/StructureDefinition/qicore-observation-screening-assessment"]},"status":"final","category":[{"coding":[{"system":"http://terminology.hl7.org/CodeSystem/observation-category","code":"survey"}]}],"code":{"coding":[{"system":"http://loinc.org","code":"82323-7","display":"Total interval score [HOOSJR]"}]},"subject":{"reference":"Patient/e16fa825-6796-4673-acc3-7226af352294"},"effectivePeriod":{"start":"2025-08-28T00:00:00.000Z","end":"2025-08-28T01:00:00.000Z"},"valueInteger":60},"request":{"method":"PUT","url":"Observation/50d26079-fd16-4238-bd8e-044192b5f251"}},{"fullUrl":"https://madie.cms.gov/MeasureReport/55aa1065-48fa-43a3-8109-d960ce9ae6b1","resource":{"resourceType":"MeasureReport","id":"55aa1065-48fa-43a3-8109-d960ce9ae6b1","meta":{"profile":["http://hl7.org/fhir/us/cqfmeasures/StructureDefinition/test-case-cqfm"]},"contained":[{"resourceType":"Parameters","id":"c08dcc33-938f-46b4-8188-cffbffdf79e2-parameters","parameter":[{"name":"subject","valueString":"e16fa825-6796-4673-acc3-7226af352294"}]}],"extension":[{"url":"http://hl7.org/fhir/StructureDefinition/cqf-inputParameters","valueReference":{"reference":"#c08dcc33-938f-46b4-8188-cffbffdf79e2-parameters"}},{"url":"http://hl7.org/fhir/us/cqfmeasures/StructureDefinition/cqfm-testCaseDescription","valueMarkdown":"Patient w/ a THA Procedure 11/1, Initial Hip Assessment HOOSJr Same day as THA Procedure(11/1), and FollowUp Hip Assessment HOOSJr 300 days after THA Procedure (8/27)"}],"modifierExtension":[{"url":"http://hl7.org/fhir/us/cqfmeasures/StructureDefinition/cqfm-isTestCase","valueBoolean":true}],"status":"complete","type":"individual","measure":"https://madie.cms.gov/Measure/CMS56FHIRFunctionalStatusAssessmentforTotalHipReplacement","period":{"start":"2026-01-01","end":"2026-12-31"},"group":[{"id":"Group_1","population":[{"id":"InitialPopulation_1","code":{"coding":[{"system":"http://terminology.hl7.org/CodeSystem/measure-population","code":"initial-population","display":"Initial Population"}]},"count":1},{"id":"Denominator_1","code":{"coding":[{"system":"http://terminology.hl7.org/CodeSystem/measure-population","code":"denominator","display":"Denominator"}]},"count":1},{"id":"DenominatorExclusion_1","code":{"coding":[{"system":"http://terminology.hl7.org/CodeSystem/measure-population","code":"denominator-exclusion","display":"Denominator Exclusion"}]},"count":0},{"id":"Numerator_1","code":{"coding":[{"system":"http://terminology.hl7.org/CodeSystem/measure-population","code":"numerator","display":"Numerator"}]},"count":1}],"measureScore":{"value":1.0}}],"evaluatedResource":[{"reference":"Patient/e16fa825-6796-4673-acc3-7226af352294"},{"reference":"Procedure/927af9af-ecbd-4be5-b6e1-7da18b84ae7a"},{"reference":"Encounter/717a8a8d-9b5a-4328-9d72-4871edf6c95d"},{"reference":"Observation/f9a0642a-4379-4c94-a7df-07cc4b671825"},{"reference":"Observation/50d26079-fd16-4238-bd8e-044192b5f251"}]},"request":{"method":"PUT","url":"MeasureReport/55aa1065-48fa-43a3-8109-d960ce9ae6b1"}}]},"request":{"method":"PUT","url":"Bundle/NUMPass-InitHOOSJrSameDayAsTHAFUHOOSJr300DaysAfterTHA"}},{"fullUrl":"Procedure/927af9af-ecbd-4be5-b6e1-7da18b84ae7a","resource":{"resourceType":"Procedure","id":"927af9af-ecbd-4be5-b6e1-7da18b84ae7a","meta":{"profile":["http://hl7.org/fhir/us/qicore/StructureDefinition/qicore-procedure"]},"extension":[{"url":"http://hl7.org/fhir/us/qicore/StructureDefinition/qicore-recorded","valueDateTime":"2024-11-01T00:00:00.000Z"}],"status":"completed","code":{"coding":[{"system":"http://www.cms.gov/Medicare/Coding/ICD10","code":"0SR9019","display":"Replacement of Right Hip Joint with Metal Synthetic Substitute, Cemented, Open Approach"}]},"subject":{"reference":"Patient/e16fa825-6796-4673-acc3-7226af352294"},"performedPeriod":{"start":"2024-11-01T00:00:00.000Z","end":"2024-11-01T01:00:00.000Z"}},"request":{"method":"PUT","url":"Procedure/927af9af-ecbd-4be5-b6e1-7da18b84ae7a"}},{"fullUrl":"Encounter/717a8a8d-9b5a-4328-9d72-4871edf6c95d","resource":{"resourceType":"Encounter","id":"717a8a8d-9b5a-4328-9d72-4871edf6c95d","meta":{"profile":["http://hl7.org/fhir/us/qicore/StructureDefinition/qicore-encounter"]},"status":"finished","class":{"system":"http://terminology.hl7.org/CodeSystem/v3-ActCode","code":"AMB","display":"ambulatory"},"type":[{"coding":[{"system":"http://snomed.info/sct","code":"281036007","display":"Follow-up consultation (procedure)"}]}],"subject":{"reference":"Patient/e16fa825-6796-4673-acc3-7226af352294"},"period":{"start":"2025-11-01T00:00:00.000Z","end":"2025-11-01T01:15:00.000Z"}},"request":{"method":"PUT","url":"Encounter/717a8a8d-9b5a-4328-9d72-4871edf6c95d"}}]}