{"resourceType":"Bundle","id":"tests-75dd2ea2-0a59-4bc9-8766-0f8cc35f2d11-bundle","type":"transaction","entry":[{"resource":{"resourceType":"Bundle","id":"DENEXFail-ReviTHAProcDiffDayAsTHAProc","type":"transaction","entry":[{"fullUrl":"https://madie.cms.gov/Patient/75dd2ea2-0a59-4bc9-8766-0f8cc35f2d11","resource":{"resourceType":"Patient","id":"75dd2ea2-0a59-4bc9-8766-0f8cc35f2d11","meta":{"profile":["http://hl7.org/fhir/us/qicore/StructureDefinition/qicore-patient"]},"extension":[{"url":"http://hl7.org/fhir/us/core/StructureDefinition/us-core-race","extension":[{"url":"ombCategory","valueCoding":{"system":"urn:oid:2.16.840.1.113883.6.238","code":"2028-9","display":"Asian"}},{"url":"text","valueString":"Asian"}]},{"url":"http://hl7.org/fhir/us/core/StructureDefinition/us-core-ethnicity","extension":[{"url":"ombCategory","valueCoding":{"system":"urn:oid:2.16.840.1.113883.6.238","code":"2135-2","display":"Hispanic or Latino"}},{"url":"text","valueString":"Hispanic or Latino"}]}],"identifier":[{"system":"http://hospital.smarthealthit.org","value":"999999995"}],"name":[{"family":"Bertha","given":["Betty"]}],"gender":"female","birthDate":"2007-01-01"},"request":{"method":"PUT","url":"Patient/75dd2ea2-0a59-4bc9-8766-0f8cc35f2d11"}},{"fullUrl":"https://madie.cms.gov/Procedure/f21a73ee-2a33-4457-b4ea-eeaf6e4c548f","resource":{"resourceType":"Procedure","id":"f21a73ee-2a33-4457-b4ea-eeaf6e4c548f","meta":{"profile":["http://hl7.org/fhir/us/qicore/StructureDefinition/qicore-procedure"]},"extension":[{"url":"http://hl7.org/fhir/us/qicore/StructureDefinition/qicore-recorded","valueDateTime":"2026-11-01T00:00:00.000Z"}],"status":"completed","code":{"coding":[{"system":"http://www.cms.gov/Medicare/Coding/ICD10","code":"0SR9019","display":"Replacement of Right Hip Joint with Metal Synthetic Substitute, Cemented, Open Approach"}]},"subject":{"reference":"Patient/75dd2ea2-0a59-4bc9-8766-0f8cc35f2d11"},"performedPeriod":{"start":"2024-11-01T00:00:00.000Z","end":"2024-11-01T01:00:00.000Z"}},"request":{"method":"PUT","url":"Procedure/f21a73ee-2a33-4457-b4ea-eeaf6e4c548f"}},{"fullUrl":"https://madie.cms.gov/Encounter/2a520c15-23e1-46f4-873c-b2d7c37a8966","resource":{"resourceType":"Encounter","id":"2a520c15-23e1-46f4-873c-b2d7c37a8966","meta":{"profile":["http://hl7.org/fhir/us/qicore/StructureDefinition/qicore-encounter"]},"status":"finished","class":{"system":"http://terminology.hl7.org/CodeSystem/v3-ActCode","code":"AMB","display":"ambulatory"},"type":[{"coding":[{"system":"http://snomed.info/sct","code":"281036007","display":"Follow-up consultation (procedure)"}]}],"subject":{"reference":"Patient/75dd2ea2-0a59-4bc9-8766-0f8cc35f2d11"},"period":{"start":"2025-11-01T00:00:00.000Z","end":"2025-11-01T01:15:00.000Z"}},"request":{"method":"PUT","url":"Encounter/2a520c15-23e1-46f4-873c-b2d7c37a8966"}},{"fullUrl":"https://madie.cms.gov/Procedure/f21a73ee-2a33-4457-b4ea-eeaf6e4c548f.1","resource":{"resourceType":"Procedure","id":"f21a73ee-2a33-4457-b4ea-eeaf6e4c548f.1","meta":{"profile":["http://hl7.org/fhir/us/qicore/StructureDefinition/qicore-procedure"]},"extension":[{"url":"http://hl7.org/fhir/us/qicore/StructureDefinition/qicore-recorded","valueDateTime":"2024-11-02T00:00:00.000Z"}],"status":"completed","code":{"coding":[{"system":"http://www.cms.gov/Medicare/Coding/ICD10","code":"0QP604Z","display":"Removal of Internal Fixation Device from Right Upper Femur, Open Approach"}]},"subject":{"reference":"Patient/75dd2ea2-0a59-4bc9-8766-0f8cc35f2d11"},"performedPeriod":{"start":"2024-11-02T00:00:00.000Z","end":"2024-11-02T01:00:00.000Z"}},"request":{"method":"PUT","url":"Procedure/f21a73ee-2a33-4457-b4ea-eeaf6e4c548f.1"}},{"fullUrl":"https://madie.cms.gov/MeasureReport/dda7426d-46a9-4b59-8cab-b2f0dc714496","resource":{"resourceType":"MeasureReport","id":"dda7426d-46a9-4b59-8cab-b2f0dc714496","meta":{"profile":["http://hl7.org/fhir/us/cqfmeasures/StructureDefinition/test-case-cqfm"]},"contained":[{"resourceType":"Parameters","id":"9573c508-4f92-44a9-98e3-3b24602d16fe-parameters","parameter":[{"name":"subject","valueString":"75dd2ea2-0a59-4bc9-8766-0f8cc35f2d11"}]}],"extension":[{"url":"http://hl7.org/fhir/StructureDefinition/cqf-inputParameters","valueReference":{"reference":"#9573c508-4f92-44a9-98e3-3b24602d16fe-parameters"}},{"url":"http://hl7.org/fhir/us/cqfmeasures/StructureDefinition/cqfm-testCaseDescription","valueMarkdown":"Patient Has Revision THAProcedure on a different day than THAProcedure"}],"modifierExtension":[{"url":"http://hl7.org/fhir/us/cqfmeasures/StructureDefinition/cqfm-isTestCase","valueBoolean":true}],"status":"complete","type":"individual","measure":"https://madie.cms.gov/Measure/CMS56FHIRFunctionalStatusAssessmentforTotalHipReplacement","period":{"start":"2026-01-01","end":"2026-12-31"},"group":[{"id":"Group_1","population":[{"id":"InitialPopulation_1","code":{"coding":[{"system":"http://terminology.hl7.org/CodeSystem/measure-population","code":"initial-population","display":"Initial Population"}]},"count":1},{"id":"Denominator_1","code":{"coding":[{"system":"http://terminology.hl7.org/CodeSystem/measure-population","code":"denominator","display":"Denominator"}]},"count":1},{"id":"DenominatorExclusion_1","code":{"coding":[{"system":"http://terminology.hl7.org/CodeSystem/measure-population","code":"denominator-exclusion","display":"Denominator Exclusion"}]},"count":0},{"id":"Numerator_1","code":{"coding":[{"system":"http://terminology.hl7.org/CodeSystem/measure-population","code":"numerator","display":"Numerator"}]},"count":0}],"measureScore":{"value":1.0}}],"evaluatedResource":[{"reference":"Patient/75dd2ea2-0a59-4bc9-8766-0f8cc35f2d11"},{"reference":"Procedure/f21a73ee-2a33-4457-b4ea-eeaf6e4c548f"},{"reference":"Encounter/2a520c15-23e1-46f4-873c-b2d7c37a8966"},{"reference":"Procedure/f21a73ee-2a33-4457-b4ea-eeaf6e4c548f.1"}]},"request":{"method":"PUT","url":"MeasureReport/dda7426d-46a9-4b59-8cab-b2f0dc714496"}}]},"request":{"method":"PUT","url":"Bundle/DENEXFail-ReviTHAProcDiffDayAsTHAProc"}},{"resource":{"resourceType":"Encounter","id":"2a520c15-23e1-46f4-873c-b2d7c37a8966","meta":{"profile":["http://hl7.org/fhir/us/qicore/StructureDefinition/qicore-encounter"]},"status":"finished","class":{"system":"http://terminology.hl7.org/CodeSystem/v3-ActCode","code":"AMB","display":"ambulatory"},"type":[{"coding":[{"system":"http://snomed.info/sct","code":"281036007","display":"Follow-up consultation (procedure)"}]}],"subject":{"reference":"Patient/75dd2ea2-0a59-4bc9-8766-0f8cc35f2d11"},"period":{"start":"2025-11-01T00:00:00.000Z","end":"2025-11-01T01:15:00.000Z"}},"request":{"method":"PUT","url":"Encounter/2a520c15-23e1-46f4-873c-b2d7c37a8966"}},{"resource":{"resourceType":"MeasureReport","id":"dda7426d-46a9-4b59-8cab-b2f0dc714496","meta":{"profile":["http://hl7.org/fhir/us/cqfmeasures/StructureDefinition/test-case-cqfm"]},"contained":[{"resourceType":"Parameters","id":"9573c508-4f92-44a9-98e3-3b24602d16fe-parameters","parameter":[{"name":"subject","valueString":"75dd2ea2-0a59-4bc9-8766-0f8cc35f2d11"}]}],"extension":[{"url":"http://hl7.org/fhir/StructureDefinition/cqf-inputParameters","valueReference":{"reference":"#9573c508-4f92-44a9-98e3-3b24602d16fe-parameters"}},{"url":"http://hl7.org/fhir/us/cqfmeasures/StructureDefinition/cqfm-testCaseDescription","valueMarkdown":"Patient Has Revision THAProcedure on a different day than THAProcedure"}],"modifierExtension":[{"url":"http://hl7.org/fhir/us/cqfmeasures/StructureDefinition/cqfm-isTestCase","valueBoolean":true}],"status":"complete","type":"individual","measure":"https://madie.cms.gov/Measure/CMS56FHIRFunctionalStatusAssessmentforTotalHipReplacement","period":{"start":"2026-01-01","end":"2026-12-31"},"group":[{"id":"Group_1","population":[{"id":"InitialPopulation_1","code":{"coding":[{"system":"http://terminology.hl7.org/CodeSystem/measure-population","code":"initial-population","display":"Initial Population"}]},"count":1},{"id":"Denominator_1","code":{"coding":[{"system":"http://terminology.hl7.org/CodeSystem/measure-population","code":"denominator","display":"Denominator"}]},"count":1},{"id":"DenominatorExclusion_1","code":{"coding":[{"system":"http://terminology.hl7.org/CodeSystem/measure-population","code":"denominator-exclusion","display":"Denominator Exclusion"}]},"count":0},{"id":"Numerator_1","code":{"coding":[{"system":"http://terminology.hl7.org/CodeSystem/measure-population","code":"numerator","display":"Numerator"}]},"count":0}],"measureScore":{"value":1.0}}],"evaluatedResource":[{"reference":"Patient/75dd2ea2-0a59-4bc9-8766-0f8cc35f2d11"},{"reference":"Procedure/f21a73ee-2a33-4457-b4ea-eeaf6e4c548f"},{"reference":"Encounter/2a520c15-23e1-46f4-873c-b2d7c37a8966"},{"reference":"Procedure/f21a73ee-2a33-4457-b4ea-eeaf6e4c548f.1"}]},"request":{"method":"PUT","url":"MeasureReport/dda7426d-46a9-4b59-8cab-b2f0dc714496"}},{"resource":{"resourceType":"Patient","id":"75dd2ea2-0a59-4bc9-8766-0f8cc35f2d11","meta":{"profile":["http://hl7.org/fhir/us/qicore/StructureDefinition/qicore-patient"]},"extension":[{"url":"http://hl7.org/fhir/us/core/StructureDefinition/us-core-race","extension":[{"url":"ombCategory","valueCoding":{"system":"urn:oid:2.16.840.1.113883.6.238","code":"2028-9","display":"Asian"}},{"url":"text","valueString":"Asian"}]},{"url":"http://hl7.org/fhir/us/core/StructureDefinition/us-core-ethnicity","extension":[{"url":"ombCategory","valueCoding":{"system":"urn:oid:2.16.840.1.113883.6.238","code":"2135-2","display":"Hispanic or Latino"}},{"url":"text","valueString":"Hispanic or Latino"}]}],"identifier":[{"system":"http://hospital.smarthealthit.org","value":"999999995"}],"name":[{"family":"Bertha","given":["Betty"]}],"gender":"female","birthDate":"2007-01-01"},"request":{"method":"PUT","url":"Patient/75dd2ea2-0a59-4bc9-8766-0f8cc35f2d11"}},{"resource":{"resourceType":"Procedure","id":"f21a73ee-2a33-4457-b4ea-eeaf6e4c548f.1","meta":{"profile":["http://hl7.org/fhir/us/qicore/StructureDefinition/qicore-procedure"]},"extension":[{"url":"http://hl7.org/fhir/us/qicore/StructureDefinition/qicore-recorded","valueDateTime":"2024-11-02T00:00:00.000Z"}],"status":"completed","code":{"coding":[{"system":"http://www.cms.gov/Medicare/Coding/ICD10","code":"0QP604Z","display":"Removal of Internal Fixation Device from Right Upper Femur, Open Approach"}]},"subject":{"reference":"Patient/75dd2ea2-0a59-4bc9-8766-0f8cc35f2d11"},"performedPeriod":{"start":"2024-11-02T00:00:00.000Z","end":"2024-11-02T01:00:00.000Z"}},"request":{"method":"PUT","url":"Procedure/f21a73ee-2a33-4457-b4ea-eeaf6e4c548f.1"}},{"resource":{"resourceType":"Procedure","id":"f21a73ee-2a33-4457-b4ea-eeaf6e4c548f","meta":{"profile":["http://hl7.org/fhir/us/qicore/StructureDefinition/qicore-procedure"]},"extension":[{"url":"http://hl7.org/fhir/us/qicore/StructureDefinition/qicore-recorded","valueDateTime":"2026-11-01T00:00:00.000Z"}],"status":"completed","code":{"coding":[{"system":"http://www.cms.gov/Medicare/Coding/ICD10","code":"0SR9019","display":"Replacement of Right Hip Joint with Metal Synthetic Substitute, Cemented, Open Approach"}]},"subject":{"reference":"Patient/75dd2ea2-0a59-4bc9-8766-0f8cc35f2d11"},"performedPeriod":{"start":"2024-11-01T00:00:00.000Z","end":"2024-11-01T01:00:00.000Z"}},"request":{"method":"PUT","url":"Procedure/f21a73ee-2a33-4457-b4ea-eeaf6e4c548f"}}]}