{"resourceType":"Bundle","id":"tests-d8256181-7237-462a-98e6-a19790b3dc5d-bundle","type":"transaction","entry":[{"fullUrl":"MeasureReport/b41694fe-f78e-4b5f-9570-3fd0fd48ea22","resource":{"resourceType":"MeasureReport","id":"b41694fe-f78e-4b5f-9570-3fd0fd48ea22","meta":{"profile":["http://hl7.org/fhir/us/cqfmeasures/StructureDefinition/test-case-cqfm"]},"contained":[{"resourceType":"Parameters","id":"9d72fd0a-a6c8-44fa-a4fd-49e78afb89a4-parameters","parameter":[{"name":"subject","valueString":"d8256181-7237-462a-98e6-a19790b3dc5d"}]}],"extension":[{"url":"http://hl7.org/fhir/StructureDefinition/cqf-inputParameters","valueReference":{"reference":"#9d72fd0a-a6c8-44fa-a4fd-49e78afb89a4-parameters"}},{"url":"http://hl7.org/fhir/us/cqfmeasures/StructureDefinition/cqfm-testCaseDescription","valueMarkdown":"Virtual encounter during MP - for meeting 100% coverage"}],"modifierExtension":[{"url":"http://hl7.org/fhir/us/cqfmeasures/StructureDefinition/cqfm-isTestCase","valueBoolean":true}],"status":"complete","type":"individual","measure":"https://madie.cms.gov/Measure/CMS56FHIRFunctionalStatusAssessmentforTotalHipReplacement","period":{"start":"2026-01-01","end":"2026-12-31"},"group":[{"id":"Group_1","population":[{"id":"InitialPopulation_1","code":{"coding":[{"system":"http://terminology.hl7.org/CodeSystem/measure-population","code":"initial-population","display":"Initial Population"}]},"count":1},{"id":"Denominator_1","code":{"coding":[{"system":"http://terminology.hl7.org/CodeSystem/measure-population","code":"denominator","display":"Denominator"}]},"count":1},{"id":"DenominatorExclusion_1","code":{"coding":[{"system":"http://terminology.hl7.org/CodeSystem/measure-population","code":"denominator-exclusion","display":"Denominator Exclusion"}]},"count":0},{"id":"Numerator_1","code":{"coding":[{"system":"http://terminology.hl7.org/CodeSystem/measure-population","code":"numerator","display":"Numerator"}]},"count":0}],"measureScore":{"value":1.0}}],"evaluatedResource":[{"reference":"Patient/d8256181-7237-462a-98e6-a19790b3dc5d"},{"reference":"Procedure/068e5df0-d5ef-484d-a2fb-f0d85a05ac3c"},{"reference":"Encounter/9f72fa62-f04a-4969-bb45-8c9822fcd196"}]},"request":{"method":"PUT","url":"MeasureReport/b41694fe-f78e-4b5f-9570-3fd0fd48ea22"}},{"fullUrl":"Bundle/IPPass-VirtualEncounter","resource":{"resourceType":"Bundle","id":"IPPass-VirtualEncounter","type":"transaction","entry":[{"fullUrl":"https://madie.cms.gov/Patient/d8256181-7237-462a-98e6-a19790b3dc5d","resource":{"resourceType":"Patient","id":"d8256181-7237-462a-98e6-a19790b3dc5d","meta":{"profile":["http://hl7.org/fhir/us/qicore/StructureDefinition/qicore-patient"]},"extension":[{"url":"http://hl7.org/fhir/us/core/StructureDefinition/us-core-race","extension":[{"url":"ombCategory","valueCoding":{"system":"urn:oid:2.16.840.1.113883.6.238","code":"2028-9","display":"Asian","userSelected":true}},{"url":"text","valueString":"Asian"}]},{"url":"http://hl7.org/fhir/us/core/StructureDefinition/us-core-ethnicity","extension":[{"url":"ombCategory","valueCoding":{"system":"urn:oid:2.16.840.1.113883.6.238","code":"2135-2","display":"Hispanic or Latino","userSelected":true}},{"url":"text","valueString":"Hispanic or Latino"}]}],"identifier":[{"type":{"coding":[{"system":"http://terminology.hl7.org/CodeSystem/v2-0203","code":"MR"}]},"system":"http://hospital.smarthealthit.org","value":"999999995"}],"name":[{"family":"Bertha","given":["Betty"]}],"gender":"female","birthDate":"2007-01-01"},"request":{"method":"PUT","url":"Patient/d8256181-7237-462a-98e6-a19790b3dc5d"}},{"fullUrl":"https://madie.cms.gov/Procedure/068e5df0-d5ef-484d-a2fb-f0d85a05ac3c","resource":{"resourceType":"Procedure","id":"068e5df0-d5ef-484d-a2fb-f0d85a05ac3c","meta":{"profile":["http://hl7.org/fhir/us/qicore/StructureDefinition/qicore-procedure"]},"extension":[{"url":"http://hl7.org/fhir/us/qicore/StructureDefinition/qicore-recorded","valueDateTime":"2025-10-31T00:00:00.000Z"}],"status":"completed","code":{"coding":[{"system":"http://www.cms.gov/Medicare/Coding/ICD10","code":"0SR9019","display":"Replacement of Right Hip Joint with Metal Synthetic Substitute, Cemented, Open Approach"}]},"subject":{"reference":"Patient/d8256181-7237-462a-98e6-a19790b3dc5d"},"performedPeriod":{"start":"2025-10-31T00:00:00.000Z","end":"2025-10-31T01:00:00.000Z"}},"request":{"method":"PUT","url":"Procedure/068e5df0-d5ef-484d-a2fb-f0d85a05ac3c"}},{"fullUrl":"https://madie.cms.gov/Encounter/9f72fa62-f04a-4969-bb45-8c9822fcd196","resource":{"resourceType":"Encounter","id":"9f72fa62-f04a-4969-bb45-8c9822fcd196","meta":{"profile":["http://hl7.org/fhir/us/qicore/StructureDefinition/qicore-encounter"]},"status":"finished","class":{"system":"http://terminology.hl7.org/CodeSystem/v3-ActCode","code":"AMB","display":"ambulatory"},"type":[{"coding":[{"system":"http://www.ama-assn.org/go/cpt","code":"98972","display":"Qualified nonphysician health care professional online digital assessment and management, for an established patient, for up to 7 days, cumulative time during the 7 days; 21 or more minutes"}]}],"subject":{"reference":"Patient/d8256181-7237-462a-98e6-a19790b3dc5d"},"period":{"start":"2026-12-31T00:00:00.000Z","end":"2026-12-31T01:15:00.000Z"}},"request":{"method":"PUT","url":"Encounter/9f72fa62-f04a-4969-bb45-8c9822fcd196"}},{"fullUrl":"https://madie.cms.gov/MeasureReport/b41694fe-f78e-4b5f-9570-3fd0fd48ea22","resource":{"resourceType":"MeasureReport","id":"b41694fe-f78e-4b5f-9570-3fd0fd48ea22","meta":{"profile":["http://hl7.org/fhir/us/cqfmeasures/StructureDefinition/test-case-cqfm"]},"contained":[{"resourceType":"Parameters","id":"9d72fd0a-a6c8-44fa-a4fd-49e78afb89a4-parameters","parameter":[{"name":"subject","valueString":"d8256181-7237-462a-98e6-a19790b3dc5d"}]}],"extension":[{"url":"http://hl7.org/fhir/StructureDefinition/cqf-inputParameters","valueReference":{"reference":"#9d72fd0a-a6c8-44fa-a4fd-49e78afb89a4-parameters"}},{"url":"http://hl7.org/fhir/us/cqfmeasures/StructureDefinition/cqfm-testCaseDescription","valueMarkdown":"Virtual encounter during MP - for meeting 100% coverage"}],"modifierExtension":[{"url":"http://hl7.org/fhir/us/cqfmeasures/StructureDefinition/cqfm-isTestCase","valueBoolean":true}],"status":"complete","type":"individual","measure":"https://madie.cms.gov/Measure/CMS56FHIRFunctionalStatusAssessmentforTotalHipReplacement","period":{"start":"2026-01-01","end":"2026-12-31"},"group":[{"id":"Group_1","population":[{"id":"InitialPopulation_1","code":{"coding":[{"system":"http://terminology.hl7.org/CodeSystem/measure-population","code":"initial-population","display":"Initial Population"}]},"count":1},{"id":"Denominator_1","code":{"coding":[{"system":"http://terminology.hl7.org/CodeSystem/measure-population","code":"denominator","display":"Denominator"}]},"count":1},{"id":"DenominatorExclusion_1","code":{"coding":[{"system":"http://terminology.hl7.org/CodeSystem/measure-population","code":"denominator-exclusion","display":"Denominator Exclusion"}]},"count":0},{"id":"Numerator_1","code":{"coding":[{"system":"http://terminology.hl7.org/CodeSystem/measure-population","code":"numerator","display":"Numerator"}]},"count":0}],"measureScore":{"value":1.0}}],"evaluatedResource":[{"reference":"Patient/d8256181-7237-462a-98e6-a19790b3dc5d"},{"reference":"Procedure/068e5df0-d5ef-484d-a2fb-f0d85a05ac3c"},{"reference":"Encounter/9f72fa62-f04a-4969-bb45-8c9822fcd196"}]},"request":{"method":"PUT","url":"MeasureReport/b41694fe-f78e-4b5f-9570-3fd0fd48ea22"}}]},"request":{"method":"PUT","url":"Bundle/IPPass-VirtualEncounter"}},{"fullUrl":"Procedure/068e5df0-d5ef-484d-a2fb-f0d85a05ac3c","resource":{"resourceType":"Procedure","id":"068e5df0-d5ef-484d-a2fb-f0d85a05ac3c","meta":{"profile":["http://hl7.org/fhir/us/qicore/StructureDefinition/qicore-procedure"]},"extension":[{"url":"http://hl7.org/fhir/us/qicore/StructureDefinition/qicore-recorded","valueDateTime":"2025-10-31T00:00:00.000Z"}],"status":"completed","code":{"coding":[{"system":"http://www.cms.gov/Medicare/Coding/ICD10","code":"0SR9019","display":"Replacement of Right Hip Joint with Metal Synthetic Substitute, Cemented, Open Approach"}]},"subject":{"reference":"Patient/d8256181-7237-462a-98e6-a19790b3dc5d"},"performedPeriod":{"start":"2025-10-31T00:00:00.000Z","end":"2025-10-31T01:00:00.000Z"}},"request":{"method":"PUT","url":"Procedure/068e5df0-d5ef-484d-a2fb-f0d85a05ac3c"}},{"fullUrl":"Encounter/9f72fa62-f04a-4969-bb45-8c9822fcd196","resource":{"resourceType":"Encounter","id":"9f72fa62-f04a-4969-bb45-8c9822fcd196","meta":{"profile":["http://hl7.org/fhir/us/qicore/StructureDefinition/qicore-encounter"]},"status":"finished","class":{"system":"http://terminology.hl7.org/CodeSystem/v3-ActCode","code":"AMB","display":"ambulatory"},"type":[{"coding":[{"system":"http://www.ama-assn.org/go/cpt","code":"98972","display":"Qualified nonphysician health care professional online digital assessment and management, for an established patient, for up to 7 days, cumulative time during the 7 days; 21 or more minutes"}]}],"subject":{"reference":"Patient/d8256181-7237-462a-98e6-a19790b3dc5d"},"period":{"start":"2026-12-31T00:00:00.000Z","end":"2026-12-31T01:15:00.000Z"}},"request":{"method":"PUT","url":"Encounter/9f72fa62-f04a-4969-bb45-8c9822fcd196"}},{"fullUrl":"Patient/d8256181-7237-462a-98e6-a19790b3dc5d","resource":{"resourceType":"Patient","id":"d8256181-7237-462a-98e6-a19790b3dc5d","meta":{"profile":["http://hl7.org/fhir/us/qicore/StructureDefinition/qicore-patient"]},"extension":[{"url":"http://hl7.org/fhir/us/core/StructureDefinition/us-core-race","extension":[{"url":"ombCategory","valueCoding":{"system":"urn:oid:2.16.840.1.113883.6.238","code":"2028-9","display":"Asian","userSelected":true}},{"url":"text","valueString":"Asian"}]},{"url":"http://hl7.org/fhir/us/core/StructureDefinition/us-core-ethnicity","extension":[{"url":"ombCategory","valueCoding":{"system":"urn:oid:2.16.840.1.113883.6.238","code":"2135-2","display":"Hispanic or Latino","userSelected":true}},{"url":"text","valueString":"Hispanic or Latino"}]}],"identifier":[{"type":{"coding":[{"system":"http://terminology.hl7.org/CodeSystem/v2-0203","code":"MR"}]},"system":"http://hospital.smarthealthit.org","value":"999999995"}],"name":[{"family":"Bertha","given":["Betty"]}],"gender":"female","birthDate":"2007-01-01"},"request":{"method":"PUT","url":"Patient/d8256181-7237-462a-98e6-a19790b3dc5d"}}]}