{"resourceType":"Bundle","id":"tests-fbb7ec1d-0f5d-42bf-ba4e-f53c755e9412-bundle","type":"transaction","entry":[{"fullUrl":"MeasureReport/6854d61e-c384-43ed-8348-ac06135967ca","resource":{"resourceType":"MeasureReport","id":"6854d61e-c384-43ed-8348-ac06135967ca","meta":{"profile":["http://hl7.org/fhir/us/cqfmeasures/StructureDefinition/test-case-cqfm"]},"contained":[{"resourceType":"Parameters","id":"bf8d011a-ea84-4d66-a758-b8a6d514f2fd-parameters","parameter":[{"name":"subject","valueString":"fbb7ec1d-0f5d-42bf-ba4e-f53c755e9412"}]}],"extension":[{"url":"http://hl7.org/fhir/StructureDefinition/cqf-inputParameters","valueReference":{"reference":"#bf8d011a-ea84-4d66-a758-b8a6d514f2fd-parameters"}},{"url":"http://hl7.org/fhir/us/cqfmeasures/StructureDefinition/cqfm-testCaseDescription","valueMarkdown":"Patient has Dx of Mechanical Complications that falls outside of the THAProcedure Interval"}],"modifierExtension":[{"url":"http://hl7.org/fhir/us/cqfmeasures/StructureDefinition/cqfm-isTestCase","valueBoolean":true}],"status":"complete","type":"individual","measure":"https://madie.cms.gov/Measure/CMS56FHIRFunctionalStatusAssessmentforTotalHipReplacement","period":{"start":"2026-01-01","end":"2026-12-31"},"group":[{"id":"Group_1","population":[{"id":"InitialPopulation_1","code":{"coding":[{"system":"http://terminology.hl7.org/CodeSystem/measure-population","code":"initial-population","display":"Initial Population"}]},"count":1},{"id":"Denominator_1","code":{"coding":[{"system":"http://terminology.hl7.org/CodeSystem/measure-population","code":"denominator","display":"Denominator"}]},"count":1},{"id":"DenominatorExclusion_1","code":{"coding":[{"system":"http://terminology.hl7.org/CodeSystem/measure-population","code":"denominator-exclusion","display":"Denominator Exclusion"}]},"count":0},{"id":"Numerator_1","code":{"coding":[{"system":"http://terminology.hl7.org/CodeSystem/measure-population","code":"numerator","display":"Numerator"}]},"count":0}],"measureScore":{"value":1.0}}],"evaluatedResource":[{"reference":"Patient/fbb7ec1d-0f5d-42bf-ba4e-f53c755e9412"},{"reference":"Procedure/490c7fa1-330d-4511-8bd2-9c534c824444"},{"reference":"Encounter/e8694b68-2a4b-41c4-8fad-b378a7eb3b8a"},{"reference":"Condition/4a5aa11e-6268-4ed4-b769-d22a7fda10f4"}]},"request":{"method":"PUT","url":"MeasureReport/6854d61e-c384-43ed-8348-ac06135967ca"}},{"fullUrl":"Patient/fbb7ec1d-0f5d-42bf-ba4e-f53c755e9412","resource":{"resourceType":"Patient","id":"fbb7ec1d-0f5d-42bf-ba4e-f53c755e9412","meta":{"profile":["http://hl7.org/fhir/us/qicore/StructureDefinition/qicore-patient"]},"extension":[{"url":"http://hl7.org/fhir/us/core/StructureDefinition/us-core-race","extension":[{"url":"ombCategory","valueCoding":{"system":"urn:oid:2.16.840.1.113883.6.238","code":"2028-9","display":"Asian"}},{"url":"text","valueString":"Asian"}]},{"url":"http://hl7.org/fhir/us/core/StructureDefinition/us-core-ethnicity","extension":[{"url":"ombCategory","valueCoding":{"system":"urn:oid:2.16.840.1.113883.6.238","code":"2135-2","display":"Hispanic or Latino"}},{"url":"text","valueString":"Hispanic or Latino"}]}],"identifier":[{"system":"http://hospital.smarthealthit.org","value":"999999995"}],"name":[{"family":"Bertha","given":["Betty"]}],"gender":"female","birthDate":"2007-01-01"},"request":{"method":"PUT","url":"Patient/fbb7ec1d-0f5d-42bf-ba4e-f53c755e9412"}},{"fullUrl":"Bundle/DENEXFail-MechCompDxOutsideTHAProcInt","resource":{"resourceType":"Bundle","id":"DENEXFail-MechCompDxOutsideTHAProcInt","type":"transaction","entry":[{"fullUrl":"https://madie.cms.gov/Patient/fbb7ec1d-0f5d-42bf-ba4e-f53c755e9412","resource":{"resourceType":"Patient","id":"fbb7ec1d-0f5d-42bf-ba4e-f53c755e9412","meta":{"profile":["http://hl7.org/fhir/us/qicore/StructureDefinition/qicore-patient"]},"extension":[{"url":"http://hl7.org/fhir/us/core/StructureDefinition/us-core-race","extension":[{"url":"ombCategory","valueCoding":{"system":"urn:oid:2.16.840.1.113883.6.238","code":"2028-9","display":"Asian"}},{"url":"text","valueString":"Asian"}]},{"url":"http://hl7.org/fhir/us/core/StructureDefinition/us-core-ethnicity","extension":[{"url":"ombCategory","valueCoding":{"system":"urn:oid:2.16.840.1.113883.6.238","code":"2135-2","display":"Hispanic or Latino"}},{"url":"text","valueString":"Hispanic or Latino"}]}],"identifier":[{"system":"http://hospital.smarthealthit.org","value":"999999995"}],"name":[{"family":"Bertha","given":["Betty"]}],"gender":"female","birthDate":"2007-01-01"},"request":{"method":"PUT","url":"Patient/fbb7ec1d-0f5d-42bf-ba4e-f53c755e9412"}},{"fullUrl":"https://madie.cms.gov/Procedure/490c7fa1-330d-4511-8bd2-9c534c824444","resource":{"resourceType":"Procedure","id":"490c7fa1-330d-4511-8bd2-9c534c824444","meta":{"profile":["http://hl7.org/fhir/us/qicore/StructureDefinition/qicore-procedure"]},"extension":[{"url":"http://hl7.org/fhir/us/qicore/StructureDefinition/qicore-recorded","valueDateTime":"2026-01-15T00:00:00.000Z"}],"status":"completed","code":{"coding":[{"system":"http://www.cms.gov/Medicare/Coding/ICD10","code":"0SR9019","display":"Replacement of Right Hip Joint with Metal Synthetic Substitute, Cemented, Open Approach"}]},"subject":{"reference":"Patient/fbb7ec1d-0f5d-42bf-ba4e-f53c755e9412"},"performedPeriod":{"start":"2024-11-01T00:00:00.000Z","end":"2024-11-01T01:00:00.000Z"}},"request":{"method":"PUT","url":"Procedure/490c7fa1-330d-4511-8bd2-9c534c824444"}},{"fullUrl":"https://madie.cms.gov/Encounter/e8694b68-2a4b-41c4-8fad-b378a7eb3b8a","resource":{"resourceType":"Encounter","id":"e8694b68-2a4b-41c4-8fad-b378a7eb3b8a","meta":{"profile":["http://hl7.org/fhir/us/qicore/StructureDefinition/qicore-encounter"]},"status":"finished","class":{"system":"http://terminology.hl7.org/CodeSystem/v3-ActCode","code":"AMB","display":"ambulatory"},"type":[{"coding":[{"system":"http://snomed.info/sct","code":"281036007","display":"Follow-up consultation (procedure)"}]}],"subject":{"reference":"Patient/fbb7ec1d-0f5d-42bf-ba4e-f53c755e9412"},"period":{"start":"2025-11-01T00:00:00.000Z","end":"2025-11-01T01:15:00.000Z"}},"request":{"method":"PUT","url":"Encounter/e8694b68-2a4b-41c4-8fad-b378a7eb3b8a"}},{"fullUrl":"https://madie.cms.gov/Condition/4a5aa11e-6268-4ed4-b769-d22a7fda10f4","resource":{"resourceType":"Condition","id":"4a5aa11e-6268-4ed4-b769-d22a7fda10f4","meta":{"profile":["http://hl7.org/fhir/us/qicore/StructureDefinition/qicore-condition-problems-health-concerns"]},"clinicalStatus":{"coding":[{"system":"http://terminology.hl7.org/CodeSystem/condition-clinical","code":"resolved"}]},"category":[{"coding":[{"system":"http://terminology.hl7.org/CodeSystem/condition-category","code":"problem-list-item","display":"Problem List Item"}]}],"code":{"coding":[{"system":"http://snomed.info/sct","code":"12077001000119100","display":"Dislocation of prosthesis of left hip joint (disorder)"}]},"subject":{"reference":"Patient/fbb7ec1d-0f5d-42bf-ba4e-f53c755e9412"},"onsetDateTime":"2024-10-31T11:59:59.000Z","abatementDateTime":"2024-10-31T11:59:59.000Z"},"request":{"method":"PUT","url":"Condition/4a5aa11e-6268-4ed4-b769-d22a7fda10f4"}},{"fullUrl":"https://madie.cms.gov/MeasureReport/6854d61e-c384-43ed-8348-ac06135967ca","resource":{"resourceType":"MeasureReport","id":"6854d61e-c384-43ed-8348-ac06135967ca","meta":{"profile":["http://hl7.org/fhir/us/cqfmeasures/StructureDefinition/test-case-cqfm"]},"contained":[{"resourceType":"Parameters","id":"bf8d011a-ea84-4d66-a758-b8a6d514f2fd-parameters","parameter":[{"name":"subject","valueString":"fbb7ec1d-0f5d-42bf-ba4e-f53c755e9412"}]}],"extension":[{"url":"http://hl7.org/fhir/StructureDefinition/cqf-inputParameters","valueReference":{"reference":"#bf8d011a-ea84-4d66-a758-b8a6d514f2fd-parameters"}},{"url":"http://hl7.org/fhir/us/cqfmeasures/StructureDefinition/cqfm-testCaseDescription","valueMarkdown":"Patient has Dx of Mechanical Complications that falls outside of the THAProcedure Interval"}],"modifierExtension":[{"url":"http://hl7.org/fhir/us/cqfmeasures/StructureDefinition/cqfm-isTestCase","valueBoolean":true}],"status":"complete","type":"individual","measure":"https://madie.cms.gov/Measure/CMS56FHIRFunctionalStatusAssessmentforTotalHipReplacement","period":{"start":"2026-01-01","end":"2026-12-31"},"group":[{"id":"Group_1","population":[{"id":"InitialPopulation_1","code":{"coding":[{"system":"http://terminology.hl7.org/CodeSystem/measure-population","code":"initial-population","display":"Initial Population"}]},"count":1},{"id":"Denominator_1","code":{"coding":[{"system":"http://terminology.hl7.org/CodeSystem/measure-population","code":"denominator","display":"Denominator"}]},"count":1},{"id":"DenominatorExclusion_1","code":{"coding":[{"system":"http://terminology.hl7.org/CodeSystem/measure-population","code":"denominator-exclusion","display":"Denominator Exclusion"}]},"count":0},{"id":"Numerator_1","code":{"coding":[{"system":"http://terminology.hl7.org/CodeSystem/measure-population","code":"numerator","display":"Numerator"}]},"count":0}],"measureScore":{"value":1.0}}],"evaluatedResource":[{"reference":"Patient/fbb7ec1d-0f5d-42bf-ba4e-f53c755e9412"},{"reference":"Procedure/490c7fa1-330d-4511-8bd2-9c534c824444"},{"reference":"Encounter/e8694b68-2a4b-41c4-8fad-b378a7eb3b8a"},{"reference":"Condition/4a5aa11e-6268-4ed4-b769-d22a7fda10f4"}]},"request":{"method":"PUT","url":"MeasureReport/6854d61e-c384-43ed-8348-ac06135967ca"}}]},"request":{"method":"PUT","url":"Bundle/DENEXFail-MechCompDxOutsideTHAProcInt"}},{"fullUrl":"Condition/4a5aa11e-6268-4ed4-b769-d22a7fda10f4","resource":{"resourceType":"Condition","id":"4a5aa11e-6268-4ed4-b769-d22a7fda10f4","meta":{"profile":["http://hl7.org/fhir/us/qicore/StructureDefinition/qicore-condition-problems-health-concerns"]},"clinicalStatus":{"coding":[{"system":"http://terminology.hl7.org/CodeSystem/condition-clinical","code":"resolved"}]},"category":[{"coding":[{"system":"http://terminology.hl7.org/CodeSystem/condition-category","code":"problem-list-item","display":"Problem List Item"}]}],"code":{"coding":[{"system":"http://snomed.info/sct","code":"12077001000119100","display":"Dislocation of prosthesis of left hip joint (disorder)"}]},"subject":{"reference":"Patient/fbb7ec1d-0f5d-42bf-ba4e-f53c755e9412"},"onsetDateTime":"2024-10-31T11:59:59.000Z","abatementDateTime":"2024-10-31T11:59:59.000Z"},"request":{"method":"PUT","url":"Condition/4a5aa11e-6268-4ed4-b769-d22a7fda10f4"}},{"fullUrl":"Procedure/490c7fa1-330d-4511-8bd2-9c534c824444","resource":{"resourceType":"Procedure","id":"490c7fa1-330d-4511-8bd2-9c534c824444","meta":{"profile":["http://hl7.org/fhir/us/qicore/StructureDefinition/qicore-procedure"]},"extension":[{"url":"http://hl7.org/fhir/us/qicore/StructureDefinition/qicore-recorded","valueDateTime":"2026-01-15T00:00:00.000Z"}],"status":"completed","code":{"coding":[{"system":"http://www.cms.gov/Medicare/Coding/ICD10","code":"0SR9019","display":"Replacement of Right Hip Joint with Metal Synthetic Substitute, Cemented, Open Approach"}]},"subject":{"reference":"Patient/fbb7ec1d-0f5d-42bf-ba4e-f53c755e9412"},"performedPeriod":{"start":"2024-11-01T00:00:00.000Z","end":"2024-11-01T01:00:00.000Z"}},"request":{"method":"PUT","url":"Procedure/490c7fa1-330d-4511-8bd2-9c534c824444"}},{"fullUrl":"Encounter/e8694b68-2a4b-41c4-8fad-b378a7eb3b8a","resource":{"resourceType":"Encounter","id":"e8694b68-2a4b-41c4-8fad-b378a7eb3b8a","meta":{"profile":["http://hl7.org/fhir/us/qicore/StructureDefinition/qicore-encounter"]},"status":"finished","class":{"system":"http://terminology.hl7.org/CodeSystem/v3-ActCode","code":"AMB","display":"ambulatory"},"type":[{"coding":[{"system":"http://snomed.info/sct","code":"281036007","display":"Follow-up consultation (procedure)"}]}],"subject":{"reference":"Patient/fbb7ec1d-0f5d-42bf-ba4e-f53c755e9412"},"period":{"start":"2025-11-01T00:00:00.000Z","end":"2025-11-01T01:15:00.000Z"}},"request":{"method":"PUT","url":"Encounter/e8694b68-2a4b-41c4-8fad-b378a7eb3b8a"}}]}