{"resourceType":"Bundle","id":"tests-8294df8e-bae2-4acb-a0e6-4e3a56221738-bundle","type":"transaction","entry":[{"resource":{"resourceType":"Patient","id":"8294df8e-bae2-4acb-a0e6-4e3a56221738","meta":{"profile":["http://hl7.org/fhir/us/qicore/StructureDefinition/qicore-patient"]},"extension":[{"url":"http://hl7.org/fhir/us/core/StructureDefinition/us-core-race","extension":[{"url":"ombCategory","valueCoding":{"system":"urn:oid:2.16.840.1.113883.6.238","code":"2028-9","display":"Asian"}},{"url":"text","valueString":"Asian"}]},{"url":"http://hl7.org/fhir/us/core/StructureDefinition/us-core-ethnicity","extension":[{"url":"ombCategory","valueCoding":{"system":"urn:oid:2.16.840.1.113883.6.238","code":"2135-2","display":"Hispanic or Latino"}},{"url":"text","valueString":"Hispanic or Latino"}]}],"identifier":[{"system":"http://hospital.smarthealthit.org","value":"999999995"}],"name":[{"family":"Bertha","given":["Betty"]}],"gender":"female","birthDate":"2007-01-01"},"request":{"method":"PUT","url":"Patient/8294df8e-bae2-4acb-a0e6-4e3a56221738"}},{"resource":{"resourceType":"MeasureReport","id":"9871c09d-307e-4cbe-a4db-22dba16d8de3","meta":{"profile":["http://hl7.org/fhir/us/cqfmeasures/StructureDefinition/test-case-cqfm"]},"contained":[{"resourceType":"Parameters","id":"ce883eec-6203-4dd8-b9a9-9b8d371ca51f-parameters","parameter":[{"name":"subject","valueString":"8294df8e-bae2-4acb-a0e6-4e3a56221738"}]}],"extension":[{"url":"http://hl7.org/fhir/StructureDefinition/cqf-inputParameters","valueReference":{"reference":"#ce883eec-6203-4dd8-b9a9-9b8d371ca51f-parameters"}},{"url":"http://hl7.org/fhir/us/cqfmeasures/StructureDefinition/cqfm-testCaseDescription","valueMarkdown":"Severe Cognitive Impairment Dx overlaps Measurement Period"}],"modifierExtension":[{"url":"http://hl7.org/fhir/us/cqfmeasures/StructureDefinition/cqfm-isTestCase","valueBoolean":true}],"status":"complete","type":"individual","measure":"https://madie.cms.gov/Measure/CMS56FHIRFunctionalStatusAssessmentforTotalHipReplacement","period":{"start":"2026-01-01","end":"2026-12-31"},"group":[{"id":"Group_1","population":[{"id":"InitialPopulation_1","code":{"coding":[{"system":"http://terminology.hl7.org/CodeSystem/measure-population","code":"initial-population","display":"Initial Population"}]},"count":1},{"id":"Denominator_1","code":{"coding":[{"system":"http://terminology.hl7.org/CodeSystem/measure-population","code":"denominator","display":"Denominator"}]},"count":1},{"id":"DenominatorExclusion_1","code":{"coding":[{"system":"http://terminology.hl7.org/CodeSystem/measure-population","code":"denominator-exclusion","display":"Denominator Exclusion"}]},"count":1},{"id":"Numerator_1","code":{"coding":[{"system":"http://terminology.hl7.org/CodeSystem/measure-population","code":"numerator","display":"Numerator"}]},"count":0}],"measureScore":{"value":1.0}}],"evaluatedResource":[{"reference":"Patient/8294df8e-bae2-4acb-a0e6-4e3a56221738"},{"reference":"Procedure/1eb45d3e-0b37-4ecf-9507-5d5bc4b0e7a0"},{"reference":"Encounter/28635125-f118-49b7-bf13-60be139d63c2"},{"reference":"Condition/526526f7-0aad-49b8-8e5e-f5b8b99ba76d"}]},"request":{"method":"PUT","url":"MeasureReport/9871c09d-307e-4cbe-a4db-22dba16d8de3"}},{"resource":{"resourceType":"Condition","id":"526526f7-0aad-49b8-8e5e-f5b8b99ba76d","meta":{"profile":["http://hl7.org/fhir/us/qicore/StructureDefinition/qicore-condition-problems-health-concerns"]},"clinicalStatus":{"coding":[{"system":"http://terminology.hl7.org/CodeSystem/condition-clinical","code":"active"}]},"category":[{"coding":[{"system":"http://terminology.hl7.org/CodeSystem/condition-category","code":"problem-list-item","display":"Problem List Item"}]}],"code":{"coding":[{"system":"http://snomed.info/sct","code":"702956004","display":"Severe cognitive impairment (finding)"}]},"subject":{"reference":"Patient/8294df8e-bae2-4acb-a0e6-4e3a56221738"},"onsetDateTime":"2026-01-01T00:00:00.000Z"},"request":{"method":"PUT","url":"Condition/526526f7-0aad-49b8-8e5e-f5b8b99ba76d"}},{"resource":{"resourceType":"Encounter","id":"28635125-f118-49b7-bf13-60be139d63c2","meta":{"profile":["http://hl7.org/fhir/us/qicore/StructureDefinition/qicore-encounter"]},"status":"finished","class":{"system":"http://terminology.hl7.org/CodeSystem/v3-ActCode","code":"AMB","display":"ambulatory"},"type":[{"coding":[{"system":"http://snomed.info/sct","code":"281036007","display":"Follow-up consultation (procedure)"}]}],"subject":{"reference":"Patient/8294df8e-bae2-4acb-a0e6-4e3a56221738"},"period":{"start":"2025-11-01T00:00:00.000Z","end":"2025-11-01T01:15:00.000Z"}},"request":{"method":"PUT","url":"Encounter/28635125-f118-49b7-bf13-60be139d63c2"}},{"resource":{"resourceType":"Procedure","id":"1eb45d3e-0b37-4ecf-9507-5d5bc4b0e7a0","meta":{"profile":["http://hl7.org/fhir/us/qicore/StructureDefinition/qicore-procedure"]},"extension":[{"url":"http://hl7.org/fhir/us/qicore/StructureDefinition/qicore-recorded","valueDateTime":"2026-01-15T00:00:00.000Z"}],"status":"completed","code":{"coding":[{"system":"http://www.cms.gov/Medicare/Coding/ICD10","code":"0SR9019","display":"Replacement of Right Hip Joint with Metal Synthetic Substitute, Cemented, Open Approach"}]},"subject":{"reference":"Patient/8294df8e-bae2-4acb-a0e6-4e3a56221738"},"performedPeriod":{"start":"2024-11-01T00:00:00.000Z","end":"2024-11-01T01:00:00.000Z"}},"request":{"method":"PUT","url":"Procedure/1eb45d3e-0b37-4ecf-9507-5d5bc4b0e7a0"}},{"resource":{"resourceType":"Bundle","id":"DENEXPass-DementiaOverlapsMP","type":"transaction","entry":[{"fullUrl":"https://madie.cms.gov/Patient/8294df8e-bae2-4acb-a0e6-4e3a56221738","resource":{"resourceType":"Patient","id":"8294df8e-bae2-4acb-a0e6-4e3a56221738","meta":{"profile":["http://hl7.org/fhir/us/qicore/StructureDefinition/qicore-patient"]},"extension":[{"url":"http://hl7.org/fhir/us/core/StructureDefinition/us-core-race","extension":[{"url":"ombCategory","valueCoding":{"system":"urn:oid:2.16.840.1.113883.6.238","code":"2028-9","display":"Asian"}},{"url":"text","valueString":"Asian"}]},{"url":"http://hl7.org/fhir/us/core/StructureDefinition/us-core-ethnicity","extension":[{"url":"ombCategory","valueCoding":{"system":"urn:oid:2.16.840.1.113883.6.238","code":"2135-2","display":"Hispanic or Latino"}},{"url":"text","valueString":"Hispanic or Latino"}]}],"identifier":[{"system":"http://hospital.smarthealthit.org","value":"999999995"}],"name":[{"family":"Bertha","given":["Betty"]}],"gender":"female","birthDate":"2007-01-01"},"request":{"method":"PUT","url":"Patient/8294df8e-bae2-4acb-a0e6-4e3a56221738"}},{"fullUrl":"https://madie.cms.gov/Procedure/1eb45d3e-0b37-4ecf-9507-5d5bc4b0e7a0","resource":{"resourceType":"Procedure","id":"1eb45d3e-0b37-4ecf-9507-5d5bc4b0e7a0","meta":{"profile":["http://hl7.org/fhir/us/qicore/StructureDefinition/qicore-procedure"]},"extension":[{"url":"http://hl7.org/fhir/us/qicore/StructureDefinition/qicore-recorded","valueDateTime":"2026-01-15T00:00:00.000Z"}],"status":"completed","code":{"coding":[{"system":"http://www.cms.gov/Medicare/Coding/ICD10","code":"0SR9019","display":"Replacement of Right Hip Joint with Metal Synthetic Substitute, Cemented, Open Approach"}]},"subject":{"reference":"Patient/8294df8e-bae2-4acb-a0e6-4e3a56221738"},"performedPeriod":{"start":"2024-11-01T00:00:00.000Z","end":"2024-11-01T01:00:00.000Z"}},"request":{"method":"PUT","url":"Procedure/1eb45d3e-0b37-4ecf-9507-5d5bc4b0e7a0"}},{"fullUrl":"https://madie.cms.gov/Encounter/28635125-f118-49b7-bf13-60be139d63c2","resource":{"resourceType":"Encounter","id":"28635125-f118-49b7-bf13-60be139d63c2","meta":{"profile":["http://hl7.org/fhir/us/qicore/StructureDefinition/qicore-encounter"]},"status":"finished","class":{"system":"http://terminology.hl7.org/CodeSystem/v3-ActCode","code":"AMB","display":"ambulatory"},"type":[{"coding":[{"system":"http://snomed.info/sct","code":"281036007","display":"Follow-up consultation (procedure)"}]}],"subject":{"reference":"Patient/8294df8e-bae2-4acb-a0e6-4e3a56221738"},"period":{"start":"2025-11-01T00:00:00.000Z","end":"2025-11-01T01:15:00.000Z"}},"request":{"method":"PUT","url":"Encounter/28635125-f118-49b7-bf13-60be139d63c2"}},{"fullUrl":"https://madie.cms.gov/Condition/526526f7-0aad-49b8-8e5e-f5b8b99ba76d","resource":{"resourceType":"Condition","id":"526526f7-0aad-49b8-8e5e-f5b8b99ba76d","meta":{"profile":["http://hl7.org/fhir/us/qicore/StructureDefinition/qicore-condition-problems-health-concerns"]},"clinicalStatus":{"coding":[{"system":"http://terminology.hl7.org/CodeSystem/condition-clinical","code":"active"}]},"category":[{"coding":[{"system":"http://terminology.hl7.org/CodeSystem/condition-category","code":"problem-list-item","display":"Problem List Item"}]}],"code":{"coding":[{"system":"http://snomed.info/sct","code":"702956004","display":"Severe cognitive impairment (finding)"}]},"subject":{"reference":"Patient/8294df8e-bae2-4acb-a0e6-4e3a56221738"},"onsetDateTime":"2026-01-01T00:00:00.000Z"},"request":{"method":"PUT","url":"Condition/526526f7-0aad-49b8-8e5e-f5b8b99ba76d"}},{"fullUrl":"https://madie.cms.gov/MeasureReport/9871c09d-307e-4cbe-a4db-22dba16d8de3","resource":{"resourceType":"MeasureReport","id":"9871c09d-307e-4cbe-a4db-22dba16d8de3","meta":{"profile":["http://hl7.org/fhir/us/cqfmeasures/StructureDefinition/test-case-cqfm"]},"contained":[{"resourceType":"Parameters","id":"ce883eec-6203-4dd8-b9a9-9b8d371ca51f-parameters","parameter":[{"name":"subject","valueString":"8294df8e-bae2-4acb-a0e6-4e3a56221738"}]}],"extension":[{"url":"http://hl7.org/fhir/StructureDefinition/cqf-inputParameters","valueReference":{"reference":"#ce883eec-6203-4dd8-b9a9-9b8d371ca51f-parameters"}},{"url":"http://hl7.org/fhir/us/cqfmeasures/StructureDefinition/cqfm-testCaseDescription","valueMarkdown":"Severe Cognitive Impairment Dx overlaps Measurement Period"}],"modifierExtension":[{"url":"http://hl7.org/fhir/us/cqfmeasures/StructureDefinition/cqfm-isTestCase","valueBoolean":true}],"status":"complete","type":"individual","measure":"https://madie.cms.gov/Measure/CMS56FHIRFunctionalStatusAssessmentforTotalHipReplacement","period":{"start":"2026-01-01","end":"2026-12-31"},"group":[{"id":"Group_1","population":[{"id":"InitialPopulation_1","code":{"coding":[{"system":"http://terminology.hl7.org/CodeSystem/measure-population","code":"initial-population","display":"Initial Population"}]},"count":1},{"id":"Denominator_1","code":{"coding":[{"system":"http://terminology.hl7.org/CodeSystem/measure-population","code":"denominator","display":"Denominator"}]},"count":1},{"id":"DenominatorExclusion_1","code":{"coding":[{"system":"http://terminology.hl7.org/CodeSystem/measure-population","code":"denominator-exclusion","display":"Denominator Exclusion"}]},"count":1},{"id":"Numerator_1","code":{"coding":[{"system":"http://terminology.hl7.org/CodeSystem/measure-population","code":"numerator","display":"Numerator"}]},"count":0}],"measureScore":{"value":1.0}}],"evaluatedResource":[{"reference":"Patient/8294df8e-bae2-4acb-a0e6-4e3a56221738"},{"reference":"Procedure/1eb45d3e-0b37-4ecf-9507-5d5bc4b0e7a0"},{"reference":"Encounter/28635125-f118-49b7-bf13-60be139d63c2"},{"reference":"Condition/526526f7-0aad-49b8-8e5e-f5b8b99ba76d"}]},"request":{"method":"PUT","url":"MeasureReport/9871c09d-307e-4cbe-a4db-22dba16d8de3"}}]},"request":{"method":"PUT","url":"Bundle/DENEXPass-DementiaOverlapsMP"}}]}