{"resourceType":"Bundle","id":"tests-3eecaeb3-c916-490f-8ff9-9da910bff2a9-bundle","type":"transaction","entry":[{"fullUrl":"Patient/3eecaeb3-c916-490f-8ff9-9da910bff2a9","resource":{"resourceType":"Patient","id":"3eecaeb3-c916-490f-8ff9-9da910bff2a9","meta":{"profile":["http://hl7.org/fhir/us/qicore/StructureDefinition/qicore-patient"]},"extension":[{"url":"http://hl7.org/fhir/us/core/StructureDefinition/us-core-race","extension":[{"url":"ombCategory","valueCoding":{"system":"urn:oid:2.16.840.1.113883.6.238","code":"2028-9","display":"Asian"}},{"url":"text","valueString":"Asian"}]},{"url":"http://hl7.org/fhir/us/core/StructureDefinition/us-core-ethnicity","extension":[{"url":"ombCategory","valueCoding":{"system":"urn:oid:2.16.840.1.113883.6.238","code":"2135-2","display":"Hispanic or Latino"}},{"url":"text","valueString":"Hispanic or Latino"}]}],"identifier":[{"system":"http://hospital.smarthealthit.org","value":"999999995"}],"name":[{"family":"Bertha","given":["Betty"]}],"gender":"female","birthDate":"2007-01-01"},"request":{"method":"PUT","url":"Patient/3eecaeb3-c916-490f-8ff9-9da910bff2a9"}},{"fullUrl":"Procedure/f71b4f16-1288-401b-8067-f0e9b6984b38","resource":{"resourceType":"Procedure","id":"f71b4f16-1288-401b-8067-f0e9b6984b38","meta":{"profile":["http://hl7.org/fhir/us/qicore/StructureDefinition/qicore-procedure"]},"extension":[{"url":"http://hl7.org/fhir/us/qicore/StructureDefinition/qicore-recorded","valueDateTime":"2024-11-01T00:00:00.000Z"}],"status":"completed","code":{"coding":[{"system":"http://www.cms.gov/Medicare/Coding/ICD10","code":"0SR9019","display":"Replacement of Right Hip Joint with Metal Synthetic Substitute, Cemented, Open Approach"}]},"subject":{"reference":"Patient/3eecaeb3-c916-490f-8ff9-9da910bff2a9"},"performedPeriod":{"start":"2024-11-01T00:00:00.000Z","end":"2024-11-01T01:00:00.000Z"}},"request":{"method":"PUT","url":"Procedure/f71b4f16-1288-401b-8067-f0e9b6984b38"}},{"fullUrl":"Observation/f3987fae-1d2e-4640-8f3a-0ebe687d1e70","resource":{"resourceType":"Observation","id":"f3987fae-1d2e-4640-8f3a-0ebe687d1e70","meta":{"profile":["http://hl7.org/fhir/us/qicore/StructureDefinition/qicore-observation-screening-assessment"]},"status":"final","category":[{"coding":[{"system":"http://terminology.hl7.org/CodeSystem/observation-category","code":"survey"}]}],"code":{"coding":[{"system":"http://loinc.org","code":"71971-6","display":"PROMIS-10 Global Physical Health (GPH) score T-score"}]},"subject":{"reference":"Patient/3eecaeb3-c916-490f-8ff9-9da910bff2a9"},"effectivePeriod":{"start":"2025-12-30T00:00:00.000Z","end":"2025-12-30T01:00:00.000Z"},"valueInteger":60},"request":{"method":"PUT","url":"Observation/f3987fae-1d2e-4640-8f3a-0ebe687d1e70"}},{"fullUrl":"Encounter/9cfd5291-1a64-4d36-a76c-06cdc16c3147","resource":{"resourceType":"Encounter","id":"9cfd5291-1a64-4d36-a76c-06cdc16c3147","meta":{"profile":["http://hl7.org/fhir/us/qicore/StructureDefinition/qicore-encounter"]},"status":"finished","class":{"system":"http://terminology.hl7.org/CodeSystem/v3-ActCode","code":"AMB","display":"ambulatory"},"type":[{"coding":[{"system":"http://snomed.info/sct","code":"281036007","display":"Follow-up consultation (procedure)"}]}],"subject":{"reference":"Patient/3eecaeb3-c916-490f-8ff9-9da910bff2a9"},"period":{"start":"2025-11-01T00:00:00.000Z","end":"2025-11-01T01:15:00.000Z"}},"request":{"method":"PUT","url":"Encounter/9cfd5291-1a64-4d36-a76c-06cdc16c3147"}},{"fullUrl":"Bundle/NUMPass-InitPROMIS90DaysB4THAFUPROMIS425DaysAfterTHA","resource":{"resourceType":"Bundle","id":"NUMPass-InitPROMIS90DaysB4THAFUPROMIS425DaysAfterTHA","type":"transaction","entry":[{"fullUrl":"https://madie.cms.gov/Patient/3eecaeb3-c916-490f-8ff9-9da910bff2a9","resource":{"resourceType":"Patient","id":"3eecaeb3-c916-490f-8ff9-9da910bff2a9","meta":{"profile":["http://hl7.org/fhir/us/qicore/StructureDefinition/qicore-patient"]},"extension":[{"url":"http://hl7.org/fhir/us/core/StructureDefinition/us-core-race","extension":[{"url":"ombCategory","valueCoding":{"system":"urn:oid:2.16.840.1.113883.6.238","code":"2028-9","display":"Asian"}},{"url":"text","valueString":"Asian"}]},{"url":"http://hl7.org/fhir/us/core/StructureDefinition/us-core-ethnicity","extension":[{"url":"ombCategory","valueCoding":{"system":"urn:oid:2.16.840.1.113883.6.238","code":"2135-2","display":"Hispanic or Latino"}},{"url":"text","valueString":"Hispanic or Latino"}]}],"identifier":[{"system":"http://hospital.smarthealthit.org","value":"999999995"}],"name":[{"family":"Bertha","given":["Betty"]}],"gender":"female","birthDate":"2007-01-01"},"request":{"method":"PUT","url":"Patient/3eecaeb3-c916-490f-8ff9-9da910bff2a9"}},{"fullUrl":"https://madie.cms.gov/Procedure/f71b4f16-1288-401b-8067-f0e9b6984b38","resource":{"resourceType":"Procedure","id":"f71b4f16-1288-401b-8067-f0e9b6984b38","meta":{"profile":["http://hl7.org/fhir/us/qicore/StructureDefinition/qicore-procedure"]},"extension":[{"url":"http://hl7.org/fhir/us/qicore/StructureDefinition/qicore-recorded","valueDateTime":"2024-11-01T00:00:00.000Z"}],"status":"completed","code":{"coding":[{"system":"http://www.cms.gov/Medicare/Coding/ICD10","code":"0SR9019","display":"Replacement of Right Hip Joint with Metal Synthetic Substitute, Cemented, Open Approach"}]},"subject":{"reference":"Patient/3eecaeb3-c916-490f-8ff9-9da910bff2a9"},"performedPeriod":{"start":"2024-11-01T00:00:00.000Z","end":"2024-11-01T01:00:00.000Z"}},"request":{"method":"PUT","url":"Procedure/f71b4f16-1288-401b-8067-f0e9b6984b38"}},{"fullUrl":"https://madie.cms.gov/Encounter/9cfd5291-1a64-4d36-a76c-06cdc16c3147","resource":{"resourceType":"Encounter","id":"9cfd5291-1a64-4d36-a76c-06cdc16c3147","meta":{"profile":["http://hl7.org/fhir/us/qicore/StructureDefinition/qicore-encounter"]},"status":"finished","class":{"system":"http://terminology.hl7.org/CodeSystem/v3-ActCode","code":"AMB","display":"ambulatory"},"type":[{"coding":[{"system":"http://snomed.info/sct","code":"281036007","display":"Follow-up consultation (procedure)"}]}],"subject":{"reference":"Patient/3eecaeb3-c916-490f-8ff9-9da910bff2a9"},"period":{"start":"2025-11-01T00:00:00.000Z","end":"2025-11-01T01:15:00.000Z"}},"request":{"method":"PUT","url":"Encounter/9cfd5291-1a64-4d36-a76c-06cdc16c3147"}},{"fullUrl":"https://madie.cms.gov/Observation/402f9004-43a5-4abd-a22d-bac50f1a1707","resource":{"resourceType":"Observation","id":"402f9004-43a5-4abd-a22d-bac50f1a1707","meta":{"profile":["http://hl7.org/fhir/us/qicore/StructureDefinition/qicore-observation-screening-assessment"]},"status":"final","category":[{"coding":[{"system":"http://terminology.hl7.org/CodeSystem/observation-category","code":"survey"}]}],"code":{"coding":[{"system":"http://loinc.org","code":"71969-0","display":"PROMIS-10 Global Mental Health (GMH) score T-score"}]},"subject":{"reference":"Patient/3eecaeb3-c916-490f-8ff9-9da910bff2a9"},"effectivePeriod":{"start":"2024-08-03T00:00:00.000Z","end":"2024-08-03T01:00:00.000Z"},"valueInteger":60},"request":{"method":"PUT","url":"Observation/402f9004-43a5-4abd-a22d-bac50f1a1707"}},{"fullUrl":"https://madie.cms.gov/Observation/c6acdd16-afba-4b4a-8f9b-5b45f352acb4","resource":{"resourceType":"Observation","id":"c6acdd16-afba-4b4a-8f9b-5b45f352acb4","meta":{"profile":["http://hl7.org/fhir/us/qicore/StructureDefinition/qicore-observation-screening-assessment"]},"status":"final","category":[{"coding":[{"system":"http://terminology.hl7.org/CodeSystem/observation-category","code":"survey"}]}],"code":{"coding":[{"system":"http://loinc.org","code":"71971-6","display":"PROMIS-10 Global Physical Health (GPH) score T-score"}]},"subject":{"reference":"Patient/3eecaeb3-c916-490f-8ff9-9da910bff2a9"},"effectivePeriod":{"start":"2024-08-03T00:00:00.000Z","end":"2024-08-03T01:00:00.000Z"},"valueInteger":60},"request":{"method":"PUT","url":"Observation/c6acdd16-afba-4b4a-8f9b-5b45f352acb4"}},{"fullUrl":"https://madie.cms.gov/Observation/a2624d90-6ca3-499d-b964-f1b434e282a6","resource":{"resourceType":"Observation","id":"a2624d90-6ca3-499d-b964-f1b434e282a6","meta":{"profile":["http://hl7.org/fhir/us/qicore/StructureDefinition/qicore-observation-screening-assessment"]},"status":"final","category":[{"coding":[{"system":"http://terminology.hl7.org/CodeSystem/observation-category","code":"survey"}]}],"code":{"coding":[{"system":"http://loinc.org","code":"71969-0","display":"PROMIS-10 Global Mental Health (GMH) score T-score"}]},"subject":{"reference":"Patient/3eecaeb3-c916-490f-8ff9-9da910bff2a9"},"effectivePeriod":{"start":"2025-12-30T00:00:00.000Z","end":"2025-12-30T01:00:00.000Z"},"valueInteger":60},"request":{"method":"PUT","url":"Observation/a2624d90-6ca3-499d-b964-f1b434e282a6"}},{"fullUrl":"https://madie.cms.gov/Observation/f3987fae-1d2e-4640-8f3a-0ebe687d1e70","resource":{"resourceType":"Observation","id":"f3987fae-1d2e-4640-8f3a-0ebe687d1e70","meta":{"profile":["http://hl7.org/fhir/us/qicore/StructureDefinition/qicore-observation-screening-assessment"]},"status":"final","category":[{"coding":[{"system":"http://terminology.hl7.org/CodeSystem/observation-category","code":"survey"}]}],"code":{"coding":[{"system":"http://loinc.org","code":"71971-6","display":"PROMIS-10 Global Physical Health (GPH) score T-score"}]},"subject":{"reference":"Patient/3eecaeb3-c916-490f-8ff9-9da910bff2a9"},"effectivePeriod":{"start":"2025-12-30T00:00:00.000Z","end":"2025-12-30T01:00:00.000Z"},"valueInteger":60},"request":{"method":"PUT","url":"Observation/f3987fae-1d2e-4640-8f3a-0ebe687d1e70"}},{"fullUrl":"https://madie.cms.gov/MeasureReport/a9c2134b-8408-4031-b95f-48419673d274","resource":{"resourceType":"MeasureReport","id":"a9c2134b-8408-4031-b95f-48419673d274","meta":{"profile":["http://hl7.org/fhir/us/cqfmeasures/StructureDefinition/test-case-cqfm"]},"contained":[{"resourceType":"Parameters","id":"ffddc7c1-73d6-4108-a4d0-aa1645f659b1-parameters","parameter":[{"name":"subject","valueString":"3eecaeb3-c916-490f-8ff9-9da910bff2a9"}]}],"extension":[{"url":"http://hl7.org/fhir/StructureDefinition/cqf-inputParameters","valueReference":{"reference":"#ffddc7c1-73d6-4108-a4d0-aa1645f659b1-parameters"}},{"url":"http://hl7.org/fhir/us/cqfmeasures/StructureDefinition/cqfm-testCaseDescription","valueMarkdown":"Patient w/ a THA Procedure 11/1, Initial Hip Assessment PROMIS10 90 days before THA Procedure(8/3), and FollowUp Hip Assessment PROMIS10 425 days after THA Procedure (12/30)"}],"modifierExtension":[{"url":"http://hl7.org/fhir/us/cqfmeasures/StructureDefinition/cqfm-isTestCase","valueBoolean":true}],"status":"complete","type":"individual","measure":"https://madie.cms.gov/Measure/CMS56FHIRFunctionalStatusAssessmentforTotalHipReplacement","period":{"start":"2026-01-01","end":"2026-12-31"},"group":[{"id":"Group_1","population":[{"id":"InitialPopulation_1","code":{"coding":[{"system":"http://terminology.hl7.org/CodeSystem/measure-population","code":"initial-population","display":"Initial Population"}]},"count":1},{"id":"Denominator_1","code":{"coding":[{"system":"http://terminology.hl7.org/CodeSystem/measure-population","code":"denominator","display":"Denominator"}]},"count":1},{"id":"DenominatorExclusion_1","code":{"coding":[{"system":"http://terminology.hl7.org/CodeSystem/measure-population","code":"denominator-exclusion","display":"Denominator Exclusion"}]},"count":0},{"id":"Numerator_1","code":{"coding":[{"system":"http://terminology.hl7.org/CodeSystem/measure-population","code":"numerator","display":"Numerator"}]},"count":1}],"measureScore":{"value":1.0}}],"evaluatedResource":[{"reference":"Patient/3eecaeb3-c916-490f-8ff9-9da910bff2a9"},{"reference":"Procedure/f71b4f16-1288-401b-8067-f0e9b6984b38"},{"reference":"Encounter/9cfd5291-1a64-4d36-a76c-06cdc16c3147"},{"reference":"Observation/402f9004-43a5-4abd-a22d-bac50f1a1707"},{"reference":"Observation/c6acdd16-afba-4b4a-8f9b-5b45f352acb4"},{"reference":"Observation/a2624d90-6ca3-499d-b964-f1b434e282a6"},{"reference":"Observation/f3987fae-1d2e-4640-8f3a-0ebe687d1e70"}]},"request":{"method":"PUT","url":"MeasureReport/a9c2134b-8408-4031-b95f-48419673d274"}}]},"request":{"method":"PUT","url":"Bundle/NUMPass-InitPROMIS90DaysB4THAFUPROMIS425DaysAfterTHA"}},{"fullUrl":"Observation/c6acdd16-afba-4b4a-8f9b-5b45f352acb4","resource":{"resourceType":"Observation","id":"c6acdd16-afba-4b4a-8f9b-5b45f352acb4","meta":{"profile":["http://hl7.org/fhir/us/qicore/StructureDefinition/qicore-observation-screening-assessment"]},"status":"final","category":[{"coding":[{"system":"http://terminology.hl7.org/CodeSystem/observation-category","code":"survey"}]}],"code":{"coding":[{"system":"http://loinc.org","code":"71971-6","display":"PROMIS-10 Global Physical Health (GPH) score T-score"}]},"subject":{"reference":"Patient/3eecaeb3-c916-490f-8ff9-9da910bff2a9"},"effectivePeriod":{"start":"2024-08-03T00:00:00.000Z","end":"2024-08-03T01:00:00.000Z"},"valueInteger":60},"request":{"method":"PUT","url":"Observation/c6acdd16-afba-4b4a-8f9b-5b45f352acb4"}},{"fullUrl":"MeasureReport/a9c2134b-8408-4031-b95f-48419673d274","resource":{"resourceType":"MeasureReport","id":"a9c2134b-8408-4031-b95f-48419673d274","meta":{"profile":["http://hl7.org/fhir/us/cqfmeasures/StructureDefinition/test-case-cqfm"]},"contained":[{"resourceType":"Parameters","id":"ffddc7c1-73d6-4108-a4d0-aa1645f659b1-parameters","parameter":[{"name":"subject","valueString":"3eecaeb3-c916-490f-8ff9-9da910bff2a9"}]}],"extension":[{"url":"http://hl7.org/fhir/StructureDefinition/cqf-inputParameters","valueReference":{"reference":"#ffddc7c1-73d6-4108-a4d0-aa1645f659b1-parameters"}},{"url":"http://hl7.org/fhir/us/cqfmeasures/StructureDefinition/cqfm-testCaseDescription","valueMarkdown":"Patient w/ a THA Procedure 11/1, Initial Hip Assessment PROMIS10 90 days before THA Procedure(8/3), and FollowUp Hip Assessment PROMIS10 425 days after THA Procedure (12/30)"}],"modifierExtension":[{"url":"http://hl7.org/fhir/us/cqfmeasures/StructureDefinition/cqfm-isTestCase","valueBoolean":true}],"status":"complete","type":"individual","measure":"https://madie.cms.gov/Measure/CMS56FHIRFunctionalStatusAssessmentforTotalHipReplacement","period":{"start":"2026-01-01","end":"2026-12-31"},"group":[{"id":"Group_1","population":[{"id":"InitialPopulation_1","code":{"coding":[{"system":"http://terminology.hl7.org/CodeSystem/measure-population","code":"initial-population","display":"Initial Population"}]},"count":1},{"id":"Denominator_1","code":{"coding":[{"system":"http://terminology.hl7.org/CodeSystem/measure-population","code":"denominator","display":"Denominator"}]},"count":1},{"id":"DenominatorExclusion_1","code":{"coding":[{"system":"http://terminology.hl7.org/CodeSystem/measure-population","code":"denominator-exclusion","display":"Denominator Exclusion"}]},"count":0},{"id":"Numerator_1","code":{"coding":[{"system":"http://terminology.hl7.org/CodeSystem/measure-population","code":"numerator","display":"Numerator"}]},"count":1}],"measureScore":{"value":1.0}}],"evaluatedResource":[{"reference":"Patient/3eecaeb3-c916-490f-8ff9-9da910bff2a9"},{"reference":"Procedure/f71b4f16-1288-401b-8067-f0e9b6984b38"},{"reference":"Encounter/9cfd5291-1a64-4d36-a76c-06cdc16c3147"},{"reference":"Observation/402f9004-43a5-4abd-a22d-bac50f1a1707"},{"reference":"Observation/c6acdd16-afba-4b4a-8f9b-5b45f352acb4"},{"reference":"Observation/a2624d90-6ca3-499d-b964-f1b434e282a6"},{"reference":"Observation/f3987fae-1d2e-4640-8f3a-0ebe687d1e70"}]},"request":{"method":"PUT","url":"MeasureReport/a9c2134b-8408-4031-b95f-48419673d274"}},{"fullUrl":"Observation/402f9004-43a5-4abd-a22d-bac50f1a1707","resource":{"resourceType":"Observation","id":"402f9004-43a5-4abd-a22d-bac50f1a1707","meta":{"profile":["http://hl7.org/fhir/us/qicore/StructureDefinition/qicore-observation-screening-assessment"]},"status":"final","category":[{"coding":[{"system":"http://terminology.hl7.org/CodeSystem/observation-category","code":"survey"}]}],"code":{"coding":[{"system":"http://loinc.org","code":"71969-0","display":"PROMIS-10 Global Mental Health (GMH) score T-score"}]},"subject":{"reference":"Patient/3eecaeb3-c916-490f-8ff9-9da910bff2a9"},"effectivePeriod":{"start":"2024-08-03T00:00:00.000Z","end":"2024-08-03T01:00:00.000Z"},"valueInteger":60},"request":{"method":"PUT","url":"Observation/402f9004-43a5-4abd-a22d-bac50f1a1707"}},{"fullUrl":"Observation/a2624d90-6ca3-499d-b964-f1b434e282a6","resource":{"resourceType":"Observation","id":"a2624d90-6ca3-499d-b964-f1b434e282a6","meta":{"profile":["http://hl7.org/fhir/us/qicore/StructureDefinition/qicore-observation-screening-assessment"]},"status":"final","category":[{"coding":[{"system":"http://terminology.hl7.org/CodeSystem/observation-category","code":"survey"}]}],"code":{"coding":[{"system":"http://loinc.org","code":"71969-0","display":"PROMIS-10 Global Mental Health (GMH) score T-score"}]},"subject":{"reference":"Patient/3eecaeb3-c916-490f-8ff9-9da910bff2a9"},"effectivePeriod":{"start":"2025-12-30T00:00:00.000Z","end":"2025-12-30T01:00:00.000Z"},"valueInteger":60},"request":{"method":"PUT","url":"Observation/a2624d90-6ca3-499d-b964-f1b434e282a6"}}]}