{"resourceType":"Bundle","id":"tests-8ecd7323-4f36-4b20-9398-76421fb59c0f-bundle","type":"transaction","entry":[{"resource":{"resourceType":"Patient","id":"8ecd7323-4f36-4b20-9398-76421fb59c0f","meta":{"profile":["http://hl7.org/fhir/us/qicore/StructureDefinition/qicore-patient"]},"extension":[{"url":"http://hl7.org/fhir/us/core/StructureDefinition/us-core-race","extension":[{"url":"ombCategory","valueCoding":{"system":"urn:oid:2.16.840.1.113883.6.238","code":"2028-9","display":"Asian"}},{"url":"text","valueString":"Asian"}]},{"url":"http://hl7.org/fhir/us/core/StructureDefinition/us-core-ethnicity","extension":[{"url":"ombCategory","valueCoding":{"system":"urn:oid:2.16.840.1.113883.6.238","code":"2135-2","display":"Hispanic or Latino"}},{"url":"text","valueString":"Hispanic or Latino"}]}],"identifier":[{"system":"http://hospital.smarthealthit.org","value":"999999995"}],"name":[{"family":"Bertha","given":["Betty"]}],"gender":"female","birthDate":"2007-01-01"},"request":{"method":"PUT","url":"Patient/8ecd7323-4f36-4b20-9398-76421fb59c0f"}},{"resource":{"resourceType":"Bundle","id":"DENEXPass-PartialTHAProcDayOfTHAProc","type":"transaction","entry":[{"fullUrl":"https://madie.cms.gov/Patient/8ecd7323-4f36-4b20-9398-76421fb59c0f","resource":{"resourceType":"Patient","id":"8ecd7323-4f36-4b20-9398-76421fb59c0f","meta":{"profile":["http://hl7.org/fhir/us/qicore/StructureDefinition/qicore-patient"]},"extension":[{"url":"http://hl7.org/fhir/us/core/StructureDefinition/us-core-race","extension":[{"url":"ombCategory","valueCoding":{"system":"urn:oid:2.16.840.1.113883.6.238","code":"2028-9","display":"Asian"}},{"url":"text","valueString":"Asian"}]},{"url":"http://hl7.org/fhir/us/core/StructureDefinition/us-core-ethnicity","extension":[{"url":"ombCategory","valueCoding":{"system":"urn:oid:2.16.840.1.113883.6.238","code":"2135-2","display":"Hispanic or Latino"}},{"url":"text","valueString":"Hispanic or Latino"}]}],"identifier":[{"system":"http://hospital.smarthealthit.org","value":"999999995"}],"name":[{"family":"Bertha","given":["Betty"]}],"gender":"female","birthDate":"2007-01-01"},"request":{"method":"PUT","url":"Patient/8ecd7323-4f36-4b20-9398-76421fb59c0f"}},{"fullUrl":"https://madie.cms.gov/Procedure/cf3c309b-305e-444f-b180-be04935dd684","resource":{"resourceType":"Procedure","id":"cf3c309b-305e-444f-b180-be04935dd684","meta":{"profile":["http://hl7.org/fhir/us/qicore/StructureDefinition/qicore-procedure"]},"extension":[{"url":"http://hl7.org/fhir/us/qicore/StructureDefinition/qicore-recorded","valueDateTime":"2024-11-01T00:00:00.000Z"}],"status":"completed","code":{"coding":[{"system":"http://www.cms.gov/Medicare/Coding/ICD10","code":"0SR9019","display":"Replacement of Right Hip Joint with Metal Synthetic Substitute, Cemented, Open Approach"}]},"subject":{"reference":"Patient/8ecd7323-4f36-4b20-9398-76421fb59c0f"},"performedPeriod":{"start":"2024-11-01T00:00:00.000Z","end":"2024-11-01T01:00:00.000Z"}},"request":{"method":"PUT","url":"Procedure/cf3c309b-305e-444f-b180-be04935dd684"}},{"fullUrl":"https://madie.cms.gov/Encounter/0b6a78aa-b861-41f9-b634-c5a6614dcd8e","resource":{"resourceType":"Encounter","id":"0b6a78aa-b861-41f9-b634-c5a6614dcd8e","meta":{"profile":["http://hl7.org/fhir/us/qicore/StructureDefinition/qicore-encounter"]},"status":"finished","class":{"system":"http://terminology.hl7.org/CodeSystem/v3-ActCode","code":"AMB","display":"ambulatory"},"type":[{"coding":[{"system":"http://snomed.info/sct","code":"281036007","display":"Follow-up consultation (procedure)"}]}],"subject":{"reference":"Patient/8ecd7323-4f36-4b20-9398-76421fb59c0f"},"period":{"start":"2025-11-01T00:00:00.000Z","end":"2025-11-01T01:15:00.000Z"}},"request":{"method":"PUT","url":"Encounter/0b6a78aa-b861-41f9-b634-c5a6614dcd8e"}},{"fullUrl":"https://madie.cms.gov/Procedure/cf3c309b-305e-444f-b180-be04935dd684.1","resource":{"resourceType":"Procedure","id":"cf3c309b-305e-444f-b180-be04935dd684.1","meta":{"profile":["http://hl7.org/fhir/us/qicore/StructureDefinition/qicore-procedure"]},"extension":[{"url":"http://hl7.org/fhir/us/qicore/StructureDefinition/qicore-recorded","valueDateTime":"2024-11-01T00:00:00.000Z"}],"status":"completed","code":{"coding":[{"system":"http://www.cms.gov/Medicare/Coding/ICD10","code":"0SRA009","display":"Replacement of Right Hip Joint, Acetabular Surface with Polyethylene Synthetic Substitute, Cemented, Open Approach"}]},"subject":{"reference":"Patient/8ecd7323-4f36-4b20-9398-76421fb59c0f"},"performedPeriod":{"start":"2024-11-01T00:00:00.000Z","end":"2024-11-01T01:00:00.000Z"}},"request":{"method":"PUT","url":"Procedure/cf3c309b-305e-444f-b180-be04935dd684.1"}},{"fullUrl":"https://madie.cms.gov/MeasureReport/0679b17d-8254-47ec-ac40-e8c255fa0faf","resource":{"resourceType":"MeasureReport","id":"0679b17d-8254-47ec-ac40-e8c255fa0faf","meta":{"profile":["http://hl7.org/fhir/us/cqfmeasures/StructureDefinition/test-case-cqfm"]},"contained":[{"resourceType":"Parameters","id":"c3d0f3de-07cb-4b94-81b4-3e2ceb131239-parameters","parameter":[{"name":"subject","valueString":"8ecd7323-4f36-4b20-9398-76421fb59c0f"}]}],"extension":[{"url":"http://hl7.org/fhir/StructureDefinition/cqf-inputParameters","valueReference":{"reference":"#c3d0f3de-07cb-4b94-81b4-3e2ceb131239-parameters"}},{"url":"http://hl7.org/fhir/us/cqfmeasures/StructureDefinition/cqfm-testCaseDescription","valueMarkdown":"Patient Has Partial Hip Arthroplasty Procedure during day of THAProcedure"}],"modifierExtension":[{"url":"http://hl7.org/fhir/us/cqfmeasures/StructureDefinition/cqfm-isTestCase","valueBoolean":true}],"status":"complete","type":"individual","measure":"https://madie.cms.gov/Measure/CMS56FHIRFunctionalStatusAssessmentforTotalHipReplacement","period":{"start":"2026-01-01","end":"2026-12-31"},"group":[{"id":"Group_1","population":[{"id":"InitialPopulation_1","code":{"coding":[{"system":"http://terminology.hl7.org/CodeSystem/measure-population","code":"initial-population","display":"Initial Population"}]},"count":1},{"id":"Denominator_1","code":{"coding":[{"system":"http://terminology.hl7.org/CodeSystem/measure-population","code":"denominator","display":"Denominator"}]},"count":1},{"id":"DenominatorExclusion_1","code":{"coding":[{"system":"http://terminology.hl7.org/CodeSystem/measure-population","code":"denominator-exclusion","display":"Denominator Exclusion"}]},"count":1},{"id":"Numerator_1","code":{"coding":[{"system":"http://terminology.hl7.org/CodeSystem/measure-population","code":"numerator","display":"Numerator"}]},"count":0}],"measureScore":{"value":1.0}}],"evaluatedResource":[{"reference":"Patient/8ecd7323-4f36-4b20-9398-76421fb59c0f"},{"reference":"Procedure/cf3c309b-305e-444f-b180-be04935dd684"},{"reference":"Encounter/0b6a78aa-b861-41f9-b634-c5a6614dcd8e"},{"reference":"Procedure/cf3c309b-305e-444f-b180-be04935dd684.1"}]},"request":{"method":"PUT","url":"MeasureReport/0679b17d-8254-47ec-ac40-e8c255fa0faf"}}]},"request":{"method":"PUT","url":"Bundle/DENEXPass-PartialTHAProcDayOfTHAProc"}},{"resource":{"resourceType":"Procedure","id":"cf3c309b-305e-444f-b180-be04935dd684","meta":{"profile":["http://hl7.org/fhir/us/qicore/StructureDefinition/qicore-procedure"]},"extension":[{"url":"http://hl7.org/fhir/us/qicore/StructureDefinition/qicore-recorded","valueDateTime":"2024-11-01T00:00:00.000Z"}],"status":"completed","code":{"coding":[{"system":"http://www.cms.gov/Medicare/Coding/ICD10","code":"0SR9019","display":"Replacement of Right Hip Joint with Metal Synthetic Substitute, Cemented, Open Approach"}]},"subject":{"reference":"Patient/8ecd7323-4f36-4b20-9398-76421fb59c0f"},"performedPeriod":{"start":"2024-11-01T00:00:00.000Z","end":"2024-11-01T01:00:00.000Z"}},"request":{"method":"PUT","url":"Procedure/cf3c309b-305e-444f-b180-be04935dd684"}},{"resource":{"resourceType":"Encounter","id":"0b6a78aa-b861-41f9-b634-c5a6614dcd8e","meta":{"profile":["http://hl7.org/fhir/us/qicore/StructureDefinition/qicore-encounter"]},"status":"finished","class":{"system":"http://terminology.hl7.org/CodeSystem/v3-ActCode","code":"AMB","display":"ambulatory"},"type":[{"coding":[{"system":"http://snomed.info/sct","code":"281036007","display":"Follow-up consultation (procedure)"}]}],"subject":{"reference":"Patient/8ecd7323-4f36-4b20-9398-76421fb59c0f"},"period":{"start":"2025-11-01T00:00:00.000Z","end":"2025-11-01T01:15:00.000Z"}},"request":{"method":"PUT","url":"Encounter/0b6a78aa-b861-41f9-b634-c5a6614dcd8e"}},{"resource":{"resourceType":"Procedure","id":"cf3c309b-305e-444f-b180-be04935dd684.1","meta":{"profile":["http://hl7.org/fhir/us/qicore/StructureDefinition/qicore-procedure"]},"extension":[{"url":"http://hl7.org/fhir/us/qicore/StructureDefinition/qicore-recorded","valueDateTime":"2024-11-01T00:00:00.000Z"}],"status":"completed","code":{"coding":[{"system":"http://www.cms.gov/Medicare/Coding/ICD10","code":"0SRA009","display":"Replacement of Right Hip Joint, Acetabular Surface with Polyethylene Synthetic Substitute, Cemented, Open Approach"}]},"subject":{"reference":"Patient/8ecd7323-4f36-4b20-9398-76421fb59c0f"},"performedPeriod":{"start":"2024-11-01T00:00:00.000Z","end":"2024-11-01T01:00:00.000Z"}},"request":{"method":"PUT","url":"Procedure/cf3c309b-305e-444f-b180-be04935dd684.1"}},{"resource":{"resourceType":"MeasureReport","id":"0679b17d-8254-47ec-ac40-e8c255fa0faf","meta":{"profile":["http://hl7.org/fhir/us/cqfmeasures/StructureDefinition/test-case-cqfm"]},"contained":[{"resourceType":"Parameters","id":"c3d0f3de-07cb-4b94-81b4-3e2ceb131239-parameters","parameter":[{"name":"subject","valueString":"8ecd7323-4f36-4b20-9398-76421fb59c0f"}]}],"extension":[{"url":"http://hl7.org/fhir/StructureDefinition/cqf-inputParameters","valueReference":{"reference":"#c3d0f3de-07cb-4b94-81b4-3e2ceb131239-parameters"}},{"url":"http://hl7.org/fhir/us/cqfmeasures/StructureDefinition/cqfm-testCaseDescription","valueMarkdown":"Patient Has Partial Hip Arthroplasty Procedure during day of THAProcedure"}],"modifierExtension":[{"url":"http://hl7.org/fhir/us/cqfmeasures/StructureDefinition/cqfm-isTestCase","valueBoolean":true}],"status":"complete","type":"individual","measure":"https://madie.cms.gov/Measure/CMS56FHIRFunctionalStatusAssessmentforTotalHipReplacement","period":{"start":"2026-01-01","end":"2026-12-31"},"group":[{"id":"Group_1","population":[{"id":"InitialPopulation_1","code":{"coding":[{"system":"http://terminology.hl7.org/CodeSystem/measure-population","code":"initial-population","display":"Initial Population"}]},"count":1},{"id":"Denominator_1","code":{"coding":[{"system":"http://terminology.hl7.org/CodeSystem/measure-population","code":"denominator","display":"Denominator"}]},"count":1},{"id":"DenominatorExclusion_1","code":{"coding":[{"system":"http://terminology.hl7.org/CodeSystem/measure-population","code":"denominator-exclusion","display":"Denominator Exclusion"}]},"count":1},{"id":"Numerator_1","code":{"coding":[{"system":"http://terminology.hl7.org/CodeSystem/measure-population","code":"numerator","display":"Numerator"}]},"count":0}],"measureScore":{"value":1.0}}],"evaluatedResource":[{"reference":"Patient/8ecd7323-4f36-4b20-9398-76421fb59c0f"},{"reference":"Procedure/cf3c309b-305e-444f-b180-be04935dd684"},{"reference":"Encounter/0b6a78aa-b861-41f9-b634-c5a6614dcd8e"},{"reference":"Procedure/cf3c309b-305e-444f-b180-be04935dd684.1"}]},"request":{"method":"PUT","url":"MeasureReport/0679b17d-8254-47ec-ac40-e8c255fa0faf"}}]}