{"resourceType":"Bundle","id":"tests-17a6abc8-6736-45ef-a53d-3be1d3609179-bundle","type":"transaction","entry":[{"resource":{"resourceType":"Patient","id":"17a6abc8-6736-45ef-a53d-3be1d3609179","meta":{"profile":["http://hl7.org/fhir/us/qicore/StructureDefinition/qicore-patient"]},"extension":[{"url":"http://hl7.org/fhir/us/core/StructureDefinition/us-core-race","extension":[{"url":"ombCategory","valueCoding":{"system":"urn:oid:2.16.840.1.113883.6.238","code":"2028-9","display":"Asian"}},{"url":"text","valueString":"Asian"}]},{"url":"http://hl7.org/fhir/us/core/StructureDefinition/us-core-ethnicity","extension":[{"url":"ombCategory","valueCoding":{"system":"urn:oid:2.16.840.1.113883.6.238","code":"2135-2","display":"Hispanic or Latino"}},{"url":"text","valueString":"Hispanic or Latino"}]}],"identifier":[{"system":"http://hospital.smarthealthit.org","value":"999999995"}],"name":[{"family":"Bertha","given":["Betty"]}],"gender":"female","birthDate":"2007-01-01"},"request":{"method":"PUT","url":"Patient/17a6abc8-6736-45ef-a53d-3be1d3609179"}},{"resource":{"resourceType":"Encounter","id":"7febc6ea-939c-4461-81f4-2cf449eabe65","meta":{"profile":["http://hl7.org/fhir/us/qicore/StructureDefinition/qicore-encounter"]},"status":"finished","class":{"system":"http://terminology.hl7.org/CodeSystem/v3-ActCode","code":"AMB","display":"ambulatory"},"type":[{"coding":[{"system":"http://snomed.info/sct","code":"281036007","display":"Follow-up consultation (procedure)"}]}],"subject":{"reference":"Patient/17a6abc8-6736-45ef-a53d-3be1d3609179"},"period":{"start":"2025-11-01T00:00:00.000Z","end":"2025-11-01T01:15:00.000Z"}},"request":{"method":"PUT","url":"Encounter/7febc6ea-939c-4461-81f4-2cf449eabe65"}},{"resource":{"resourceType":"Procedure","id":"798de447-125c-46de-add5-feda5c595d4b.1","meta":{"profile":["http://hl7.org/fhir/us/qicore/StructureDefinition/qicore-procedure"]},"extension":[{"url":"http://hl7.org/fhir/us/qicore/StructureDefinition/qicore-recorded","valueDateTime":"2024-11-01T00:00:00.000Z"}],"status":"completed","code":{"coding":[{"system":"http://www.cms.gov/Medicare/Coding/ICD10","code":"0QP604Z","display":"Removal of Internal Fixation Device from Right Upper Femur, Open Approach"}]},"subject":{"reference":"Patient/17a6abc8-6736-45ef-a53d-3be1d3609179"},"performedPeriod":{"start":"2024-11-01T00:00:00.000Z","end":"2024-11-01T01:00:00.000Z"}},"request":{"method":"PUT","url":"Procedure/798de447-125c-46de-add5-feda5c595d4b.1"}},{"resource":{"resourceType":"Bundle","id":"DENEXPass-ReviTHAProcDayOfTHAProc","type":"transaction","entry":[{"fullUrl":"https://madie.cms.gov/Patient/17a6abc8-6736-45ef-a53d-3be1d3609179","resource":{"resourceType":"Patient","id":"17a6abc8-6736-45ef-a53d-3be1d3609179","meta":{"profile":["http://hl7.org/fhir/us/qicore/StructureDefinition/qicore-patient"]},"extension":[{"url":"http://hl7.org/fhir/us/core/StructureDefinition/us-core-race","extension":[{"url":"ombCategory","valueCoding":{"system":"urn:oid:2.16.840.1.113883.6.238","code":"2028-9","display":"Asian"}},{"url":"text","valueString":"Asian"}]},{"url":"http://hl7.org/fhir/us/core/StructureDefinition/us-core-ethnicity","extension":[{"url":"ombCategory","valueCoding":{"system":"urn:oid:2.16.840.1.113883.6.238","code":"2135-2","display":"Hispanic or Latino"}},{"url":"text","valueString":"Hispanic or Latino"}]}],"identifier":[{"system":"http://hospital.smarthealthit.org","value":"999999995"}],"name":[{"family":"Bertha","given":["Betty"]}],"gender":"female","birthDate":"2007-01-01"},"request":{"method":"PUT","url":"Patient/17a6abc8-6736-45ef-a53d-3be1d3609179"}},{"fullUrl":"https://madie.cms.gov/Procedure/798de447-125c-46de-add5-feda5c595d4b","resource":{"resourceType":"Procedure","id":"798de447-125c-46de-add5-feda5c595d4b","meta":{"profile":["http://hl7.org/fhir/us/qicore/StructureDefinition/qicore-procedure"]},"extension":[{"url":"http://hl7.org/fhir/us/qicore/StructureDefinition/qicore-recorded","valueDateTime":"2024-11-01T00:00:00.000Z"}],"status":"completed","code":{"coding":[{"system":"http://www.cms.gov/Medicare/Coding/ICD10","code":"0SR9019","display":"Replacement of Right Hip Joint with Metal Synthetic Substitute, Cemented, Open Approach"}]},"subject":{"reference":"Patient/17a6abc8-6736-45ef-a53d-3be1d3609179"},"performedPeriod":{"start":"2024-11-01T00:00:00.000Z","end":"2024-11-01T01:00:00.000Z"}},"request":{"method":"PUT","url":"Procedure/798de447-125c-46de-add5-feda5c595d4b"}},{"fullUrl":"https://madie.cms.gov/Encounter/7febc6ea-939c-4461-81f4-2cf449eabe65","resource":{"resourceType":"Encounter","id":"7febc6ea-939c-4461-81f4-2cf449eabe65","meta":{"profile":["http://hl7.org/fhir/us/qicore/StructureDefinition/qicore-encounter"]},"status":"finished","class":{"system":"http://terminology.hl7.org/CodeSystem/v3-ActCode","code":"AMB","display":"ambulatory"},"type":[{"coding":[{"system":"http://snomed.info/sct","code":"281036007","display":"Follow-up consultation (procedure)"}]}],"subject":{"reference":"Patient/17a6abc8-6736-45ef-a53d-3be1d3609179"},"period":{"start":"2025-11-01T00:00:00.000Z","end":"2025-11-01T01:15:00.000Z"}},"request":{"method":"PUT","url":"Encounter/7febc6ea-939c-4461-81f4-2cf449eabe65"}},{"fullUrl":"https://madie.cms.gov/Procedure/798de447-125c-46de-add5-feda5c595d4b.1","resource":{"resourceType":"Procedure","id":"798de447-125c-46de-add5-feda5c595d4b.1","meta":{"profile":["http://hl7.org/fhir/us/qicore/StructureDefinition/qicore-procedure"]},"extension":[{"url":"http://hl7.org/fhir/us/qicore/StructureDefinition/qicore-recorded","valueDateTime":"2024-11-01T00:00:00.000Z"}],"status":"completed","code":{"coding":[{"system":"http://www.cms.gov/Medicare/Coding/ICD10","code":"0QP604Z","display":"Removal of Internal Fixation Device from Right Upper Femur, Open Approach"}]},"subject":{"reference":"Patient/17a6abc8-6736-45ef-a53d-3be1d3609179"},"performedPeriod":{"start":"2024-11-01T00:00:00.000Z","end":"2024-11-01T01:00:00.000Z"}},"request":{"method":"PUT","url":"Procedure/798de447-125c-46de-add5-feda5c595d4b.1"}},{"fullUrl":"https://madie.cms.gov/MeasureReport/4ec22263-49da-4aa5-962b-6c9466afda80","resource":{"resourceType":"MeasureReport","id":"4ec22263-49da-4aa5-962b-6c9466afda80","meta":{"profile":["http://hl7.org/fhir/us/cqfmeasures/StructureDefinition/test-case-cqfm"]},"contained":[{"resourceType":"Parameters","id":"8166df8b-e345-4797-b936-3b8c136b61ef-parameters","parameter":[{"name":"subject","valueString":"17a6abc8-6736-45ef-a53d-3be1d3609179"}]}],"extension":[{"url":"http://hl7.org/fhir/StructureDefinition/cqf-inputParameters","valueReference":{"reference":"#8166df8b-e345-4797-b936-3b8c136b61ef-parameters"}},{"url":"http://hl7.org/fhir/us/cqfmeasures/StructureDefinition/cqfm-testCaseDescription","valueMarkdown":"Patient Has Revision THAProcedure during day of THAProcedure"}],"modifierExtension":[{"url":"http://hl7.org/fhir/us/cqfmeasures/StructureDefinition/cqfm-isTestCase","valueBoolean":true}],"status":"complete","type":"individual","measure":"https://madie.cms.gov/Measure/CMS56FHIRFunctionalStatusAssessmentforTotalHipReplacement","period":{"start":"2026-01-01","end":"2026-12-31"},"group":[{"id":"Group_1","population":[{"id":"InitialPopulation_1","code":{"coding":[{"system":"http://terminology.hl7.org/CodeSystem/measure-population","code":"initial-population","display":"Initial Population"}]},"count":1},{"id":"Denominator_1","code":{"coding":[{"system":"http://terminology.hl7.org/CodeSystem/measure-population","code":"denominator","display":"Denominator"}]},"count":1},{"id":"DenominatorExclusion_1","code":{"coding":[{"system":"http://terminology.hl7.org/CodeSystem/measure-population","code":"denominator-exclusion","display":"Denominator Exclusion"}]},"count":1},{"id":"Numerator_1","code":{"coding":[{"system":"http://terminology.hl7.org/CodeSystem/measure-population","code":"numerator","display":"Numerator"}]},"count":0}],"measureScore":{"value":1.0}}],"evaluatedResource":[{"reference":"Patient/17a6abc8-6736-45ef-a53d-3be1d3609179"},{"reference":"Procedure/798de447-125c-46de-add5-feda5c595d4b"},{"reference":"Encounter/7febc6ea-939c-4461-81f4-2cf449eabe65"},{"reference":"Procedure/798de447-125c-46de-add5-feda5c595d4b.1"}]},"request":{"method":"PUT","url":"MeasureReport/4ec22263-49da-4aa5-962b-6c9466afda80"}}]},"request":{"method":"PUT","url":"Bundle/DENEXPass-ReviTHAProcDayOfTHAProc"}},{"resource":{"resourceType":"MeasureReport","id":"4ec22263-49da-4aa5-962b-6c9466afda80","meta":{"profile":["http://hl7.org/fhir/us/cqfmeasures/StructureDefinition/test-case-cqfm"]},"contained":[{"resourceType":"Parameters","id":"8166df8b-e345-4797-b936-3b8c136b61ef-parameters","parameter":[{"name":"subject","valueString":"17a6abc8-6736-45ef-a53d-3be1d3609179"}]}],"extension":[{"url":"http://hl7.org/fhir/StructureDefinition/cqf-inputParameters","valueReference":{"reference":"#8166df8b-e345-4797-b936-3b8c136b61ef-parameters"}},{"url":"http://hl7.org/fhir/us/cqfmeasures/StructureDefinition/cqfm-testCaseDescription","valueMarkdown":"Patient Has Revision THAProcedure during day of THAProcedure"}],"modifierExtension":[{"url":"http://hl7.org/fhir/us/cqfmeasures/StructureDefinition/cqfm-isTestCase","valueBoolean":true}],"status":"complete","type":"individual","measure":"https://madie.cms.gov/Measure/CMS56FHIRFunctionalStatusAssessmentforTotalHipReplacement","period":{"start":"2026-01-01","end":"2026-12-31"},"group":[{"id":"Group_1","population":[{"id":"InitialPopulation_1","code":{"coding":[{"system":"http://terminology.hl7.org/CodeSystem/measure-population","code":"initial-population","display":"Initial Population"}]},"count":1},{"id":"Denominator_1","code":{"coding":[{"system":"http://terminology.hl7.org/CodeSystem/measure-population","code":"denominator","display":"Denominator"}]},"count":1},{"id":"DenominatorExclusion_1","code":{"coding":[{"system":"http://terminology.hl7.org/CodeSystem/measure-population","code":"denominator-exclusion","display":"Denominator Exclusion"}]},"count":1},{"id":"Numerator_1","code":{"coding":[{"system":"http://terminology.hl7.org/CodeSystem/measure-population","code":"numerator","display":"Numerator"}]},"count":0}],"measureScore":{"value":1.0}}],"evaluatedResource":[{"reference":"Patient/17a6abc8-6736-45ef-a53d-3be1d3609179"},{"reference":"Procedure/798de447-125c-46de-add5-feda5c595d4b"},{"reference":"Encounter/7febc6ea-939c-4461-81f4-2cf449eabe65"},{"reference":"Procedure/798de447-125c-46de-add5-feda5c595d4b.1"}]},"request":{"method":"PUT","url":"MeasureReport/4ec22263-49da-4aa5-962b-6c9466afda80"}},{"resource":{"resourceType":"Procedure","id":"798de447-125c-46de-add5-feda5c595d4b","meta":{"profile":["http://hl7.org/fhir/us/qicore/StructureDefinition/qicore-procedure"]},"extension":[{"url":"http://hl7.org/fhir/us/qicore/StructureDefinition/qicore-recorded","valueDateTime":"2024-11-01T00:00:00.000Z"}],"status":"completed","code":{"coding":[{"system":"http://www.cms.gov/Medicare/Coding/ICD10","code":"0SR9019","display":"Replacement of Right Hip Joint with Metal Synthetic Substitute, Cemented, Open Approach"}]},"subject":{"reference":"Patient/17a6abc8-6736-45ef-a53d-3be1d3609179"},"performedPeriod":{"start":"2024-11-01T00:00:00.000Z","end":"2024-11-01T01:00:00.000Z"}},"request":{"method":"PUT","url":"Procedure/798de447-125c-46de-add5-feda5c595d4b"}}]}