{"resourceType":"Bundle","id":"tests-e9681d3b-760d-4235-9bd8-7cd684c5f261-bundle","type":"transaction","entry":[{"resource":{"resourceType":"Bundle","id":"DENEXPass-Death300DaysAfterTHAProcOct31","type":"transaction","entry":[{"fullUrl":"https://madie.cms.gov/Patient/e9681d3b-760d-4235-9bd8-7cd684c5f261","resource":{"resourceType":"Patient","id":"e9681d3b-760d-4235-9bd8-7cd684c5f261","meta":{"profile":["http://hl7.org/fhir/us/qicore/StructureDefinition/qicore-patient"]},"extension":[{"url":"http://hl7.org/fhir/us/core/StructureDefinition/us-core-race","extension":[{"url":"ombCategory","valueCoding":{"system":"urn:oid:2.16.840.1.113883.6.238","code":"2028-9","display":"Asian"}},{"url":"text","valueString":"Asian"}]},{"url":"http://hl7.org/fhir/us/core/StructureDefinition/us-core-ethnicity","extension":[{"url":"ombCategory","valueCoding":{"system":"urn:oid:2.16.840.1.113883.6.238","code":"2135-2","display":"Hispanic or Latino"}},{"url":"text","valueString":"Hispanic or Latino"}]}],"identifier":[{"system":"http://hospital.smarthealthit.org","value":"999999995"}],"name":[{"family":"Bertha","given":["Betty"]}],"gender":"female","birthDate":"2007-01-01","deceasedDateTime":"2026-08-27T00:00:00.000Z"},"request":{"method":"PUT","url":"Patient/e9681d3b-760d-4235-9bd8-7cd684c5f261"}},{"fullUrl":"https://madie.cms.gov/Procedure/5bd7bdfe-8e3e-4883-a6d1-33172386e325","resource":{"resourceType":"Procedure","id":"5bd7bdfe-8e3e-4883-a6d1-33172386e325","meta":{"profile":["http://hl7.org/fhir/us/qicore/StructureDefinition/qicore-procedure"]},"extension":[{"url":"http://hl7.org/fhir/us/qicore/StructureDefinition/qicore-recorded","valueDateTime":"2025-10-31T00:00:00.000Z"}],"status":"completed","code":{"coding":[{"system":"http://www.cms.gov/Medicare/Coding/ICD10","code":"0SR9019","display":"Replacement of Right Hip Joint with Metal Synthetic Substitute, Cemented, Open Approach"}]},"subject":{"reference":"Patient/e9681d3b-760d-4235-9bd8-7cd684c5f261"},"performedPeriod":{"start":"2025-10-31T00:00:00.000Z","end":"2025-10-31T01:00:00.000Z"}},"request":{"method":"PUT","url":"Procedure/5bd7bdfe-8e3e-4883-a6d1-33172386e325"}},{"fullUrl":"https://madie.cms.gov/Encounter/30dc5ac0-156f-4d18-9ea6-4adcccf07245","resource":{"resourceType":"Encounter","id":"30dc5ac0-156f-4d18-9ea6-4adcccf07245","meta":{"profile":["http://hl7.org/fhir/us/qicore/StructureDefinition/qicore-encounter"]},"status":"finished","class":{"system":"http://terminology.hl7.org/CodeSystem/v3-ActCode","code":"AMB","display":"ambulatory"},"type":[{"coding":[{"system":"http://www.ama-assn.org/go/cpt","code":"99024","display":"Postoperative follow-up visit, normally included in the surgical package, to indicate that an evaluation and management service was performed during a postoperative period for a reason(s) related to the original procedure"}]}],"subject":{"reference":"Patient/e9681d3b-760d-4235-9bd8-7cd684c5f261"},"period":{"start":"2026-12-31T00:00:00.000Z","end":"2026-12-31T01:15:00.000Z"}},"request":{"method":"PUT","url":"Encounter/30dc5ac0-156f-4d18-9ea6-4adcccf07245"}},{"fullUrl":"https://madie.cms.gov/MeasureReport/14af3fda-9be4-4eb2-a2e5-6269a55f72f9","resource":{"resourceType":"MeasureReport","id":"14af3fda-9be4-4eb2-a2e5-6269a55f72f9","meta":{"profile":["http://hl7.org/fhir/us/cqfmeasures/StructureDefinition/test-case-cqfm"]},"contained":[{"resourceType":"Parameters","id":"e6eaa048-0d7c-4995-90c9-117a8d531eb6-parameters","parameter":[{"name":"subject","valueString":"e9681d3b-760d-4235-9bd8-7cd684c5f261"}]}],"extension":[{"url":"http://hl7.org/fhir/StructureDefinition/cqf-inputParameters","valueReference":{"reference":"#e6eaa048-0d7c-4995-90c9-117a8d531eb6-parameters"}},{"url":"http://hl7.org/fhir/us/cqfmeasures/StructureDefinition/cqfm-testCaseDescription","valueMarkdown":"Patient deceased 300 days after THAProcedure on 10/31."}],"modifierExtension":[{"url":"http://hl7.org/fhir/us/cqfmeasures/StructureDefinition/cqfm-isTestCase","valueBoolean":true}],"status":"complete","type":"individual","measure":"https://madie.cms.gov/Measure/CMS56FHIRFunctionalStatusAssessmentforTotalHipReplacement","period":{"start":"2026-01-01","end":"2026-12-31"},"group":[{"id":"Group_1","population":[{"id":"InitialPopulation_1","code":{"coding":[{"system":"http://terminology.hl7.org/CodeSystem/measure-population","code":"initial-population","display":"Initial Population"}]},"count":1},{"id":"Denominator_1","code":{"coding":[{"system":"http://terminology.hl7.org/CodeSystem/measure-population","code":"denominator","display":"Denominator"}]},"count":1},{"id":"DenominatorExclusion_1","code":{"coding":[{"system":"http://terminology.hl7.org/CodeSystem/measure-population","code":"denominator-exclusion","display":"Denominator Exclusion"}]},"count":1},{"id":"Numerator_1","code":{"coding":[{"system":"http://terminology.hl7.org/CodeSystem/measure-population","code":"numerator","display":"Numerator"}]},"count":0}],"measureScore":{"value":1}}],"evaluatedResource":[{"reference":"Patient/e9681d3b-760d-4235-9bd8-7cd684c5f261"},{"reference":"Procedure/5bd7bdfe-8e3e-4883-a6d1-33172386e325"},{"reference":"Encounter/30dc5ac0-156f-4d18-9ea6-4adcccf07245"}]},"request":{"method":"PUT","url":"MeasureReport/14af3fda-9be4-4eb2-a2e5-6269a55f72f9"}}]},"request":{"method":"PUT","url":"Bundle/DENEXPass-Death300DaysAfterTHAProcOct31"}},{"resource":{"resourceType":"Encounter","id":"30dc5ac0-156f-4d18-9ea6-4adcccf07245","meta":{"profile":["http://hl7.org/fhir/us/qicore/StructureDefinition/qicore-encounter"]},"status":"finished","class":{"system":"http://terminology.hl7.org/CodeSystem/v3-ActCode","code":"AMB","display":"ambulatory"},"type":[{"coding":[{"system":"http://www.ama-assn.org/go/cpt","code":"99024","display":"Postoperative follow-up visit, normally included in the surgical package, to indicate that an evaluation and management service was performed during a postoperative period for a reason(s) related to the original procedure"}]}],"subject":{"reference":"Patient/e9681d3b-760d-4235-9bd8-7cd684c5f261"},"period":{"start":"2026-12-31T00:00:00.000Z","end":"2026-12-31T01:15:00.000Z"}},"request":{"method":"PUT","url":"Encounter/30dc5ac0-156f-4d18-9ea6-4adcccf07245"}},{"resource":{"resourceType":"MeasureReport","id":"14af3fda-9be4-4eb2-a2e5-6269a55f72f9","meta":{"profile":["http://hl7.org/fhir/us/cqfmeasures/StructureDefinition/test-case-cqfm"]},"contained":[{"resourceType":"Parameters","id":"e6eaa048-0d7c-4995-90c9-117a8d531eb6-parameters","parameter":[{"name":"subject","valueString":"e9681d3b-760d-4235-9bd8-7cd684c5f261"}]}],"extension":[{"url":"http://hl7.org/fhir/StructureDefinition/cqf-inputParameters","valueReference":{"reference":"#e6eaa048-0d7c-4995-90c9-117a8d531eb6-parameters"}},{"url":"http://hl7.org/fhir/us/cqfmeasures/StructureDefinition/cqfm-testCaseDescription","valueMarkdown":"Patient deceased 300 days after THAProcedure on 10/31."}],"modifierExtension":[{"url":"http://hl7.org/fhir/us/cqfmeasures/StructureDefinition/cqfm-isTestCase","valueBoolean":true}],"status":"complete","type":"individual","measure":"https://madie.cms.gov/Measure/CMS56FHIRFunctionalStatusAssessmentforTotalHipReplacement","period":{"start":"2026-01-01","end":"2026-12-31"},"group":[{"id":"Group_1","population":[{"id":"InitialPopulation_1","code":{"coding":[{"system":"http://terminology.hl7.org/CodeSystem/measure-population","code":"initial-population","display":"Initial Population"}]},"count":1},{"id":"Denominator_1","code":{"coding":[{"system":"http://terminology.hl7.org/CodeSystem/measure-population","code":"denominator","display":"Denominator"}]},"count":1},{"id":"DenominatorExclusion_1","code":{"coding":[{"system":"http://terminology.hl7.org/CodeSystem/measure-population","code":"denominator-exclusion","display":"Denominator Exclusion"}]},"count":1},{"id":"Numerator_1","code":{"coding":[{"system":"http://terminology.hl7.org/CodeSystem/measure-population","code":"numerator","display":"Numerator"}]},"count":0}],"measureScore":{"value":1}}],"evaluatedResource":[{"reference":"Patient/e9681d3b-760d-4235-9bd8-7cd684c5f261"},{"reference":"Procedure/5bd7bdfe-8e3e-4883-a6d1-33172386e325"},{"reference":"Encounter/30dc5ac0-156f-4d18-9ea6-4adcccf07245"}]},"request":{"method":"PUT","url":"MeasureReport/14af3fda-9be4-4eb2-a2e5-6269a55f72f9"}},{"resource":{"resourceType":"Patient","id":"e9681d3b-760d-4235-9bd8-7cd684c5f261","meta":{"profile":["http://hl7.org/fhir/us/qicore/StructureDefinition/qicore-patient"]},"extension":[{"url":"http://hl7.org/fhir/us/core/StructureDefinition/us-core-race","extension":[{"url":"ombCategory","valueCoding":{"system":"urn:oid:2.16.840.1.113883.6.238","code":"2028-9","display":"Asian"}},{"url":"text","valueString":"Asian"}]},{"url":"http://hl7.org/fhir/us/core/StructureDefinition/us-core-ethnicity","extension":[{"url":"ombCategory","valueCoding":{"system":"urn:oid:2.16.840.1.113883.6.238","code":"2135-2","display":"Hispanic or Latino"}},{"url":"text","valueString":"Hispanic or Latino"}]}],"identifier":[{"system":"http://hospital.smarthealthit.org","value":"999999995"}],"name":[{"family":"Bertha","given":["Betty"]}],"gender":"female","birthDate":"2007-01-01","deceasedDateTime":"2026-08-27T00:00:00.000Z"},"request":{"method":"PUT","url":"Patient/e9681d3b-760d-4235-9bd8-7cd684c5f261"}},{"resource":{"resourceType":"Procedure","id":"5bd7bdfe-8e3e-4883-a6d1-33172386e325","meta":{"profile":["http://hl7.org/fhir/us/qicore/StructureDefinition/qicore-procedure"]},"extension":[{"url":"http://hl7.org/fhir/us/qicore/StructureDefinition/qicore-recorded","valueDateTime":"2025-10-31T00:00:00.000Z"}],"status":"completed","code":{"coding":[{"system":"http://www.cms.gov/Medicare/Coding/ICD10","code":"0SR9019","display":"Replacement of Right Hip Joint with Metal Synthetic Substitute, Cemented, Open Approach"}]},"subject":{"reference":"Patient/e9681d3b-760d-4235-9bd8-7cd684c5f261"},"performedPeriod":{"start":"2025-10-31T00:00:00.000Z","end":"2025-10-31T01:00:00.000Z"}},"request":{"method":"PUT","url":"Procedure/5bd7bdfe-8e3e-4883-a6d1-33172386e325"}}]}