{
  "resourceType": "Bundle",
  "id": "OBSERVPass-DenomMeasObsPassDueTo1DayAnd1MinLOS",
  "type": "transaction",
  "entry": [ {
    "fullUrl": "https://madie.cms.gov/Encounter/fa095582-2386-4cd0-af3a-6068152c8587",
    "resource": {
      "resourceType": "Encounter",
      "id": "fa095582-2386-4cd0-af3a-6068152c8587",
      "meta": {
        "profile": [ "http://hl7.org/fhir/us/qicore/StructureDefinition/qicore-encounter" ]
      },
      "status": "finished",
      "class": {
        "system": "http://terminology.hl7.org/CodeSystem/v3-ActCode",
        "code": "IMP",
        "display": "inpatient encounter"
      },
      "type": [ {
        "coding": [ {
          "system": "http://snomed.info/sct",
          "code": "183452005"
        } ]
      } ],
      "subject": {
        "reference": "Patient/3ee27450-2fd5-4930-bfbb-e718074e4087"
      },
      "period": {
        "start": "2026-11-12T08:00:00.000+00:00",
        "end": "2026-11-13T08:01:00.000+00:00"
      }
    },
    "request": {
      "method": "PUT",
      "url": "Encounter/fa095582-2386-4cd0-af3a-6068152c8587"
    }
  }, {
    "fullUrl": "https://madie.cms.gov/Patient/3ee27450-2fd5-4930-bfbb-e718074e4087",
    "resource": {
      "resourceType": "Patient",
      "id": "3ee27450-2fd5-4930-bfbb-e718074e4087",
      "meta": {
        "profile": [ "http://hl7.org/fhir/us/qicore/StructureDefinition/qicore-patient" ]
      },
      "extension": [ {
        "url": "http://hl7.org/fhir/us/core/StructureDefinition/us-core-race",
        "extension": [ {
          "url": "ombCategory",
          "valueCoding": {
            "system": "urn:oid:2.16.840.1.113883.6.238",
            "code": "2054-5",
            "display": "Black or African American",
            "userSelected": true
          }
        }, {
          "url": "text",
          "valueString": "Black or African American"
        } ]
      }, {
        "url": "http://hl7.org/fhir/us/core/StructureDefinition/us-core-ethnicity",
        "extension": [ {
          "url": "ombCategory",
          "valueCoding": {
            "system": "urn:oid:2.16.840.1.113883.6.238",
            "code": "2186-5",
            "display": "Not Hispanic or Latino",
            "userSelected": true
          }
        }, {
          "url": "text",
          "valueString": "Not Hispanic or Latino"
        } ]
      } ],
      "identifier": [ {
        "type": {
          "coding": [ {
            "system": "http://terminology.hl7.org/CodeSystem/v2-0203",
            "code": "MR"
          } ]
        },
        "system": "https://bonnie-fhir.healthit.gov/",
        "value": "61152a3b98086b7a79cbd7c1"
      } ],
      "active": true,
      "name": [ {
        "use": "usual",
        "family": "OBSERVPass",
        "given": [ "DenomMeasObsPassDueTo1DayAnd1MinLOS" ]
      } ],
      "gender": "male",
      "birthDate": "1964-12-11"
    },
    "request": {
      "method": "PUT",
      "url": "Patient/3ee27450-2fd5-4930-bfbb-e718074e4087"
    }
  }, {
    "fullUrl": "https://madie.cms.gov/MeasureReport/2ccb7203-920d-4406-80d9-e8f093ab4f26",
    "resource": {
      "resourceType": "MeasureReport",
      "id": "2ccb7203-920d-4406-80d9-e8f093ab4f26",
      "meta": {
        "profile": [ "http://hl7.org/fhir/us/cqfmeasures/StructureDefinition/test-case-cqfm" ]
      },
      "contained": [ {
        "resourceType": "Parameters",
        "id": "1bcbde41-a81b-4caa-a512-914ec7b43cce-parameters",
        "parameter": [ {
          "name": "subject",
          "valueString": "3ee27450-2fd5-4930-bfbb-e718074e4087"
        } ]
      } ],
      "extension": [ {
        "url": "http://hl7.org/fhir/StructureDefinition/cqf-inputParameters",
        "valueReference": {
          "reference": "#1bcbde41-a81b-4caa-a512-914ec7b43cce-parameters"
        }
      }, {
        "url": "http://hl7.org/fhir/us/cqfmeasures/StructureDefinition/cqfm-testCaseDescription",
        "valueMarkdown": "Encounter with LOS 24 hours + 1 minute. \nDenom MO count = 1. As expected."
      } ],
      "modifierExtension": [ {
        "url": "http://hl7.org/fhir/us/cqfmeasures/StructureDefinition/cqfm-isTestCase",
        "valueBoolean": true
      } ],
      "status": "complete",
      "type": "individual",
      "measure": "https://madie.cms.gov/Measure/CMS1017FHIRHHFI",
      "period": {
        "start": "2026-01-01",
        "end": "2026-12-31"
      },
      "group": [ {
        "id": "Group_1",
        "population": [ {
          "id": "InitialPopulation_1",
          "code": {
            "coding": [ {
              "system": "http://terminology.hl7.org/CodeSystem/measure-population",
              "code": "initial-population",
              "display": "Initial Population"
            } ]
          },
          "count": 1
        }, {
          "id": "Denominator_1",
          "code": {
            "coding": [ {
              "system": "http://terminology.hl7.org/CodeSystem/measure-population",
              "code": "denominator",
              "display": "Denominator"
            } ]
          },
          "count": 1
        }, {
          "id": "DenominatorExclusion_1",
          "code": {
            "coding": [ {
              "system": "http://terminology.hl7.org/CodeSystem/measure-population",
              "code": "denominator-exclusion",
              "display": "Denominator Exclusion"
            } ]
          },
          "count": 0
        }, {
          "id": "Numerator_1",
          "code": {
            "coding": [ {
              "system": "http://terminology.hl7.org/CodeSystem/measure-population",
              "code": "numerator",
              "display": "Numerator"
            } ]
          },
          "count": 0
        }, {
          "id": "NumeratorExclusion_1",
          "code": {
            "coding": [ {
              "system": "http://terminology.hl7.org/CodeSystem/measure-population",
              "code": "numerator-exclusion",
              "display": "Numerator Exclusion"
            } ]
          },
          "count": 0
        }, {
          "id": "MeasureObservation_1_1_1",
          "code": {
            "coding": [ {
              "system": "http://terminology.hl7.org/CodeSystem/measure-population",
              "code": "measure-observation",
              "display": "Measure Observation"
            } ]
          },
          "count": 1
        } ],
        "measureScore": {
          "value": 0.0
        }
      } ],
      "evaluatedResource": [ {
        "reference": "Encounter/fa095582-2386-4cd0-af3a-6068152c8587"
      }, {
        "reference": "Patient/3ee27450-2fd5-4930-bfbb-e718074e4087"
      } ]
    },
    "request": {
      "method": "PUT",
      "url": "MeasureReport/2ccb7203-920d-4406-80d9-e8f093ab4f26"
    }
  } ]
}