{
  "resourceType": "Bundle",
  "id": "41643131",
  "type": "transaction",
  "entry": [ {
    "fullUrl": "https://madie.cms.gov/Patient/9be591a0-517b-4be2-b652-a29be0c75c15",
    "resource": {
      "resourceType": "Patient",
      "id": "9be591a0-517b-4be2-b652-a29be0c75c15",
      "meta": {
        "profile": [ "http://hl7.org/fhir/us/qicore/StructureDefinition/qicore-patient" ]
      },
      "extension": [ {
        "url": "http://hl7.org/fhir/us/core/StructureDefinition/us-core-race",
        "extension": [ {
          "url": "ombCategory",
          "valueCoding": {
            "system": "urn:oid:2.16.840.1.113883.6.238",
            "code": "2106-3",
            "display": "White"
          }
        }, {
          "url": "text",
          "valueString": "White"
        } ]
      }, {
        "url": "http://hl7.org/fhir/us/core/StructureDefinition/us-core-ethnicity",
        "extension": [ {
          "url": "ombCategory",
          "valueCoding": {
            "system": "urn:oid:2.16.840.1.113883.6.238",
            "code": "2186-5",
            "display": "Non-Hispanic or Latino"
          }
        }, {
          "url": "text",
          "valueString": "Non-Hispanic or Latino"
        } ]
      } ],
      "identifier": [ {
        "type": {
          "coding": [ {
            "system": "http://terminology.hl7.org/CodeSystem/v2-0203",
            "code": "MR"
          } ]
        },
        "system": "https://bonnie-fhir.healthit.gov/",
        "value": "3153213131"
      } ],
      "active": true,
      "name": [ {
        "use": "usual",
        "family": "NUMERPass",
        "given": [ "1stUSS1moAfterBPHDx" ]
      } ],
      "gender": "male",
      "birthDate": "1950-12-25"
    },
    "request": {
      "method": "PUT",
      "url": "Patient/9be591a0-517b-4be2-b652-a29be0c75c15"
    }
  }, {
    "fullUrl": "https://madie.cms.gov/Observation/b0956780-eece-40fa-a2c1-7371d9c350d9",
    "resource": {
      "resourceType": "Observation",
      "id": "b0956780-eece-40fa-a2c1-7371d9c350d9",
      "meta": {
        "profile": [ "http://hl7.org/fhir/us/qicore/StructureDefinition/qicore-observation-screening-assessment" ]
      },
      "status": "final",
      "category": [ {
        "coding": [ {
          "system": "http://terminology.hl7.org/CodeSystem/observation-category",
          "code": "survey",
          "display": "Survey"
        } ]
      } ],
      "code": {
        "coding": [ {
          "system": "http://loinc.org",
          "version": "2.76",
          "code": "80976-4"
        } ]
      },
      "subject": {
        "reference": "Patient/9be591a0-517b-4be2-b652-a29be0c75c15"
      },
      "effectivePeriod": {
        "start": "2026-07-01T08:00:00.000+00:00"
      },
      "valueInteger": 3
    },
    "request": {
      "method": "PUT",
      "url": "Observation/b0956780-eece-40fa-a2c1-7371d9c350d9"
    }
  }, {
    "fullUrl": "https://madie.cms.gov/Observation/6e592feb-b673-4b81-857c-e4fdb565a1fd",
    "resource": {
      "resourceType": "Observation",
      "id": "6e592feb-b673-4b81-857c-e4fdb565a1fd",
      "meta": {
        "profile": [ "http://hl7.org/fhir/us/qicore/StructureDefinition/qicore-observation-screening-assessment" ]
      },
      "status": "final",
      "category": [ {
        "coding": [ {
          "system": "http://terminology.hl7.org/CodeSystem/observation-category",
          "code": "survey",
          "display": "Survey"
        } ]
      } ],
      "code": {
        "coding": [ {
          "system": "http://loinc.org",
          "version": "2.76",
          "code": "80976-4"
        } ]
      },
      "subject": {
        "reference": "Patient/9be591a0-517b-4be2-b652-a29be0c75c15"
      },
      "effectivePeriod": {
        "start": "2026-01-31T08:00:00.000+00:00"
      },
      "valueInteger": 6
    },
    "request": {
      "method": "PUT",
      "url": "Observation/6e592feb-b673-4b81-857c-e4fdb565a1fd"
    }
  }, {
    "fullUrl": "https://madie.cms.gov/Condition/0ecc89d8-da46-4bc0-a620-942807c21db9",
    "resource": {
      "resourceType": "Condition",
      "id": "0ecc89d8-da46-4bc0-a620-942807c21db9",
      "meta": {
        "profile": [ "http://hl7.org/fhir/us/qicore/StructureDefinition/qicore-condition-problems-health-concerns" ]
      },
      "clinicalStatus": {
        "coding": [ {
          "system": "http://terminology.hl7.org/CodeSystem/condition-clinical",
          "code": "active",
          "display": "active"
        } ]
      },
      "verificationStatus": {
        "coding": [ {
          "system": "http://terminology.hl7.org/CodeSystem/condition-ver-status",
          "code": "confirmed",
          "display": "Confirmed"
        } ]
      },
      "category": [ {
        "coding": [ {
          "system": "http://terminology.hl7.org/CodeSystem/condition-category",
          "code": "problem-list-item",
          "display": "Problem List Item"
        } ]
      } ],
      "code": {
        "coding": [ {
          "system": "http://hl7.org/fhir/sid/icd-10-cm",
          "version": "2024",
          "code": "N40.1"
        } ]
      },
      "subject": {
        "reference": "Patient/9be591a0-517b-4be2-b652-a29be0c75c15"
      },
      "onsetPeriod": {
        "start": "2025-12-31T08:00:00.000+00:00"
      }
    },
    "request": {
      "method": "PUT",
      "url": "Condition/0ecc89d8-da46-4bc0-a620-942807c21db9"
    }
  }, {
    "fullUrl": "https://madie.cms.gov/Encounter/d799ea5e-b46b-4a51-a082-0abb99022a32",
    "resource": {
      "resourceType": "Encounter",
      "id": "d799ea5e-b46b-4a51-a082-0abb99022a32",
      "meta": {
        "profile": [ "http://hl7.org/fhir/us/qicore/StructureDefinition/qicore-encounter" ]
      },
      "status": "finished",
      "class": {
        "system": "http://terminology.hl7.org/CodeSystem/v3-ActCode",
        "code": "AMB",
        "display": "ambulatory"
      },
      "type": [ {
        "coding": [ {
          "system": "http://www.ama-assn.org/go/cpt",
          "version": "2024",
          "code": "99203"
        } ]
      } ],
      "subject": {
        "reference": "Patient/9be591a0-517b-4be2-b652-a29be0c75c15"
      },
      "period": {
        "start": "2026-01-01T08:00:00+00:00",
        "end": "2026-01-01T08:15:00+00:00"
      }
    },
    "request": {
      "method": "PUT",
      "url": "Encounter/d799ea5e-b46b-4a51-a082-0abb99022a32"
    }
  }, {
    "fullUrl": "https://madie.cms.gov/MeasureReport/5ee2a88d-4d6b-442e-9a32-d9ab1a25c126",
    "resource": {
      "resourceType": "MeasureReport",
      "id": "5ee2a88d-4d6b-442e-9a32-d9ab1a25c126",
      "meta": {
        "profile": [ "http://hl7.org/fhir/us/cqfmeasures/StructureDefinition/test-case-cqfm" ]
      },
      "contained": [ {
        "resourceType": "Parameters",
        "id": "d63112aa-4d5d-4a8e-9195-bf02cc038531-parameters",
        "parameter": [ {
          "name": "subject",
          "valueString": "9be591a0-517b-4be2-b652-a29be0c75c15"
        } ]
      } ],
      "extension": [ {
        "url": "http://hl7.org/fhir/StructureDefinition/cqf-inputParameters",
        "valueReference": {
          "reference": "#d63112aa-4d5d-4a8e-9195-bf02cc038531-parameters"
        }
      }, {
        "url": "http://hl7.org/fhir/us/cqfmeasures/StructureDefinition/cqfm-testCaseDescription",
        "valueMarkdown": "Male Patient with OV and BPH Dx and first USS occuring 1 month after BPH Diagnosis"
      } ],
      "modifierExtension": [ {
        "url": "http://hl7.org/fhir/us/cqfmeasures/StructureDefinition/cqfm-isTestCase",
        "valueBoolean": true
      } ],
      "status": "complete",
      "type": "individual",
      "measure": "https://madie.cms.gov/Measure/CMS771FHIRUrinarySymptomScoreChangeBenignProstaticHyperplasia",
      "period": {
        "start": "2026-01-01",
        "end": "2026-12-31"
      },
      "group": [ {
        "id": "Group_1",
        "population": [ {
          "id": "InitialPopulation_1",
          "code": {
            "coding": [ {
              "system": "http://terminology.hl7.org/CodeSystem/measure-population",
              "code": "initial-population",
              "display": "Initial Population"
            } ]
          },
          "count": 1
        }, {
          "id": "Denominator_1",
          "code": {
            "coding": [ {
              "system": "http://terminology.hl7.org/CodeSystem/measure-population",
              "code": "denominator",
              "display": "Denominator"
            } ]
          },
          "count": 1
        }, {
          "id": "DenominatorExclusion_1",
          "code": {
            "coding": [ {
              "system": "http://terminology.hl7.org/CodeSystem/measure-population",
              "code": "denominator-exclusion",
              "display": "Denominator Exclusion"
            } ]
          },
          "count": 0
        }, {
          "id": "Numerator_1",
          "code": {
            "coding": [ {
              "system": "http://terminology.hl7.org/CodeSystem/measure-population",
              "code": "numerator",
              "display": "Numerator"
            } ]
          },
          "count": 1
        } ],
        "measureScore": {
          "value": 1.0
        }
      } ],
      "evaluatedResource": [ {
        "reference": "Patient/9be591a0-517b-4be2-b652-a29be0c75c15"
      }, {
        "reference": "Observation/b0956780-eece-40fa-a2c1-7371d9c350d9"
      }, {
        "reference": "Observation/6e592feb-b673-4b81-857c-e4fdb565a1fd"
      }, {
        "reference": "Condition/0ecc89d8-da46-4bc0-a620-942807c21db9"
      }, {
        "reference": "Encounter/d799ea5e-b46b-4a51-a082-0abb99022a32"
      } ]
    },
    "request": {
      "method": "PUT",
      "url": "MeasureReport/5ee2a88d-4d6b-442e-9a32-d9ab1a25c126"
    }
  } ]
}