{
  "resourceType": "Bundle",
  "id": "6109658e98086b538055b9db",
  "type": "transaction",
  "entry": [ {
    "fullUrl": "https://madie.cms.gov/Patient/37d4f1ee-3f65-4f68-ac6c-685cc093eaf1",
    "resource": {
      "resourceType": "Patient",
      "id": "37d4f1ee-3f65-4f68-ac6c-685cc093eaf1",
      "meta": {
        "profile": [ "http://hl7.org/fhir/us/qicore/StructureDefinition/qicore-patient" ]
      },
      "extension": [ {
        "url": "http://hl7.org/fhir/us/core/StructureDefinition/us-core-race",
        "extension": [ {
          "url": "ombCategory",
          "valueCoding": {
            "system": "urn:oid:2.16.840.1.113883.6.238",
            "code": "1002-5",
            "display": "American Indian or Alaska Native",
            "userSelected": true
          }
        }, {
          "url": "text",
          "valueString": "American Indian or Alaska Native"
        } ]
      }, {
        "url": "http://hl7.org/fhir/us/core/StructureDefinition/us-core-ethnicity",
        "extension": [ {
          "url": "ombCategory",
          "valueCoding": {
            "system": "urn:oid:2.16.840.1.113883.6.238",
            "code": "2186-5",
            "display": "Not Hispanic or Latino",
            "userSelected": true
          }
        }, {
          "url": "text",
          "valueString": "Not Hispanic or Latino"
        } ]
      }, {
        "url": "http://hl7.org/fhir/us/core/StructureDefinition/us-core-sex",
        "valueCode": "248152002"
      } ],
      "identifier": [ {
        "type": {
          "coding": [ {
            "system": "http://terminology.hl7.org/CodeSystem/v2-0203",
            "code": "MR"
          } ]
        },
        "system": "https://bonnie-fhir.healthit.gov/",
        "value": "6109658e98086b538055b9db"
      } ],
      "active": true,
      "name": [ {
        "use": "usual",
        "family": "DENEXCEPFail",
        "given": [ "NotPerformed4MedReasonGTEncEdge" ]
      } ],
      "gender": "female",
      "birthDate": "1958-08-16"
    },
    "request": {
      "method": "PUT",
      "url": "Patient/37d4f1ee-3f65-4f68-ac6c-685cc093eaf1"
    }
  }, {
    "fullUrl": "https://madie.cms.gov/Condition/dea21e17-c1d7-4fca-a483-2136f4bb5d68",
    "resource": {
      "resourceType": "Condition",
      "id": "dea21e17-c1d7-4fca-a483-2136f4bb5d68",
      "meta": {
        "profile": [ "http://hl7.org/fhir/us/qicore/StructureDefinition/qicore-condition-problems-health-concerns" ]
      },
      "clinicalStatus": {
        "coding": [ {
          "system": "http://terminology.hl7.org/CodeSystem/condition-clinical",
          "code": "active",
          "display": "active",
          "userSelected": true
        } ]
      },
      "category": [ {
        "coding": [ {
          "system": "http://terminology.hl7.org/CodeSystem/condition-category",
          "code": "encounter-diagnosis",
          "display": "Encounter Diagnosis",
          "userSelected": true
        } ]
      } ],
      "code": {
        "coding": [ {
          "system": "http://hl7.org/fhir/sid/icd-10-cm",
          "version": "2023",
          "code": "H40.10X0"
        } ]
      },
      "subject": {
        "reference": "Patient/37d4f1ee-3f65-4f68-ac6c-685cc093eaf1"
      },
      "onsetDateTime": "2014-08-27T13:00:00+00:00"
    },
    "request": {
      "method": "PUT",
      "url": "Condition/dea21e17-c1d7-4fca-a483-2136f4bb5d68"
    }
  }, {
    "fullUrl": "https://madie.cms.gov/Observation/d6d3b818-c516-4e8c-b449-82b05a4ebdef",
    "resource": {
      "resourceType": "Observation",
      "id": "d6d3b818-c516-4e8c-b449-82b05a4ebdef",
      "meta": {
        "profile": [ "http://hl7.org/fhir/us/qicore/StructureDefinition/qicore-observation-clinical-result" ]
      },
      "status": "final",
      "category": [ {
        "coding": [ {
          "system": "http://terminology.hl7.org/CodeSystem/observation-category",
          "code": "laboratory",
          "display": "Laboratory",
          "userSelected": true
        } ]
      } ],
      "code": {
        "coding": [ {
          "system": "http://loinc.org",
          "version": "2.73",
          "code": "71487-3"
        } ]
      },
      "subject": {
        "reference": "Patient/37d4f1ee-3f65-4f68-ac6c-685cc093eaf1"
      },
      "effectivePeriod": {
        "start": "2026-08-27T13:00:00.000+00:00",
        "end": "2026-08-27T13:15:00.000+00:00"
      },
      "valueString": "Documented, progressive thinning of the neuroretinal rim with an associated increase in cupping of the optic disc"
    },
    "request": {
      "method": "PUT",
      "url": "Observation/d6d3b818-c516-4e8c-b449-82b05a4ebdef"
    }
  }, {
    "fullUrl": "https://madie.cms.gov/Observation/089cead4-7903-483d-b2f8-673f386042ad",
    "resource": {
      "resourceType": "Observation",
      "id": "089cead4-7903-483d-b2f8-673f386042ad",
      "meta": {
        "profile": [ "http://hl7.org/fhir/us/qicore/StructureDefinition/qicore-observationcancelled" ]
      },
      "extension": [ {
        "url": "http://hl7.org/fhir/us/qicore/StructureDefinition/qicore-notDoneReason",
        "valueCodeableConcept": {
          "coding": [ {
            "system": "http://snomed.info/sct",
            "version": "http://snomed.info/sct/731000124108/version/202303",
            "code": "410536001",
            "display": "Contraindicated (qualifier value)"
          } ]
        }
      } ],
      "status": "cancelled",
      "category": [ {
        "coding": [ {
          "system": "http://snomed.info/sct",
          "version": "http://snomed.info/sct/731000124108/version/202303",
          "code": "428119001",
          "display": "Procedure not indicated (situation)",
          "userSelected": true
        } ]
      } ],
      "code": {
        "coding": [ {
          "system": "http://loinc.org",
          "version": "2.73",
          "code": "71487-3",
          "display": "Right eye Optic disc or retinal nerve fiber layer structural abnormalities by Ophthalmoscopy"
        } ]
      },
      "subject": {
        "reference": "Patient/37d4f1ee-3f65-4f68-ac6c-685cc093eaf1"
      },
      "effectiveDateTime": "2026-08-27T13:00:00.000+00:00",
      "issued": "2026-08-28T14:15:00.000+00:00"
    },
    "request": {
      "method": "PUT",
      "url": "Observation/089cead4-7903-483d-b2f8-673f386042ad"
    }
  }, {
    "fullUrl": "https://madie.cms.gov/Encounter/9ec5d7e1-1efd-4c6d-881e-416a06c939c0",
    "resource": {
      "resourceType": "Encounter",
      "id": "9ec5d7e1-1efd-4c6d-881e-416a06c939c0",
      "meta": {
        "profile": [ "http://hl7.org/fhir/us/qicore/StructureDefinition/qicore-encounter" ]
      },
      "status": "finished",
      "class": {
        "system": "http://terminology.hl7.org/CodeSystem/v3-ActCode",
        "code": "AMB",
        "display": "ambulatory",
        "userSelected": true
      },
      "type": [ {
        "coding": [ {
          "system": "http://www.ama-assn.org/go/cpt",
          "code": "92002"
        } ]
      } ],
      "subject": {
        "reference": "Patient/37d4f1ee-3f65-4f68-ac6c-685cc093eaf1"
      },
      "period": {
        "start": "2026-08-27T12:40:00.000+00:00",
        "end": "2026-08-27T13:40:00.000+00:00"
      },
      "length": {
        "value": 0,
        "unit": "days"
      }
    },
    "request": {
      "method": "PUT",
      "url": "Encounter/9ec5d7e1-1efd-4c6d-881e-416a06c939c0"
    }
  }, {
    "fullUrl": "https://madie.cms.gov/MeasureReport/885a6d49-fed6-4756-9176-95c4597d7001",
    "resource": {
      "resourceType": "MeasureReport",
      "id": "885a6d49-fed6-4756-9176-95c4597d7001",
      "meta": {
        "profile": [ "http://hl7.org/fhir/us/cqfmeasures/StructureDefinition/test-case-cqfm" ]
      },
      "contained": [ {
        "resourceType": "Parameters",
        "id": "f3023a1a-1ce7-4268-a894-5b66ee7dab78-parameters",
        "parameter": [ {
          "name": "subject",
          "valueString": "37d4f1ee-3f65-4f68-ac6c-685cc093eaf1"
        } ]
      } ],
      "extension": [ {
        "url": "http://hl7.org/fhir/StructureDefinition/cqf-inputParameters",
        "valueReference": {
          "reference": "#f3023a1a-1ce7-4268-a894-5b66ee7dab78-parameters"
        }
      }, {
        "url": "http://hl7.org/fhir/us/cqfmeasures/StructureDefinition/cqfm-testCaseDescription",
        "valueMarkdown": "Optic Disc Exam Not Performed for Medical Reason is issued outside of Encounter Period disqualifying for denominator exception"
      } ],
      "modifierExtension": [ {
        "url": "http://hl7.org/fhir/us/cqfmeasures/StructureDefinition/cqfm-isTestCase",
        "valueBoolean": true
      } ],
      "status": "complete",
      "type": "individual",
      "measure": "https://madie.cms.gov/Measure/CMS143FHIRPOAGOpticNerveEvaluation",
      "period": {
        "start": "2026-01-01",
        "end": "2026-12-31"
      },
      "group": [ {
        "id": "Group_1",
        "population": [ {
          "id": "InitialPopulation_1",
          "code": {
            "coding": [ {
              "system": "http://terminology.hl7.org/CodeSystem/measure-population",
              "code": "initial-population",
              "display": "Initial Population"
            } ]
          },
          "count": 1
        }, {
          "id": "Denominator_1",
          "code": {
            "coding": [ {
              "system": "http://terminology.hl7.org/CodeSystem/measure-population",
              "code": "denominator",
              "display": "Denominator"
            } ]
          },
          "count": 1
        }, {
          "id": "Numerator_1",
          "code": {
            "coding": [ {
              "system": "http://terminology.hl7.org/CodeSystem/measure-population",
              "code": "numerator",
              "display": "Numerator"
            } ]
          },
          "count": 0
        }, {
          "id": "DenominatorException_1",
          "code": {
            "coding": [ {
              "system": "http://terminology.hl7.org/CodeSystem/measure-population",
              "code": "denominator-exception",
              "display": "Denominator Exception"
            } ]
          },
          "count": 0
        } ],
        "measureScore": {
          "value": 1.0
        }
      } ],
      "evaluatedResource": [ {
        "reference": "Patient/37d4f1ee-3f65-4f68-ac6c-685cc093eaf1"
      }, {
        "reference": "Condition/dea21e17-c1d7-4fca-a483-2136f4bb5d68"
      }, {
        "reference": "Observation/d6d3b818-c516-4e8c-b449-82b05a4ebdef"
      }, {
        "reference": "Observation/089cead4-7903-483d-b2f8-673f386042ad"
      }, {
        "reference": "Encounter/9ec5d7e1-1efd-4c6d-881e-416a06c939c0"
      } ]
    },
    "request": {
      "method": "PUT",
      "url": "MeasureReport/885a6d49-fed6-4756-9176-95c4597d7001"
    }
  } ]
}