{
  "resourceType": "Bundle",
  "id": "6109658e98086b538055b9e4",
  "type": "transaction",
  "entry": [ {
    "fullUrl": "https://madie.cms.gov/Patient/999429c0-38b9-4932-9f33-3c03a111eefa",
    "resource": {
      "resourceType": "Patient",
      "id": "999429c0-38b9-4932-9f33-3c03a111eefa",
      "meta": {
        "profile": [ "http://hl7.org/fhir/us/qicore/StructureDefinition/qicore-patient" ]
      },
      "extension": [ {
        "url": "http://hl7.org/fhir/us/core/StructureDefinition/us-core-race",
        "extension": [ {
          "url": "ombCategory",
          "valueCoding": {
            "system": "urn:oid:2.16.840.1.113883.6.238",
            "code": "2054-5",
            "display": "Black or African American",
            "userSelected": true
          }
        }, {
          "url": "text",
          "valueString": "Black or African American"
        } ]
      }, {
        "url": "http://hl7.org/fhir/us/core/StructureDefinition/us-core-ethnicity",
        "extension": [ {
          "url": "ombCategory",
          "valueCoding": {
            "system": "urn:oid:2.16.840.1.113883.6.238",
            "code": "2186-5",
            "display": "Not Hispanic or Latino",
            "userSelected": true
          }
        }, {
          "url": "text",
          "valueString": "Not Hispanic or Latino"
        } ]
      } ],
      "identifier": [ {
        "type": {
          "coding": [ {
            "system": "http://terminology.hl7.org/CodeSystem/v2-0203",
            "code": "MR"
          } ]
        },
        "system": "https://GoodHealthCare.healthit.gov/",
        "value": "6109658e98086b538055b9e4"
      } ],
      "active": true,
      "name": [ {
        "use": "usual",
        "family": "IPPFail",
        "given": [ "EncAfterfMPEdge" ]
      } ],
      "gender": "female",
      "birthDate": "1989-11-30"
    },
    "request": {
      "method": "PUT",
      "url": "Patient/999429c0-38b9-4932-9f33-3c03a111eefa"
    }
  }, {
    "fullUrl": "https://madie.cms.gov/Encounter/c8135fea-5148-4af6-a622-b300cc49b020",
    "resource": {
      "resourceType": "Encounter",
      "id": "c8135fea-5148-4af6-a622-b300cc49b020",
      "meta": {
        "profile": [ "http://hl7.org/fhir/us/qicore/StructureDefinition/qicore-encounter" ]
      },
      "status": "finished",
      "class": {
        "system": "http://terminology.hl7.org/CodeSystem/v3-ActCode",
        "code": "AMB",
        "display": "ambulatory",
        "userSelected": true
      },
      "type": [ {
        "coding": [ {
          "system": "http://www.ama-assn.org/go/cpt",
          "version": "2023",
          "code": "99315",
          "display": "Nursing facility discharge management; 30 minutes or less total time on the date of the encounter",
          "userSelected": true
        } ]
      } ],
      "subject": {
        "reference": "Patient/999429c0-38b9-4932-9f33-3c03a111eefa"
      },
      "period": {
        "start": "2026-12-31T23:45:00.000+00:00",
        "end": "2027-01-01T00:00:00.000+00:00"
      }
    },
    "request": {
      "method": "PUT",
      "url": "Encounter/c8135fea-5148-4af6-a622-b300cc49b020"
    }
  }, {
    "fullUrl": "https://madie.cms.gov/Condition/7afdf64e-fee8-40a2-83a3-e7d766fe5dcb",
    "resource": {
      "resourceType": "Condition",
      "id": "7afdf64e-fee8-40a2-83a3-e7d766fe5dcb",
      "meta": {
        "profile": [ "http://hl7.org/fhir/us/qicore/StructureDefinition/qicore-condition-problems-health-concerns" ]
      },
      "clinicalStatus": {
        "coding": [ {
          "system": "http://terminology.hl7.org/CodeSystem/condition-clinical",
          "code": "active",
          "display": "active",
          "userSelected": true
        } ]
      },
      "category": [ {
        "coding": [ {
          "system": "http://terminology.hl7.org/CodeSystem/condition-category",
          "code": "problem-list-item",
          "display": "problem-list-item",
          "userSelected": true
        } ]
      } ],
      "code": {
        "coding": [ {
          "system": "http://hl7.org/fhir/sid/icd-10-cm",
          "version": "2023",
          "code": "H40.10X0"
        } ]
      },
      "subject": {
        "reference": "Patient/999429c0-38b9-4932-9f33-3c03a111eefa"
      },
      "onsetDateTime": "2025-09-14T08:00:00.000+00:00"
    },
    "request": {
      "method": "PUT",
      "url": "Condition/7afdf64e-fee8-40a2-83a3-e7d766fe5dcb"
    }
  }, {
    "fullUrl": "https://madie.cms.gov/MeasureReport/93f4b995-70b0-40c9-b351-b084ada53c76",
    "resource": {
      "resourceType": "MeasureReport",
      "id": "93f4b995-70b0-40c9-b351-b084ada53c76",
      "meta": {
        "profile": [ "http://hl7.org/fhir/us/cqfmeasures/StructureDefinition/test-case-cqfm" ]
      },
      "contained": [ {
        "resourceType": "Parameters",
        "id": "56af9708-2516-403f-9a09-816a68d3ba24-parameters",
        "parameter": [ {
          "name": "subject",
          "valueString": "999429c0-38b9-4932-9f33-3c03a111eefa"
        } ]
      } ],
      "extension": [ {
        "url": "http://hl7.org/fhir/StructureDefinition/cqf-inputParameters",
        "valueReference": {
          "reference": "#56af9708-2516-403f-9a09-816a68d3ba24-parameters"
        }
      }, {
        "url": "http://hl7.org/fhir/us/cqfmeasures/StructureDefinition/cqfm-testCaseDescription",
        "valueMarkdown": "POAG Encounter ends 1 minute after Measurement Period Edge."
      } ],
      "modifierExtension": [ {
        "url": "http://hl7.org/fhir/us/cqfmeasures/StructureDefinition/cqfm-isTestCase",
        "valueBoolean": true
      } ],
      "status": "complete",
      "type": "individual",
      "measure": "https://madie.cms.gov/Measure/CMS143FHIRPOAGOpticNerveEvaluation",
      "period": {
        "start": "2026-01-01",
        "end": "2026-12-31"
      },
      "group": [ {
        "id": "Group_1",
        "population": [ {
          "id": "InitialPopulation_1",
          "code": {
            "coding": [ {
              "system": "http://terminology.hl7.org/CodeSystem/measure-population",
              "code": "initial-population",
              "display": "Initial Population"
            } ]
          },
          "count": 0
        }, {
          "id": "Denominator_1",
          "code": {
            "coding": [ {
              "system": "http://terminology.hl7.org/CodeSystem/measure-population",
              "code": "denominator",
              "display": "Denominator"
            } ]
          },
          "count": 0
        }, {
          "id": "Numerator_1",
          "code": {
            "coding": [ {
              "system": "http://terminology.hl7.org/CodeSystem/measure-population",
              "code": "numerator",
              "display": "Numerator"
            } ]
          },
          "count": 0
        }, {
          "id": "DenominatorException_1",
          "code": {
            "coding": [ {
              "system": "http://terminology.hl7.org/CodeSystem/measure-population",
              "code": "denominator-exception",
              "display": "Denominator Exception"
            } ]
          },
          "count": 0
        } ],
        "measureScore": {
          "value": 1.0
        }
      } ],
      "evaluatedResource": [ {
        "reference": "Patient/999429c0-38b9-4932-9f33-3c03a111eefa"
      }, {
        "reference": "Encounter/c8135fea-5148-4af6-a622-b300cc49b020"
      }, {
        "reference": "Condition/7afdf64e-fee8-40a2-83a3-e7d766fe5dcb"
      } ]
    },
    "request": {
      "method": "PUT",
      "url": "MeasureReport/93f4b995-70b0-40c9-b351-b084ada53c76"
    }
  } ]
}