{"resourceType":"Bundle","id":"tests-10cec7db-41ae-49ad-b883-022f19d92a8b-bundle","type":"transaction","entry":[{"fullUrl":"Patient/10cec7db-41ae-49ad-b883-022f19d92a8b","resource":{"resourceType":"Patient","id":"10cec7db-41ae-49ad-b883-022f19d92a8b","meta":{"profile":["http://hl7.org/fhir/us/qicore/StructureDefinition/qicore-patient"]},"extension":[{"url":"http://hl7.org/fhir/us/core/StructureDefinition/us-core-race","extension":[{"url":"ombCategory","valueCoding":{"system":"urn:oid:2.16.840.1.113883.6.238","code":"1002-5","display":"American Indian or Alaska Native"}},{"url":"text","valueString":"American Indian or Alaska Native"}]},{"url":"http://hl7.org/fhir/us/core/StructureDefinition/us-core-ethnicity","extension":[{"url":"ombCategory","valueCoding":{"system":"urn:oid:2.16.840.1.113883.6.238","code":"2135-2","display":"Hispanic or Latino"}},{"url":"text","valueString":"Hispanic or Latino"}]}],"identifier":[{"type":{"coding":[{"system":"http://terminology.hl7.org/CodeSystem/v2-0203","code":"MR"}]},"system":"https://bonnie-fhir.healthit.gov/","value":"62bc69333e113102f8cedca6"}],"name":[{"family":"DENEXFail","given":["CystectomyOnDayOfStagingEdge"]}],"gender":"female","birthDate":"1947-02-01"},"request":{"method":"PUT","url":"Patient/10cec7db-41ae-49ad-b883-022f19d92a8b"}},{"fullUrl":"Bundle/62bc69333e113102f8cedca6","resource":{"resourceType":"Bundle","id":"62bc69333e113102f8cedca6","type":"transaction","entry":[{"fullUrl":"https://madie.cms.gov/Patient/10cec7db-41ae-49ad-b883-022f19d92a8b","resource":{"resourceType":"Patient","id":"10cec7db-41ae-49ad-b883-022f19d92a8b","meta":{"profile":["http://hl7.org/fhir/us/qicore/StructureDefinition/qicore-patient"]},"extension":[{"url":"http://hl7.org/fhir/us/core/StructureDefinition/us-core-race","extension":[{"url":"ombCategory","valueCoding":{"system":"urn:oid:2.16.840.1.113883.6.238","code":"1002-5","display":"American Indian or Alaska Native"}},{"url":"text","valueString":"American Indian or Alaska Native"}]},{"url":"http://hl7.org/fhir/us/core/StructureDefinition/us-core-ethnicity","extension":[{"url":"ombCategory","valueCoding":{"system":"urn:oid:2.16.840.1.113883.6.238","code":"2135-2","display":"Hispanic or Latino"}},{"url":"text","valueString":"Hispanic or Latino"}]}],"identifier":[{"type":{"coding":[{"system":"http://terminology.hl7.org/CodeSystem/v2-0203","code":"MR"}]},"system":"https://bonnie-fhir.healthit.gov/","value":"62bc69333e113102f8cedca6"}],"name":[{"family":"DENEXFail","given":["CystectomyOnDayOfStagingEdge"]}],"gender":"female","birthDate":"1947-02-01"},"request":{"method":"PUT","url":"Patient/10cec7db-41ae-49ad-b883-022f19d92a8b"}},{"fullUrl":"https://madie.cms.gov/Encounter/8c2f402a-9ca7-4c99-8c2e-e2a9236609a9","resource":{"resourceType":"Encounter","id":"8c2f402a-9ca7-4c99-8c2e-e2a9236609a9","meta":{"profile":["http://hl7.org/fhir/us/qicore/StructureDefinition/qicore-encounter"]},"status":"finished","class":{"system":"http://terminology.hl7.org/CodeSystem/v3-ActCode","code":"AMB","display":"ambulatory"},"type":[{"coding":[{"system":"http://snomed.info/sct","version":"http://snomed.info/sct/731000124108/version/20240301","code":"185463005","display":"Visit out of hours (procedure)"}]}],"subject":{"reference":"Patient/10cec7db-41ae-49ad-b883-022f19d92a8b"},"period":{"start":"2026-12-30T08:00:00.000+00:00","end":"2026-12-30T09:15:00.000+00:00"}},"request":{"method":"PUT","url":"Encounter/8c2f402a-9ca7-4c99-8c2e-e2a9236609a9"}},{"fullUrl":"https://madie.cms.gov/Procedure/16d132a4-2f0a-4a5b-960d-5dc9476ec60f","resource":{"resourceType":"Procedure","id":"16d132a4-2f0a-4a5b-960d-5dc9476ec60f","meta":{"profile":["http://hl7.org/fhir/us/qicore/StructureDefinition/qicore-procedure"]},"extension":[{"url":"http://hl7.org/fhir/us/qicore/StructureDefinition/qicore-recorded","valueDateTime":"2026-06-30T08:00:00.000+00:00"}],"status":"completed","code":{"coding":[{"system":"http://www.ama-assn.org/go/cpt","version":"2024","code":"51585","display":"Cystectomy Done","userSelected":true}]},"subject":{"reference":"Patient/10cec7db-41ae-49ad-b883-022f19d92a8b"},"performedPeriod":{"start":"2026-06-30T08:00:00.000+00:00","end":"2026-06-30T08:15:00.000+00:00"}},"request":{"method":"PUT","url":"Procedure/16d132a4-2f0a-4a5b-960d-5dc9476ec60f"}},{"fullUrl":"https://madie.cms.gov/Condition/b1eb5c58-7d71-4050-936b-d7e50ac62f45","resource":{"resourceType":"Condition","id":"b1eb5c58-7d71-4050-936b-d7e50ac62f45","meta":{"profile":["http://hl7.org/fhir/us/qicore/StructureDefinition/qicore-condition-problems-health-concerns"]},"clinicalStatus":{"coding":[{"system":"http://terminology.hl7.org/CodeSystem/condition-clinical","code":"active","display":"Active"}]},"verificationStatus":{"coding":[{"system":"http://terminology.hl7.org/CodeSystem/condition-ver-status","code":"confirmed","display":"Confirmed"}]},"category":[{"coding":[{"system":"http://terminology.hl7.org/CodeSystem/condition-category","code":"problem-list-item","display":"Problem List Item"}]}],"code":{"coding":[{"system":"http://hl7.org/fhir/sid/icd-10-cm","version":"2024","code":"C67.3","display":"Malignant neoplasm of anterior wall of bladder"}]},"subject":{"reference":"Patient/10cec7db-41ae-49ad-b883-022f19d92a8b"},"onsetDateTime":"2026-06-30T08:00:00.000+00:00"},"request":{"method":"PUT","url":"Condition/b1eb5c58-7d71-4050-936b-d7e50ac62f45"}},{"fullUrl":"https://madie.cms.gov/Observation/fc00e817-e32b-4b06-9cc4-2be9797adfaf","resource":{"resourceType":"Observation","id":"fc00e817-e32b-4b06-9cc4-2be9797adfaf","meta":{"profile":["http://hl7.org/fhir/us/qicore/StructureDefinition/qicore-observation-lab"]},"partOf":[{"reference":"Procedure/16d132a4-2f0a-4a5b-960d-5dc9476ec60f"}],"status":"final","category":[{"coding":[{"system":"http://terminology.hl7.org/CodeSystem/observation-category","code":"procedure","display":"Procedure"}]}],"code":{"coding":[{"system":"http://loinc.org","version":"2.76","code":"21902-2","display":"Stage group.pathology Cancer"}]},"subject":{"reference":"Patient/10cec7db-41ae-49ad-b883-022f19d92a8b"},"effectivePeriod":{"start":"2026-06-30T08:00:00.000+00:00","end":"2026-06-30T08:15:00.000+00:00"},"issued":"2026-06-30T08:15:00.000+00:00","valueCodeableConcept":{"coding":[{"system":"http://snomed.info/sct","version":"http://snomed.info/sct/731000124108/version/20240301","code":"1228883000","display":"American Joint Committee on Cancer cTa (qualifier value)"}]}},"request":{"method":"PUT","url":"Observation/fc00e817-e32b-4b06-9cc4-2be9797adfaf"}},{"fullUrl":"https://madie.cms.gov/Practitioner/4e74d61a-716c-4943-9f83-7bd322ec4d23","resource":{"resourceType":"Practitioner","id":"4e74d61a-716c-4943-9f83-7bd322ec4d23","meta":{"profile":["http://hl7.org/fhir/us/qicore/StructureDefinition/qicore-practitioner"]},"identifier":[{"use":"temp","system":"urn:oid:2.16.840.1.113883.4.336","value":"Practitioner-23"}],"active":true,"name":[{"family":"Careful","given":["Adam"],"prefix":["Dr"]}],"address":[{"use":"home","line":["534 Erewhon St"],"city":"PleasantVille","state":"UT","postalCode":"84414"}],"qualification":[{"identifier":[{"system":"http://example.org/UniversityIdentifier","value":"12345"}],"code":{"coding":[{"system":"http://terminology.hl7.org/CodeSystem/v2-0360|2.7","code":"BS","display":"Bachelor of Science"}],"text":"Bachelor of Science"},"period":{"start":"1996"},"issuer":{"display":"Example University"}}]},"request":{"method":"PUT","url":"Practitioner/4e74d61a-716c-4943-9f83-7bd322ec4d23"}},{"fullUrl":"https://madie.cms.gov/Procedure/7f82a393-9b77-4366-a3d0-7c6b63692aae","resource":{"resourceType":"Procedure","id":"7f82a393-9b77-4366-a3d0-7c6b63692aae","meta":{"profile":["http://hl7.org/fhir/us/qicore/StructureDefinition/qicore-procedure"]},"extension":[{"url":"http://hl7.org/fhir/us/qicore/StructureDefinition/qicore-recorded","valueDateTime":"2026-06-30T08:00:00.000+00:00"}],"status":"completed","code":{"coding":[{"system":"http://snomed.info/sct","version":"http://snomed.info/sct/731000124108/version/20240301","code":"254292007","display":"Tumor staging","userSelected":true}]},"subject":{"reference":"Patient/10cec7db-41ae-49ad-b883-022f19d92a8b"},"performedPeriod":{"start":"2026-06-30T08:00:00.000+00:00","end":"2026-06-30T08:15:00.000+00:00"}},"request":{"method":"PUT","url":"Procedure/7f82a393-9b77-4366-a3d0-7c6b63692aae"}},{"fullUrl":"https://madie.cms.gov/MeasureReport/c57c3c8e-1dc0-4c73-825c-6e4bc4b87594","resource":{"resourceType":"MeasureReport","id":"c57c3c8e-1dc0-4c73-825c-6e4bc4b87594","meta":{"profile":["http://hl7.org/fhir/us/cqfmeasures/StructureDefinition/test-case-cqfm"]},"contained":[{"resourceType":"Parameters","id":"6724f9c4-9054-41cf-9b04-e350abcf4b7e-parameters","parameter":[{"name":"subject","valueString":"10cec7db-41ae-49ad-b883-022f19d92a8b"}]}],"extension":[{"url":"http://hl7.org/fhir/StructureDefinition/cqf-inputParameters","valueReference":{"reference":"#6724f9c4-9054-41cf-9b04-e350abcf4b7e-parameters"}},{"url":"http://hl7.org/fhir/us/cqfmeasures/StructureDefinition/cqfm-testCaseDescription","valueMarkdown":"Patient with OV in MP. Bladder cancer diagnosis and cancer staging in MP.  Pt had a cystectomy on the day of staging and should not be excluded. "}],"modifierExtension":[{"url":"http://hl7.org/fhir/us/cqfmeasures/StructureDefinition/cqfm-isTestCase","valueBoolean":true}],"status":"complete","type":"individual","measure":"https://madie.cms.gov/Measure/CMS646FHIRIntravesicalBacillusCalmetteGuerinForBladderCancer","period":{"start":"2026-01-01","end":"2026-12-31"},"group":[{"id":"Group_1","population":[{"id":"InitialPopulation_1","code":{"coding":[{"system":"http://terminology.hl7.org/CodeSystem/measure-population","code":"initial-population","display":"Initial Population"}]},"count":1},{"id":"Denominator_1","code":{"coding":[{"system":"http://terminology.hl7.org/CodeSystem/measure-population","code":"denominator","display":"Denominator"}]},"count":1},{"id":"DenominatorExclusion_1","code":{"coding":[{"system":"http://terminology.hl7.org/CodeSystem/measure-population","code":"denominator-exclusion","display":"Denominator Exclusion"}]},"count":0},{"id":"Numerator_1","code":{"coding":[{"system":"http://terminology.hl7.org/CodeSystem/measure-population","code":"numerator","display":"Numerator"}]},"count":0},{"id":"DenominatorException_1","code":{"coding":[{"system":"http://terminology.hl7.org/CodeSystem/measure-population","code":"denominator-exception","display":"Denominator Exception"}]},"count":0}],"measureScore":{"value":1.0}}],"evaluatedResource":[{"reference":"Patient/10cec7db-41ae-49ad-b883-022f19d92a8b"},{"reference":"Encounter/8c2f402a-9ca7-4c99-8c2e-e2a9236609a9"},{"reference":"Procedure/16d132a4-2f0a-4a5b-960d-5dc9476ec60f"},{"reference":"Condition/b1eb5c58-7d71-4050-936b-d7e50ac62f45"},{"reference":"Observation/fc00e817-e32b-4b06-9cc4-2be9797adfaf"},{"reference":"Practitioner/4e74d61a-716c-4943-9f83-7bd322ec4d23"},{"reference":"Procedure/7f82a393-9b77-4366-a3d0-7c6b63692aae"}]},"request":{"method":"PUT","url":"MeasureReport/c57c3c8e-1dc0-4c73-825c-6e4bc4b87594"}}]},"request":{"method":"PUT","url":"Bundle/62bc69333e113102f8cedca6"}},{"fullUrl":"MeasureReport/c57c3c8e-1dc0-4c73-825c-6e4bc4b87594","resource":{"resourceType":"MeasureReport","id":"c57c3c8e-1dc0-4c73-825c-6e4bc4b87594","meta":{"profile":["http://hl7.org/fhir/us/cqfmeasures/StructureDefinition/test-case-cqfm"]},"contained":[{"resourceType":"Parameters","id":"6724f9c4-9054-41cf-9b04-e350abcf4b7e-parameters","parameter":[{"name":"subject","valueString":"10cec7db-41ae-49ad-b883-022f19d92a8b"}]}],"extension":[{"url":"http://hl7.org/fhir/StructureDefinition/cqf-inputParameters","valueReference":{"reference":"#6724f9c4-9054-41cf-9b04-e350abcf4b7e-parameters"}},{"url":"http://hl7.org/fhir/us/cqfmeasures/StructureDefinition/cqfm-testCaseDescription","valueMarkdown":"Patient with OV in MP. Bladder cancer diagnosis and cancer staging in MP.  Pt had a cystectomy on the day of staging and should not be excluded. "}],"modifierExtension":[{"url":"http://hl7.org/fhir/us/cqfmeasures/StructureDefinition/cqfm-isTestCase","valueBoolean":true}],"status":"complete","type":"individual","measure":"https://madie.cms.gov/Measure/CMS646FHIRIntravesicalBacillusCalmetteGuerinForBladderCancer","period":{"start":"2026-01-01","end":"2026-12-31"},"group":[{"id":"Group_1","population":[{"id":"InitialPopulation_1","code":{"coding":[{"system":"http://terminology.hl7.org/CodeSystem/measure-population","code":"initial-population","display":"Initial Population"}]},"count":1},{"id":"Denominator_1","code":{"coding":[{"system":"http://terminology.hl7.org/CodeSystem/measure-population","code":"denominator","display":"Denominator"}]},"count":1},{"id":"DenominatorExclusion_1","code":{"coding":[{"system":"http://terminology.hl7.org/CodeSystem/measure-population","code":"denominator-exclusion","display":"Denominator Exclusion"}]},"count":0},{"id":"Numerator_1","code":{"coding":[{"system":"http://terminology.hl7.org/CodeSystem/measure-population","code":"numerator","display":"Numerator"}]},"count":0},{"id":"DenominatorException_1","code":{"coding":[{"system":"http://terminology.hl7.org/CodeSystem/measure-population","code":"denominator-exception","display":"Denominator Exception"}]},"count":0}],"measureScore":{"value":1.0}}],"evaluatedResource":[{"reference":"Patient/10cec7db-41ae-49ad-b883-022f19d92a8b"},{"reference":"Encounter/8c2f402a-9ca7-4c99-8c2e-e2a9236609a9"},{"reference":"Procedure/16d132a4-2f0a-4a5b-960d-5dc9476ec60f"},{"reference":"Condition/b1eb5c58-7d71-4050-936b-d7e50ac62f45"},{"reference":"Observation/fc00e817-e32b-4b06-9cc4-2be9797adfaf"},{"reference":"Practitioner/4e74d61a-716c-4943-9f83-7bd322ec4d23"},{"reference":"Procedure/7f82a393-9b77-4366-a3d0-7c6b63692aae"}]},"request":{"method":"PUT","url":"MeasureReport/c57c3c8e-1dc0-4c73-825c-6e4bc4b87594"}},{"fullUrl":"Observation/fc00e817-e32b-4b06-9cc4-2be9797adfaf","resource":{"resourceType":"Observation","id":"fc00e817-e32b-4b06-9cc4-2be9797adfaf","meta":{"profile":["http://hl7.org/fhir/us/qicore/StructureDefinition/qicore-observation-lab"]},"partOf":[{"reference":"Procedure/16d132a4-2f0a-4a5b-960d-5dc9476ec60f"}],"status":"final","category":[{"coding":[{"system":"http://terminology.hl7.org/CodeSystem/observation-category","code":"procedure","display":"Procedure"}]}],"code":{"coding":[{"system":"http://loinc.org","version":"2.76","code":"21902-2","display":"Stage group.pathology Cancer"}]},"subject":{"reference":"Patient/10cec7db-41ae-49ad-b883-022f19d92a8b"},"effectivePeriod":{"start":"2026-06-30T08:00:00.000+00:00","end":"2026-06-30T08:15:00.000+00:00"},"issued":"2026-06-30T08:15:00.000+00:00","valueCodeableConcept":{"coding":[{"system":"http://snomed.info/sct","version":"http://snomed.info/sct/731000124108/version/20240301","code":"1228883000","display":"American Joint Committee on Cancer cTa (qualifier value)"}]}},"request":{"method":"PUT","url":"Observation/fc00e817-e32b-4b06-9cc4-2be9797adfaf"}},{"fullUrl":"Condition/b1eb5c58-7d71-4050-936b-d7e50ac62f45","resource":{"resourceType":"Condition","id":"b1eb5c58-7d71-4050-936b-d7e50ac62f45","meta":{"profile":["http://hl7.org/fhir/us/qicore/StructureDefinition/qicore-condition-problems-health-concerns"]},"clinicalStatus":{"coding":[{"system":"http://terminology.hl7.org/CodeSystem/condition-clinical","code":"active","display":"Active"}]},"verificationStatus":{"coding":[{"system":"http://terminology.hl7.org/CodeSystem/condition-ver-status","code":"confirmed","display":"Confirmed"}]},"category":[{"coding":[{"system":"http://terminology.hl7.org/CodeSystem/condition-category","code":"problem-list-item","display":"Problem List Item"}]}],"code":{"coding":[{"system":"http://hl7.org/fhir/sid/icd-10-cm","version":"2024","code":"C67.3","display":"Malignant neoplasm of anterior wall of bladder"}]},"subject":{"reference":"Patient/10cec7db-41ae-49ad-b883-022f19d92a8b"},"onsetDateTime":"2026-06-30T08:00:00.000+00:00"},"request":{"method":"PUT","url":"Condition/b1eb5c58-7d71-4050-936b-d7e50ac62f45"}},{"fullUrl":"Procedure/7f82a393-9b77-4366-a3d0-7c6b63692aae","resource":{"resourceType":"Procedure","id":"7f82a393-9b77-4366-a3d0-7c6b63692aae","meta":{"profile":["http://hl7.org/fhir/us/qicore/StructureDefinition/qicore-procedure"]},"extension":[{"url":"http://hl7.org/fhir/us/qicore/StructureDefinition/qicore-recorded","valueDateTime":"2026-06-30T08:00:00.000+00:00"}],"status":"completed","code":{"coding":[{"system":"http://snomed.info/sct","version":"http://snomed.info/sct/731000124108/version/20240301","code":"254292007","display":"Tumor staging","userSelected":true}]},"subject":{"reference":"Patient/10cec7db-41ae-49ad-b883-022f19d92a8b"},"performedPeriod":{"start":"2026-06-30T08:00:00.000+00:00","end":"2026-06-30T08:15:00.000+00:00"}},"request":{"method":"PUT","url":"Procedure/7f82a393-9b77-4366-a3d0-7c6b63692aae"}},{"fullUrl":"Practitioner/4e74d61a-716c-4943-9f83-7bd322ec4d23","resource":{"resourceType":"Practitioner","id":"4e74d61a-716c-4943-9f83-7bd322ec4d23","meta":{"profile":["http://hl7.org/fhir/us/qicore/StructureDefinition/qicore-practitioner"]},"identifier":[{"use":"temp","system":"urn:oid:2.16.840.1.113883.4.336","value":"Practitioner-23"}],"active":true,"name":[{"family":"Careful","given":["Adam"],"prefix":["Dr"]}],"address":[{"use":"home","line":["534 Erewhon St"],"city":"PleasantVille","state":"UT","postalCode":"84414"}],"qualification":[{"identifier":[{"system":"http://example.org/UniversityIdentifier","value":"12345"}],"code":{"coding":[{"system":"http://terminology.hl7.org/CodeSystem/v2-0360|2.7","code":"BS","display":"Bachelor of Science"}],"text":"Bachelor of Science"},"period":{"start":"1996"},"issuer":{"display":"Example University"}}]},"request":{"method":"PUT","url":"Practitioner/4e74d61a-716c-4943-9f83-7bd322ec4d23"}},{"fullUrl":"Encounter/8c2f402a-9ca7-4c99-8c2e-e2a9236609a9","resource":{"resourceType":"Encounter","id":"8c2f402a-9ca7-4c99-8c2e-e2a9236609a9","meta":{"profile":["http://hl7.org/fhir/us/qicore/StructureDefinition/qicore-encounter"]},"status":"finished","class":{"system":"http://terminology.hl7.org/CodeSystem/v3-ActCode","code":"AMB","display":"ambulatory"},"type":[{"coding":[{"system":"http://snomed.info/sct","version":"http://snomed.info/sct/731000124108/version/20240301","code":"185463005","display":"Visit out of hours (procedure)"}]}],"subject":{"reference":"Patient/10cec7db-41ae-49ad-b883-022f19d92a8b"},"period":{"start":"2026-12-30T08:00:00.000+00:00","end":"2026-12-30T09:15:00.000+00:00"}},"request":{"method":"PUT","url":"Encounter/8c2f402a-9ca7-4c99-8c2e-e2a9236609a9"}},{"fullUrl":"Procedure/16d132a4-2f0a-4a5b-960d-5dc9476ec60f","resource":{"resourceType":"Procedure","id":"16d132a4-2f0a-4a5b-960d-5dc9476ec60f","meta":{"profile":["http://hl7.org/fhir/us/qicore/StructureDefinition/qicore-procedure"]},"extension":[{"url":"http://hl7.org/fhir/us/qicore/StructureDefinition/qicore-recorded","valueDateTime":"2026-06-30T08:00:00.000+00:00"}],"status":"completed","code":{"coding":[{"system":"http://www.ama-assn.org/go/cpt","version":"2024","code":"51585","display":"Cystectomy Done","userSelected":true}]},"subject":{"reference":"Patient/10cec7db-41ae-49ad-b883-022f19d92a8b"},"performedPeriod":{"start":"2026-06-30T08:00:00.000+00:00","end":"2026-06-30T08:15:00.000+00:00"}},"request":{"method":"PUT","url":"Procedure/16d132a4-2f0a-4a5b-960d-5dc9476ec60f"}}]}