{"resourceType":"Bundle","id":"tests-a800d0dd-2ded-404b-9489-43ecafbe8529-bundle","type":"transaction","entry":[{"fullUrl":"Observation/22410d9e-09b9-41e0-a3a2-42d027b4fdd9","resource":{"resourceType":"Observation","id":"22410d9e-09b9-41e0-a3a2-42d027b4fdd9","meta":{"profile":["http://hl7.org/fhir/us/qicore/StructureDefinition/qicore-observation-lab"]},"partOf":[{"reference":"Procedure/9dd85246-608d-4b39-94cc-693fb2ba49b0"}],"status":"final","category":[{"coding":[{"system":"http://terminology.hl7.org/CodeSystem/observation-category","code":"procedure","display":"Procedure"}]}],"code":{"coding":[{"system":"http://loinc.org","version":"2.76","code":"21902-2","display":"Stage group.pathology Cancer"}]},"subject":{"reference":"Patient/a800d0dd-2ded-404b-9489-43ecafbe8529"},"effectiveDateTime":"2026-04-06T08:00:00.000+00:00","issued":"2026-04-06T08:10:00.000+00:00","valueCodeableConcept":{"coding":[{"system":"http://snomed.info/sct","version":"http://snomed.info/sct/731000124108/version/20240301","code":"1228883000","display":"American Joint Committee on Cancer cTa (qualifier value)"}]}},"request":{"method":"PUT","url":"Observation/22410d9e-09b9-41e0-a3a2-42d027b4fdd9"}},{"fullUrl":"Procedure/9dd85246-608d-4b39-94cc-693fb2ba49b0","resource":{"resourceType":"Procedure","id":"9dd85246-608d-4b39-94cc-693fb2ba49b0","meta":{"profile":["http://hl7.org/fhir/us/qicore/StructureDefinition/qicore-procedure"]},"extension":[{"url":"http://hl7.org/fhir/us/qicore/StructureDefinition/qicore-recorded","valueDateTime":"2026-04-06T08:00:00.000+00:00"}],"status":"completed","code":{"coding":[{"system":"http://snomed.info/sct","version":"http://snomed.info/sct/731000124108/version/20240301","code":"254292007","display":"Tumor staging"}]},"subject":{"reference":"Patient/a800d0dd-2ded-404b-9489-43ecafbe8529"},"performedDateTime":"2026-04-06T08:00:00.000+00:00"},"request":{"method":"PUT","url":"Procedure/9dd85246-608d-4b39-94cc-693fb2ba49b0"}},{"fullUrl":"Encounter/a1cd0fa0-ae9e-4486-95ba-9f723208f238","resource":{"resourceType":"Encounter","id":"a1cd0fa0-ae9e-4486-95ba-9f723208f238","meta":{"profile":["http://hl7.org/fhir/us/qicore/StructureDefinition/qicore-encounter"]},"status":"finished","class":{"system":"http://terminology.hl7.org/CodeSystem/v3-ActCode","code":"AMB","display":"ambulatory"},"type":[{"coding":[{"system":"http://snomed.info/sct","version":"http://snomed.info/sct/731000124108/version/20240301","code":"185463005","display":"Visit out of hours (procedure)"}]}],"subject":{"reference":"Patient/a800d0dd-2ded-404b-9489-43ecafbe8529"},"period":{"start":"2026-04-06T08:00:00.000+00:00","end":"2026-04-06T09:15:00.000+00:00"}},"request":{"method":"PUT","url":"Encounter/a1cd0fa0-ae9e-4486-95ba-9f723208f238"}},{"fullUrl":"Condition/36d67139-03e9-4ecc-94ea-c28226a04305","resource":{"resourceType":"Condition","id":"36d67139-03e9-4ecc-94ea-c28226a04305","meta":{"profile":["http://hl7.org/fhir/us/qicore/StructureDefinition/qicore-condition-encounter-diagnosis"]},"clinicalStatus":{"coding":[{"system":"http://terminology.hl7.org/CodeSystem/condition-clinical","code":"resolved","display":"Resolved"}]},"verificationStatus":{"coding":[{"system":"http://terminology.hl7.org/CodeSystem/condition-ver-status","code":"confirmed","display":"Confirmed"}]},"category":[{"coding":[{"system":"http://terminology.hl7.org/CodeSystem/condition-category","code":"encounter-diagnosis","display":"Encounter Diagnosis"}]}],"code":{"coding":[{"system":"http://snomed.info/sct","version":"http://snomed.info/sct/731000124108/version/20240301","code":"25629007","display":"Acute tuberculosis (disorder)"}]},"subject":{"reference":"Patient/a800d0dd-2ded-404b-9489-43ecafbe8529"},"onsetPeriod":{"start":"2005-04-06"},"abatementDateTime":"2005-08-06"},"request":{"method":"PUT","url":"Condition/36d67139-03e9-4ecc-94ea-c28226a04305"}},{"fullUrl":"Patient/a800d0dd-2ded-404b-9489-43ecafbe8529","resource":{"resourceType":"Patient","id":"a800d0dd-2ded-404b-9489-43ecafbe8529","meta":{"profile":["http://hl7.org/fhir/us/qicore/StructureDefinition/qicore-patient"]},"extension":[{"url":"http://hl7.org/fhir/us/core/StructureDefinition/us-core-race","extension":[{"url":"ombCategory","valueCoding":{"system":"urn:oid:2.16.840.1.113883.6.238","code":"2076-8","display":"Native Hawaiian or Other Pacific Islander"}},{"url":"text","valueString":"Native Hawaiian or Other Pacific Islander"}]},{"url":"http://hl7.org/fhir/us/core/StructureDefinition/us-core-ethnicity","extension":[{"url":"ombCategory","valueCoding":{"system":"urn:oid:2.16.840.1.113883.6.238","code":"2186-5","display":"Not Hispanic or Latino"}},{"url":"text","valueString":"Not Hispanic or Latino"}]}],"identifier":[{"type":{"coding":[{"system":"http://terminology.hl7.org/CodeSystem/v2-0203","code":"MR"}]},"system":"https://bonnie-fhir.healthit.gov/","value":"164351346463131"}],"name":[{"family":"DENEXFail","given":["AcuteTBEndsBeforeStaging"]}],"gender":"female","birthDate":"1947-11-03"},"request":{"method":"PUT","url":"Patient/a800d0dd-2ded-404b-9489-43ecafbe8529"}},{"fullUrl":"Bundle/684615316846431","resource":{"resourceType":"Bundle","id":"684615316846431","type":"transaction","entry":[{"fullUrl":"https://madie.cms.gov/Patient/a800d0dd-2ded-404b-9489-43ecafbe8529","resource":{"resourceType":"Patient","id":"a800d0dd-2ded-404b-9489-43ecafbe8529","meta":{"profile":["http://hl7.org/fhir/us/qicore/StructureDefinition/qicore-patient"]},"extension":[{"url":"http://hl7.org/fhir/us/core/StructureDefinition/us-core-race","extension":[{"url":"ombCategory","valueCoding":{"system":"urn:oid:2.16.840.1.113883.6.238","code":"2076-8","display":"Native Hawaiian or Other Pacific Islander"}},{"url":"text","valueString":"Native Hawaiian or Other Pacific Islander"}]},{"url":"http://hl7.org/fhir/us/core/StructureDefinition/us-core-ethnicity","extension":[{"url":"ombCategory","valueCoding":{"system":"urn:oid:2.16.840.1.113883.6.238","code":"2186-5","display":"Not Hispanic or Latino"}},{"url":"text","valueString":"Not Hispanic or Latino"}]}],"identifier":[{"type":{"coding":[{"system":"http://terminology.hl7.org/CodeSystem/v2-0203","code":"MR"}]},"system":"https://bonnie-fhir.healthit.gov/","value":"164351346463131"}],"name":[{"family":"DENEXFail","given":["AcuteTBEndsBeforeStaging"]}],"gender":"female","birthDate":"1947-11-03"},"request":{"method":"PUT","url":"Patient/a800d0dd-2ded-404b-9489-43ecafbe8529"}},{"fullUrl":"https://madie.cms.gov/Encounter/a1cd0fa0-ae9e-4486-95ba-9f723208f238","resource":{"resourceType":"Encounter","id":"a1cd0fa0-ae9e-4486-95ba-9f723208f238","meta":{"profile":["http://hl7.org/fhir/us/qicore/StructureDefinition/qicore-encounter"]},"status":"finished","class":{"system":"http://terminology.hl7.org/CodeSystem/v3-ActCode","code":"AMB","display":"ambulatory"},"type":[{"coding":[{"system":"http://snomed.info/sct","version":"http://snomed.info/sct/731000124108/version/20240301","code":"185463005","display":"Visit out of hours (procedure)"}]}],"subject":{"reference":"Patient/a800d0dd-2ded-404b-9489-43ecafbe8529"},"period":{"start":"2026-04-06T08:00:00.000+00:00","end":"2026-04-06T09:15:00.000+00:00"}},"request":{"method":"PUT","url":"Encounter/a1cd0fa0-ae9e-4486-95ba-9f723208f238"}},{"fullUrl":"https://madie.cms.gov/Condition/0cace68e-4b40-4060-af0b-7efff4c935d7","resource":{"resourceType":"Condition","id":"0cace68e-4b40-4060-af0b-7efff4c935d7","meta":{"profile":["http://hl7.org/fhir/us/qicore/StructureDefinition/qicore-condition-problems-health-concerns"]},"clinicalStatus":{"coding":[{"system":"http://terminology.hl7.org/CodeSystem/condition-clinical","code":"active","display":"Active"}]},"verificationStatus":{"coding":[{"system":"http://terminology.hl7.org/CodeSystem/condition-ver-status","code":"confirmed","display":"Confirmed"}]},"category":[{"coding":[{"system":"http://terminology.hl7.org/CodeSystem/condition-category","code":"problem-list-item","display":"Problem List Item"}]}],"code":{"coding":[{"system":"http://hl7.org/fhir/sid/icd-10-cm","version":"2024","code":"C67.1","display":"Malignant neoplasm of dome of bladder"}]},"subject":{"reference":"Patient/a800d0dd-2ded-404b-9489-43ecafbe8529"},"onsetPeriod":{"start":"2026-04-06T08:00:00.000+00:00"}},"request":{"method":"PUT","url":"Condition/0cace68e-4b40-4060-af0b-7efff4c935d7"}},{"fullUrl":"https://madie.cms.gov/Condition/36d67139-03e9-4ecc-94ea-c28226a04305","resource":{"resourceType":"Condition","id":"36d67139-03e9-4ecc-94ea-c28226a04305","meta":{"profile":["http://hl7.org/fhir/us/qicore/StructureDefinition/qicore-condition-problems-health-concerns"]},"clinicalStatus":{"coding":[{"system":"http://terminology.hl7.org/CodeSystem/condition-clinical","code":"resolved","display":"Resolved"}]},"verificationStatus":{"coding":[{"system":"http://terminology.hl7.org/CodeSystem/condition-ver-status","code":"confirmed","display":"Confirmed"}]},"category":[{"coding":[{"system":"http://terminology.hl7.org/CodeSystem/condition-category","code":"problem-list-item","display":"Problem List Item"}]}],"code":{"coding":[{"system":"http://snomed.info/sct","version":"http://snomed.info/sct/731000124108/version/20240301","code":"25629007","display":"Acute tuberculosis (disorder)"}]},"subject":{"reference":"Patient/a800d0dd-2ded-404b-9489-43ecafbe8529"},"onsetPeriod":{"start":"2005-04-06"},"abatementDateTime":"2005-08-06"},"request":{"method":"PUT","url":"Condition/36d67139-03e9-4ecc-94ea-c28226a04305"}},{"fullUrl":"https://madie.cms.gov/Condition/36d67139-03e9-4ecc-94ea-c28226a04305","resource":{"resourceType":"Condition","id":"36d67139-03e9-4ecc-94ea-c28226a04305","meta":{"profile":["http://hl7.org/fhir/us/qicore/StructureDefinition/qicore-condition-encounter-diagnosis"]},"clinicalStatus":{"coding":[{"system":"http://terminology.hl7.org/CodeSystem/condition-clinical","code":"resolved","display":"Resolved"}]},"verificationStatus":{"coding":[{"system":"http://terminology.hl7.org/CodeSystem/condition-ver-status","code":"confirmed","display":"Confirmed"}]},"category":[{"coding":[{"system":"http://terminology.hl7.org/CodeSystem/condition-category","code":"encounter-diagnosis","display":"Encounter Diagnosis"}]}],"code":{"coding":[{"system":"http://snomed.info/sct","version":"http://snomed.info/sct/731000124108/version/20240301","code":"25629007","display":"Acute tuberculosis (disorder)"}]},"subject":{"reference":"Patient/a800d0dd-2ded-404b-9489-43ecafbe8529"},"onsetPeriod":{"start":"2005-04-06"},"abatementDateTime":"2005-08-06"},"request":{"method":"PUT","url":"Condition/36d67139-03e9-4ecc-94ea-c28226a04305"}},{"fullUrl":"https://madie.cms.gov/Procedure/9dd85246-608d-4b39-94cc-693fb2ba49b0","resource":{"resourceType":"Procedure","id":"9dd85246-608d-4b39-94cc-693fb2ba49b0","meta":{"profile":["http://hl7.org/fhir/us/qicore/StructureDefinition/qicore-procedure"]},"extension":[{"url":"http://hl7.org/fhir/us/qicore/StructureDefinition/qicore-recorded","valueDateTime":"2026-04-06T08:00:00.000+00:00"}],"status":"completed","code":{"coding":[{"system":"http://snomed.info/sct","version":"http://snomed.info/sct/731000124108/version/20240301","code":"254292007","display":"Tumor staging"}]},"subject":{"reference":"Patient/a800d0dd-2ded-404b-9489-43ecafbe8529"},"performedDateTime":"2026-04-06T08:00:00.000+00:00"},"request":{"method":"PUT","url":"Procedure/9dd85246-608d-4b39-94cc-693fb2ba49b0"}},{"fullUrl":"https://madie.cms.gov/Observation/22410d9e-09b9-41e0-a3a2-42d027b4fdd9","resource":{"resourceType":"Observation","id":"22410d9e-09b9-41e0-a3a2-42d027b4fdd9","meta":{"profile":["http://hl7.org/fhir/us/qicore/StructureDefinition/qicore-observation-lab"]},"partOf":[{"reference":"Procedure/9dd85246-608d-4b39-94cc-693fb2ba49b0"}],"status":"final","category":[{"coding":[{"system":"http://terminology.hl7.org/CodeSystem/observation-category","code":"procedure","display":"Procedure"}]}],"code":{"coding":[{"system":"http://loinc.org","version":"2.76","code":"21902-2","display":"Stage group.pathology Cancer"}]},"subject":{"reference":"Patient/a800d0dd-2ded-404b-9489-43ecafbe8529"},"effectiveDateTime":"2026-04-06T08:00:00.000+00:00","issued":"2026-04-06T08:10:00.000+00:00","valueCodeableConcept":{"coding":[{"system":"http://snomed.info/sct","version":"http://snomed.info/sct/731000124108/version/20240301","code":"1228883000","display":"American Joint Committee on Cancer cTa (qualifier value)"}]}},"request":{"method":"PUT","url":"Observation/22410d9e-09b9-41e0-a3a2-42d027b4fdd9"}},{"fullUrl":"https://madie.cms.gov/MeasureReport/51d54310-cbfd-48fb-9ea9-cdc8a4cabd9e","resource":{"resourceType":"MeasureReport","id":"51d54310-cbfd-48fb-9ea9-cdc8a4cabd9e","meta":{"profile":["http://hl7.org/fhir/us/cqfmeasures/StructureDefinition/test-case-cqfm"]},"contained":[{"resourceType":"Parameters","id":"c1e6f7b5-8d10-4ca6-b9e3-7e9f05fbd327-parameters","parameter":[{"name":"subject","valueString":"a800d0dd-2ded-404b-9489-43ecafbe8529"}]}],"extension":[{"url":"http://hl7.org/fhir/StructureDefinition/cqf-inputParameters","valueReference":{"reference":"#c1e6f7b5-8d10-4ca6-b9e3-7e9f05fbd327-parameters"}},{"url":"http://hl7.org/fhir/us/cqfmeasures/StructureDefinition/cqfm-testCaseDescription","valueMarkdown":"Female with OV in MP. Has Bladder Cancer and Bladder Cancer staging with  Active TB ends 1 day before bladder Ca staging ends.. TB prevalencePeriod ends before staging and DENEX should fail."}],"modifierExtension":[{"url":"http://hl7.org/fhir/us/cqfmeasures/StructureDefinition/cqfm-isTestCase","valueBoolean":true}],"status":"complete","type":"individual","measure":"https://madie.cms.gov/Measure/CMS646FHIRIntravesicalBacillusCalmetteGuerinForBladderCancer","period":{"start":"2026-01-01","end":"2026-12-31"},"group":[{"id":"Group_1","population":[{"id":"InitialPopulation_1","code":{"coding":[{"system":"http://terminology.hl7.org/CodeSystem/measure-population","code":"initial-population","display":"Initial Population"}]},"count":1},{"id":"Denominator_1","code":{"coding":[{"system":"http://terminology.hl7.org/CodeSystem/measure-population","code":"denominator","display":"Denominator"}]},"count":1},{"id":"DenominatorExclusion_1","code":{"coding":[{"system":"http://terminology.hl7.org/CodeSystem/measure-population","code":"denominator-exclusion","display":"Denominator Exclusion"}]},"count":0},{"id":"Numerator_1","code":{"coding":[{"system":"http://terminology.hl7.org/CodeSystem/measure-population","code":"numerator","display":"Numerator"}]},"count":0},{"id":"DenominatorException_1","code":{"coding":[{"system":"http://terminology.hl7.org/CodeSystem/measure-population","code":"denominator-exception","display":"Denominator Exception"}]},"count":0}],"measureScore":{"value":1.0}}],"evaluatedResource":[{"reference":"Patient/a800d0dd-2ded-404b-9489-43ecafbe8529"},{"reference":"Encounter/a1cd0fa0-ae9e-4486-95ba-9f723208f238"},{"reference":"Condition/0cace68e-4b40-4060-af0b-7efff4c935d7"},{"reference":"Condition/36d67139-03e9-4ecc-94ea-c28226a04305"},{"reference":"Condition/36d67139-03e9-4ecc-94ea-c28226a04305"},{"reference":"Procedure/9dd85246-608d-4b39-94cc-693fb2ba49b0"},{"reference":"Observation/22410d9e-09b9-41e0-a3a2-42d027b4fdd9"}]},"request":{"method":"PUT","url":"MeasureReport/51d54310-cbfd-48fb-9ea9-cdc8a4cabd9e"}}]},"request":{"method":"PUT","url":"Bundle/684615316846431"}},{"fullUrl":"MeasureReport/51d54310-cbfd-48fb-9ea9-cdc8a4cabd9e","resource":{"resourceType":"MeasureReport","id":"51d54310-cbfd-48fb-9ea9-cdc8a4cabd9e","meta":{"profile":["http://hl7.org/fhir/us/cqfmeasures/StructureDefinition/test-case-cqfm"]},"contained":[{"resourceType":"Parameters","id":"c1e6f7b5-8d10-4ca6-b9e3-7e9f05fbd327-parameters","parameter":[{"name":"subject","valueString":"a800d0dd-2ded-404b-9489-43ecafbe8529"}]}],"extension":[{"url":"http://hl7.org/fhir/StructureDefinition/cqf-inputParameters","valueReference":{"reference":"#c1e6f7b5-8d10-4ca6-b9e3-7e9f05fbd327-parameters"}},{"url":"http://hl7.org/fhir/us/cqfmeasures/StructureDefinition/cqfm-testCaseDescription","valueMarkdown":"Female with OV in MP. Has Bladder Cancer and Bladder Cancer staging with  Active TB ends 1 day before bladder Ca staging ends.. TB prevalencePeriod ends before staging and DENEX should fail."}],"modifierExtension":[{"url":"http://hl7.org/fhir/us/cqfmeasures/StructureDefinition/cqfm-isTestCase","valueBoolean":true}],"status":"complete","type":"individual","measure":"https://madie.cms.gov/Measure/CMS646FHIRIntravesicalBacillusCalmetteGuerinForBladderCancer","period":{"start":"2026-01-01","end":"2026-12-31"},"group":[{"id":"Group_1","population":[{"id":"InitialPopulation_1","code":{"coding":[{"system":"http://terminology.hl7.org/CodeSystem/measure-population","code":"initial-population","display":"Initial Population"}]},"count":1},{"id":"Denominator_1","code":{"coding":[{"system":"http://terminology.hl7.org/CodeSystem/measure-population","code":"denominator","display":"Denominator"}]},"count":1},{"id":"DenominatorExclusion_1","code":{"coding":[{"system":"http://terminology.hl7.org/CodeSystem/measure-population","code":"denominator-exclusion","display":"Denominator Exclusion"}]},"count":0},{"id":"Numerator_1","code":{"coding":[{"system":"http://terminology.hl7.org/CodeSystem/measure-population","code":"numerator","display":"Numerator"}]},"count":0},{"id":"DenominatorException_1","code":{"coding":[{"system":"http://terminology.hl7.org/CodeSystem/measure-population","code":"denominator-exception","display":"Denominator Exception"}]},"count":0}],"measureScore":{"value":1.0}}],"evaluatedResource":[{"reference":"Patient/a800d0dd-2ded-404b-9489-43ecafbe8529"},{"reference":"Encounter/a1cd0fa0-ae9e-4486-95ba-9f723208f238"},{"reference":"Condition/0cace68e-4b40-4060-af0b-7efff4c935d7"},{"reference":"Condition/36d67139-03e9-4ecc-94ea-c28226a04305"},{"reference":"Condition/36d67139-03e9-4ecc-94ea-c28226a04305"},{"reference":"Procedure/9dd85246-608d-4b39-94cc-693fb2ba49b0"},{"reference":"Observation/22410d9e-09b9-41e0-a3a2-42d027b4fdd9"}]},"request":{"method":"PUT","url":"MeasureReport/51d54310-cbfd-48fb-9ea9-cdc8a4cabd9e"}},{"fullUrl":"Condition/0cace68e-4b40-4060-af0b-7efff4c935d7","resource":{"resourceType":"Condition","id":"0cace68e-4b40-4060-af0b-7efff4c935d7","meta":{"profile":["http://hl7.org/fhir/us/qicore/StructureDefinition/qicore-condition-problems-health-concerns"]},"clinicalStatus":{"coding":[{"system":"http://terminology.hl7.org/CodeSystem/condition-clinical","code":"active","display":"Active"}]},"verificationStatus":{"coding":[{"system":"http://terminology.hl7.org/CodeSystem/condition-ver-status","code":"confirmed","display":"Confirmed"}]},"category":[{"coding":[{"system":"http://terminology.hl7.org/CodeSystem/condition-category","code":"problem-list-item","display":"Problem List Item"}]}],"code":{"coding":[{"system":"http://hl7.org/fhir/sid/icd-10-cm","version":"2024","code":"C67.1","display":"Malignant neoplasm of dome of bladder"}]},"subject":{"reference":"Patient/a800d0dd-2ded-404b-9489-43ecafbe8529"},"onsetPeriod":{"start":"2026-04-06T08:00:00.000+00:00"}},"request":{"method":"PUT","url":"Condition/0cace68e-4b40-4060-af0b-7efff4c935d7"}}]}