{"resourceType":"Bundle","id":"tests-e648fa70-0532-49b0-92f6-dfb5a6d28d94-bundle","type":"transaction","entry":[{"resource":{"resourceType":"Encounter","id":"46c26bc3-8994-42e6-a8c7-907fe7f7eaf1","meta":{"profile":["http://hl7.org/fhir/us/qicore/StructureDefinition/qicore-encounter"]},"status":"finished","class":{"system":"http://terminology.hl7.org/CodeSystem/v3-ActCode","code":"AMB","display":"ambulatory"},"type":[{"coding":[{"system":"http://www.ama-assn.org/go/cpt","version":"2024","code":"99202"}]}],"subject":{"reference":"Patient/e648fa70-0532-49b0-92f6-dfb5a6d28d94"},"period":{"start":"2026-03-05T08:00:00.000+00:00","end":"2026-03-05T08:15:00.000+00:00"}},"request":{"method":"PUT","url":"Encounter/46c26bc3-8994-42e6-a8c7-907fe7f7eaf1"}},{"resource":{"resourceType":"Procedure","id":"68cd40a2-d8c8-44f0-b81e-43ff8fe38e7d","meta":{"profile":["http://hl7.org/fhir/us/qicore/StructureDefinition/qicore-procedure"]},"extension":[{"url":"http://hl7.org/fhir/us/qicore/StructureDefinition/qicore-recorded","valueDateTime":"2026-03-02T08:00:00.000+00:00"}],"status":"completed","code":{"coding":[{"system":"http://snomed.info/sct","version":"http://snomed.info/sct/731000124108/version/20240301","code":"254292007","display":"Tumor staging"}]},"subject":{"reference":"Patient/e648fa70-0532-49b0-92f6-dfb5a6d28d94"},"performedPeriod":{"start":"2026-03-05T08:00:00.000+00:00","end":"2026-03-06T08:15:00.000+00:00"}},"request":{"method":"PUT","url":"Procedure/68cd40a2-d8c8-44f0-b81e-43ff8fe38e7d"}},{"resource":{"resourceType":"Patient","id":"e648fa70-0532-49b0-92f6-dfb5a6d28d94","meta":{"profile":["http://hl7.org/fhir/us/qicore/StructureDefinition/qicore-patient"]},"extension":[{"url":"http://hl7.org/fhir/us/core/StructureDefinition/us-core-race","extension":[{"url":"ombCategory","valueCoding":{"system":"urn:oid:2.16.840.1.113883.6.238","code":"2106-3","display":"White"}},{"url":"text","valueString":"White"}]},{"url":"http://hl7.org/fhir/us/core/StructureDefinition/us-core-ethnicity","extension":[{"url":"ombCategory","valueCoding":{"system":"urn:oid:2.16.840.1.113883.6.238","code":"2135-2","display":"Hispanic or Latino"}},{"url":"text","valueString":"Hispanic or Latino"}]}],"identifier":[{"type":{"coding":[{"system":"http://terminology.hl7.org/CodeSystem/v2-0203","code":"MR"}]},"system":"https://bonnie-fhir.healthit.gov/","value":"613103ab313C414126351"}],"name":[{"family":"DENEXCEPPass","given":["BCGNotAvailable"]}],"gender":"female","birthDate":"1976-12-27"},"request":{"method":"PUT","url":"Patient/e648fa70-0532-49b0-92f6-dfb5a6d28d94"}},{"resource":{"resourceType":"Condition","id":"0730d577-a375-4315-be41-dee5b10f5fe1","meta":{"profile":["http://hl7.org/fhir/us/qicore/StructureDefinition/qicore-condition-problems-health-concerns"]},"clinicalStatus":{"coding":[{"system":"http://terminology.hl7.org/CodeSystem/condition-clinical","code":"active","display":"Active"}]},"verificationStatus":{"coding":[{"system":"http://terminology.hl7.org/CodeSystem/condition-ver-status","code":"confirmed","display":"Confirmed"}]},"category":[{"coding":[{"system":"http://terminology.hl7.org/CodeSystem/condition-category","code":"problem-list-item","display":"Problem List Item"}]}],"code":{"coding":[{"system":"http://hl7.org/fhir/sid/icd-10-cm","version":"2024","code":"C67.1","display":"Malignant neoplasm of dome of bladder"}]},"subject":{"reference":"Patient/e648fa70-0532-49b0-92f6-dfb5a6d28d94"},"onsetDateTime":"2026-03-05T08:00:00.000+00:00"},"request":{"method":"PUT","url":"Condition/0730d577-a375-4315-be41-dee5b10f5fe1"}},{"resource":{"resourceType":"Observation","id":"364c1895-6261-4a2f-8176-fdf0fcb1739c","meta":{"profile":["http://hl7.org/fhir/us/qicore/StructureDefinition/qicore-observation-lab"]},"partOf":[{"reference":"Procedure/68cd40a2-d8c8-44f0-b81e-43ff8fe38e7d"}],"status":"final","category":[{"coding":[{"system":"http://terminology.hl7.org/CodeSystem/observation-category","code":"procedure","display":"Procedure"}]}],"code":{"coding":[{"system":"http://loinc.org","version":"2.76","code":"21902-2","display":"Stage group.pathology Cancer"}]},"subject":{"reference":"Patient/e648fa70-0532-49b0-92f6-dfb5a6d28d94"},"effectivePeriod":{"start":"2026-03-05T08:00:00.000+00:00","end":"2026-03-06T08:15:00.000+00:00"},"issued":"2026-03-05T08:00:00.000+00:00","valueCodeableConcept":{"coding":[{"system":"http://snomed.info/sct","version":"http://snomed.info/sct/731000124108/version/20240301","code":"1228883000","display":"American Joint Committee on Cancer cTa (qualifier value)"}]}},"request":{"method":"PUT","url":"Observation/364c1895-6261-4a2f-8176-fdf0fcb1739c"}},{"resource":{"resourceType":"Bundle","id":"4613103103131","type":"transaction","entry":[{"fullUrl":"https://madie.cms.gov/Patient/e648fa70-0532-49b0-92f6-dfb5a6d28d94","resource":{"resourceType":"Patient","id":"e648fa70-0532-49b0-92f6-dfb5a6d28d94","meta":{"profile":["http://hl7.org/fhir/us/qicore/StructureDefinition/qicore-patient"]},"extension":[{"url":"http://hl7.org/fhir/us/core/StructureDefinition/us-core-race","extension":[{"url":"ombCategory","valueCoding":{"system":"urn:oid:2.16.840.1.113883.6.238","code":"2106-3","display":"White"}},{"url":"text","valueString":"White"}]},{"url":"http://hl7.org/fhir/us/core/StructureDefinition/us-core-ethnicity","extension":[{"url":"ombCategory","valueCoding":{"system":"urn:oid:2.16.840.1.113883.6.238","code":"2135-2","display":"Hispanic or Latino"}},{"url":"text","valueString":"Hispanic or Latino"}]}],"identifier":[{"type":{"coding":[{"system":"http://terminology.hl7.org/CodeSystem/v2-0203","code":"MR"}]},"system":"https://bonnie-fhir.healthit.gov/","value":"613103ab313C414126351"}],"name":[{"family":"DENEXCEPPass","given":["BCGNotAvailable"]}],"gender":"female","birthDate":"1976-12-27"},"request":{"method":"PUT","url":"Patient/e648fa70-0532-49b0-92f6-dfb5a6d28d94"}},{"fullUrl":"https://madie.cms.gov/Condition/0730d577-a375-4315-be41-dee5b10f5fe1","resource":{"resourceType":"Condition","id":"0730d577-a375-4315-be41-dee5b10f5fe1","meta":{"profile":["http://hl7.org/fhir/us/qicore/StructureDefinition/qicore-condition-problems-health-concerns"]},"clinicalStatus":{"coding":[{"system":"http://terminology.hl7.org/CodeSystem/condition-clinical","code":"active","display":"Active"}]},"verificationStatus":{"coding":[{"system":"http://terminology.hl7.org/CodeSystem/condition-ver-status","code":"confirmed","display":"Confirmed"}]},"category":[{"coding":[{"system":"http://terminology.hl7.org/CodeSystem/condition-category","code":"problem-list-item","display":"Problem List Item"}]}],"code":{"coding":[{"system":"http://hl7.org/fhir/sid/icd-10-cm","version":"2024","code":"C67.1","display":"Malignant neoplasm of dome of bladder"}]},"subject":{"reference":"Patient/e648fa70-0532-49b0-92f6-dfb5a6d28d94"},"onsetDateTime":"2026-03-05T08:00:00.000+00:00"},"request":{"method":"PUT","url":"Condition/0730d577-a375-4315-be41-dee5b10f5fe1"}},{"fullUrl":"https://madie.cms.gov/Encounter/46c26bc3-8994-42e6-a8c7-907fe7f7eaf1","resource":{"resourceType":"Encounter","id":"46c26bc3-8994-42e6-a8c7-907fe7f7eaf1","meta":{"profile":["http://hl7.org/fhir/us/qicore/StructureDefinition/qicore-encounter"]},"status":"finished","class":{"system":"http://terminology.hl7.org/CodeSystem/v3-ActCode","code":"AMB","display":"ambulatory"},"type":[{"coding":[{"system":"http://www.ama-assn.org/go/cpt","version":"2024","code":"99202"}]}],"subject":{"reference":"Patient/e648fa70-0532-49b0-92f6-dfb5a6d28d94"},"period":{"start":"2026-03-05T08:00:00.000+00:00","end":"2026-03-05T08:15:00.000+00:00"}},"request":{"method":"PUT","url":"Encounter/46c26bc3-8994-42e6-a8c7-907fe7f7eaf1"}},{"fullUrl":"https://madie.cms.gov/MedicationAdministration/cae6c85f-ea1e-490f-88ba-824ccb9b0cfe","resource":{"resourceType":"MedicationAdministration","id":"cae6c85f-ea1e-490f-88ba-824ccb9b0cfe","meta":{"profile":["http://hl7.org/fhir/us/qicore/StructureDefinition/qicore-mednotadministered"]},"extension":[{"url":"http://hl7.org/fhir/us/qicore/StructureDefinition/qicore-recorded","valueDateTime":"2026-03-06T08:00:00.000+00:00"}],"status":"not-done","statusReason":[{"coding":[{"system":"http://snomed.info/sct","version":"http://snomed.info/sct/731000124108/version/20240301","code":"242990004","display":"Drug not available for administration (event)"}]}],"medicationCodeableConcept":{"coding":[{"system":"http://www.nlm.nih.gov/research/umls/rxnorm","version":"04012024","code":"1653484","display":"BCG, live, Tice strain 50 MG/ML Topical Suspension"}]},"subject":{"reference":"Patient/e648fa70-0532-49b0-92f6-dfb5a6d28d94"},"effectivePeriod":{"start":"2026-03-03T08:00:00.000+00:00","end":"2026-03-06T08:00:00.000+00:00"}},"request":{"method":"PUT","url":"MedicationAdministration/cae6c85f-ea1e-490f-88ba-824ccb9b0cfe"}},{"fullUrl":"https://madie.cms.gov/Procedure/68cd40a2-d8c8-44f0-b81e-43ff8fe38e7d","resource":{"resourceType":"Procedure","id":"68cd40a2-d8c8-44f0-b81e-43ff8fe38e7d","meta":{"profile":["http://hl7.org/fhir/us/qicore/StructureDefinition/qicore-procedure"]},"extension":[{"url":"http://hl7.org/fhir/us/qicore/StructureDefinition/qicore-recorded","valueDateTime":"2026-03-02T08:00:00.000+00:00"}],"status":"completed","code":{"coding":[{"system":"http://snomed.info/sct","version":"http://snomed.info/sct/731000124108/version/20240301","code":"254292007","display":"Tumor staging"}]},"subject":{"reference":"Patient/e648fa70-0532-49b0-92f6-dfb5a6d28d94"},"performedPeriod":{"start":"2026-03-05T08:00:00.000+00:00","end":"2026-03-06T08:15:00.000+00:00"}},"request":{"method":"PUT","url":"Procedure/68cd40a2-d8c8-44f0-b81e-43ff8fe38e7d"}},{"fullUrl":"https://madie.cms.gov/Observation/364c1895-6261-4a2f-8176-fdf0fcb1739c","resource":{"resourceType":"Observation","id":"364c1895-6261-4a2f-8176-fdf0fcb1739c","meta":{"profile":["http://hl7.org/fhir/us/qicore/StructureDefinition/qicore-observation-lab"]},"partOf":[{"reference":"Procedure/68cd40a2-d8c8-44f0-b81e-43ff8fe38e7d"}],"status":"final","category":[{"coding":[{"system":"http://terminology.hl7.org/CodeSystem/observation-category","code":"procedure","display":"Procedure"}]}],"code":{"coding":[{"system":"http://loinc.org","version":"2.76","code":"21902-2","display":"Stage group.pathology Cancer"}]},"subject":{"reference":"Patient/e648fa70-0532-49b0-92f6-dfb5a6d28d94"},"effectivePeriod":{"start":"2026-03-05T08:00:00.000+00:00","end":"2026-03-06T08:15:00.000+00:00"},"issued":"2026-03-05T08:00:00.000+00:00","valueCodeableConcept":{"coding":[{"system":"http://snomed.info/sct","version":"http://snomed.info/sct/731000124108/version/20240301","code":"1228883000","display":"American Joint Committee on Cancer cTa (qualifier value)"}]}},"request":{"method":"PUT","url":"Observation/364c1895-6261-4a2f-8176-fdf0fcb1739c"}},{"fullUrl":"https://madie.cms.gov/MeasureReport/faf8163d-5705-4ce6-9bf5-6fa086e81755","resource":{"resourceType":"MeasureReport","id":"faf8163d-5705-4ce6-9bf5-6fa086e81755","meta":{"profile":["http://hl7.org/fhir/us/cqfmeasures/StructureDefinition/test-case-cqfm"]},"contained":[{"resourceType":"Parameters","id":"66444601-b2fb-4165-8c8f-58f382d99d9b-parameters","parameter":[{"name":"subject","valueString":"e648fa70-0532-49b0-92f6-dfb5a6d28d94"}]}],"extension":[{"url":"http://hl7.org/fhir/StructureDefinition/cqf-inputParameters","valueReference":{"reference":"#66444601-b2fb-4165-8c8f-58f382d99d9b-parameters"}},{"url":"http://hl7.org/fhir/us/cqfmeasures/StructureDefinition/cqfm-testCaseDescription","valueMarkdown":"Patient meets IPP.  BCG not available during MP. Should pass. Note: Issue with Denominator Exception due to negation issues."}],"modifierExtension":[{"url":"http://hl7.org/fhir/us/cqfmeasures/StructureDefinition/cqfm-isTestCase","valueBoolean":true}],"status":"complete","type":"individual","measure":"https://madie.cms.gov/Measure/CMS646FHIRIntravesicalBacillusCalmetteGuerinForBladderCancer","period":{"start":"2026-01-01","end":"2026-12-31"},"group":[{"id":"Group_1","population":[{"id":"InitialPopulation_1","code":{"coding":[{"system":"http://terminology.hl7.org/CodeSystem/measure-population","code":"initial-population","display":"Initial Population"}]},"count":1},{"id":"Denominator_1","code":{"coding":[{"system":"http://terminology.hl7.org/CodeSystem/measure-population","code":"denominator","display":"Denominator"}]},"count":1},{"id":"DenominatorExclusion_1","code":{"coding":[{"system":"http://terminology.hl7.org/CodeSystem/measure-population","code":"denominator-exclusion","display":"Denominator Exclusion"}]},"count":0},{"id":"Numerator_1","code":{"coding":[{"system":"http://terminology.hl7.org/CodeSystem/measure-population","code":"numerator","display":"Numerator"}]},"count":0},{"id":"DenominatorException_1","code":{"coding":[{"system":"http://terminology.hl7.org/CodeSystem/measure-population","code":"denominator-exception","display":"Denominator Exception"}]},"count":0}],"measureScore":{"value":1.0}}],"evaluatedResource":[{"reference":"Patient/e648fa70-0532-49b0-92f6-dfb5a6d28d94"},{"reference":"Condition/0730d577-a375-4315-be41-dee5b10f5fe1"},{"reference":"Encounter/46c26bc3-8994-42e6-a8c7-907fe7f7eaf1"},{"reference":"MedicationAdministration/cae6c85f-ea1e-490f-88ba-824ccb9b0cfe"},{"reference":"Procedure/68cd40a2-d8c8-44f0-b81e-43ff8fe38e7d"},{"reference":"Observation/364c1895-6261-4a2f-8176-fdf0fcb1739c"}]},"request":{"method":"PUT","url":"MeasureReport/faf8163d-5705-4ce6-9bf5-6fa086e81755"}}]},"request":{"method":"PUT","url":"Bundle/4613103103131"}},{"resource":{"resourceType":"MedicationAdministration","id":"cae6c85f-ea1e-490f-88ba-824ccb9b0cfe","meta":{"profile":["http://hl7.org/fhir/us/qicore/StructureDefinition/qicore-mednotadministered"]},"extension":[{"url":"http://hl7.org/fhir/us/qicore/StructureDefinition/qicore-recorded","valueDateTime":"2026-03-06T08:00:00.000+00:00"}],"status":"not-done","statusReason":[{"coding":[{"system":"http://snomed.info/sct","version":"http://snomed.info/sct/731000124108/version/20240301","code":"242990004","display":"Drug not available for administration (event)"}]}],"medicationCodeableConcept":{"coding":[{"system":"http://www.nlm.nih.gov/research/umls/rxnorm","version":"04012024","code":"1653484","display":"BCG, live, Tice strain 50 MG/ML Topical Suspension"}]},"subject":{"reference":"Patient/e648fa70-0532-49b0-92f6-dfb5a6d28d94"},"effectivePeriod":{"start":"2026-03-03T08:00:00.000+00:00","end":"2026-03-06T08:00:00.000+00:00"}},"request":{"method":"PUT","url":"MedicationAdministration/cae6c85f-ea1e-490f-88ba-824ccb9b0cfe"}},{"resource":{"resourceType":"MeasureReport","id":"faf8163d-5705-4ce6-9bf5-6fa086e81755","meta":{"profile":["http://hl7.org/fhir/us/cqfmeasures/StructureDefinition/test-case-cqfm"]},"contained":[{"resourceType":"Parameters","id":"66444601-b2fb-4165-8c8f-58f382d99d9b-parameters","parameter":[{"name":"subject","valueString":"e648fa70-0532-49b0-92f6-dfb5a6d28d94"}]}],"extension":[{"url":"http://hl7.org/fhir/StructureDefinition/cqf-inputParameters","valueReference":{"reference":"#66444601-b2fb-4165-8c8f-58f382d99d9b-parameters"}},{"url":"http://hl7.org/fhir/us/cqfmeasures/StructureDefinition/cqfm-testCaseDescription","valueMarkdown":"Patient meets IPP.  BCG not available during MP. Should pass. Note: Issue with Denominator Exception due to negation issues."}],"modifierExtension":[{"url":"http://hl7.org/fhir/us/cqfmeasures/StructureDefinition/cqfm-isTestCase","valueBoolean":true}],"status":"complete","type":"individual","measure":"https://madie.cms.gov/Measure/CMS646FHIRIntravesicalBacillusCalmetteGuerinForBladderCancer","period":{"start":"2026-01-01","end":"2026-12-31"},"group":[{"id":"Group_1","population":[{"id":"InitialPopulation_1","code":{"coding":[{"system":"http://terminology.hl7.org/CodeSystem/measure-population","code":"initial-population","display":"Initial Population"}]},"count":1},{"id":"Denominator_1","code":{"coding":[{"system":"http://terminology.hl7.org/CodeSystem/measure-population","code":"denominator","display":"Denominator"}]},"count":1},{"id":"DenominatorExclusion_1","code":{"coding":[{"system":"http://terminology.hl7.org/CodeSystem/measure-population","code":"denominator-exclusion","display":"Denominator Exclusion"}]},"count":0},{"id":"Numerator_1","code":{"coding":[{"system":"http://terminology.hl7.org/CodeSystem/measure-population","code":"numerator","display":"Numerator"}]},"count":0},{"id":"DenominatorException_1","code":{"coding":[{"system":"http://terminology.hl7.org/CodeSystem/measure-population","code":"denominator-exception","display":"Denominator Exception"}]},"count":0}],"measureScore":{"value":1.0}}],"evaluatedResource":[{"reference":"Patient/e648fa70-0532-49b0-92f6-dfb5a6d28d94"},{"reference":"Condition/0730d577-a375-4315-be41-dee5b10f5fe1"},{"reference":"Encounter/46c26bc3-8994-42e6-a8c7-907fe7f7eaf1"},{"reference":"MedicationAdministration/cae6c85f-ea1e-490f-88ba-824ccb9b0cfe"},{"reference":"Procedure/68cd40a2-d8c8-44f0-b81e-43ff8fe38e7d"},{"reference":"Observation/364c1895-6261-4a2f-8176-fdf0fcb1739c"}]},"request":{"method":"PUT","url":"MeasureReport/faf8163d-5705-4ce6-9bf5-6fa086e81755"}}]}