{"resourceType":"Bundle","id":"tests-38ed8b42-1631-4673-aa53-6d2a4db163f3-bundle","type":"transaction","entry":[{"fullUrl":"MedicationRequest/dfb4c2be-d7fe-40b2-88af-df7cc9719bcc","resource":{"resourceType":"MedicationRequest","id":"dfb4c2be-d7fe-40b2-88af-df7cc9719bcc","meta":{"profile":["http://hl7.org/fhir/us/qicore/StructureDefinition/qicore-medicationrequest"]},"status":"completed","intent":"order","medicationCodeableConcept":{"coding":[{"system":"http://www.nlm.nih.gov/research/umls/rxnorm","version":"04012024","code":"1303125","display":"prednisone 1 MG Delayed Release Oral Tablet"}]},"subject":{"reference":"Patient/38ed8b42-1631-4673-aa53-6d2a4db163f3"},"authoredOn":"2026-03-03T14:00:00.000+00:00","requester":{"reference":"Practitioner/1351644115135131"},"dosageInstruction":[{"timing":{"repeat":{"boundsPeriod":{"start":"2026-03-03T14:00:00.000+00:00","end":"2026-12-03T14:00:00.000+00:00"}}}}]},"request":{"method":"PUT","url":"MedicationRequest/dfb4c2be-d7fe-40b2-88af-df7cc9719bcc"}},{"fullUrl":"Patient/38ed8b42-1631-4673-aa53-6d2a4db163f3","resource":{"resourceType":"Patient","id":"38ed8b42-1631-4673-aa53-6d2a4db163f3","meta":{"profile":["http://hl7.org/fhir/us/qicore/StructureDefinition/qicore-patient"]},"extension":[{"url":"http://hl7.org/fhir/us/core/StructureDefinition/us-core-race","extension":[{"url":"ombCategory","valueCoding":{"system":"urn:oid:2.16.840.1.113883.6.238","code":"2106-3","display":"White"}},{"url":"detailed","valueCoding":{"system":"urn:oid:2.16.840.1.113883.6.238","code":"2036-2","display":"Filipino"}},{"url":"text","valueString":"mixed"}]},{"url":"http://hl7.org/fhir/us/core/StructureDefinition/us-core-ethnicity","extension":[{"url":"ombCategory","valueCoding":{"system":"urn:oid:2.16.840.1.113883.6.238","code":"2135-2","display":"Hispanic or Latino"}},{"url":"detailed","valueCoding":{"system":"urn:oid:2.16.840.1.113883.6.238","code":"2148-5","display":"Mexican"}},{"url":"text","valueString":"Hispanic or Latino"}]}],"identifier":[{"type":{"coding":[{"system":"http://terminology.hl7.org/CodeSystem/v2-0203","code":"MR"}]},"system":"https://bonnie-fhir.healthit.gov/","value":"7843135463165262"}],"name":[{"family":"DENEXPass","given":["ImmunosuppresiveMedicationsB4BCS"]}],"gender":"female","birthDate":"1947-11-03"},"request":{"method":"PUT","url":"Patient/38ed8b42-1631-4673-aa53-6d2a4db163f3"}},{"fullUrl":"Procedure/3cf0f0ae-958b-4c3b-971e-613d7c672201","resource":{"resourceType":"Procedure","id":"3cf0f0ae-958b-4c3b-971e-613d7c672201","meta":{"profile":["http://hl7.org/fhir/us/qicore/StructureDefinition/qicore-procedure"]},"extension":[{"url":"http://hl7.org/fhir/us/qicore/StructureDefinition/qicore-recorded","valueDateTime":"2026-04-06T08:00:00.000+00:00"}],"status":"completed","code":{"coding":[{"system":"http://snomed.info/sct","version":"http://snomed.info/sct/731000124108/version/20240301","code":"254292007","display":"Tumor staging"}]},"subject":{"reference":"Patient/38ed8b42-1631-4673-aa53-6d2a4db163f3"},"performedDateTime":"2026-04-06T08:00:00.000+00:00"},"request":{"method":"PUT","url":"Procedure/3cf0f0ae-958b-4c3b-971e-613d7c672201"}},{"fullUrl":"MeasureReport/17c744f6-f948-4bc1-b586-c395663c2056","resource":{"resourceType":"MeasureReport","id":"17c744f6-f948-4bc1-b586-c395663c2056","meta":{"profile":["http://hl7.org/fhir/us/cqfmeasures/StructureDefinition/test-case-cqfm"]},"contained":[{"resourceType":"Parameters","id":"ad76d3b0-d759-4b25-820d-6dbce8701732-parameters","parameter":[{"name":"subject","valueString":"38ed8b42-1631-4673-aa53-6d2a4db163f3"}]}],"extension":[{"url":"http://hl7.org/fhir/StructureDefinition/cqf-inputParameters","valueReference":{"reference":"#ad76d3b0-d759-4b25-820d-6dbce8701732-parameters"}},{"url":"http://hl7.org/fhir/us/cqfmeasures/StructureDefinition/cqfm-testCaseDescription","valueMarkdown":"Patient's most recent bladder cancer tumor staging is Tis. Patient has Medication Request for prednisone before BCS which qualifies for denominator exclusion. Uses Bound period"}],"modifierExtension":[{"url":"http://hl7.org/fhir/us/cqfmeasures/StructureDefinition/cqfm-isTestCase","valueBoolean":true}],"status":"complete","type":"individual","measure":"https://madie.cms.gov/Measure/CMS646FHIRIntravesicalBacillusCalmetteGuerinForBladderCancer","period":{"start":"2026-01-01","end":"2026-12-31"},"group":[{"id":"Group_1","population":[{"id":"InitialPopulation_1","code":{"coding":[{"system":"http://terminology.hl7.org/CodeSystem/measure-population","code":"initial-population","display":"Initial Population"}]},"count":1},{"id":"Denominator_1","code":{"coding":[{"system":"http://terminology.hl7.org/CodeSystem/measure-population","code":"denominator","display":"Denominator"}]},"count":1},{"id":"DenominatorExclusion_1","code":{"coding":[{"system":"http://terminology.hl7.org/CodeSystem/measure-population","code":"denominator-exclusion","display":"Denominator Exclusion"}]},"count":1},{"id":"Numerator_1","code":{"coding":[{"system":"http://terminology.hl7.org/CodeSystem/measure-population","code":"numerator","display":"Numerator"}]},"count":0},{"id":"DenominatorException_1","code":{"coding":[{"system":"http://terminology.hl7.org/CodeSystem/measure-population","code":"denominator-exception","display":"Denominator Exception"}]},"count":0}],"measureScore":{"value":1.0}}],"evaluatedResource":[{"reference":"Patient/38ed8b42-1631-4673-aa53-6d2a4db163f3"},{"reference":"Encounter/7404dabe-00bf-47f0-a24f-7fe4c1efa77a"},{"reference":"Condition/6196b204-fa06-4595-ada5-d656a0fb6c2b"},{"reference":"MedicationRequest/dfb4c2be-d7fe-40b2-88af-df7cc9719bcc"},{"reference":"Procedure/3cf0f0ae-958b-4c3b-971e-613d7c672201"},{"reference":"Coverage/d6d0d713-a6d7-45b6-bca5-ded5e6e10830"},{"reference":"Organization/a594dfae-fd93-4428-83e4-5469f7b7acb2"},{"reference":"Practitioner/62cdec00-a25a-4143-bb98-68e9c492cbbd"},{"reference":"Observation/cd7c4822-e54a-48d1-8cc7-71d0013065fb"}]},"request":{"method":"PUT","url":"MeasureReport/17c744f6-f948-4bc1-b586-c395663c2056"}},{"fullUrl":"Organization/a594dfae-fd93-4428-83e4-5469f7b7acb2","resource":{"resourceType":"Organization","id":"a594dfae-fd93-4428-83e4-5469f7b7acb2","meta":{"profile":["http://hl7.org/fhir/us/qicore/StructureDefinition/qicore-organization"]},"identifier":[{"use":"temp","system":"urn:oid:2.16.840.1.113883.4.4","value":"21-3259825"}],"active":true,"type":[{"coding":[{"system":"http://terminology.hl7.org/CodeSystem/organization-type","code":"pay","display":"Payer"}]}],"name":"Blue Cross Blue Shield of Texas","telecom":[{"system":"phone","value":"(+1) 972-766-6900"}],"address":[{"use":"billing","type":"postal","line":["P.O. Box 660044"],"city":"Dallas","state":"TX","postalCode":"75266-0044","country":"USA"}]},"request":{"method":"PUT","url":"Organization/a594dfae-fd93-4428-83e4-5469f7b7acb2"}},{"fullUrl":"Condition/6196b204-fa06-4595-ada5-d656a0fb6c2b","resource":{"resourceType":"Condition","id":"6196b204-fa06-4595-ada5-d656a0fb6c2b","meta":{"profile":["http://hl7.org/fhir/us/qicore/StructureDefinition/qicore-condition-problems-health-concerns"]},"clinicalStatus":{"coding":[{"system":"http://terminology.hl7.org/CodeSystem/condition-clinical","code":"active","display":"Active"}]},"verificationStatus":{"coding":[{"system":"http://terminology.hl7.org/CodeSystem/condition-ver-status","code":"confirmed","display":"Confirmed"}]},"category":[{"coding":[{"system":"http://terminology.hl7.org/CodeSystem/condition-category","code":"problem-list-item","display":"Problem List Item"}]}],"code":{"coding":[{"system":"http://hl7.org/fhir/sid/icd-10-cm","version":"2024","code":"C67.1","display":"Malignant neoplasm of dome of bladder"}]},"subject":{"reference":"Patient/38ed8b42-1631-4673-aa53-6d2a4db163f3"},"onsetPeriod":{"start":"2026-04-06T08:00:00.000+00:00"}},"request":{"method":"PUT","url":"Condition/6196b204-fa06-4595-ada5-d656a0fb6c2b"}},{"fullUrl":"Coverage/d6d0d713-a6d7-45b6-bca5-ded5e6e10830","resource":{"resourceType":"Coverage","id":"d6d0d713-a6d7-45b6-bca5-ded5e6e10830","meta":{"profile":["http://hl7.org/fhir/us/qicore/StructureDefinition/qicore-coverage"]},"status":"active","type":{"coding":[{"system":"https://nahdo.org/sopt","code":"59","display":"Other Private Insurance"}]},"beneficiary":{"reference":"Patient/38ed8b42-1631-4673-aa53-6d2a4db163f3"},"period":{"start":"2025-05-01","end":"2026-04-27"},"payor":[{"reference":"Organization/a594dfae-fd93-4428-83e4-5469f7b7acb2"}]},"request":{"method":"PUT","url":"Coverage/d6d0d713-a6d7-45b6-bca5-ded5e6e10830"}},{"fullUrl":"Practitioner/62cdec00-a25a-4143-bb98-68e9c492cbbd","resource":{"resourceType":"Practitioner","id":"62cdec00-a25a-4143-bb98-68e9c492cbbd","meta":{"profile":["http://hl7.org/fhir/us/qicore/StructureDefinition/qicore-practitioner"]},"identifier":[{"system":"http://hl7.org/fhir/sid/us-npi","value":"123456"}],"name":[{"family":"Evil","prefix":["Dr"]}]},"request":{"method":"PUT","url":"Practitioner/62cdec00-a25a-4143-bb98-68e9c492cbbd"}},{"fullUrl":"Encounter/7404dabe-00bf-47f0-a24f-7fe4c1efa77a","resource":{"resourceType":"Encounter","id":"7404dabe-00bf-47f0-a24f-7fe4c1efa77a","meta":{"profile":["http://hl7.org/fhir/us/qicore/StructureDefinition/qicore-encounter"]},"status":"finished","class":{"system":"http://terminology.hl7.org/CodeSystem/v3-ActCode","code":"AMB","display":"ambulatory"},"type":[{"coding":[{"system":"http://snomed.info/sct","version":"http://snomed.info/sct/731000124108/version/20240301","code":"185463005","display":"Visit out of hours (procedure)"}]}],"subject":{"reference":"Patient/38ed8b42-1631-4673-aa53-6d2a4db163f3"},"period":{"start":"2026-04-06T08:00:00.000+00:00","end":"2026-04-06T09:15:00.000+00:00"}},"request":{"method":"PUT","url":"Encounter/7404dabe-00bf-47f0-a24f-7fe4c1efa77a"}},{"fullUrl":"Bundle/4613103634163131","resource":{"resourceType":"Bundle","id":"4613103634163131","type":"transaction","entry":[{"fullUrl":"https://madie.cms.gov/Patient/38ed8b42-1631-4673-aa53-6d2a4db163f3","resource":{"resourceType":"Patient","id":"38ed8b42-1631-4673-aa53-6d2a4db163f3","meta":{"profile":["http://hl7.org/fhir/us/qicore/StructureDefinition/qicore-patient"]},"extension":[{"url":"http://hl7.org/fhir/us/core/StructureDefinition/us-core-race","extension":[{"url":"ombCategory","valueCoding":{"system":"urn:oid:2.16.840.1.113883.6.238","code":"2106-3","display":"White"}},{"url":"detailed","valueCoding":{"system":"urn:oid:2.16.840.1.113883.6.238","code":"2036-2","display":"Filipino"}},{"url":"text","valueString":"mixed"}]},{"url":"http://hl7.org/fhir/us/core/StructureDefinition/us-core-ethnicity","extension":[{"url":"ombCategory","valueCoding":{"system":"urn:oid:2.16.840.1.113883.6.238","code":"2135-2","display":"Hispanic or Latino"}},{"url":"detailed","valueCoding":{"system":"urn:oid:2.16.840.1.113883.6.238","code":"2148-5","display":"Mexican"}},{"url":"text","valueString":"Hispanic or Latino"}]}],"identifier":[{"type":{"coding":[{"system":"http://terminology.hl7.org/CodeSystem/v2-0203","code":"MR"}]},"system":"https://bonnie-fhir.healthit.gov/","value":"7843135463165262"}],"name":[{"family":"DENEXPass","given":["ImmunosuppresiveMedicationsB4BCS"]}],"gender":"female","birthDate":"1947-11-03"},"request":{"method":"PUT","url":"Patient/38ed8b42-1631-4673-aa53-6d2a4db163f3"}},{"fullUrl":"https://madie.cms.gov/Encounter/7404dabe-00bf-47f0-a24f-7fe4c1efa77a","resource":{"resourceType":"Encounter","id":"7404dabe-00bf-47f0-a24f-7fe4c1efa77a","meta":{"profile":["http://hl7.org/fhir/us/qicore/StructureDefinition/qicore-encounter"]},"status":"finished","class":{"system":"http://terminology.hl7.org/CodeSystem/v3-ActCode","code":"AMB","display":"ambulatory"},"type":[{"coding":[{"system":"http://snomed.info/sct","version":"http://snomed.info/sct/731000124108/version/20240301","code":"185463005","display":"Visit out of hours (procedure)"}]}],"subject":{"reference":"Patient/38ed8b42-1631-4673-aa53-6d2a4db163f3"},"period":{"start":"2026-04-06T08:00:00.000+00:00","end":"2026-04-06T09:15:00.000+00:00"}},"request":{"method":"PUT","url":"Encounter/7404dabe-00bf-47f0-a24f-7fe4c1efa77a"}},{"fullUrl":"https://madie.cms.gov/Condition/6196b204-fa06-4595-ada5-d656a0fb6c2b","resource":{"resourceType":"Condition","id":"6196b204-fa06-4595-ada5-d656a0fb6c2b","meta":{"profile":["http://hl7.org/fhir/us/qicore/StructureDefinition/qicore-condition-problems-health-concerns"]},"clinicalStatus":{"coding":[{"system":"http://terminology.hl7.org/CodeSystem/condition-clinical","code":"active","display":"Active"}]},"verificationStatus":{"coding":[{"system":"http://terminology.hl7.org/CodeSystem/condition-ver-status","code":"confirmed","display":"Confirmed"}]},"category":[{"coding":[{"system":"http://terminology.hl7.org/CodeSystem/condition-category","code":"problem-list-item","display":"Problem List Item"}]}],"code":{"coding":[{"system":"http://hl7.org/fhir/sid/icd-10-cm","version":"2024","code":"C67.1","display":"Malignant neoplasm of dome of bladder"}]},"subject":{"reference":"Patient/38ed8b42-1631-4673-aa53-6d2a4db163f3"},"onsetPeriod":{"start":"2026-04-06T08:00:00.000+00:00"}},"request":{"method":"PUT","url":"Condition/6196b204-fa06-4595-ada5-d656a0fb6c2b"}},{"fullUrl":"https://madie.cms.gov/MedicationRequest/dfb4c2be-d7fe-40b2-88af-df7cc9719bcc","resource":{"resourceType":"MedicationRequest","id":"dfb4c2be-d7fe-40b2-88af-df7cc9719bcc","meta":{"profile":["http://hl7.org/fhir/us/qicore/StructureDefinition/qicore-medicationrequest"]},"status":"completed","intent":"order","medicationCodeableConcept":{"coding":[{"system":"http://www.nlm.nih.gov/research/umls/rxnorm","version":"04012024","code":"1303125","display":"prednisone 1 MG Delayed Release Oral Tablet"}]},"subject":{"reference":"Patient/38ed8b42-1631-4673-aa53-6d2a4db163f3"},"authoredOn":"2026-03-03T14:00:00.000+00:00","requester":{"reference":"Practitioner/1351644115135131"},"dosageInstruction":[{"timing":{"repeat":{"boundsPeriod":{"start":"2026-03-03T14:00:00.000+00:00","end":"2026-12-03T14:00:00.000+00:00"}}}}]},"request":{"method":"PUT","url":"MedicationRequest/dfb4c2be-d7fe-40b2-88af-df7cc9719bcc"}},{"fullUrl":"https://madie.cms.gov/Procedure/3cf0f0ae-958b-4c3b-971e-613d7c672201","resource":{"resourceType":"Procedure","id":"3cf0f0ae-958b-4c3b-971e-613d7c672201","meta":{"profile":["http://hl7.org/fhir/us/qicore/StructureDefinition/qicore-procedure"]},"extension":[{"url":"http://hl7.org/fhir/us/qicore/StructureDefinition/qicore-recorded","valueDateTime":"2026-04-06T08:00:00.000+00:00"}],"status":"completed","code":{"coding":[{"system":"http://snomed.info/sct","version":"http://snomed.info/sct/731000124108/version/20240301","code":"254292007","display":"Tumor staging"}]},"subject":{"reference":"Patient/38ed8b42-1631-4673-aa53-6d2a4db163f3"},"performedDateTime":"2026-04-06T08:00:00.000+00:00"},"request":{"method":"PUT","url":"Procedure/3cf0f0ae-958b-4c3b-971e-613d7c672201"}},{"fullUrl":"https://madie.cms.gov/Coverage/d6d0d713-a6d7-45b6-bca5-ded5e6e10830","resource":{"resourceType":"Coverage","id":"d6d0d713-a6d7-45b6-bca5-ded5e6e10830","meta":{"profile":["http://hl7.org/fhir/us/qicore/StructureDefinition/qicore-coverage"]},"status":"active","type":{"coding":[{"system":"https://nahdo.org/sopt","code":"59","display":"Other Private Insurance"}]},"beneficiary":{"reference":"Patient/38ed8b42-1631-4673-aa53-6d2a4db163f3"},"period":{"start":"2025-05-01","end":"2026-04-27"},"payor":[{"reference":"Organization/a594dfae-fd93-4428-83e4-5469f7b7acb2"}]},"request":{"method":"PUT","url":"Coverage/d6d0d713-a6d7-45b6-bca5-ded5e6e10830"}},{"fullUrl":"https://madie.cms.gov/Organization/a594dfae-fd93-4428-83e4-5469f7b7acb2","resource":{"resourceType":"Organization","id":"a594dfae-fd93-4428-83e4-5469f7b7acb2","meta":{"profile":["http://hl7.org/fhir/us/qicore/StructureDefinition/qicore-organization"]},"identifier":[{"use":"temp","system":"urn:oid:2.16.840.1.113883.4.4","value":"21-3259825"}],"active":true,"type":[{"coding":[{"system":"http://terminology.hl7.org/CodeSystem/organization-type","code":"pay","display":"Payer"}]}],"name":"Blue Cross Blue Shield of Texas","telecom":[{"system":"phone","value":"(+1) 972-766-6900"}],"address":[{"use":"billing","type":"postal","line":["P.O. Box 660044"],"city":"Dallas","state":"TX","postalCode":"75266-0044","country":"USA"}]},"request":{"method":"PUT","url":"Organization/a594dfae-fd93-4428-83e4-5469f7b7acb2"}},{"fullUrl":"https://madie.cms.gov/Practitioner/62cdec00-a25a-4143-bb98-68e9c492cbbd","resource":{"resourceType":"Practitioner","id":"62cdec00-a25a-4143-bb98-68e9c492cbbd","meta":{"profile":["http://hl7.org/fhir/us/qicore/StructureDefinition/qicore-practitioner"]},"identifier":[{"system":"http://hl7.org/fhir/sid/us-npi","value":"123456"}],"name":[{"family":"Evil","prefix":["Dr"]}]},"request":{"method":"PUT","url":"Practitioner/62cdec00-a25a-4143-bb98-68e9c492cbbd"}},{"fullUrl":"https://madie.cms.gov/Observation/cd7c4822-e54a-48d1-8cc7-71d0013065fb","resource":{"resourceType":"Observation","id":"cd7c4822-e54a-48d1-8cc7-71d0013065fb","meta":{"profile":["http://hl7.org/fhir/us/qicore/StructureDefinition/qicore-observation-lab"]},"partOf":[{"reference":"Procedure/3cf0f0ae-958b-4c3b-971e-613d7c672201"}],"status":"final","category":[{"coding":[{"system":"http://terminology.hl7.org/CodeSystem/observation-category","code":"procedure","display":"Procedure"}]}],"code":{"coding":[{"system":"http://loinc.org","version":"2.76","code":"21902-2","display":"Stage group.pathology Cancer"}]},"subject":{"reference":"Patient/38ed8b42-1631-4673-aa53-6d2a4db163f3"},"effectiveDateTime":"2026-04-06T08:00:00.000+00:00","issued":"2026-04-06T08:10:00.000+00:00","valueCodeableConcept":{"coding":[{"system":"http://snomed.info/sct","version":"http://snomed.info/sct/731000124108/version/20240301","code":"1228884006","display":"American Joint Committee on Cancer cTis (qualifier value)"}]}},"request":{"method":"PUT","url":"Observation/cd7c4822-e54a-48d1-8cc7-71d0013065fb"}},{"fullUrl":"https://madie.cms.gov/MeasureReport/17c744f6-f948-4bc1-b586-c395663c2056","resource":{"resourceType":"MeasureReport","id":"17c744f6-f948-4bc1-b586-c395663c2056","meta":{"profile":["http://hl7.org/fhir/us/cqfmeasures/StructureDefinition/test-case-cqfm"]},"contained":[{"resourceType":"Parameters","id":"ad76d3b0-d759-4b25-820d-6dbce8701732-parameters","parameter":[{"name":"subject","valueString":"38ed8b42-1631-4673-aa53-6d2a4db163f3"}]}],"extension":[{"url":"http://hl7.org/fhir/StructureDefinition/cqf-inputParameters","valueReference":{"reference":"#ad76d3b0-d759-4b25-820d-6dbce8701732-parameters"}},{"url":"http://hl7.org/fhir/us/cqfmeasures/StructureDefinition/cqfm-testCaseDescription","valueMarkdown":"Patient's most recent bladder cancer tumor staging is Tis. Patient has Medication Request for prednisone before BCS which qualifies for denominator exclusion. Uses Bound period"}],"modifierExtension":[{"url":"http://hl7.org/fhir/us/cqfmeasures/StructureDefinition/cqfm-isTestCase","valueBoolean":true}],"status":"complete","type":"individual","measure":"https://madie.cms.gov/Measure/CMS646FHIRIntravesicalBacillusCalmetteGuerinForBladderCancer","period":{"start":"2026-01-01","end":"2026-12-31"},"group":[{"id":"Group_1","population":[{"id":"InitialPopulation_1","code":{"coding":[{"system":"http://terminology.hl7.org/CodeSystem/measure-population","code":"initial-population","display":"Initial Population"}]},"count":1},{"id":"Denominator_1","code":{"coding":[{"system":"http://terminology.hl7.org/CodeSystem/measure-population","code":"denominator","display":"Denominator"}]},"count":1},{"id":"DenominatorExclusion_1","code":{"coding":[{"system":"http://terminology.hl7.org/CodeSystem/measure-population","code":"denominator-exclusion","display":"Denominator Exclusion"}]},"count":1},{"id":"Numerator_1","code":{"coding":[{"system":"http://terminology.hl7.org/CodeSystem/measure-population","code":"numerator","display":"Numerator"}]},"count":0},{"id":"DenominatorException_1","code":{"coding":[{"system":"http://terminology.hl7.org/CodeSystem/measure-population","code":"denominator-exception","display":"Denominator Exception"}]},"count":0}],"measureScore":{"value":1.0}}],"evaluatedResource":[{"reference":"Patient/38ed8b42-1631-4673-aa53-6d2a4db163f3"},{"reference":"Encounter/7404dabe-00bf-47f0-a24f-7fe4c1efa77a"},{"reference":"Condition/6196b204-fa06-4595-ada5-d656a0fb6c2b"},{"reference":"MedicationRequest/dfb4c2be-d7fe-40b2-88af-df7cc9719bcc"},{"reference":"Procedure/3cf0f0ae-958b-4c3b-971e-613d7c672201"},{"reference":"Coverage/d6d0d713-a6d7-45b6-bca5-ded5e6e10830"},{"reference":"Organization/a594dfae-fd93-4428-83e4-5469f7b7acb2"},{"reference":"Practitioner/62cdec00-a25a-4143-bb98-68e9c492cbbd"},{"reference":"Observation/cd7c4822-e54a-48d1-8cc7-71d0013065fb"}]},"request":{"method":"PUT","url":"MeasureReport/17c744f6-f948-4bc1-b586-c395663c2056"}}]},"request":{"method":"PUT","url":"Bundle/4613103634163131"}},{"fullUrl":"Observation/cd7c4822-e54a-48d1-8cc7-71d0013065fb","resource":{"resourceType":"Observation","id":"cd7c4822-e54a-48d1-8cc7-71d0013065fb","meta":{"profile":["http://hl7.org/fhir/us/qicore/StructureDefinition/qicore-observation-lab"]},"partOf":[{"reference":"Procedure/3cf0f0ae-958b-4c3b-971e-613d7c672201"}],"status":"final","category":[{"coding":[{"system":"http://terminology.hl7.org/CodeSystem/observation-category","code":"procedure","display":"Procedure"}]}],"code":{"coding":[{"system":"http://loinc.org","version":"2.76","code":"21902-2","display":"Stage group.pathology Cancer"}]},"subject":{"reference":"Patient/38ed8b42-1631-4673-aa53-6d2a4db163f3"},"effectiveDateTime":"2026-04-06T08:00:00.000+00:00","issued":"2026-04-06T08:10:00.000+00:00","valueCodeableConcept":{"coding":[{"system":"http://snomed.info/sct","version":"http://snomed.info/sct/731000124108/version/20240301","code":"1228884006","display":"American Joint Committee on Cancer cTis (qualifier value)"}]}},"request":{"method":"PUT","url":"Observation/cd7c4822-e54a-48d1-8cc7-71d0013065fb"}}]}