{"resourceType":"Bundle","id":"tests-12bc129c-71df-4fa1-8192-31aaff72d229-bundle","type":"transaction","entry":[{"fullUrl":"Practitioner/b7fe8a5f-9035-4422-aa38-c5168c6574ea","resource":{"resourceType":"Practitioner","id":"b7fe8a5f-9035-4422-aa38-c5168c6574ea","meta":{"profile":["http://hl7.org/fhir/us/qicore/StructureDefinition/qicore-practitioner"]},"identifier":[{"use":"temp","system":"urn:oid:2.16.840.1.113883.4.336","value":"Practitioner-23"}],"active":true,"name":[{"family":"Careful","given":["Adam"],"prefix":["Dr"]}],"address":[{"use":"home","line":["534 Erewhon St"],"city":"PleasantVille","state":"UT","postalCode":"84414"}],"qualification":[{"identifier":[{"system":"http://example.org/UniversityIdentifier","value":"12345"}],"code":{"coding":[{"system":"http://terminology.hl7.org/CodeSystem/v2-0360|2.7","code":"BS","display":"Bachelor of Science"}],"text":"Bachelor of Science"},"period":{"start":"1996"},"issuer":{"display":"Example University"}}]},"request":{"method":"PUT","url":"Practitioner/b7fe8a5f-9035-4422-aa38-c5168c6574ea"}},{"fullUrl":"Procedure/d5beb81d-da91-4a4f-81b4-699a326d6407","resource":{"resourceType":"Procedure","id":"d5beb81d-da91-4a4f-81b4-699a326d6407","meta":{"profile":["http://hl7.org/fhir/us/qicore/StructureDefinition/qicore-procedure"]},"extension":[{"url":"http://hl7.org/fhir/us/qicore/StructureDefinition/qicore-recorded","valueDateTime":"2026-02-01T08:00:00.000+00:00"}],"status":"completed","code":{"coding":[{"system":"http://snomed.info/sct","version":"http://snomed.info/sct/731000124108/version/20240301","code":"254292007","display":"Tumor staging"}]},"subject":{"reference":"Patient/12bc129c-71df-4fa1-8192-31aaff72d229"},"performedPeriod":{"start":"2026-02-01T08:00:00.000+00:00","end":"2026-02-01T08:15:00.000+00:00"}},"request":{"method":"PUT","url":"Procedure/d5beb81d-da91-4a4f-81b4-699a326d6407"}},{"fullUrl":"MeasureReport/2488f3ab-3c5b-4c53-b573-9751d3251480","resource":{"resourceType":"MeasureReport","id":"2488f3ab-3c5b-4c53-b573-9751d3251480","meta":{"profile":["http://hl7.org/fhir/us/cqfmeasures/StructureDefinition/test-case-cqfm"]},"contained":[{"resourceType":"Parameters","id":"ce84e24c-d96f-4551-b10f-42c45398fbaa-parameters","parameter":[{"name":"subject","valueString":"12bc129c-71df-4fa1-8192-31aaff72d229"}]}],"extension":[{"url":"http://hl7.org/fhir/StructureDefinition/cqf-inputParameters","valueReference":{"reference":"#ce84e24c-d96f-4551-b10f-42c45398fbaa-parameters"}},{"url":"http://hl7.org/fhir/us/cqfmeasures/StructureDefinition/cqfm-testCaseDescription","valueMarkdown":"Patient's tumor staged as cT1. BCG given at 6mo after staging.  Edge testing"}],"modifierExtension":[{"url":"http://hl7.org/fhir/us/cqfmeasures/StructureDefinition/cqfm-isTestCase","valueBoolean":true}],"status":"complete","type":"individual","measure":"https://madie.cms.gov/Measure/CMS646FHIRIntravesicalBacillusCalmetteGuerinForBladderCancer","period":{"start":"2026-01-01","end":"2026-12-31"},"group":[{"id":"Group_1","population":[{"id":"InitialPopulation_1","code":{"coding":[{"system":"http://terminology.hl7.org/CodeSystem/measure-population","code":"initial-population","display":"Initial Population"}]},"count":1},{"id":"Denominator_1","code":{"coding":[{"system":"http://terminology.hl7.org/CodeSystem/measure-population","code":"denominator","display":"Denominator"}]},"count":1},{"id":"DenominatorExclusion_1","code":{"coding":[{"system":"http://terminology.hl7.org/CodeSystem/measure-population","code":"denominator-exclusion","display":"Denominator Exclusion"}]},"count":0},{"id":"Numerator_1","code":{"coding":[{"system":"http://terminology.hl7.org/CodeSystem/measure-population","code":"numerator","display":"Numerator"}]},"count":1},{"id":"DenominatorException_1","code":{"coding":[{"system":"http://terminology.hl7.org/CodeSystem/measure-population","code":"denominator-exception","display":"Denominator Exception"}]},"count":0}],"measureScore":{"value":1.0}}],"evaluatedResource":[{"reference":"Patient/12bc129c-71df-4fa1-8192-31aaff72d229"},{"reference":"Encounter/092e999a-dd7f-4c64-8cc7-f1d9d67a7ab4"},{"reference":"Condition/0121d280-4a36-433e-8fd9-96b03dc9447b"},{"reference":"Observation/e6947238-f109-4b0a-975a-db39c480a01b"},{"reference":"MedicationAdministration/98b73ee7-7a04-4180-80a0-8b8e6108a157"},{"reference":"Practitioner/b7fe8a5f-9035-4422-aa38-c5168c6574ea"},{"reference":"Procedure/d5beb81d-da91-4a4f-81b4-699a326d6407"}]},"request":{"method":"PUT","url":"MeasureReport/2488f3ab-3c5b-4c53-b573-9751d3251480"}},{"fullUrl":"Patient/12bc129c-71df-4fa1-8192-31aaff72d229","resource":{"resourceType":"Patient","id":"12bc129c-71df-4fa1-8192-31aaff72d229","meta":{"profile":["http://hl7.org/fhir/us/qicore/StructureDefinition/qicore-patient"]},"extension":[{"url":"http://hl7.org/fhir/us/core/StructureDefinition/us-core-race","extension":[{"url":"ombCategory","valueCoding":{"system":"urn:oid:2.16.840.1.113883.6.238","code":"1002-5","display":"American Indian or Alaska Native"}},{"url":"text","valueString":"American Indian or Alaska Native"}]},{"url":"http://hl7.org/fhir/us/core/StructureDefinition/us-core-ethnicity","extension":[{"url":"ombCategory","valueCoding":{"system":"urn:oid:2.16.840.1.113883.6.238","code":"2135-2","display":"Hispanic or Latino"}},{"url":"text","valueString":"Hispanic or Latino"}]}],"identifier":[{"type":{"coding":[{"system":"http://terminology.hl7.org/CodeSystem/v2-0203","code":"MR"}]},"system":"https://bonnie-fhir.healthit.gov/","value":"62bc69333e113102f8cedca6"}],"name":[{"family":"NUMERPass","given":["BCGAt6MoEdge"]}],"gender":"female","birthDate":"1947-02-01"},"request":{"method":"PUT","url":"Patient/12bc129c-71df-4fa1-8192-31aaff72d229"}},{"fullUrl":"Bundle/62bc69333e113102f8cedca6","resource":{"resourceType":"Bundle","id":"62bc69333e113102f8cedca6","type":"transaction","entry":[{"fullUrl":"https://madie.cms.gov/Patient/12bc129c-71df-4fa1-8192-31aaff72d229","resource":{"resourceType":"Patient","id":"12bc129c-71df-4fa1-8192-31aaff72d229","meta":{"profile":["http://hl7.org/fhir/us/qicore/StructureDefinition/qicore-patient"]},"extension":[{"url":"http://hl7.org/fhir/us/core/StructureDefinition/us-core-race","extension":[{"url":"ombCategory","valueCoding":{"system":"urn:oid:2.16.840.1.113883.6.238","code":"1002-5","display":"American Indian or Alaska Native"}},{"url":"text","valueString":"American Indian or Alaska Native"}]},{"url":"http://hl7.org/fhir/us/core/StructureDefinition/us-core-ethnicity","extension":[{"url":"ombCategory","valueCoding":{"system":"urn:oid:2.16.840.1.113883.6.238","code":"2135-2","display":"Hispanic or Latino"}},{"url":"text","valueString":"Hispanic or Latino"}]}],"identifier":[{"type":{"coding":[{"system":"http://terminology.hl7.org/CodeSystem/v2-0203","code":"MR"}]},"system":"https://bonnie-fhir.healthit.gov/","value":"62bc69333e113102f8cedca6"}],"name":[{"family":"NUMERPass","given":["BCGAt6MoEdge"]}],"gender":"female","birthDate":"1947-02-01"},"request":{"method":"PUT","url":"Patient/12bc129c-71df-4fa1-8192-31aaff72d229"}},{"fullUrl":"https://madie.cms.gov/Encounter/092e999a-dd7f-4c64-8cc7-f1d9d67a7ab4","resource":{"resourceType":"Encounter","id":"092e999a-dd7f-4c64-8cc7-f1d9d67a7ab4","meta":{"profile":["http://hl7.org/fhir/us/qicore/StructureDefinition/qicore-encounter"]},"status":"finished","class":{"system":"http://terminology.hl7.org/CodeSystem/v3-ActCode","code":"AMB","display":"ambulatory"},"type":[{"coding":[{"system":"http://snomed.info/sct","version":"http://snomed.info/sct/731000124108/version/20240301","code":"185463005","display":"Visit out of hours (procedure)"}]}],"subject":{"reference":"Patient/12bc129c-71df-4fa1-8192-31aaff72d229"},"period":{"start":"2026-02-01T08:00:00.000+00:00","end":"2026-02-01T09:15:00.000+00:00"}},"request":{"method":"PUT","url":"Encounter/092e999a-dd7f-4c64-8cc7-f1d9d67a7ab4"}},{"fullUrl":"https://madie.cms.gov/Condition/0121d280-4a36-433e-8fd9-96b03dc9447b","resource":{"resourceType":"Condition","id":"0121d280-4a36-433e-8fd9-96b03dc9447b","meta":{"profile":["http://hl7.org/fhir/us/qicore/StructureDefinition/qicore-condition-problems-health-concerns"]},"clinicalStatus":{"coding":[{"system":"http://terminology.hl7.org/CodeSystem/condition-clinical","code":"active","display":"Active"}]},"verificationStatus":{"coding":[{"system":"http://terminology.hl7.org/CodeSystem/condition-ver-status","code":"confirmed","display":"Confirmed"}]},"category":[{"coding":[{"system":"http://terminology.hl7.org/CodeSystem/condition-category","code":"problem-list-item","display":"Problem List Item"}]}],"code":{"coding":[{"system":"http://hl7.org/fhir/sid/icd-10-cm","version":"2024","code":"C67.3","display":"Malignant neoplasm of anterior wall of bladder"}]},"subject":{"reference":"Patient/12bc129c-71df-4fa1-8192-31aaff72d229"},"onsetDateTime":"2026-02-01T08:00:00.000+00:00"},"request":{"method":"PUT","url":"Condition/0121d280-4a36-433e-8fd9-96b03dc9447b"}},{"fullUrl":"https://madie.cms.gov/Observation/e6947238-f109-4b0a-975a-db39c480a01b","resource":{"resourceType":"Observation","id":"e6947238-f109-4b0a-975a-db39c480a01b","meta":{"profile":["http://hl7.org/fhir/us/qicore/StructureDefinition/qicore-observation-lab"]},"partOf":[{"reference":"Procedure/d5beb81d-da91-4a4f-81b4-699a326d6407"}],"status":"final","category":[{"coding":[{"system":"http://terminology.hl7.org/CodeSystem/observation-category","code":"procedure","display":"Procedure"}]}],"code":{"coding":[{"system":"http://loinc.org","version":"2.76","code":"21902-2","display":"Stage group.pathology Cancer"}]},"subject":{"reference":"Patient/12bc129c-71df-4fa1-8192-31aaff72d229"},"effectivePeriod":{"start":"2023-09-30T08:00:00.000+00:00","end":"2023-09-30T08:15:00.000+00:00"},"issued":"2026-02-02T08:15:00.000+00:00","valueCodeableConcept":{"coding":[{"system":"http://snomed.info/sct","version":"http://snomed.info/sct/731000124108/version/20240301","code":"1228889001","display":"American Joint Committee on Cancer cT1 (qualifier value)"}]}},"request":{"method":"PUT","url":"Observation/e6947238-f109-4b0a-975a-db39c480a01b"}},{"fullUrl":"https://madie.cms.gov/MedicationAdministration/98b73ee7-7a04-4180-80a0-8b8e6108a157","resource":{"resourceType":"MedicationAdministration","id":"98b73ee7-7a04-4180-80a0-8b8e6108a157","meta":{"profile":["http://hl7.org/fhir/us/qicore/StructureDefinition/qicore-medicationadministration"]},"status":"in-progress","medicationCodeableConcept":{"coding":[{"system":"http://www.nlm.nih.gov/research/umls/rxnorm","version":"04012024","code":"1653579","display":"BCG, live, Tice strain 50 MG Injection"}]},"subject":{"reference":"Patient/12bc129c-71df-4fa1-8192-31aaff72d229"},"effectiveDateTime":"2026-08-01T08:00:00.000+00:00"},"request":{"method":"PUT","url":"MedicationAdministration/98b73ee7-7a04-4180-80a0-8b8e6108a157"}},{"fullUrl":"https://madie.cms.gov/Practitioner/b7fe8a5f-9035-4422-aa38-c5168c6574ea","resource":{"resourceType":"Practitioner","id":"b7fe8a5f-9035-4422-aa38-c5168c6574ea","meta":{"profile":["http://hl7.org/fhir/us/qicore/StructureDefinition/qicore-practitioner"]},"identifier":[{"use":"temp","system":"urn:oid:2.16.840.1.113883.4.336","value":"Practitioner-23"}],"active":true,"name":[{"family":"Careful","given":["Adam"],"prefix":["Dr"]}],"address":[{"use":"home","line":["534 Erewhon St"],"city":"PleasantVille","state":"UT","postalCode":"84414"}],"qualification":[{"identifier":[{"system":"http://example.org/UniversityIdentifier","value":"12345"}],"code":{"coding":[{"system":"http://terminology.hl7.org/CodeSystem/v2-0360|2.7","code":"BS","display":"Bachelor of Science"}],"text":"Bachelor of Science"},"period":{"start":"1996"},"issuer":{"display":"Example University"}}]},"request":{"method":"PUT","url":"Practitioner/b7fe8a5f-9035-4422-aa38-c5168c6574ea"}},{"fullUrl":"https://madie.cms.gov/Procedure/d5beb81d-da91-4a4f-81b4-699a326d6407","resource":{"resourceType":"Procedure","id":"d5beb81d-da91-4a4f-81b4-699a326d6407","meta":{"profile":["http://hl7.org/fhir/us/qicore/StructureDefinition/qicore-procedure"]},"extension":[{"url":"http://hl7.org/fhir/us/qicore/StructureDefinition/qicore-recorded","valueDateTime":"2026-02-01T08:00:00.000+00:00"}],"status":"completed","code":{"coding":[{"system":"http://snomed.info/sct","version":"http://snomed.info/sct/731000124108/version/20240301","code":"254292007","display":"Tumor staging"}]},"subject":{"reference":"Patient/12bc129c-71df-4fa1-8192-31aaff72d229"},"performedPeriod":{"start":"2026-02-01T08:00:00.000+00:00","end":"2026-02-01T08:15:00.000+00:00"}},"request":{"method":"PUT","url":"Procedure/d5beb81d-da91-4a4f-81b4-699a326d6407"}},{"fullUrl":"https://madie.cms.gov/MeasureReport/2488f3ab-3c5b-4c53-b573-9751d3251480","resource":{"resourceType":"MeasureReport","id":"2488f3ab-3c5b-4c53-b573-9751d3251480","meta":{"profile":["http://hl7.org/fhir/us/cqfmeasures/StructureDefinition/test-case-cqfm"]},"contained":[{"resourceType":"Parameters","id":"ce84e24c-d96f-4551-b10f-42c45398fbaa-parameters","parameter":[{"name":"subject","valueString":"12bc129c-71df-4fa1-8192-31aaff72d229"}]}],"extension":[{"url":"http://hl7.org/fhir/StructureDefinition/cqf-inputParameters","valueReference":{"reference":"#ce84e24c-d96f-4551-b10f-42c45398fbaa-parameters"}},{"url":"http://hl7.org/fhir/us/cqfmeasures/StructureDefinition/cqfm-testCaseDescription","valueMarkdown":"Patient's tumor staged as cT1. BCG given at 6mo after staging.  Edge testing"}],"modifierExtension":[{"url":"http://hl7.org/fhir/us/cqfmeasures/StructureDefinition/cqfm-isTestCase","valueBoolean":true}],"status":"complete","type":"individual","measure":"https://madie.cms.gov/Measure/CMS646FHIRIntravesicalBacillusCalmetteGuerinForBladderCancer","period":{"start":"2026-01-01","end":"2026-12-31"},"group":[{"id":"Group_1","population":[{"id":"InitialPopulation_1","code":{"coding":[{"system":"http://terminology.hl7.org/CodeSystem/measure-population","code":"initial-population","display":"Initial Population"}]},"count":1},{"id":"Denominator_1","code":{"coding":[{"system":"http://terminology.hl7.org/CodeSystem/measure-population","code":"denominator","display":"Denominator"}]},"count":1},{"id":"DenominatorExclusion_1","code":{"coding":[{"system":"http://terminology.hl7.org/CodeSystem/measure-population","code":"denominator-exclusion","display":"Denominator Exclusion"}]},"count":0},{"id":"Numerator_1","code":{"coding":[{"system":"http://terminology.hl7.org/CodeSystem/measure-population","code":"numerator","display":"Numerator"}]},"count":1},{"id":"DenominatorException_1","code":{"coding":[{"system":"http://terminology.hl7.org/CodeSystem/measure-population","code":"denominator-exception","display":"Denominator Exception"}]},"count":0}],"measureScore":{"value":1.0}}],"evaluatedResource":[{"reference":"Patient/12bc129c-71df-4fa1-8192-31aaff72d229"},{"reference":"Encounter/092e999a-dd7f-4c64-8cc7-f1d9d67a7ab4"},{"reference":"Condition/0121d280-4a36-433e-8fd9-96b03dc9447b"},{"reference":"Observation/e6947238-f109-4b0a-975a-db39c480a01b"},{"reference":"MedicationAdministration/98b73ee7-7a04-4180-80a0-8b8e6108a157"},{"reference":"Practitioner/b7fe8a5f-9035-4422-aa38-c5168c6574ea"},{"reference":"Procedure/d5beb81d-da91-4a4f-81b4-699a326d6407"}]},"request":{"method":"PUT","url":"MeasureReport/2488f3ab-3c5b-4c53-b573-9751d3251480"}}]},"request":{"method":"PUT","url":"Bundle/62bc69333e113102f8cedca6"}},{"fullUrl":"Encounter/092e999a-dd7f-4c64-8cc7-f1d9d67a7ab4","resource":{"resourceType":"Encounter","id":"092e999a-dd7f-4c64-8cc7-f1d9d67a7ab4","meta":{"profile":["http://hl7.org/fhir/us/qicore/StructureDefinition/qicore-encounter"]},"status":"finished","class":{"system":"http://terminology.hl7.org/CodeSystem/v3-ActCode","code":"AMB","display":"ambulatory"},"type":[{"coding":[{"system":"http://snomed.info/sct","version":"http://snomed.info/sct/731000124108/version/20240301","code":"185463005","display":"Visit out of hours (procedure)"}]}],"subject":{"reference":"Patient/12bc129c-71df-4fa1-8192-31aaff72d229"},"period":{"start":"2026-02-01T08:00:00.000+00:00","end":"2026-02-01T09:15:00.000+00:00"}},"request":{"method":"PUT","url":"Encounter/092e999a-dd7f-4c64-8cc7-f1d9d67a7ab4"}},{"fullUrl":"Observation/e6947238-f109-4b0a-975a-db39c480a01b","resource":{"resourceType":"Observation","id":"e6947238-f109-4b0a-975a-db39c480a01b","meta":{"profile":["http://hl7.org/fhir/us/qicore/StructureDefinition/qicore-observation-lab"]},"partOf":[{"reference":"Procedure/d5beb81d-da91-4a4f-81b4-699a326d6407"}],"status":"final","category":[{"coding":[{"system":"http://terminology.hl7.org/CodeSystem/observation-category","code":"procedure","display":"Procedure"}]}],"code":{"coding":[{"system":"http://loinc.org","version":"2.76","code":"21902-2","display":"Stage group.pathology Cancer"}]},"subject":{"reference":"Patient/12bc129c-71df-4fa1-8192-31aaff72d229"},"effectivePeriod":{"start":"2023-09-30T08:00:00.000+00:00","end":"2023-09-30T08:15:00.000+00:00"},"issued":"2026-02-02T08:15:00.000+00:00","valueCodeableConcept":{"coding":[{"system":"http://snomed.info/sct","version":"http://snomed.info/sct/731000124108/version/20240301","code":"1228889001","display":"American Joint Committee on Cancer cT1 (qualifier value)"}]}},"request":{"method":"PUT","url":"Observation/e6947238-f109-4b0a-975a-db39c480a01b"}},{"fullUrl":"Condition/0121d280-4a36-433e-8fd9-96b03dc9447b","resource":{"resourceType":"Condition","id":"0121d280-4a36-433e-8fd9-96b03dc9447b","meta":{"profile":["http://hl7.org/fhir/us/qicore/StructureDefinition/qicore-condition-problems-health-concerns"]},"clinicalStatus":{"coding":[{"system":"http://terminology.hl7.org/CodeSystem/condition-clinical","code":"active","display":"Active"}]},"verificationStatus":{"coding":[{"system":"http://terminology.hl7.org/CodeSystem/condition-ver-status","code":"confirmed","display":"Confirmed"}]},"category":[{"coding":[{"system":"http://terminology.hl7.org/CodeSystem/condition-category","code":"problem-list-item","display":"Problem List Item"}]}],"code":{"coding":[{"system":"http://hl7.org/fhir/sid/icd-10-cm","version":"2024","code":"C67.3","display":"Malignant neoplasm of anterior wall of bladder"}]},"subject":{"reference":"Patient/12bc129c-71df-4fa1-8192-31aaff72d229"},"onsetDateTime":"2026-02-01T08:00:00.000+00:00"},"request":{"method":"PUT","url":"Condition/0121d280-4a36-433e-8fd9-96b03dc9447b"}},{"fullUrl":"MedicationAdministration/98b73ee7-7a04-4180-80a0-8b8e6108a157","resource":{"resourceType":"MedicationAdministration","id":"98b73ee7-7a04-4180-80a0-8b8e6108a157","meta":{"profile":["http://hl7.org/fhir/us/qicore/StructureDefinition/qicore-medicationadministration"]},"status":"in-progress","medicationCodeableConcept":{"coding":[{"system":"http://www.nlm.nih.gov/research/umls/rxnorm","version":"04012024","code":"1653579","display":"BCG, live, Tice strain 50 MG Injection"}]},"subject":{"reference":"Patient/12bc129c-71df-4fa1-8192-31aaff72d229"},"effectiveDateTime":"2026-08-01T08:00:00.000+00:00"},"request":{"method":"PUT","url":"MedicationAdministration/98b73ee7-7a04-4180-80a0-8b8e6108a157"}}]}