{
  "resourceType": "Bundle",
  "id": "64270cbea7ffa60ebe02488f",
  "type": "transaction",
  "entry": [ {
    "fullUrl": "https://madie.cms.gov/Patient/de56e9db-49b7-4f1a-a1ae-2649b1bb52b9",
    "resource": {
      "resourceType": "Patient",
      "id": "de56e9db-49b7-4f1a-a1ae-2649b1bb52b9",
      "meta": {
        "profile": [ "http://hl7.org/fhir/us/qicore/StructureDefinition/qicore-patient" ]
      },
      "extension": [ {
        "url": "http://hl7.org/fhir/us/core/StructureDefinition/us-core-race",
        "extension": [ {
          "url": "ombCategory",
          "valueCoding": {
            "system": "urn:oid:2.16.840.1.113883.6.238",
            "code": "2106-3",
            "display": "White",
            "userSelected": true
          }
        }, {
          "url": "text",
          "valueString": "White"
        } ]
      }, {
        "url": "http://hl7.org/fhir/us/core/StructureDefinition/us-core-ethnicity",
        "extension": [ {
          "url": "ombCategory",
          "valueCoding": {
            "system": "urn:oid:2.16.840.1.113883.6.238",
            "code": "2135-2",
            "display": "Hispanic or Latino",
            "userSelected": true
          }
        }, {
          "url": "text",
          "valueString": "Hispanic or Latino"
        } ]
      } ],
      "identifier": [ {
        "type": {
          "coding": [ {
            "system": "http://terminology.hl7.org/CodeSystem/v2-0203",
            "code": "MR"
          } ]
        },
        "system": "https://goodhealth.healthit.gov/",
        "value": "64270cbea7ffa60ebe02488f"
      } ],
      "name": [ {
        "family": "IPPass",
        "given": [ "EncClassInpatient" ]
      } ],
      "gender": "male",
      "birthDate": "1969-03-02"
    },
    "request": {
      "method": "PUT",
      "url": "Patient/de56e9db-49b7-4f1a-a1ae-2649b1bb52b9"
    }
  }, {
    "fullUrl": "https://madie.cms.gov/Condition/44e5e3ae-c68a-4d4f-8b9a-3dd7d9aa4c8a",
    "resource": {
      "resourceType": "Condition",
      "id": "44e5e3ae-c68a-4d4f-8b9a-3dd7d9aa4c8a",
      "meta": {
        "profile": [ "http://hl7.org/fhir/us/qicore/StructureDefinition/qicore-condition-problems-health-concerns" ]
      },
      "clinicalStatus": {
        "coding": [ {
          "system": "http://terminology.hl7.org/CodeSystem/condition-clinical",
          "code": "active",
          "display": "Active",
          "userSelected": true
        } ]
      },
      "verificationStatus": {
        "coding": [ {
          "system": "http://terminology.hl7.org/CodeSystem/condition-ver-status",
          "code": "confirmed",
          "display": "Confirmed",
          "userSelected": true
        } ]
      },
      "category": [ {
        "coding": [ {
          "system": "http://terminology.hl7.org/CodeSystem/condition-category",
          "code": "encounter-diagnosis",
          "display": "Encounter Diagnosis",
          "userSelected": true
        } ]
      } ],
      "code": {
        "coding": [ {
          "system": "http://snomed.info/sct",
          "version": "http://snomed.info/sct/731000124108/version/20230301",
          "code": "10532003",
          "display": "Primary degenerative dementia of the Alzheimer type, presenile onset, with depression (disorder)"
        } ]
      },
      "subject": {
        "reference": "Patient/de56e9db-49b7-4f1a-a1ae-2649b1bb52b9"
      },
      "onsetPeriod": {
        "start": "2026-07-15T08:34:00.000+00:00"
      }
    },
    "request": {
      "method": "PUT",
      "url": "Condition/44e5e3ae-c68a-4d4f-8b9a-3dd7d9aa4c8a"
    }
  }, {
    "fullUrl": "https://madie.cms.gov/Encounter/c3c8ef41-642f-4fe8-ba52-492d54d2aadf",
    "resource": {
      "resourceType": "Encounter",
      "id": "c3c8ef41-642f-4fe8-ba52-492d54d2aadf",
      "meta": {
        "profile": [ "http://hl7.org/fhir/us/qicore/StructureDefinition/qicore-encounter" ]
      },
      "status": "finished",
      "class": {
        "system": "http://terminology.hl7.org/CodeSystem/v3-ActCode",
        "code": "IMP",
        "display": "inpatient encounter",
        "userSelected": true
      },
      "type": [ {
        "coding": [ {
          "system": "http://www.ama-assn.org/go/cpt",
          "version": "2023",
          "code": "99221",
          "userSelected": true
        } ]
      } ],
      "subject": {
        "reference": "Patient/de56e9db-49b7-4f1a-a1ae-2649b1bb52b9"
      },
      "period": {
        "start": "2026-03-02T08:00:00.000+00:00",
        "end": "2026-03-02T08:35:00.000+00:00"
      }
    },
    "request": {
      "method": "PUT",
      "url": "Encounter/c3c8ef41-642f-4fe8-ba52-492d54d2aadf"
    }
  }, {
    "fullUrl": "https://madie.cms.gov/Encounter/e0572270-bfe4-4cee-a46a-aed1038752ec",
    "resource": {
      "resourceType": "Encounter",
      "id": "e0572270-bfe4-4cee-a46a-aed1038752ec",
      "meta": {
        "profile": [ "http://hl7.org/fhir/us/qicore/StructureDefinition/qicore-encounter" ]
      },
      "status": "finished",
      "class": {
        "system": "http://terminology.hl7.org/CodeSystem/v3-ActCode",
        "code": "AMB",
        "display": "ambulatory",
        "userSelected": true
      },
      "type": [ {
        "coding": [ {
          "system": "http://snomed.info/sct",
          "version": "http://snomed.info/sct/731000124108/version/20230301",
          "code": "210098006",
          "display": "Domiciliary or rest home patient evaluation and management (procedure)"
        } ]
      } ],
      "subject": {
        "reference": "Patient/de56e9db-49b7-4f1a-a1ae-2649b1bb52b9"
      },
      "period": {
        "start": "2026-07-15T08:00:00.000+00:00",
        "end": "2026-07-15T08:35:00.000+00:00"
      }
    },
    "request": {
      "method": "PUT",
      "url": "Encounter/e0572270-bfe4-4cee-a46a-aed1038752ec"
    }
  }, {
    "fullUrl": "https://madie.cms.gov/MeasureReport/79d69c94-20e2-4095-8745-617b0e51ff66",
    "resource": {
      "resourceType": "MeasureReport",
      "id": "79d69c94-20e2-4095-8745-617b0e51ff66",
      "meta": {
        "profile": [ "http://hl7.org/fhir/us/cqfmeasures/StructureDefinition/test-case-cqfm" ]
      },
      "contained": [ {
        "resourceType": "Parameters",
        "id": "fcc91808-f3b4-40d1-8458-8a94edfcb2cb-parameters",
        "parameter": [ {
          "name": "subject",
          "valueString": "de56e9db-49b7-4f1a-a1ae-2649b1bb52b9"
        } ]
      } ],
      "extension": [ {
        "url": "http://hl7.org/fhir/StructureDefinition/cqf-inputParameters",
        "valueReference": {
          "reference": "#fcc91808-f3b4-40d1-8458-8a94edfcb2cb-parameters"
        }
      }, {
        "url": "http://hl7.org/fhir/us/cqfmeasures/StructureDefinition/cqfm-testCaseDescription",
        "valueMarkdown": "Patient has Dementia Dx and 2 encounters in MP however one encounter is of Inpatient Class and does not qualify for Initial population"
      } ],
      "modifierExtension": [ {
        "url": "http://hl7.org/fhir/us/cqfmeasures/StructureDefinition/cqfm-isTestCase",
        "valueBoolean": true
      } ],
      "status": "complete",
      "type": "individual",
      "measure": "https://madie.cms.gov/Measure/CMS149FHIRDementiaCognitiveAssessment",
      "period": {
        "start": "2026-01-01",
        "end": "2026-12-31"
      },
      "group": [ {
        "id": "Group_1",
        "population": [ {
          "id": "InitialPopulation_1",
          "code": {
            "coding": [ {
              "system": "http://terminology.hl7.org/CodeSystem/measure-population",
              "code": "initial-population",
              "display": "Initial Population"
            } ]
          },
          "count": 0
        }, {
          "id": "Denominator_1",
          "code": {
            "coding": [ {
              "system": "http://terminology.hl7.org/CodeSystem/measure-population",
              "code": "denominator",
              "display": "Denominator"
            } ]
          },
          "count": 0
        }, {
          "id": "Numerator_1",
          "code": {
            "coding": [ {
              "system": "http://terminology.hl7.org/CodeSystem/measure-population",
              "code": "numerator",
              "display": "Numerator"
            } ]
          },
          "count": 0
        }, {
          "id": "DenominatorException_1",
          "code": {
            "coding": [ {
              "system": "http://terminology.hl7.org/CodeSystem/measure-population",
              "code": "denominator-exception",
              "display": "Denominator Exception"
            } ]
          },
          "count": 0
        } ],
        "measureScore": {
          "value": 1.0
        }
      } ],
      "evaluatedResource": [ {
        "reference": "Patient/de56e9db-49b7-4f1a-a1ae-2649b1bb52b9"
      }, {
        "reference": "Condition/44e5e3ae-c68a-4d4f-8b9a-3dd7d9aa4c8a"
      }, {
        "reference": "Encounter/c3c8ef41-642f-4fe8-ba52-492d54d2aadf"
      }, {
        "reference": "Encounter/e0572270-bfe4-4cee-a46a-aed1038752ec"
      } ]
    },
    "request": {
      "method": "PUT",
      "url": "MeasureReport/79d69c94-20e2-4095-8745-617b0e51ff66"
    }
  } ]
}