{
  "resourceType": "Bundle",
  "id": "633c9d040968f8012250fc9e",
  "type": "transaction",
  "entry": [ {
    "fullUrl": "https://madie.cms.gov/Patient/e20b4e76-8523-43ab-abc2-a4f4137a84bb",
    "resource": {
      "resourceType": "Patient",
      "id": "e20b4e76-8523-43ab-abc2-a4f4137a84bb",
      "meta": {
        "profile": [ "http://hl7.org/fhir/us/qicore/StructureDefinition/qicore-patient" ]
      },
      "text": {
        "status": "generated",
        "div": "<div xmlns=\"http://www.w3.org/1999/xhtml\"><div class=\"hapiHeaderText\">MedRsnStartTmEQEncAdmTm <b>DENEXCEPPASS </b></div><table class=\"hapiPropertyTable\"><tbody><tr><td>Identifier</td><td>35cbbf7aaaa0d68e43732015209d5ef8</td></tr><tr><td>Date of birth</td><td><span>23 May 1954</span></td></tr></tbody></table></div>"
      },
      "extension": [ {
        "url": "http://hl7.org/fhir/us/core/StructureDefinition/us-core-race",
        "extension": [ {
          "url": "ombCategory",
          "valueCoding": {
            "system": "urn:oid:2.16.840.1.113883.6.238",
            "code": "1002-5",
            "display": "American Indian or Alaska Native",
            "userSelected": true
          }
        }, {
          "url": "text",
          "valueString": "American Indian or Alaska Native"
        } ]
      }, {
        "url": "http://hl7.org/fhir/us/core/StructureDefinition/us-core-ethnicity",
        "extension": [ {
          "url": "ombCategory",
          "valueCoding": {
            "system": "urn:oid:2.16.840.1.113883.6.238",
            "code": "2135-2",
            "display": "Hispanic or Latino",
            "userSelected": true
          }
        }, {
          "url": "text",
          "valueString": "Hispanic or Latino"
        } ]
      } ],
      "identifier": [ {
        "type": {
          "coding": [ {
            "system": "http://terminology.hl7.org/CodeSystem/v2-0203",
            "code": "MR"
          } ]
        },
        "system": "https://bonnie-fhir.healthit.gov/",
        "value": "633c9d040968f8012250fc9e"
      } ],
      "active": true,
      "name": [ {
        "use": "usual",
        "family": "DENEXCEPPass",
        "given": [ "MedRsnStartTmEQEncAdmTm" ]
      } ],
      "gender": "female",
      "birthDate": "1955-05-23"
    },
    "request": {
      "method": "PUT",
      "url": "Patient/e20b4e76-8523-43ab-abc2-a4f4137a84bb"
    }
  }, {
    "fullUrl": "https://madie.cms.gov/Encounter/e61aac28-4341-41c7-be46-fd6b4f02d875",
    "resource": {
      "resourceType": "Encounter",
      "id": "e61aac28-4341-41c7-be46-fd6b4f02d875",
      "meta": {
        "profile": [ "http://hl7.org/fhir/us/qicore/StructureDefinition/qicore-encounter" ]
      },
      "status": "finished",
      "class": {
        "system": "http://terminology.hl7.org/CodeSystem/v3-ActCode",
        "code": "IMP",
        "display": "inpatient encounter"
      },
      "type": [ {
        "coding": [ {
          "system": "http://snomed.info/sct",
          "code": "32485007"
        } ]
      } ],
      "subject": {
        "reference": "Patient/e20b4e76-8523-43ab-abc2-a4f4137a84bb"
      },
      "period": {
        "start": "2026-11-20T07:16:00Z",
        "end": "2026-11-24T08:15:00.000+00:00"
      },
      "length": {
        "value": 4,
        "unit": "days"
      },
      "reasonReference": [ {
        "reference": "Condition/53379320-8722-48c5-949c-9d4db7765e62"
      } ]
    },
    "request": {
      "method": "PUT",
      "url": "Encounter/e61aac28-4341-41c7-be46-fd6b4f02d875"
    }
  }, {
    "fullUrl": "https://madie.cms.gov/MedicationRequest/ef21bbdb-179c-47de-9b8f-4c43b5f4c1b2",
    "resource": {
      "resourceType": "MedicationRequest",
      "id": "ef21bbdb-179c-47de-9b8f-4c43b5f4c1b2",
      "meta": {
        "profile": [ "http://hl7.org/fhir/us/qicore/StructureDefinition/qicore-medicationnotrequested" ]
      },
      "status": "completed",
      "intent": "order",
      "category": [ {
        "coding": [ {
          "system": "http://terminology.hl7.org/CodeSystem/medicationrequest-category",
          "code": "community"
        } ]
      } ],
      "doNotPerform": true,
      "medicationCodeableConcept": {
        "coding": [ {
          "system": "http://www.nlm.nih.gov/research/umls/rxnorm",
          "code": "1037045"
        } ]
      },
      "subject": {
        "reference": "Patient/e20b4e76-8523-43ab-abc2-a4f4137a84bb"
      },
      "authoredOn": "2026-11-20T07:16:00Z",
      "requester": {
        "reference": "Practitioner/example"
      },
      "reasonCode": [ {
        "coding": [ {
          "system": "http://snomed.info/sct",
          "code": "183932001"
        } ]
      } ]
    },
    "request": {
      "method": "PUT",
      "url": "MedicationRequest/ef21bbdb-179c-47de-9b8f-4c43b5f4c1b2"
    }
  }, {
    "fullUrl": "https://madie.cms.gov/Task/818ddeaf-bbd4-413d-a2ee-469119b9dad7",
    "resource": {
      "resourceType": "Task",
      "id": "818ddeaf-bbd4-413d-a2ee-469119b9dad7",
      "meta": {
        "profile": [ "http://hl7.org/fhir/us/qicore/StructureDefinition/qicore-taskrejected" ]
      },
      "status": "rejected",
      "statusReason": {
        "coding": [ {
          "system": "http://snomed.info/sct",
          "code": "183932001",
          "userSelected": true
        } ]
      },
      "code": {
        "coding": [ {
          "system": "http://hl7.org/fhir/CodeSystem/task-code",
          "code": "fulfill"
        } ]
      },
      "focus": {
        "reference": "MedicationRequest/ef21bbdb-179c-47de-9b8f-4c43b5f4c1b2"
      },
      "executionPeriod": {
        "start": "2026-11-20T07:16:00Z",
        "end": "2026-11-24T08:15:00.000+00:00"
      }
    },
    "request": {
      "method": "PUT",
      "url": "Task/818ddeaf-bbd4-413d-a2ee-469119b9dad7"
    }
  }, {
    "fullUrl": "https://madie.cms.gov/claim/5ca62962b8484628b8de1ec5",
    "resource": {
      "resourceType": "Claim",
      "id": "5ca62962b8484628b8de1ec5",
      "meta": {
        "profile": [ "http://hl7.org/fhir/us/qicore/StructureDefinition/qicore-claim" ]
      },
      "status": "active",
      "type": {
        "coding": [ {
          "system": "http://terminology.hl7.org/CodeSystem/claim-type",
          "code": "institutional"
        } ]
      },
      "use": "claim",
      "patient": {
        "reference": "Patient/d170a0a8-b5ad-4303-b6df-e304dd5f92ad"
      },
      "created": "2026-12-01",
      "provider": {
        "reference": "Practitioner/practitioner-123456"
      },
      "priority": {
        "coding": [ {
          "system": "http://terminology.hl7.org/CodeSystem/processpriority",
          "code": "normal"
        } ]
      },
      "diagnosis": [ {
        "sequence": 1,
        "diagnosisCodeableConcept": {
          "coding": [ {
            "system": "http://hl7.org/fhir/sid/icd-10-cm",
            "code": "I63.00"
          } ]
        },
        "type": [ {
          "coding": [ {
            "system": "http://terminology.hl7.org/CodeSystem/ex-diagnosistype",
            "code": "principal"
          } ]
        } ]
      } ],
      "insurance": [ {
        "sequence": 1,
        "focal": true,
        "coverage": {
          "reference": "Coverage/5fa041661c76ba66d9959367"
        }
      } ],
      "item": [ {
        "sequence": 1,
        "diagnosisSequence": [ 1 ],
        "productOrService": {
          "coding": [ {
            "system": "http://terminology.hl7.org/CodeSystem/ex-USCLS",
            "code": "99555"
          } ]
        },
        "encounter": [ {
          "reference": "Encounter/e61aac28-4341-41c7-be46-fd6b4f02d875"
        } ]
      } ]
    },
    "request": {
      "method": "PUT",
      "url": "Claim/5ca62962b8484628b8de1ec5"
    }
  }, {
    "fullUrl": "https://madie.cms.gov/Coverage/df1cc1b9-106e-45be-9b82-a949efc7a2b2",
    "resource": {
      "resourceType": "Coverage",
      "id": "df1cc1b9-106e-45be-9b82-a949efc7a2b2",
      "meta": {
        "profile": [ "http://hl7.org/fhir/us/qicore/StructureDefinition/qicore-coverage" ]
      },
      "status": "active",
      "subscriberId": "523435",
      "beneficiary": {
        "reference": "Patient/162a5913-9989-42f2-8d6a-ae460e245e4c"
      },
      "relationship": {
        "coding": [ {
          "system": "http://terminology.hl7.org/CodeSystem/subscriber-relationship",
          "code": "self"
        } ]
      },
      "payor": [ {
        "reference": "Organization/23750bf9-7980-420f-83c2-4667696e333b"
      } ]
    },
    "request": {
      "method": "PUT",
      "url": "Coverage/df1cc1b9-106e-45be-9b82-a949efc7a2b2"
    }
  }, {
    "fullUrl": "https://madie.cms.gov/Procedure/2723f3d0-1fe8-4d99-a224-d8ead1a61047",
    "resource": {
      "resourceType": "Procedure",
      "id": "2723f3d0-1fe8-4d99-a224-d8ead1a61047",
      "meta": {
        "profile": [ "http://hl7.org/fhir/us/qicore/StructureDefinition/qicore-procedure" ]
      },
      "extension": [ {
        "url": "http://hl7.org/fhir/us/qicore/StructureDefinition/qicore-recorded",
        "valueDateTime": "2014-04-05T13:35:00Z"
      } ],
      "status": "completed",
      "code": {
        "coding": [ {
          "system": "http://www.cms.gov/Medicare/Coding/ICD10",
          "code": "02560ZZ"
        }, {
          "system": "http://snomed.info/sct",
          "code": "175095005"
        } ]
      },
      "subject": {
        "reference": "Patient/e20b4e76-8523-43ab-abc2-a4f4137a84bb"
      },
      "performedPeriod": {
        "start": "2026-11-20T07:15:00Z",
        "end": "2026-11-20T07:16:00.000+00:00"
      }
    },
    "request": {
      "method": "PUT",
      "url": "Procedure/2723f3d0-1fe8-4d99-a224-d8ead1a61047"
    }
  }, {
    "fullUrl": "https://madie.cms.gov/Condition/53379320-8722-48c5-949c-9d4db7765e62",
    "resource": {
      "resourceType": "Condition",
      "id": "53379320-8722-48c5-949c-9d4db7765e62",
      "meta": {
        "profile": [ "http://hl7.org/fhir/us/qicore/StructureDefinition/qicore-condition-problems-health-concerns" ]
      },
      "clinicalStatus": {
        "coding": [ {
          "system": "http://terminology.hl7.org/CodeSystem/condition-clinical",
          "code": "active"
        } ]
      },
      "verificationStatus": {
        "coding": [ {
          "system": "http://terminology.hl7.org/CodeSystem/condition-ver-status",
          "code": "confirmed"
        } ]
      },
      "category": [ {
        "coding": [ {
          "system": "http://terminology.hl7.org/CodeSystem/condition-category",
          "code": "encounter-diagnosis",
          "display": "Encounter Diagnosis"
        } ]
      } ],
      "code": {
        "coding": [ {
          "system": "http://snomed.info/sct",
          "version": "2021-09",
          "code": "111297002",
          "display": "Nonparalytic stroke (disorder)",
          "userSelected": true
        } ]
      },
      "subject": {
        "reference": "Patient/e20b4e76-8523-43ab-abc2-a4f4137a84bb"
      },
      "recordedDate": "2026-10-13T08:00:00Z"
    },
    "request": {
      "method": "PUT",
      "url": "Condition/53379320-8722-48c5-949c-9d4db7765e62"
    }
  }, {
    "fullUrl": "https://madie.cms.gov/Organization/23750bf9-7980-420f-83c2-4667696e333b",
    "resource": {
      "resourceType": "Organization",
      "id": "23750bf9-7980-420f-83c2-4667696e333b",
      "meta": {
        "profile": [ "http://hl7.org/fhir/us/qicore/StructureDefinition/qicore-organization" ]
      },
      "identifier": [ {
        "use": "temp",
        "system": "urn:oid:2.16.840.1.113883.4.4",
        "value": "21-3259825"
      } ],
      "active": true,
      "type": [ {
        "coding": [ {
          "system": "http://terminology.hl7.org/CodeSystem/organization-type",
          "code": "pay",
          "display": "Payer"
        } ]
      } ],
      "name": "Blue Cross Blue Shield of Texas",
      "telecom": [ {
        "system": "phone",
        "value": "(+1) 972-766-6900"
      } ],
      "address": [ {
        "use": "billing",
        "type": "postal",
        "line": [ "P.O. Box 660044" ],
        "city": "Dallas",
        "state": "TX",
        "postalCode": "75266-0044",
        "country": "USA"
      } ]
    },
    "request": {
      "method": "PUT",
      "url": "Organization/23750bf9-7980-420f-83c2-4667696e333b"
    }
  }, {
    "fullUrl": "https://madie.cms.gov/MeasureReport/7ec1aa15-d7fc-45c5-8dec-24ea9596f384",
    "resource": {
      "resourceType": "MeasureReport",
      "id": "7ec1aa15-d7fc-45c5-8dec-24ea9596f384",
      "meta": {
        "profile": [ "http://hl7.org/fhir/us/cqfmeasures/StructureDefinition/test-case-cqfm" ]
      },
      "contained": [ {
        "resourceType": "Parameters",
        "id": "d855f317-e63b-44d8-becb-1defe37b976d-parameters",
        "parameter": [ {
          "name": "subject",
          "valueString": "e20b4e76-8523-43ab-abc2-a4f4137a84bb"
        } ]
      } ],
      "extension": [ {
        "url": "http://hl7.org/fhir/StructureDefinition/cqf-inputParameters",
        "valueReference": {
          "reference": "#d855f317-e63b-44d8-becb-1defe37b976d-parameters"
        }
      }, {
        "url": "http://hl7.org/fhir/us/cqfmeasures/StructureDefinition/cqfm-testCaseDescription",
        "valueMarkdown": "Patient did not receive anticoagulant on dc due to medical reason, but start date is eq start of OccurA\n"
      } ],
      "modifierExtension": [ {
        "url": "http://hl7.org/fhir/us/cqfmeasures/StructureDefinition/cqfm-isTestCase",
        "valueBoolean": true
      } ],
      "status": "complete",
      "type": "individual",
      "measure": "https://madie.cms.gov/Measure/CMS71FHIRSTKAnticoagAFFlutter",
      "period": {
        "start": "2026-01-01",
        "end": "2026-12-31"
      },
      "group": [ {
        "id": "Group_1",
        "population": [ {
          "id": "InitialPopulation_1",
          "code": {
            "coding": [ {
              "system": "http://terminology.hl7.org/CodeSystem/measure-population",
              "code": "initial-population",
              "display": "Initial Population"
            } ]
          },
          "count": 1
        }, {
          "id": "Denominator_1",
          "code": {
            "coding": [ {
              "system": "http://terminology.hl7.org/CodeSystem/measure-population",
              "code": "denominator",
              "display": "Denominator"
            } ]
          },
          "count": 1
        }, {
          "id": "DenominatorExclusion_1",
          "code": {
            "coding": [ {
              "system": "http://terminology.hl7.org/CodeSystem/measure-population",
              "code": "denominator-exclusion",
              "display": "Denominator Exclusion"
            } ]
          },
          "count": 0
        }, {
          "id": "Numerator_1",
          "code": {
            "coding": [ {
              "system": "http://terminology.hl7.org/CodeSystem/measure-population",
              "code": "numerator",
              "display": "Numerator"
            } ]
          },
          "count": 0
        }, {
          "id": "DenominatorException_1",
          "code": {
            "coding": [ {
              "system": "http://terminology.hl7.org/CodeSystem/measure-population",
              "code": "denominator-exception",
              "display": "Denominator Exception"
            } ]
          },
          "count": 1
        } ],
        "measureScore": {
          "value": 0.0
        }
      } ],
      "evaluatedResource": [ {
        "reference": "Patient/e20b4e76-8523-43ab-abc2-a4f4137a84bb"
      }, {
        "reference": "Encounter/e61aac28-4341-41c7-be46-fd6b4f02d875"
      }, {
        "reference": "MedicationRequest/ef21bbdb-179c-47de-9b8f-4c43b5f4c1b2"
      }, {
        "reference": "Task/818ddeaf-bbd4-413d-a2ee-469119b9dad7"
      }, {
        "reference": "Claim/5ca62962b8484628b8de1ec5"
      }, {
        "reference": "Coverage/df1cc1b9-106e-45be-9b82-a949efc7a2b2"
      }, {
        "reference": "Procedure/2723f3d0-1fe8-4d99-a224-d8ead1a61047"
      }, {
        "reference": "Condition/53379320-8722-48c5-949c-9d4db7765e62"
      }, {
        "reference": "Organization/23750bf9-7980-420f-83c2-4667696e333b"
      } ]
    },
    "request": {
      "method": "PUT",
      "url": "MeasureReport/7ec1aa15-d7fc-45c5-8dec-24ea9596f384"
    }
  } ]
}