{
  "resourceType": "Bundle",
  "id": "tests-9baac6c5-1826-4c06-a4a4-6ef5bfda76ba-bundle",
  "type": "transaction",
  "entry": [ {
    "fullUrl": "https://madie.cms.gov/Encounter/367bd344-8704-4ebd-8234-c04cae5719c4",
    "resource": {
      "resourceType": "Encounter",
      "id": "367bd344-8704-4ebd-8234-c04cae5719c4",
      "meta": {
        "profile": [ "http://hl7.org/fhir/us/qicore/StructureDefinition/qicore-encounter" ]
      },
      "status": "finished",
      "class": {
        "system": "http://terminology.hl7.org/CodeSystem/v3-ActCode",
        "code": "EMER",
        "display": "emergency"
      },
      "type": [ {
        "coding": [ {
          "system": "http://snomed.info/sct",
          "code": "4525004"
        } ]
      } ],
      "subject": {
        "reference": "Patient/92d01ab1-1808-441b-883c-4e5e9c494df3"
      },
      "period": {
        "start": "2026-09-29T08:00:00.000+00:00",
        "end": "2026-09-30T20:00:00.000+00:00"
      }
    },
    "request": {
      "method": "PUT",
      "url": "Encounter/367bd344-8704-4ebd-8234-c04cae5719c4"
    }
  }, {
    "fullUrl": "https://madie.cms.gov/Organization/5fd1a831-5a59-426c-89cb-bbd83e5eefa4",
    "resource": {
      "resourceType": "Organization",
      "id": "5fd1a831-5a59-426c-89cb-bbd83e5eefa4",
      "meta": {
        "profile": [ "http://hl7.org/fhir/us/qicore/StructureDefinition/qicore-organization" ]
      },
      "identifier": [ {
        "use": "temp",
        "system": "urn:oid:2.16.840.1.113883.4.4",
        "value": "21-3259825"
      } ],
      "active": true,
      "type": [ {
        "coding": [ {
          "system": "http://terminology.hl7.org/CodeSystem/organization-type",
          "code": "pay",
          "display": "Payer"
        } ]
      } ],
      "name": "Blue Cross Blue Shield of Texas",
      "telecom": [ {
        "system": "phone",
        "value": "(+1) 972-766-6900"
      } ],
      "address": [ {
        "use": "billing",
        "type": "postal",
        "line": [ "P.O. Box 660044" ],
        "city": "Dallas",
        "state": "TX",
        "postalCode": "75266-0044",
        "country": "USA"
      } ]
    },
    "request": {
      "method": "PUT",
      "url": "Organization/5fd1a831-5a59-426c-89cb-bbd83e5eefa4"
    }
  }, {
    "fullUrl": "https://madie.cms.gov/Observation/a488334b-a164-4cb6-9dc2-8269472bc060",
    "resource": {
      "resourceType": "Observation",
      "id": "a488334b-a164-4cb6-9dc2-8269472bc060",
      "meta": {
        "profile": [ "http://hl7.org/fhir/us/qicore/StructureDefinition/qicore-observation-lab" ]
      },
      "status": "final",
      "category": [ {
        "coding": [ {
          "system": "http://terminology.hl7.org/CodeSystem/observation-category",
          "code": "laboratory",
          "display": "Laboratory"
        } ]
      } ],
      "code": {
        "coding": [ {
          "system": "http://loinc.org",
          "version": "2.72",
          "code": "2160-0",
          "display": "Creatinine [Mass/volume] in Serum or Plasma",
          "userSelected": true
        } ]
      },
      "subject": {
        "reference": "Patient/92d01ab1-1808-441b-883c-4e5e9c494df3"
      },
      "effectiveDateTime": "2026-10-02T08:00:00.000+00:00",
      "issued": "2026-10-02T08:30:00.000+00:00",
      "valueQuantity": {
        "value": 1.1,
        "unit": "mg/dL",
        "system": "http://unitsofmeasure.org",
        "code": "mg/dL"
      }
    },
    "request": {
      "method": "PUT",
      "url": "Observation/a488334b-a164-4cb6-9dc2-8269472bc060"
    }
  }, {
    "fullUrl": "https://madie.cms.gov/Encounter/7b4e56dc-1d58-4291-812e-c5717e92bb41",
    "resource": {
      "resourceType": "Encounter",
      "id": "7b4e56dc-1d58-4291-812e-c5717e92bb41",
      "meta": {
        "profile": [ "http://hl7.org/fhir/us/qicore/StructureDefinition/qicore-encounter" ]
      },
      "status": "finished",
      "class": {
        "system": "http://terminology.hl7.org/CodeSystem/v3-ActCode",
        "code": "IMP",
        "display": "inpatient encounter"
      },
      "type": [ {
        "coding": [ {
          "system": "http://snomed.info/sct",
          "code": "183452005"
        } ]
      } ],
      "subject": {
        "reference": "Patient/92d01ab1-1808-441b-883c-4e5e9c494df3"
      },
      "period": {
        "start": "2026-09-29T20:00:00.000+00:00",
        "end": "2026-10-04T08:15:00.000+00:00"
      }
    },
    "request": {
      "method": "PUT",
      "url": "Encounter/7b4e56dc-1d58-4291-812e-c5717e92bb41"
    }
  }, {
    "fullUrl": "https://madie.cms.gov/Observation/e9db931c-5ce1-4e4c-9459-a14e8e1f6ef6",
    "resource": {
      "resourceType": "Observation",
      "id": "e9db931c-5ce1-4e4c-9459-a14e8e1f6ef6",
      "meta": {
        "profile": [ "http://hl7.org/fhir/us/qicore/StructureDefinition/qicore-observation-lab" ]
      },
      "status": "final",
      "category": [ {
        "coding": [ {
          "system": "http://terminology.hl7.org/CodeSystem/observation-category",
          "code": "laboratory",
          "display": "Laboratory"
        } ]
      } ],
      "code": {
        "coding": [ {
          "system": "http://loinc.org",
          "version": "2.72",
          "code": "2160-0",
          "display": "Creatinine [Mass/volume] in Serum or Plasma",
          "userSelected": true
        } ]
      },
      "subject": {
        "reference": "Patient/92d01ab1-1808-441b-883c-4e5e9c494df3"
      },
      "effectiveDateTime": "2026-09-30T09:00:00.000+00:00",
      "issued": "2026-09-30T09:30:00.000+00:00",
      "valueQuantity": {
        "value": 1.1,
        "unit": "mg/dL",
        "system": "http://unitsofmeasure.org",
        "code": "mg/dL"
      }
    },
    "request": {
      "method": "PUT",
      "url": "Observation/e9db931c-5ce1-4e4c-9459-a14e8e1f6ef6"
    }
  }, {
    "fullUrl": "https://madie.cms.gov/Observation/f20edc6c-74f2-47dd-9c53-470ef1a02411",
    "resource": {
      "resourceType": "Observation",
      "id": "f20edc6c-74f2-47dd-9c53-470ef1a02411",
      "meta": {
        "profile": [ "http://hl7.org/fhir/us/qicore/StructureDefinition/qicore-observation-lab" ]
      },
      "status": "final",
      "category": [ {
        "coding": [ {
          "system": "http://terminology.hl7.org/CodeSystem/observation-category",
          "code": "laboratory",
          "display": "Laboratory"
        } ]
      } ],
      "code": {
        "coding": [ {
          "system": "http://loinc.org",
          "code": "2160-0",
          "display": "Creatinine [Mass/volume] in Serum or Plasma"
        } ]
      },
      "subject": {
        "reference": "Patient/92d01ab1-1808-441b-883c-4e5e9c494df3"
      },
      "effectiveDateTime": "2026-10-03T08:00:00.000+00:00",
      "issued": "2026-10-03T08:30:00.000+00:00",
      "valueQuantity": {
        "value": 2.2,
        "unit": "mg/dL",
        "system": "http://unitsofmeasure.org",
        "code": "mg/dL"
      }
    },
    "request": {
      "method": "PUT",
      "url": "Observation/f20edc6c-74f2-47dd-9c53-470ef1a02411"
    }
  }, {
    "fullUrl": "https://madie.cms.gov/Observation/c5f766d1-571a-413b-8011-1ae9396dabd7",
    "resource": {
      "resourceType": "Observation",
      "id": "c5f766d1-571a-413b-8011-1ae9396dabd7",
      "meta": {
        "profile": [ "http://hl7.org/fhir/us/qicore/StructureDefinition/qicore-observation-lab" ]
      },
      "status": "final",
      "category": [ {
        "coding": [ {
          "system": "http://terminology.hl7.org/CodeSystem/observation-category",
          "code": "laboratory",
          "display": "Laboratory"
        } ]
      } ],
      "code": {
        "coding": [ {
          "system": "http://loinc.org",
          "version": "2.72",
          "code": "2160-0",
          "display": "Creatinine [Mass/volume] in Serum or Plasma",
          "userSelected": true
        } ]
      },
      "subject": {
        "reference": "Patient/92d01ab1-1808-441b-883c-4e5e9c494df3"
      },
      "effectiveDateTime": "2026-09-30T08:00:00.000+00:00",
      "issued": "2026-09-30T08:30:00.000+00:00",
      "valueQuantity": {
        "value": 1,
        "unit": "mg/dL",
        "system": "http://unitsofmeasure.org",
        "code": "mg/dL"
      }
    },
    "request": {
      "method": "PUT",
      "url": "Observation/c5f766d1-571a-413b-8011-1ae9396dabd7"
    }
  }, {
    "fullUrl": "https://madie.cms.gov/Coverage/cfd7138b-1e81-468f-b99f-1c9a9baed035",
    "resource": {
      "resourceType": "Coverage",
      "id": "cfd7138b-1e81-468f-b99f-1c9a9baed035",
      "meta": {
        "profile": [ "http://hl7.org/fhir/us/qicore/StructureDefinition/qicore-coverage" ]
      },
      "status": "active",
      "type": {
        "coding": [ {
          "system": "https://nahdo.org/sopt",
          "version": "9.2",
          "code": "211",
          "display": "Medicaid HMO"
        } ]
      },
      "beneficiary": {
        "reference": "Patient/92d01ab1-1808-441b-883c-4e5e9c494df3"
      },
      "period": {
        "start": "2024-12-01T00:00:00.000+00:00"
      },
      "payor": [ {
        "reference": "Organization/5fd1a831-5a59-426c-89cb-bbd83e5eefa4"
      } ]
    },
    "request": {
      "method": "PUT",
      "url": "Coverage/cfd7138b-1e81-468f-b99f-1c9a9baed035"
    }
  }, {
    "fullUrl": "https://madie.cms.gov/Procedure/6132486a-7083-4184-a637-f4833314ed45",
    "resource": {
      "resourceType": "Procedure",
      "id": "6132486a-7083-4184-a637-f4833314ed45",
      "meta": {
        "profile": [ "http://hl7.org/fhir/us/qicore/StructureDefinition/qicore-procedure" ]
      },
      "status": "completed",
      "code": {
        "coding": [ {
          "system": "http://snomed.info/sct",
          "code": "11932001"
        } ]
      },
      "subject": {
        "reference": "Patient/92d01ab1-1808-441b-883c-4e5e9c494df3"
      },
      "performedDateTime": "2026-10-02T08:30:00.000+00:00",
      "performer": [ {
        "actor": {
          "reference": "Organization/5fd1a831-5a59-426c-89cb-bbd83e5eefa4"
        }
      } ]
    },
    "request": {
      "method": "PUT",
      "url": "Procedure/6132486a-7083-4184-a637-f4833314ed45"
    }
  }, {
    "fullUrl": "https://madie.cms.gov/Patient/92d01ab1-1808-441b-883c-4e5e9c494df3",
    "resource": {
      "resourceType": "Patient",
      "id": "92d01ab1-1808-441b-883c-4e5e9c494df3",
      "meta": {
        "profile": [ "http://hl7.org/fhir/us/qicore/StructureDefinition/qicore-patient" ]
      },
      "text": {
        "status": "generated",
        "div": "<div xmlns=\"http://www.w3.org/1999/xhtml\"><div class=\"hapiHeaderText\">Turns 18 day of Encounter <b>NUMERPass </b></div><table class=\"hapiPropertyTable\"><tbody><tr><td>Identifier</td><td>f0eda1c9668fdacdcad3378589bf6e0a71e7dec1618f14fca4d442ec96e402b1</td></tr><tr><td>Date of birth</td><td><span>29 September 2006</span></td></tr></tbody></table></div>"
      },
      "extension": [ {
        "url": "http://hl7.org/fhir/us/core/StructureDefinition/us-core-race",
        "extension": [ {
          "url": "ombCategory",
          "valueCoding": {
            "system": "urn:oid:2.16.840.1.113883.6.238",
            "code": "1002-5",
            "display": "American Indian or Alaska Native",
            "userSelected": true
          }
        }, {
          "url": "text",
          "valueString": "American Indian or Alaska Native"
        } ]
      }, {
        "url": "http://hl7.org/fhir/us/core/StructureDefinition/us-core-ethnicity",
        "extension": [ {
          "url": "ombCategory",
          "valueCoding": {
            "system": "urn:oid:2.16.840.1.113883.6.238",
            "code": "2135-2",
            "display": "Hispanic or Latino",
            "userSelected": true
          }
        }, {
          "url": "text",
          "valueString": "Hispanic or Latino"
        } ]
      }, {
        "url": "http://hl7.org/fhir/us/core/StructureDefinition/us-core-sex",
        "valueCode": "248152002"
      } ],
      "identifier": [ {
        "type": {
          "coding": [ {
            "system": "http://terminology.hl7.org/CodeSystem/v2-0203",
            "code": "MR"
          } ]
        },
        "system": "http://bonnie-fhir.healthit.gov/",
        "value": "NUMERPass-SCrIncrease2x"
      } ],
      "active": true,
      "name": [ {
        "use": "usual",
        "family": "NUMERPass",
        "given": [ "SCrIncrease2x" ]
      } ],
      "gender": "female",
      "birthDate": "1983-10-10"
    },
    "request": {
      "method": "PUT",
      "url": "Patient/92d01ab1-1808-441b-883c-4e5e9c494df3"
    }
  }, {
    "fullUrl": "https://madie.cms.gov/MeasureReport/ff9a60bd-bb08-492c-b82a-8865f8f1348b",
    "resource": {
      "resourceType": "MeasureReport",
      "id": "ff9a60bd-bb08-492c-b82a-8865f8f1348b",
      "meta": {
        "profile": [ "http://hl7.org/fhir/us/cqfmeasures/StructureDefinition/test-case-cqfm" ]
      },
      "contained": [ {
        "resourceType": "Parameters",
        "id": "18882f39-d480-4db9-8e75-3dddde9305f6-parameters",
        "parameter": [ {
          "name": "subject",
          "valueString": "92d01ab1-1808-441b-883c-4e5e9c494df3"
        } ]
      } ],
      "extension": [ {
        "url": "http://hl7.org/fhir/StructureDefinition/cqf-inputParameters",
        "valueReference": {
          "reference": "#18882f39-d480-4db9-8e75-3dddde9305f6-parameters"
        }
      }, {
        "url": "http://hl7.org/fhir/us/cqfmeasures/StructureDefinition/cqfm-testCaseDescription",
        "valueMarkdown": "2TimeIncreaseInCreatUseRelevantPeriod FEMALE\nDialysis performed more than 48 hours after encounter start\n"
      } ],
      "modifierExtension": [ {
        "url": "http://hl7.org/fhir/us/cqfmeasures/StructureDefinition/cqfm-isTestCase",
        "valueBoolean": true
      } ],
      "status": "complete",
      "type": "individual",
      "measure": "https://madie.cms.gov/Measure/CMS832HHAKIFHIR",
      "period": {
        "start": "2026-01-01",
        "end": "2026-12-31"
      },
      "group": [ {
        "id": "Group_1",
        "population": [ {
          "id": "InitialPopulation_1",
          "code": {
            "coding": [ {
              "system": "http://terminology.hl7.org/CodeSystem/measure-population",
              "code": "initial-population",
              "display": "Initial Population"
            } ]
          },
          "count": 1
        }, {
          "id": "Denominator_1",
          "code": {
            "coding": [ {
              "system": "http://terminology.hl7.org/CodeSystem/measure-population",
              "code": "denominator",
              "display": "Denominator"
            } ]
          },
          "count": 1
        }, {
          "id": "DenominatorExclusion_1",
          "code": {
            "coding": [ {
              "system": "http://terminology.hl7.org/CodeSystem/measure-population",
              "code": "denominator-exclusion",
              "display": "Denominator Exclusion"
            } ]
          },
          "count": 0
        }, {
          "id": "Numerator_1",
          "code": {
            "coding": [ {
              "system": "http://terminology.hl7.org/CodeSystem/measure-population",
              "code": "numerator",
              "display": "Numerator"
            } ]
          },
          "count": 1
        } ],
        "measureScore": {
          "value": 0.0
        }
      } ],
      "evaluatedResource": [ {
        "reference": "Encounter/367bd344-8704-4ebd-8234-c04cae5719c4"
      }, {
        "reference": "Organization/5fd1a831-5a59-426c-89cb-bbd83e5eefa4"
      }, {
        "reference": "Observation/a488334b-a164-4cb6-9dc2-8269472bc060"
      }, {
        "reference": "Encounter/7b4e56dc-1d58-4291-812e-c5717e92bb41"
      }, {
        "reference": "Observation/e9db931c-5ce1-4e4c-9459-a14e8e1f6ef6"
      }, {
        "reference": "Observation/f20edc6c-74f2-47dd-9c53-470ef1a02411"
      }, {
        "reference": "Observation/c5f766d1-571a-413b-8011-1ae9396dabd7"
      }, {
        "reference": "Coverage/cfd7138b-1e81-468f-b99f-1c9a9baed035"
      }, {
        "reference": "Procedure/6132486a-7083-4184-a637-f4833314ed45"
      }, {
        "reference": "Patient/92d01ab1-1808-441b-883c-4e5e9c494df3"
      } ]
    },
    "request": {
      "method": "PUT",
      "url": "MeasureReport/ff9a60bd-bb08-492c-b82a-8865f8f1348b"
    }
  } ]
}