{
  "resourceType": "Bundle",
  "id": "633c9d040968f8012250fca4",
  "type": "transaction",
  "entry": [ {
    "fullUrl": "https://madie.cms.gov/Patient/a8856231-e110-4811-ac95-3f65c3d440fa",
    "resource": {
      "resourceType": "Patient",
      "id": "a8856231-e110-4811-ac95-3f65c3d440fa",
      "meta": {
        "profile": [ "http://hl7.org/fhir/us/qicore/StructureDefinition/qicore-patient" ]
      },
      "text": {
        "status": "generated",
        "div": "<div xmlns=\"http://www.w3.org/1999/xhtml\"><div class=\"hapiHeaderText\">CMOdurED_ED&lt;1hrObs&lt;1hrBFEnc <b>DENEXPASS </b></div><table class=\"hapiPropertyTable\"><tbody><tr><td>Identifier</td><td>0b5c2e2db5c7f9518d6eb2bf44cd7df8817ff6b8521c862f9878d999f0ab28a2</td></tr><tr><td>Date of birth</td><td><span>18 September 1985</span></td></tr></tbody></table></div>"
      },
      "extension": [ {
        "url": "http://hl7.org/fhir/us/core/StructureDefinition/us-core-race",
        "extension": [ {
          "url": "ombCategory",
          "valueCoding": {
            "system": "urn:oid:2.16.840.1.113883.6.238",
            "code": "1002-5",
            "display": "American Indian or Alaska Native",
            "userSelected": true
          }
        }, {
          "url": "text",
          "valueString": "American Indian or Alaska Native"
        } ]
      }, {
        "url": "http://hl7.org/fhir/us/core/StructureDefinition/us-core-ethnicity",
        "extension": [ {
          "url": "ombCategory",
          "valueCoding": {
            "system": "urn:oid:2.16.840.1.113883.6.238",
            "code": "2135-2",
            "display": "Hispanic or Latino",
            "userSelected": true
          }
        }, {
          "url": "text",
          "valueString": "Hispanic or Latino"
        } ]
      } ],
      "identifier": [ {
        "type": {
          "coding": [ {
            "system": "http://terminology.hl7.org/CodeSystem/v2-0203",
            "code": "MR"
          } ]
        },
        "system": "https://bonnie-fhir.healthit.gov/",
        "value": "633c9d040968f8012250fca4"
      } ],
      "active": true,
      "name": [ {
        "use": "usual",
        "family": "DENEXPass",
        "given": [ "CMOdurED_ED<1hrObs<1hrBFEnc" ]
      } ],
      "gender": "female",
      "birthDate": "1986-09-18"
    },
    "request": {
      "method": "PUT",
      "url": "Patient/a8856231-e110-4811-ac95-3f65c3d440fa"
    }
  }, {
    "fullUrl": "https://madie.cms.gov/Condition/4138d89a-429a-4dc4-a94f-1c82e06b926d",
    "resource": {
      "resourceType": "Condition",
      "id": "4138d89a-429a-4dc4-a94f-1c82e06b926d",
      "meta": {
        "profile": [ "http://hl7.org/fhir/us/qicore/StructureDefinition/qicore-condition-problems-health-concerns" ]
      },
      "clinicalStatus": {
        "coding": [ {
          "system": "http://terminology.hl7.org/CodeSystem/condition-clinical",
          "code": "inactive"
        } ]
      },
      "verificationStatus": {
        "coding": [ {
          "system": "http://terminology.hl7.org/CodeSystem/condition-ver-status",
          "code": "confirmed"
        } ]
      },
      "category": [ {
        "coding": [ {
          "system": "http://terminology.hl7.org/CodeSystem/condition-category",
          "code": "encounter-diagnosis",
          "display": "Encounter Diagnosis"
        } ]
      } ],
      "code": {
        "coding": [ {
          "system": "http://hl7.org/fhir/sid/icd-10-cm",
          "code": "I48.20"
        }, {
          "system": "http://hl7.org/fhir/sid/icd-10-cm",
          "code": "I48.0"
        }, {
          "system": "http://snomed.info/sct",
          "code": "5370000"
        } ]
      },
      "subject": {
        "reference": "Patient/a8856231-e110-4811-ac95-3f65c3d440fa"
      },
      "onsetDateTime": "2026-10-01T09:00:00Z",
      "abatementDateTime": "2026-10-12T00:15:00.000+00:00"
    },
    "request": {
      "method": "PUT",
      "url": "Condition/4138d89a-429a-4dc4-a94f-1c82e06b926d"
    }
  }, {
    "fullUrl": "https://madie.cms.gov/Encounter/f83781a0-6b61-4a85-9e08-75088b511a26",
    "resource": {
      "resourceType": "Encounter",
      "id": "f83781a0-6b61-4a85-9e08-75088b511a26",
      "meta": {
        "profile": [ "http://hl7.org/fhir/us/qicore/StructureDefinition/qicore-encounter" ]
      },
      "status": "finished",
      "class": {
        "system": "http://terminology.hl7.org/CodeSystem/v3-ActCode",
        "code": "EMER",
        "display": "emergency"
      },
      "type": [ {
        "coding": [ {
          "system": "http://snomed.info/sct",
          "code": "4525004"
        } ]
      } ],
      "subject": {
        "reference": "Patient/a8856231-e110-4811-ac95-3f65c3d440fa"
      },
      "period": {
        "start": "2026-09-30T07:59:00Z",
        "end": "2026-09-30T09:00:00.000+00:00"
      },
      "length": {
        "value": 0,
        "unit": "days"
      }
    },
    "request": {
      "method": "PUT",
      "url": "Encounter/f83781a0-6b61-4a85-9e08-75088b511a26"
    }
  }, {
    "fullUrl": "https://madie.cms.gov/Encounter/57f0ae40-778e-40b8-b7dd-83ba03204722",
    "resource": {
      "resourceType": "Encounter",
      "id": "57f0ae40-778e-40b8-b7dd-83ba03204722",
      "meta": {
        "profile": [ "http://hl7.org/fhir/us/qicore/StructureDefinition/qicore-encounter" ]
      },
      "status": "finished",
      "class": {
        "system": "http://terminology.hl7.org/CodeSystem/v3-ActCode",
        "code": "OBSENC",
        "display": "observation encounter"
      },
      "type": [ {
        "coding": [ {
          "system": "http://snomed.info/sct",
          "code": "448851000124103"
        } ]
      } ],
      "subject": {
        "reference": "Patient/a8856231-e110-4811-ac95-3f65c3d440fa"
      },
      "period": {
        "start": "2026-09-30T09:01:00Z",
        "end": "2026-09-30T09:05:00.000+00:00"
      },
      "length": {
        "value": 0,
        "unit": "days"
      }
    },
    "request": {
      "method": "PUT",
      "url": "Encounter/57f0ae40-778e-40b8-b7dd-83ba03204722"
    }
  }, {
    "fullUrl": "https://madie.cms.gov/Encounter/f56d83ff-7f4b-4a09-ab46-b9ca3445a8fd",
    "resource": {
      "resourceType": "Encounter",
      "id": "f56d83ff-7f4b-4a09-ab46-b9ca3445a8fd",
      "meta": {
        "profile": [ "http://hl7.org/fhir/us/qicore/StructureDefinition/qicore-encounter" ]
      },
      "status": "finished",
      "class": {
        "system": "http://terminology.hl7.org/CodeSystem/v3-ActCode",
        "code": "IMP",
        "display": "inpatient encounter"
      },
      "type": [ {
        "coding": [ {
          "system": "http://snomed.info/sct",
          "code": "32485007"
        } ]
      } ],
      "subject": {
        "reference": "Patient/a8856231-e110-4811-ac95-3f65c3d440fa"
      },
      "period": {
        "start": "2026-09-30T09:06:00Z",
        "end": "2026-10-12T00:15:00.000+00:00"
      },
      "length": {
        "value": 12,
        "unit": "days"
      },
      "reasonReference": [ {
        "reference": "Condition/4138d89a-429a-4dc4-a94f-1c82e06b926d"
      } ]
    },
    "request": {
      "method": "PUT",
      "url": "Encounter/f56d83ff-7f4b-4a09-ab46-b9ca3445a8fd"
    }
  }, {
    "fullUrl": "https://madie.cms.gov/Condition/a4d1d7d6-c422-49c8-98b8-5abff672039f",
    "resource": {
      "resourceType": "Condition",
      "id": "a4d1d7d6-c422-49c8-98b8-5abff672039f",
      "meta": {
        "profile": [ "http://hl7.org/fhir/us/qicore/StructureDefinition/qicore-condition-problems-health-concerns" ]
      },
      "clinicalStatus": {
        "coding": [ {
          "system": "http://terminology.hl7.org/CodeSystem/condition-clinical",
          "code": "active"
        } ]
      },
      "verificationStatus": {
        "coding": [ {
          "system": "http://terminology.hl7.org/CodeSystem/condition-ver-status",
          "code": "confirmed"
        } ]
      },
      "category": [ {
        "coding": [ {
          "system": "http://terminology.hl7.org/CodeSystem/condition-category",
          "code": "encounter-diagnosis",
          "display": "Encounter Diagnosis"
        } ]
      } ],
      "code": {
        "coding": [ {
          "system": "http://snomed.info/sct",
          "version": "2021-09",
          "code": "111297002",
          "display": "Nonparalytic stroke (disorder)",
          "userSelected": true
        } ]
      },
      "subject": {
        "reference": "Patient/a8856231-e110-4811-ac95-3f65c3d440fa"
      },
      "recordedDate": "2026-09-30T09:06:00Z"
    },
    "request": {
      "method": "PUT",
      "url": "Condition/a4d1d7d6-c422-49c8-98b8-5abff672039f"
    }
  }, {
    "fullUrl": "https://madie.cms.gov/ServiceRequest/93930cd7-b9e8-4254-9c6f-24dcf30a5870",
    "resource": {
      "resourceType": "ServiceRequest",
      "id": "93930cd7-b9e8-4254-9c6f-24dcf30a5870",
      "meta": {
        "profile": [ "http://hl7.org/fhir/us/qicore/StructureDefinition/qicore-servicerequest" ]
      },
      "status": "active",
      "intent": "order",
      "code": {
        "coding": [ {
          "system": "http://snomed.info/sct",
          "code": "133918004"
        } ]
      },
      "subject": {
        "reference": "Patient/a8856231-e110-4811-ac95-3f65c3d440fa"
      },
      "authoredOn": "2026-09-30T08:01:00Z"
    },
    "request": {
      "method": "PUT",
      "url": "ServiceRequest/93930cd7-b9e8-4254-9c6f-24dcf30a5870"
    }
  }, {
    "fullUrl": "https://madie.cms.gov/claim/5ca62962b8484628b8de1ec5",
    "resource": {
      "resourceType": "Claim",
      "id": "5ca62962b8484628b8de1ec5",
      "meta": {
        "profile": [ "http://hl7.org/fhir/us/qicore/StructureDefinition/qicore-claim" ]
      },
      "status": "active",
      "type": {
        "coding": [ {
          "system": "http://terminology.hl7.org/CodeSystem/claim-type",
          "code": "institutional"
        } ]
      },
      "use": "claim",
      "patient": {
        "reference": "Patient/d170a0a8-b5ad-4303-b6df-e304dd5f92ad"
      },
      "created": "2026-12-01",
      "provider": {
        "reference": "Practitioner/4a49745a-faac-42cc-bc64-b184af4f5a79"
      },
      "priority": {
        "coding": [ {
          "system": "http://terminology.hl7.org/CodeSystem/processpriority",
          "code": "normal"
        } ]
      },
      "diagnosis": [ {
        "sequence": 1,
        "diagnosisCodeableConcept": {
          "coding": [ {
            "system": "http://hl7.org/fhir/sid/icd-10-cm",
            "code": "I63.00"
          } ]
        },
        "type": [ {
          "coding": [ {
            "system": "http://terminology.hl7.org/CodeSystem/ex-diagnosistype",
            "code": "principal"
          } ]
        } ]
      } ],
      "insurance": [ {
        "sequence": 1,
        "focal": true,
        "coverage": {
          "reference": "Coverage/5fa041661c76ba66d9959367"
        }
      } ],
      "item": [ {
        "sequence": 1,
        "diagnosisSequence": [ 1 ],
        "productOrService": {
          "coding": [ {
            "system": "http://terminology.hl7.org/CodeSystem/ex-USCLS",
            "code": "99555"
          } ]
        },
        "encounter": [ {
          "reference": "Encounter/f56d83ff-7f4b-4a09-ab46-b9ca3445a8fd"
        } ]
      } ]
    },
    "request": {
      "method": "PUT",
      "url": "Claim/5ca62962b8484628b8de1ec5"
    }
  }, {
    "fullUrl": "https://madie.cms.gov/Coverage/ecaa98f6-92f4-4ecd-b7c3-b9b05d6e356f",
    "resource": {
      "resourceType": "Coverage",
      "id": "ecaa98f6-92f4-4ecd-b7c3-b9b05d6e356f",
      "meta": {
        "profile": [ "http://hl7.org/fhir/us/qicore/StructureDefinition/qicore-coverage" ]
      },
      "status": "active",
      "subscriberId": "523435",
      "beneficiary": {
        "reference": "Patient/162a5913-9989-42f2-8d6a-ae460e245e4c"
      },
      "relationship": {
        "coding": [ {
          "system": "http://terminology.hl7.org/CodeSystem/subscriber-relationship",
          "code": "self"
        } ]
      },
      "payor": [ {
        "reference": "Organization/529d3a86-1dc0-4ae8-8586-e1256f9fd567"
      } ]
    },
    "request": {
      "method": "PUT",
      "url": "Coverage/ecaa98f6-92f4-4ecd-b7c3-b9b05d6e356f"
    }
  }, {
    "fullUrl": "https://madie.cms.gov/Organization/529d3a86-1dc0-4ae8-8586-e1256f9fd567",
    "resource": {
      "resourceType": "Organization",
      "id": "529d3a86-1dc0-4ae8-8586-e1256f9fd567",
      "meta": {
        "profile": [ "http://hl7.org/fhir/us/qicore/StructureDefinition/qicore-organization" ]
      },
      "identifier": [ {
        "use": "temp",
        "system": "urn:oid:2.16.840.1.113883.4.4",
        "value": "21-3259825"
      } ],
      "active": true,
      "type": [ {
        "coding": [ {
          "system": "http://terminology.hl7.org/CodeSystem/organization-type",
          "code": "pay",
          "display": "Payer"
        } ]
      } ],
      "name": "Blue Cross Blue Shield of Texas",
      "telecom": [ {
        "system": "phone",
        "value": "(+1) 972-766-6900"
      } ],
      "address": [ {
        "use": "billing",
        "type": "postal",
        "line": [ "P.O. Box 660044" ],
        "city": "Dallas",
        "state": "TX",
        "postalCode": "75266-0044",
        "country": "USA"
      } ]
    },
    "request": {
      "method": "PUT",
      "url": "Organization/529d3a86-1dc0-4ae8-8586-e1256f9fd567"
    }
  }, {
    "fullUrl": "https://madie.cms.gov/Practitioner/4a49745a-faac-42cc-bc64-b184af4f5a79",
    "resource": {
      "resourceType": "Practitioner",
      "id": "4a49745a-faac-42cc-bc64-b184af4f5a79",
      "meta": {
        "profile": [ "http://hl7.org/fhir/us/qicore/StructureDefinition/qicore-practitioner" ]
      },
      "identifier": [ {
        "system": "http://hl7.org/fhir/sid/us-npi",
        "value": "9999999896"
      } ],
      "name": [ {
        "family": "Evil",
        "prefix": [ "Dr" ]
      } ]
    },
    "request": {
      "method": "PUT",
      "url": "Practitioner/4a49745a-faac-42cc-bc64-b184af4f5a79"
    }
  }, {
    "fullUrl": "https://madie.cms.gov/MeasureReport/cf3e95cb-f4d1-4408-a6e8-856efea74420",
    "resource": {
      "resourceType": "MeasureReport",
      "id": "cf3e95cb-f4d1-4408-a6e8-856efea74420",
      "meta": {
        "profile": [ "http://hl7.org/fhir/us/cqfmeasures/StructureDefinition/test-case-cqfm" ]
      },
      "contained": [ {
        "resourceType": "Parameters",
        "id": "1c8b61c1-d5db-4b09-8db0-78ee3bc8c233-parameters",
        "parameter": [ {
          "name": "subject",
          "valueString": "a8856231-e110-4811-ac95-3f65c3d440fa"
        } ]
      } ],
      "extension": [ {
        "url": "http://hl7.org/fhir/StructureDefinition/cqf-inputParameters",
        "valueReference": {
          "reference": "#1c8b61c1-d5db-4b09-8db0-78ee3bc8c233-parameters"
        }
      }, {
        "url": "http://hl7.org/fhir/us/cqfmeasures/StructureDefinition/cqfm-testCaseDescription",
        "valueMarkdown": "Patient receives CMO during ED. ED ends 1 min before Obs start and Obs ends 1 min before inpatient start.  Testing HospitalizationWithObservation function\n"
      } ],
      "modifierExtension": [ {
        "url": "http://hl7.org/fhir/us/cqfmeasures/StructureDefinition/cqfm-isTestCase",
        "valueBoolean": true
      } ],
      "status": "complete",
      "type": "individual",
      "measure": "https://madie.cms.gov/Measure/CMS71FHIRSTKAnticoagAFFlutter",
      "period": {
        "start": "2026-01-01",
        "end": "2026-12-31"
      },
      "group": [ {
        "id": "Group_1",
        "population": [ {
          "id": "InitialPopulation_1",
          "code": {
            "coding": [ {
              "system": "http://terminology.hl7.org/CodeSystem/measure-population",
              "code": "initial-population",
              "display": "Initial Population"
            } ]
          },
          "count": 1
        }, {
          "id": "Denominator_1",
          "code": {
            "coding": [ {
              "system": "http://terminology.hl7.org/CodeSystem/measure-population",
              "code": "denominator",
              "display": "Denominator"
            } ]
          },
          "count": 1
        }, {
          "id": "DenominatorExclusion_1",
          "code": {
            "coding": [ {
              "system": "http://terminology.hl7.org/CodeSystem/measure-population",
              "code": "denominator-exclusion",
              "display": "Denominator Exclusion"
            } ]
          },
          "count": 1
        }, {
          "id": "Numerator_1",
          "code": {
            "coding": [ {
              "system": "http://terminology.hl7.org/CodeSystem/measure-population",
              "code": "numerator",
              "display": "Numerator"
            } ]
          },
          "count": 0
        }, {
          "id": "DenominatorException_1",
          "code": {
            "coding": [ {
              "system": "http://terminology.hl7.org/CodeSystem/measure-population",
              "code": "denominator-exception",
              "display": "Denominator Exception"
            } ]
          },
          "count": 0
        } ],
        "measureScore": {
          "value": 0.0
        }
      } ],
      "evaluatedResource": [ {
        "reference": "Patient/a8856231-e110-4811-ac95-3f65c3d440fa"
      }, {
        "reference": "Condition/4138d89a-429a-4dc4-a94f-1c82e06b926d"
      }, {
        "reference": "Encounter/f83781a0-6b61-4a85-9e08-75088b511a26"
      }, {
        "reference": "Encounter/57f0ae40-778e-40b8-b7dd-83ba03204722"
      }, {
        "reference": "Encounter/f56d83ff-7f4b-4a09-ab46-b9ca3445a8fd"
      }, {
        "reference": "Condition/a4d1d7d6-c422-49c8-98b8-5abff672039f"
      }, {
        "reference": "ServiceRequest/93930cd7-b9e8-4254-9c6f-24dcf30a5870"
      }, {
        "reference": "Claim/5ca62962b8484628b8de1ec5"
      }, {
        "reference": "Coverage/ecaa98f6-92f4-4ecd-b7c3-b9b05d6e356f"
      }, {
        "reference": "Organization/529d3a86-1dc0-4ae8-8586-e1256f9fd567"
      }, {
        "reference": "Practitioner/4a49745a-faac-42cc-bc64-b184af4f5a79"
      } ]
    },
    "request": {
      "method": "PUT",
      "url": "MeasureReport/cf3e95cb-f4d1-4408-a6e8-856efea74420"
    }
  } ]
}