{
  "resourceType": "Bundle",
  "id": "6464613468133615",
  "type": "transaction",
  "entry": [ {
    "fullUrl": "https://madie.cms.gov/Patient/84b7f540-8e30-41e8-9691-f9ccd6924e0d",
    "resource": {
      "resourceType": "Patient",
      "id": "84b7f540-8e30-41e8-9691-f9ccd6924e0d",
      "meta": {
        "profile": [ "http://hl7.org/fhir/us/qicore/StructureDefinition/qicore-patient" ]
      },
      "extension": [ {
        "url": "http://hl7.org/fhir/us/core/StructureDefinition/us-core-race",
        "extension": [ {
          "url": "ombCategory",
          "valueCoding": {
            "system": "urn:oid:2.16.840.1.113883.6.238",
            "code": "2076-8",
            "display": "Native Hawaiian or Other Pacific Islander"
          }
        }, {
          "url": "text",
          "valueString": "Native Hawaiian or Other Pacific Islander"
        } ]
      }, {
        "url": "http://hl7.org/fhir/us/core/StructureDefinition/us-core-ethnicity",
        "extension": [ {
          "url": "ombCategory",
          "valueCoding": {
            "system": "urn:oid:2.16.840.1.113883.6.238",
            "code": "2186-5",
            "display": "Not Hispanic or Latino"
          }
        }, {
          "url": "text",
          "valueString": "Not Hispanic or Latino"
        } ]
      } ],
      "identifier": [ {
        "type": {
          "coding": [ {
            "system": "http://terminology.hl7.org/CodeSystem/v2-0203",
            "code": "MR"
          } ]
        },
        "system": "https://bonnie-fhir.healthit.gov/",
        "value": "498431661361361"
      } ],
      "active": true,
      "name": [ {
        "use": "usual",
        "family": "DENEXPass",
        "given": [ "LVDeviceComplicationsRecordedDate" ]
      } ],
      "gender": "male",
      "birthDate": "1975-02-10"
    },
    "request": {
      "method": "PUT",
      "url": "Patient/84b7f540-8e30-41e8-9691-f9ccd6924e0d"
    }
  }, {
    "fullUrl": "https://madie.cms.gov/Encounter/b9867cbb-edd6-4e5e-b28b-3a240b88e858",
    "resource": {
      "resourceType": "Encounter",
      "id": "b9867cbb-edd6-4e5e-b28b-3a240b88e858",
      "meta": {
        "profile": [ "http://hl7.org/fhir/us/qicore/StructureDefinition/qicore-encounter" ]
      },
      "status": "finished",
      "class": {
        "system": "http://terminology.hl7.org/CodeSystem/v3-ActCode",
        "code": "AMB",
        "display": "ambulatory"
      },
      "type": [ {
        "coding": [ {
          "system": "http://www.ama-assn.org/go/cpt",
          "version": "2024",
          "code": "99213"
        } ]
      } ],
      "subject": {
        "reference": "Patient/84b7f540-8e30-41e8-9691-f9ccd6924e0d"
      },
      "period": {
        "start": "2026-04-14T14:40:00.000+00:00",
        "end": "2026-04-14T14:50:00.000+00:00"
      },
      "length": {
        "value": 0,
        "unit": "days"
      }
    },
    "request": {
      "method": "PUT",
      "url": "Encounter/b9867cbb-edd6-4e5e-b28b-3a240b88e858"
    }
  }, {
    "fullUrl": "https://madie.cms.gov/Condition/8d137c59-879f-406f-8086-ac5c1cec9a0b",
    "resource": {
      "resourceType": "Condition",
      "id": "8d137c59-879f-406f-8086-ac5c1cec9a0b",
      "meta": {
        "profile": [ "http://hl7.org/fhir/us/qicore/StructureDefinition/qicore-condition-problems-health-concerns" ]
      },
      "clinicalStatus": {
        "coding": [ {
          "system": "http://terminology.hl7.org/CodeSystem/condition-clinical",
          "code": "active",
          "display": "Active"
        } ]
      },
      "verificationStatus": {
        "coding": [ {
          "system": "http://terminology.hl7.org/CodeSystem/condition-ver-status",
          "code": "confirmed",
          "display": "Confirmed"
        } ]
      },
      "category": [ {
        "coding": [ {
          "system": "http://terminology.hl7.org/CodeSystem/condition-category",
          "code": "problem-list-item",
          "display": "Problem List Item"
        } ]
      } ],
      "code": {
        "coding": [ {
          "system": "http://snomed.info/sct",
          "version": "http://snomed.info/sct/731000124108/version/20240301",
          "code": "764680009",
          "display": "Infection of left ventricular assist device driveline (disorder)"
        } ]
      },
      "subject": {
        "reference": "Patient/84b7f540-8e30-41e8-9691-f9ccd6924e0d"
      },
      "recordedDate": "2025-07-11T08:00:00.000+00:00"
    },
    "request": {
      "method": "PUT",
      "url": "Condition/8d137c59-879f-406f-8086-ac5c1cec9a0b"
    }
  }, {
    "fullUrl": "https://madie.cms.gov/Encounter/5059fb3f-2e21-42c0-b3c3-40f4a7e04fcf",
    "resource": {
      "resourceType": "Encounter",
      "id": "5059fb3f-2e21-42c0-b3c3-40f4a7e04fcf",
      "meta": {
        "profile": [ "http://hl7.org/fhir/us/qicore/StructureDefinition/qicore-encounter" ]
      },
      "status": "finished",
      "class": {
        "system": "http://terminology.hl7.org/CodeSystem/v3-ActCode",
        "code": "AMB",
        "display": "ambulatory"
      },
      "type": [ {
        "coding": [ {
          "system": "http://www.ama-assn.org/go/cpt",
          "version": "2024",
          "code": "99212"
        } ]
      } ],
      "subject": {
        "reference": "Patient/84b7f540-8e30-41e8-9691-f9ccd6924e0d"
      },
      "period": {
        "start": "2026-07-20T11:50:00.000+00:00",
        "end": "2026-07-20T11:50:00.000+00:00"
      },
      "length": {
        "value": 0,
        "unit": "days"
      }
    },
    "request": {
      "method": "PUT",
      "url": "Encounter/5059fb3f-2e21-42c0-b3c3-40f4a7e04fcf"
    }
  }, {
    "fullUrl": "https://madie.cms.gov/Condition/7e2228ff-91cf-4cef-bcd0-1800133f4fef",
    "resource": {
      "resourceType": "Condition",
      "id": "7e2228ff-91cf-4cef-bcd0-1800133f4fef",
      "meta": {
        "profile": [ "http://hl7.org/fhir/us/qicore/StructureDefinition/qicore-condition-problems-health-concerns" ]
      },
      "clinicalStatus": {
        "coding": [ {
          "system": "http://terminology.hl7.org/CodeSystem/condition-clinical",
          "code": "active",
          "display": "Active"
        } ]
      },
      "verificationStatus": {
        "coding": [ {
          "system": "http://terminology.hl7.org/CodeSystem/condition-ver-status",
          "code": "confirmed",
          "display": "Confirmed"
        } ]
      },
      "category": [ {
        "coding": [ {
          "system": "http://terminology.hl7.org/CodeSystem/condition-category",
          "code": "problem-list-item",
          "display": "Problem List Item"
        } ]
      } ],
      "code": {
        "coding": [ {
          "system": "http://hl7.org/fhir/sid/icd-10-cm",
          "version": "2024",
          "code": "I11.0"
        } ]
      },
      "subject": {
        "reference": "Patient/84b7f540-8e30-41e8-9691-f9ccd6924e0d"
      },
      "onsetPeriod": {
        "start": "2026-04-11T10:00:00.000+00:00"
      }
    },
    "request": {
      "method": "PUT",
      "url": "Condition/7e2228ff-91cf-4cef-bcd0-1800133f4fef"
    }
  }, {
    "fullUrl": "https://madie.cms.gov/Condition/453c366f-34e3-45c8-86f4-bd6c6f8a3b72",
    "resource": {
      "resourceType": "Condition",
      "id": "453c366f-34e3-45c8-86f4-bd6c6f8a3b72",
      "meta": {
        "profile": [ "http://hl7.org/fhir/us/qicore/StructureDefinition/qicore-condition-problems-health-concerns" ]
      },
      "clinicalStatus": {
        "coding": [ {
          "system": "http://terminology.hl7.org/CodeSystem/condition-clinical",
          "code": "active",
          "display": "Active"
        } ]
      },
      "verificationStatus": {
        "coding": [ {
          "system": "http://terminology.hl7.org/CodeSystem/condition-ver-status",
          "code": "confirmed",
          "display": "Confirmed"
        } ]
      },
      "category": [ {
        "coding": [ {
          "system": "http://terminology.hl7.org/CodeSystem/condition-category",
          "code": "problem-list-item",
          "display": "Problem List Item"
        } ]
      } ],
      "severity": {
        "coding": [ {
          "system": "http://snomed.info/sct",
          "version": "http://snomed.info/sct/731000124108/version/20240301",
          "code": "24484000",
          "display": "Severe (severity modifier) (qualifier value)"
        } ]
      },
      "code": {
        "coding": [ {
          "system": "http://snomed.info/sct",
          "version": "http://snomed.info/sct/731000124108/version/20240301",
          "code": "134401001",
          "display": "Left ventricular systolic dysfunction (disorder)"
        } ]
      },
      "subject": {
        "reference": "Patient/84b7f540-8e30-41e8-9691-f9ccd6924e0d"
      },
      "onsetPeriod": {
        "start": "2026-04-14T14:41:00.000+00:00"
      }
    },
    "request": {
      "method": "PUT",
      "url": "Condition/453c366f-34e3-45c8-86f4-bd6c6f8a3b72"
    }
  }, {
    "fullUrl": "https://madie.cms.gov/MeasureReport/8128e352-5f69-4981-8b3d-4ad22c7a6b10",
    "resource": {
      "resourceType": "MeasureReport",
      "id": "8128e352-5f69-4981-8b3d-4ad22c7a6b10",
      "meta": {
        "profile": [ "http://hl7.org/fhir/us/cqfmeasures/StructureDefinition/test-case-cqfm" ]
      },
      "contained": [ {
        "resourceType": "Parameters",
        "id": "104aae39-c0be-45b9-86eb-66ab23654b92-parameters",
        "parameter": [ {
          "name": "subject",
          "valueString": "84b7f540-8e30-41e8-9691-f9ccd6924e0d"
        } ]
      } ],
      "extension": [ {
        "url": "http://hl7.org/fhir/StructureDefinition/cqf-inputParameters",
        "valueReference": {
          "reference": "#104aae39-c0be-45b9-86eb-66ab23654b92-parameters"
        }
      }, {
        "url": "http://hl7.org/fhir/us/cqfmeasures/StructureDefinition/cqfm-testCaseDescription",
        "valueMarkdown": "Meeting denominator exclusions for active history of Left Ventricular Device Complication based on recordedDate"
      } ],
      "modifierExtension": [ {
        "url": "http://hl7.org/fhir/us/cqfmeasures/StructureDefinition/cqfm-isTestCase",
        "valueBoolean": true
      } ],
      "status": "complete",
      "type": "individual",
      "measure": "https://madie.cms.gov/Measure/CMS144FHIRHFBetaBlockerTherapyforLVSD",
      "period": {
        "start": "2026-01-01",
        "end": "2026-12-31"
      },
      "group": [ {
        "id": "Group_1",
        "population": [ {
          "id": "InitialPopulation_1",
          "code": {
            "coding": [ {
              "system": "http://terminology.hl7.org/CodeSystem/measure-population",
              "code": "initial-population",
              "display": "Initial Population"
            } ]
          },
          "count": 1
        }, {
          "id": "Denominator_1",
          "code": {
            "coding": [ {
              "system": "http://terminology.hl7.org/CodeSystem/measure-population",
              "code": "denominator",
              "display": "Denominator"
            } ]
          },
          "count": 1
        }, {
          "id": "DenominatorExclusion_1",
          "code": {
            "coding": [ {
              "system": "http://terminology.hl7.org/CodeSystem/measure-population",
              "code": "denominator-exclusion",
              "display": "Denominator Exclusion"
            } ]
          },
          "count": 1
        }, {
          "id": "Numerator_1",
          "code": {
            "coding": [ {
              "system": "http://terminology.hl7.org/CodeSystem/measure-population",
              "code": "numerator",
              "display": "Numerator"
            } ]
          },
          "count": 0
        }, {
          "id": "DenominatorException_1",
          "code": {
            "coding": [ {
              "system": "http://terminology.hl7.org/CodeSystem/measure-population",
              "code": "denominator-exception",
              "display": "Denominator Exception"
            } ]
          },
          "count": 0
        } ],
        "measureScore": {
          "value": 1.0
        }
      } ],
      "evaluatedResource": [ {
        "reference": "Patient/84b7f540-8e30-41e8-9691-f9ccd6924e0d"
      }, {
        "reference": "Encounter/b9867cbb-edd6-4e5e-b28b-3a240b88e858"
      }, {
        "reference": "Condition/8d137c59-879f-406f-8086-ac5c1cec9a0b"
      }, {
        "reference": "Encounter/5059fb3f-2e21-42c0-b3c3-40f4a7e04fcf"
      }, {
        "reference": "Condition/7e2228ff-91cf-4cef-bcd0-1800133f4fef"
      }, {
        "reference": "Condition/453c366f-34e3-45c8-86f4-bd6c6f8a3b72"
      } ]
    },
    "request": {
      "method": "PUT",
      "url": "MeasureReport/8128e352-5f69-4981-8b3d-4ad22c7a6b10"
    }
  } ]
}