{
    "entry": [
        {
            "request": {
                "method": "PUT",
                "url": "Patient/695cee04-cf12-411e-a258-99e430093a4e"
            },
            "resource": {
                "identifier": [{
                    "system": "https://bonnie-fhir.healthit.gov/",
                    "type": {"coding": [{
                        "system": "http://terminology.hl7.org/CodeSystem/v2-0203",
                        "code": "MR"
                    }]},
                    "value": "62d728a9c22c612899b40d62"
                }],
                "extension": [
                    {
                        "extension": [
                            {
                                "valueCoding": {
                                    "system": "urn:oid:2.16.840.1.113883.6.238",
                                    "code": "2054-5",
                                    "userSelected": true,
                                    "display": "Black or African American"
                                },
                                "url": "ombCategory"
                            },
                            {
                                "valueString": "Black or African American",
                                "url": "text"
                            }
                        ],
                        "url": "http://hl7.org/fhir/us/core/StructureDefinition/us-core-race"
                    },
                    {
                        "extension": [
                            {
                                "valueCoding": {
                                    "system": "urn:oid:2.16.840.1.113883.6.238",
                                    "code": "2135-2",
                                    "userSelected": true,
                                    "display": "Hispanic or Latino"
                                },
                                "url": "ombCategory"
                            },
                            {
                                "valueString": "Hispanic or Latino",
                                "url": "text"
                            }
                        ],
                        "url": "http://hl7.org/fhir/us/core/StructureDefinition/us-core-ethnicity"
                    }
                ],
                "gender": "male",
                "meta": {"profile": ["http://hl7.org/fhir/us/qicore/StructureDefinition/qicore-patient"]},
                "name": [{
                    "given": ["2HTN130DeclinedLabOthers"],
                    "family": "DENEXCEPPassX2"
                }],
                "id": "695cee04-cf12-411e-a258-99e430093a4e",
                "birthDate": "2007-01-31",
                "resourceType": "Patient"
            },
            "fullUrl": "https://madie.cms.gov/Patient/695cee04-cf12-411e-a258-99e430093a4e"
        },
        {
            "request": {
                "method": "PUT",
                "url": "Encounter/6b143284-ed0a-43a3-a5cd-739e4949bb19"
            },
            "resource": {
                "period": {
                    "start": "2026-01-01T00:00:00.000+00:00",
                    "end": "2026-01-01T00:30:00.000+00:00"
                },
                "meta": {"profile": ["http://hl7.org/fhir/us/qicore/StructureDefinition/qicore-encounter"]},
                "subject": {"reference": "Patient/695cee04-cf12-411e-a258-99e430093a4e"},
                "id": "6b143284-ed0a-43a3-a5cd-739e4949bb19",
                "type": [{"coding": [{
                    "system": "http://snomed.info/sct",
                    "code": "103705002",
                    "userSelected": true,
                    "display": "Patient status observation (procedure)",
                    "version": "2022-03"
                }]}],
                "class": {
                    "system": "http://terminology.hl7.org/CodeSystem/v3-ActCode",
                    "code": "AMB",
                    "display": "ambulatory"
                },
                "resourceType": "Encounter",
                "status": "finished"
            },
            "fullUrl": "https://madie.cms.gov/Encounter/6b143284-ed0a-43a3-a5cd-739e4949bb19"
        },
        {
            "request": {
                "method": "PUT",
                "url": "Observation/a458b773-6d39-4e36-8c48-12ac99ef638e"
            },
            "resource": {
                "component": [
                    {
                        "code": {"coding": [{
                            "system": "http://loinc.org",
                            "code": "8480-6",
                            "display": "Systolic blood pressure"
                        }]},
                        "valueQuantity": {
                            "unit": "mmHg",
                            "system": "http://unitsofmeasure.org",
                            "code": "mm[Hg]",
                            "value": 130
                        }
                    },
                    {
                        "code": {"coding": [{
                            "system": "http://loinc.org",
                            "code": "8462-4",
                            "display": "Diastolic blood pressure"
                        }]},
                        "valueQuantity": {
                            "unit": "mmHg",
                            "system": "http://unitsofmeasure.org",
                            "code": "mm[Hg]",
                            "value": 79
                        }
                    }
                ],
                "code": {"coding": [{
                    "system": "http://loinc.org",
                    "code": "85354-9",
                    "display": "Blood pressure panel"
                }]},
                "effectiveDateTime": "2026-01-01T00:01:00.000+00:00",
                "meta": {"profile": ["http://hl7.org/fhir/us/core/StructureDefinition/us-core-blood-pressure"]},
                "subject": {"reference": "Patient/695cee04-cf12-411e-a258-99e430093a4e"},
                "id": "a458b773-6d39-4e36-8c48-12ac99ef638e",
                "category": [{
                    "coding": [{
                        "system": "http://terminology.hl7.org/CodeSystem/observation-category",
                        "code": "vital-signs",
                        "display": "Vital Signs"
                    }],
                    "text": "Vital Signs"
                }],
                "resourceType": "Observation",
                "status": "final"
            },
            "fullUrl": "https://madie.cms.gov/Observation/a458b773-6d39-4e36-8c48-12ac99ef638e"
        },
        {
            "request": {
                "method": "PUT",
                "url": "ServiceRequest/fa1e9420-7de2-42b3-9846-5b669f1cdeb5"
            },
            "resource": {
                "extension": [{
                    "valueCodeableConcept": {"coding": [{
                        "system": "http://snomed.info/sct",
                        "code": "1296859006",
                        "userSelected": true,
                        "display": "Procedure declined by patient (situation)"
                    }]},
                    "url": "http://hl7.org/fhir/us/qicore/StructureDefinition/qicore-doNotPerformReason"
                }],
                "code": {"coding": [{
                    "system": "http://snomed.info/sct",
                    "code": "1181000175107",
                    "userSelected": true,
                    "display": "Recommendation to lose weight (procedure)",
                    "version": "2022-03"
                }]},
                "authoredOn": "2026-01-01T00:05:00.000+00:00",
                "meta": {"profile": ["http://hl7.org/fhir/us/qicore/StructureDefinition/qicore-servicenotrequested"]},
                "subject": {"reference": "Patient/695cee04-cf12-411e-a258-99e430093a4e"},
                "id": "fa1e9420-7de2-42b3-9846-5b669f1cdeb5",
                "doNotPerform": true,
                "intent": "order",
                "resourceType": "ServiceRequest",
                "status": "completed"
            },
            "fullUrl": "https://madie.cms.gov/ServiceRequest/fa1e9420-7de2-42b3-9846-5b669f1cdeb5"
        },
        {
            "request": {
                "method": "PUT",
                "url": "Encounter/df055739-6738-4c23-be9d-e70484d83383"
            },
            "resource": {
                "period": {
                    "start": "2026-12-31T23:30:00.000+00:00",
                    "end": "2026-12-31T23:59:00.000+00:00"
                },
                "meta": {"profile": ["http://hl7.org/fhir/us/qicore/StructureDefinition/qicore-encounter"]},
                "subject": {"reference": "Patient/695cee04-cf12-411e-a258-99e430093a4e"},
                "id": "df055739-6738-4c23-be9d-e70484d83383",
                "type": [{"coding": [{
                    "system": "http://snomed.info/sct",
                    "code": "103705002",
                    "userSelected": true,
                    "display": "Patient status observation (procedure)",
                    "version": "2022-03"
                }]}],
                "class": {
                    "system": "http://terminology.hl7.org/CodeSystem/v3-ActCode",
                    "code": "AMB",
                    "display": "ambulatory"
                },
                "resourceType": "Encounter",
                "status": "finished"
            },
            "fullUrl": "https://madie.cms.gov/Encounter/df055739-6738-4c23-be9d-e70484d83383"
        },
        {
            "request": {
                "method": "PUT",
                "url": "Observation/0f8d578d-583c-4b98-8513-76c877df6e85"
            },
            "resource": {
                "component": [
                    {
                        "code": {"coding": [{
                            "system": "http://loinc.org",
                            "code": "8480-6",
                            "display": "Systolic blood pressure"
                        }]},
                        "valueQuantity": {
                            "unit": "mmHg",
                            "system": "http://unitsofmeasure.org",
                            "code": "mm[Hg]",
                            "value": 130
                        }
                    },
                    {
                        "code": {"coding": [{
                            "system": "http://loinc.org",
                            "code": "8462-4",
                            "display": "Diastolic blood pressure"
                        }]},
                        "valueQuantity": {
                            "unit": "mmHg",
                            "system": "http://unitsofmeasure.org",
                            "code": "mm[Hg]",
                            "value": 90
                        }
                    }
                ],
                "code": {"coding": [{
                    "system": "http://loinc.org",
                    "code": "85354-9",
                    "display": "Blood pressure panel"
                }]},
                "effectiveDateTime": "2026-12-31T23:31:00.000+00:00",
                "meta": {"profile": ["http://hl7.org/fhir/us/core/StructureDefinition/us-core-blood-pressure"]},
                "subject": {"reference": "Patient/695cee04-cf12-411e-a258-99e430093a4e"},
                "id": "0f8d578d-583c-4b98-8513-76c877df6e85",
                "category": [{
                    "coding": [{
                        "system": "http://terminology.hl7.org/CodeSystem/observation-category",
                        "code": "vital-signs",
                        "display": "Vital Signs"
                    }],
                    "text": "Vital Signs"
                }],
                "resourceType": "Observation",
                "status": "final"
            },
            "fullUrl": "https://madie.cms.gov/Observation/0f8d578d-583c-4b98-8513-76c877df6e85"
        },
        {
            "request": {
                "method": "PUT",
                "url": "ServiceRequest/c864ed57-714e-4e8a-a626-a134433a102d"
            },
            "resource": {
                "extension": [{
                    "valueCodeableConcept": {"coding": [{
                        "system": "http://snomed.info/sct",
                        "code": "1296859006",
                        "userSelected": true,
                        "display": "Procedure declined by patient (situation)"
                    }]},
                    "url": "http://hl7.org/fhir/us/qicore/StructureDefinition/qicore-doNotPerformReason"
                }],
                "code": {"coding": [{
                    "system": "http://snomed.info/sct",
                    "code": "20093000",
                    "userSelected": true,
                    "display": "Alcohol rehabilitation and detoxification (regime/therapy)",
                    "version": "2022-03"
                }]},
                "authoredOn": "2026-12-31T23:01:00.000+00:00",
                "meta": {"profile": ["http://hl7.org/fhir/us/qicore/StructureDefinition/qicore-servicenotrequested"]},
                "subject": {"reference": "Patient/695cee04-cf12-411e-a258-99e430093a4e"},
                "id": "c864ed57-714e-4e8a-a626-a134433a102d",
                "doNotPerform": true,
                "intent": "order",
                "resourceType": "ServiceRequest",
                "status": "completed"
            },
            "fullUrl": "https://madie.cms.gov/ServiceRequest/c864ed57-714e-4e8a-a626-a134433a102d"
        },
        {
            "request": {
                "method": "PUT",
                "url": "MedicationRequest/69f5b9c8-694e-438f-81d8-0bce9b12ac9b"
            },
            "resource": {
                "requester": {"reference": "Practitioner/Practitioner-123456"},
                "authoredOn": "2026-12-31T23:58:00.000+00:00",
                "meta": {"profile": ["http://hl7.org/fhir/us/qicore/StructureDefinition/qicore-mednotrequested"]},
                "subject": {"reference": "Patient/695cee04-cf12-411e-a258-99e430093a4e"},
                "id": "69f5b9c8-694e-438f-81d8-0bce9b12ac9b",
                "reasonCode": [{"coding": [{
                    "system": "http://snomed.info/sct",
                    "code": "1296859006",
                    "display": "Procedure declined by patient (situation)"
                }]}],
                "doNotPerform": true,
                "medicationCodeableConcept": {"coding": [{
                    "system": "http://www.nlm.nih.gov/research/umls/rxnorm",
                    "code": "1000001",
                    "userSelected": true,
                    "display": "amlodipine 5 MG / hydrochlorothiazide 25 MG / olmesartan medoxomil 40 MG Oral Tablet"
                }]},
                "intent": "order",
                "resourceType": "MedicationRequest",
                "status": "completed"
            },
            "fullUrl": "https://madie.cms.gov/MedicationRequest/69f5b9c8-694e-438f-81d8-0bce9b12ac9b"
        },
        {
            "request": {
                "method": "PUT",
                "url": "ServiceRequest/b4cd71d6-18bb-4cac-87a8-ae1985f279ca"
            },
            "resource": {
                "extension": [{
                    "valueCodeableConcept": {"coding": [{
                        "system": "http://snomed.info/sct",
                        "code": "413311005",
                        "userSelected": true,
                        "display": "Patient non-compliant - declined intervention / support (situation)",
                        "version": "2022-03"
                    }]},
                    "url": "http://hl7.org/fhir/us/qicore/StructureDefinition/qicore-doNotPerformReason"
                }],
                "code": {"coding": [{
                    "system": "http://loinc.org",
                    "code": "24320-4",
                    "userSelected": true,
                    "display": "Basic metabolic 1998 panel - Serum or Plasma",
                    "version": "2.72"
                }]},
                "authoredOn": "2026-12-31T23:58:00.000+00:00",
                "meta": {"profile": ["http://hl7.org/fhir/us/qicore/StructureDefinition/qicore-servicenotrequested"]},
                "subject": {"reference": "Patient/695cee04-cf12-411e-a258-99e430093a4e"},
                "id": "b4cd71d6-18bb-4cac-87a8-ae1985f279ca",
                "doNotPerform": true,
                "intent": "order",
                "resourceType": "ServiceRequest",
                "status": "completed"
            },
            "fullUrl": "https://madie.cms.gov/ServiceRequest/b4cd71d6-18bb-4cac-87a8-ae1985f279ca"
        },
        {
            "request": {
                "method": "PUT",
                "url": "ServiceRequest/cdab7e24-b69d-407b-a19e-0835bcb399e7"
            },
            "resource": {
                "extension": [{
                    "valueCodeableConcept": {"coding": [{
                        "system": "http://snomed.info/sct",
                        "code": "413311005",
                        "userSelected": true,
                        "display": "Patient non-compliant - declined intervention / support (situation)",
                        "version": "2022-03"
                    }]},
                    "url": "http://hl7.org/fhir/us/qicore/StructureDefinition/qicore-doNotPerformReason"
                }],
                "code": {"coding": [{
                    "system": "http://loinc.org",
                    "code": "34534-8",
                    "userSelected": true,
                    "display": "EKG 12 channel panel"
                }]},
                "authoredOn": "2026-12-31T23:31:00.000+00:00",
                "meta": {"profile": ["http://hl7.org/fhir/us/qicore/StructureDefinition/qicore-servicenotrequested"]},
                "subject": {"reference": "Patient/695cee04-cf12-411e-a258-99e430093a4e"},
                "id": "cdab7e24-b69d-407b-a19e-0835bcb399e7",
                "doNotPerform": true,
                "intent": "order",
                "resourceType": "ServiceRequest",
                "status": "completed"
            },
            "fullUrl": "https://madie.cms.gov/ServiceRequest/cdab7e24-b69d-407b-a19e-0835bcb399e7"
        },
        {
            "request": {
                "method": "PUT",
                "url": "ServiceRequest/5c4d1979-2a5b-42c4-87b4-72d4ca3d74c0"
            },
            "resource": {
                "extension": [{
                    "valueCodeableConcept": {"coding": [{
                        "system": "http://snomed.info/sct",
                        "code": "413311005",
                        "userSelected": true,
                        "display": "Patient non-compliant - declined intervention / support (situation)",
                        "version": "2022-03"
                    }]},
                    "url": "http://hl7.org/fhir/us/qicore/StructureDefinition/qicore-doNotPerformReason"
                }],
                "code": {"coding": [{
                    "system": "http://snomed.info/sct",
                    "code": "183625007",
                    "userSelected": true,
                    "display": "Follow-up 4-6 months (finding)"
                }]},
                "authoredOn": "2026-12-31T23:45:00.000+00:00",
                "meta": {"profile": ["http://hl7.org/fhir/us/qicore/StructureDefinition/qicore-servicenotrequested"]},
                "subject": {"reference": "Patient/695cee04-cf12-411e-a258-99e430093a4e"},
                "id": "5c4d1979-2a5b-42c4-87b4-72d4ca3d74c0",
                "doNotPerform": true,
                "intent": "order",
                "resourceType": "ServiceRequest",
                "status": "completed"
            },
            "fullUrl": "https://madie.cms.gov/ServiceRequest/5c4d1979-2a5b-42c4-87b4-72d4ca3d74c0"
        },
        {
            "request": {
                "method": "PUT",
                "url": "Coverage/a740f819-97a3-415a-bb98-d46fac853e79"
            },
            "resource": {
                "payor": [{"reference": "Organization/178328f3-a362-48e5-a008-298e37c26880"}],
                "beneficiary": {"reference": "Patient/695cee04-cf12-411e-a258-99e430093a4e"},
                "meta": {"profile": ["http://hl7.org/fhir/us/qicore/StructureDefinition/qicore-coverage"]},
                "id": "a740f819-97a3-415a-bb98-d46fac853e79",
                "resourceType": "Coverage",
                "status": "active"
            },
            "fullUrl": "https://madie.cms.gov/Coverage/a740f819-97a3-415a-bb98-d46fac853e79"
        },
        {
            "request": {
                "method": "PUT",
                "url": "Organization/178328f3-a362-48e5-a008-298e37c26880"
            },
            "resource": {
                "identifier": [{
                    "system": "urn:oid:2.16.840.1.113883.4.4",
                    "use": "temp",
                    "value": "21-3259825"
                }],
                "address": [{
                    "country": "USA",
                    "city": "Dallas",
                    "use": "billing",
                    "line": ["P.O. Box 660044"],
                    "postalCode": "75266-0044",
                    "state": "TX",
                    "type": "postal"
                }],
                "meta": {"profile": ["http://hl7.org/fhir/us/qicore/StructureDefinition/qicore-organization"]},
                "name": "Blue Cross Blue Shield of Texas",
                "active": true,
                "telecom": [{
                    "system": "phone",
                    "value": "(+1) 972-766-6900"
                }],
                "id": "178328f3-a362-48e5-a008-298e37c26880",
                "type": [{"coding": [{
                    "system": "http://terminology.hl7.org/CodeSystem/organization-type",
                    "code": "pay",
                    "display": "Payer"
                }]}],
                "resourceType": "Organization"
            },
            "fullUrl": "https://madie.cms.gov/Organization/178328f3-a362-48e5-a008-298e37c26880"
        },
        {
            "request": {
                "method": "PUT",
                "url": "Practitioner/a37793f8-1e2c-4437-b2f8-b14e53a2a1f3"
            },
            "resource": {
                "identifier": [{
                    "system": "http://hl7.org/fhir/sid/us-npi",
                    "value": "123456"
                }],
                "meta": {"profile": ["http://hl7.org/fhir/us/qicore/StructureDefinition/qicore-practitioner"]},
                "name": [{
                    "prefix": ["Dr"],
                    "family": "Evil"
                }],
                "id": "a37793f8-1e2c-4437-b2f8-b14e53a2a1f3",
                "resourceType": "Practitioner"
            },
            "fullUrl": "https://madie.cms.gov/Practitioner/a37793f8-1e2c-4437-b2f8-b14e53a2a1f3"
        },
        {
            "request": {
                "method": "PUT",
                "url": "MeasureReport/b2cd36ed-c50f-4dc4-bc80-9ac2eabd5ce2"
            },
            "resource": {
                "contained": [{
                    "parameter": [{
                        "valueString": "695cee04-cf12-411e-a258-99e430093a4e",
                        "name": "subject"
                    }],
                    "id": "306056ef-b7e9-4a22-9e7e-926750af7a07-parameters",
                    "resourceType": "Parameters"
                }],
                "extension": [
                    {
                        "valueReference": {"reference": "#306056ef-b7e9-4a22-9e7e-926750af7a07-parameters"},
                        "url": "http://hl7.org/fhir/StructureDefinition/cqf-inputParameters"
                    },
                    {
                        "valueMarkdown": "2 encounters during MP; BP reading taken in both encounters, 1st enc.  1/01 0000-0030,  BP 130/79, weight loss recommended, pt declined (excepPas; 2nd enc. 12/31 at 2300-2359, BP 130/90 Patient declined lab test, detox, medications (excepPass). ",
                        "url": "http://hl7.org/fhir/us/cqfmeasures/StructureDefinition/cqfm-testCaseDescription"
                    }
                ],
                "period": {
                    "start": "2026-01-01",
                    "end": "2026-12-31"
                },
                "measure": "https://madie.cms.gov/Measure/CMS22FHIRPCSBPScreeningFollowUp",
                "meta": {"profile": ["http://hl7.org/fhir/us/cqfmeasures/StructureDefinition/test-case-cqfm"]},
                "modifierExtension": [{
                    "valueBoolean": true,
                    "url": "http://hl7.org/fhir/us/cqfmeasures/StructureDefinition/cqfm-isTestCase"
                }],
                "id": "b2cd36ed-c50f-4dc4-bc80-9ac2eabd5ce2",
                "evaluatedResource": [
                    {"reference": "Patient/695cee04-cf12-411e-a258-99e430093a4e"},
                    {"reference": "Encounter/6b143284-ed0a-43a3-a5cd-739e4949bb19"},
                    {"reference": "Observation/a458b773-6d39-4e36-8c48-12ac99ef638e"},
                    {"reference": "ServiceRequest/fa1e9420-7de2-42b3-9846-5b669f1cdeb5"},
                    {"reference": "Encounter/df055739-6738-4c23-be9d-e70484d83383"},
                    {"reference": "Observation/0f8d578d-583c-4b98-8513-76c877df6e85"},
                    {"reference": "ServiceRequest/c864ed57-714e-4e8a-a626-a134433a102d"},
                    {"reference": "MedicationRequest/69f5b9c8-694e-438f-81d8-0bce9b12ac9b"},
                    {"reference": "ServiceRequest/b4cd71d6-18bb-4cac-87a8-ae1985f279ca"},
                    {"reference": "ServiceRequest/cdab7e24-b69d-407b-a19e-0835bcb399e7"},
                    {"reference": "ServiceRequest/5c4d1979-2a5b-42c4-87b4-72d4ca3d74c0"},
                    {"reference": "Coverage/a740f819-97a3-415a-bb98-d46fac853e79"},
                    {"reference": "Organization/178328f3-a362-48e5-a008-298e37c26880"},
                    {"reference": "Practitioner/a37793f8-1e2c-4437-b2f8-b14e53a2a1f3"}
                ],
                "type": "individual",
                "resourceType": "MeasureReport",
                "status": "complete",
                "group": [{
                    "id": "Group_1",
                    "measureScore": {"value": 0},
                    "population": [
                        {
                            "code": {"coding": [{
                                "system": "http://terminology.hl7.org/CodeSystem/measure-population",
                                "code": "initial-population",
                                "display": "Initial Population"
                            }]},
                            "count": 2,
                            "id": "InitialPopulation_1"
                        },
                        {
                            "code": {"coding": [{
                                "system": "http://terminology.hl7.org/CodeSystem/measure-population",
                                "code": "denominator",
                                "display": "Denominator"
                            }]},
                            "count": 2,
                            "id": "Denominator_1"
                        },
                        {
                            "code": {"coding": [{
                                "system": "http://terminology.hl7.org/CodeSystem/measure-population",
                                "code": "denominator-exclusion",
                                "display": "Denominator Exclusion"
                            }]},
                            "count": 0,
                            "id": "DenominatorExclusion_1"
                        },
                        {
                            "code": {"coding": [{
                                "system": "http://terminology.hl7.org/CodeSystem/measure-population",
                                "code": "numerator",
                                "display": "Numerator"
                            }]},
                            "count": 0,
                            "id": "Numerator_1"
                        },
                        {
                            "code": {"coding": [{
                                "system": "http://terminology.hl7.org/CodeSystem/measure-population",
                                "code": "denominator-exception",
                                "display": "Denominator Exception"
                            }]},
                            "count": 2,
                            "id": "DenominatorException_1"
                        }
                    ]
                }]
            },
            "fullUrl": "https://madie.cms.gov/MeasureReport/b2cd36ed-c50f-4dc4-bc80-9ac2eabd5ce2"
        }
    ],
    "id": "62d728a9c22c612899b40d62",
    "type": "transaction",
    "resourceType": "Bundle"
}