{"resourceType":"Bundle","id":"tests-96c38952-91cc-468c-b16b-32386bb312ec-bundle","type":"transaction","entry":[{"resource":{"resourceType":"Patient","id":"96c38952-91cc-468c-b16b-32386bb312ec","meta":{"profile":["http://hl7.org/fhir/us/qicore/StructureDefinition/qicore-patient"]},"extension":[{"url":"http://hl7.org/fhir/us/core/StructureDefinition/us-core-race","extension":[{"url":"ombCategory","valueCoding":{"system":"urn:oid:2.16.840.1.113883.6.238","code":"2028-9","display":"Asian"}},{"url":"text","valueString":"Asian"}]},{"url":"http://hl7.org/fhir/us/core/StructureDefinition/us-core-ethnicity","extension":[{"url":"ombCategory","valueCoding":{"system":"urn:oid:2.16.840.1.113883.6.238","code":"2135-2","display":"Hispanic or Latino"}},{"url":"text","valueString":"Hispanic or Latino"}]}],"identifier":[{"system":"http://hospital.smarthealthit.org","value":"999999995"}],"name":[{"family":"Bertha","given":["Betty"]}],"gender":"female","birthDate":"2006-01-01"},"request":{"method":"PUT","url":"Patient/96c38952-91cc-468c-b16b-32386bb312ec"}},{"resource":{"resourceType":"Encounter","id":"c3a96006-05e1-4415-b3a7-3857cea693ba","meta":{"profile":["http://hl7.org/fhir/us/qicore/StructureDefinition/qicore-encounter"]},"status":"finished","class":{"system":"http://terminology.hl7.org/CodeSystem/v3-ActCode","code":"AMB","display":"ambulatory"},"type":[{"coding":[{"system":"http://www.ada.org/cdt","code":"D0120","display":"periodic oral evaluation - established patient"}]}],"subject":{"reference":"Patient/96c38952-91cc-468c-b16b-32386bb312ec"},"period":{"start":"2026-01-01T00:00:00.000Z","end":"2026-01-01T01:15:00.000Z"}},"request":{"method":"PUT","url":"Encounter/c3a96006-05e1-4415-b3a7-3857cea693ba"}},{"resource":{"resourceType":"MeasureReport","id":"40444169-7efc-4600-8345-a3fd0f93feba","meta":{"profile":["http://hl7.org/fhir/us/cqfmeasures/StructureDefinition/test-case-cqfm"]},"contained":[{"resourceType":"Parameters","id":"2ad67a21-2b0d-46b6-88be-fea94fbbcfbc-parameters","parameter":[{"name":"subject","valueString":"96c38952-91cc-468c-b16b-32386bb312ec"}]}],"extension":[{"url":"http://hl7.org/fhir/StructureDefinition/cqf-inputParameters","valueReference":{"reference":"#2ad67a21-2b0d-46b6-88be-fea94fbbcfbc-parameters"}},{"url":"http://hl7.org/fhir/us/cqfmeasures/StructureDefinition/cqfm-testCaseDescription","valueMarkdown":"Hospice Service Request - For meeting 100% coverage"}],"modifierExtension":[{"url":"http://hl7.org/fhir/us/cqfmeasures/StructureDefinition/cqfm-isTestCase","valueBoolean":true}],"status":"complete","type":"individual","measure":"https://madie.cms.gov/Measure/CMS74FHIRPrimaryCariesPreventionasOfferedbyDentists","period":{"start":"2026-01-01","end":"2026-12-31"},"group":[{"id":"Group_1","population":[{"id":"InitialPopulation_1","code":{"coding":[{"system":"http://terminology.hl7.org/CodeSystem/measure-population","code":"initial-population","display":"Initial Population"}]},"count":1},{"id":"Denominator_1","code":{"coding":[{"system":"http://terminology.hl7.org/CodeSystem/measure-population","code":"denominator","display":"Denominator"}]},"count":1},{"id":"DenominatorExclusion_1","code":{"coding":[{"system":"http://terminology.hl7.org/CodeSystem/measure-population","code":"denominator-exclusion","display":"Denominator Exclusion"}]},"count":1},{"id":"Numerator_1","code":{"coding":[{"system":"http://terminology.hl7.org/CodeSystem/measure-population","code":"numerator","display":"Numerator"}]},"count":0}],"measureScore":{"value":1.0},"stratifier":[{"id":"Stratification_1_1","code":[{"text":"Initial Population"}],"stratum":[{"value":{"text":"true"},"population":[{"id":"InitialPopulation_1","code":{"coding":[{"system":"http://terminology.hl7.org/CodeSystem/measure-population","code":"initial-population","display":"Initial Population"}]},"count":1},{"id":"Denominator_1","code":{"coding":[{"system":"http://terminology.hl7.org/CodeSystem/measure-population","code":"denominator","display":"Denominator"}]},"count":1},{"id":"DenominatorExclusion_1","code":{"coding":[{"system":"http://terminology.hl7.org/CodeSystem/measure-population","code":"denominator-exclusion","display":"Denominator Exclusion"}]},"count":1},{"id":"Numerator_1","code":{"coding":[{"system":"http://terminology.hl7.org/CodeSystem/measure-population","code":"numerator","display":"Numerator"}]},"count":0}]},{"value":{"text":"false"},"population":[{"id":"InitialPopulation_1","code":{"coding":[{"system":"http://terminology.hl7.org/CodeSystem/measure-population","code":"initial-population","display":"Initial Population"}]},"count":0},{"id":"Denominator_1","code":{"coding":[{"system":"http://terminology.hl7.org/CodeSystem/measure-population","code":"denominator","display":"Denominator"}]},"count":0},{"id":"DenominatorExclusion_1","code":{"coding":[{"system":"http://terminology.hl7.org/CodeSystem/measure-population","code":"denominator-exclusion","display":"Denominator Exclusion"}]},"count":0},{"id":"Numerator_1","code":{"coding":[{"system":"http://terminology.hl7.org/CodeSystem/measure-population","code":"numerator","display":"Numerator"}]},"count":1}]}]},{"id":"Stratification_1_2","code":[{"text":"Initial Population"}],"stratum":[{"value":{"text":"true"},"population":[{"id":"InitialPopulation_1","code":{"coding":[{"system":"http://terminology.hl7.org/CodeSystem/measure-population","code":"initial-population","display":"Initial Population"}]},"count":1},{"id":"Denominator_1","code":{"coding":[{"system":"http://terminology.hl7.org/CodeSystem/measure-population","code":"denominator","display":"Denominator"}]},"count":1},{"id":"DenominatorExclusion_1","code":{"coding":[{"system":"http://terminology.hl7.org/CodeSystem/measure-population","code":"denominator-exclusion","display":"Denominator Exclusion"}]},"count":1},{"id":"Numerator_1","code":{"coding":[{"system":"http://terminology.hl7.org/CodeSystem/measure-population","code":"numerator","display":"Numerator"}]},"count":0}]},{"value":{"text":"false"},"population":[{"id":"InitialPopulation_1","code":{"coding":[{"system":"http://terminology.hl7.org/CodeSystem/measure-population","code":"initial-population","display":"Initial Population"}]},"count":0},{"id":"Denominator_1","code":{"coding":[{"system":"http://terminology.hl7.org/CodeSystem/measure-population","code":"denominator","display":"Denominator"}]},"count":0},{"id":"DenominatorExclusion_1","code":{"coding":[{"system":"http://terminology.hl7.org/CodeSystem/measure-population","code":"denominator-exclusion","display":"Denominator Exclusion"}]},"count":0},{"id":"Numerator_1","code":{"coding":[{"system":"http://terminology.hl7.org/CodeSystem/measure-population","code":"numerator","display":"Numerator"}]},"count":1}]}]},{"id":"Stratification_1_3","code":[{"text":"Initial Population"}],"stratum":[{"value":{"text":"true"},"population":[{"id":"InitialPopulation_1","code":{"coding":[{"system":"http://terminology.hl7.org/CodeSystem/measure-population","code":"initial-population","display":"Initial Population"}]},"count":1},{"id":"Denominator_1","code":{"coding":[{"system":"http://terminology.hl7.org/CodeSystem/measure-population","code":"denominator","display":"Denominator"}]},"count":1},{"id":"DenominatorExclusion_1","code":{"coding":[{"system":"http://terminology.hl7.org/CodeSystem/measure-population","code":"denominator-exclusion","display":"Denominator Exclusion"}]},"count":1},{"id":"Numerator_1","code":{"coding":[{"system":"http://terminology.hl7.org/CodeSystem/measure-population","code":"numerator","display":"Numerator"}]},"count":0}]},{"value":{"text":"false"},"population":[{"id":"InitialPopulation_1","code":{"coding":[{"system":"http://terminology.hl7.org/CodeSystem/measure-population","code":"initial-population","display":"Initial Population"}]},"count":0},{"id":"Denominator_1","code":{"coding":[{"system":"http://terminology.hl7.org/CodeSystem/measure-population","code":"denominator","display":"Denominator"}]},"count":0},{"id":"DenominatorExclusion_1","code":{"coding":[{"system":"http://terminology.hl7.org/CodeSystem/measure-population","code":"denominator-exclusion","display":"Denominator Exclusion"}]},"count":0},{"id":"Numerator_1","code":{"coding":[{"system":"http://terminology.hl7.org/CodeSystem/measure-population","code":"numerator","display":"Numerator"}]},"count":1}]}]}]}],"evaluatedResource":[{"reference":"Patient/96c38952-91cc-468c-b16b-32386bb312ec"},{"reference":"Encounter/c3a96006-05e1-4415-b3a7-3857cea693ba"},{"reference":"ServiceRequest/d2efce0d-ea50-4de3-9cb0-27fdd427c28e"}]},"request":{"method":"PUT","url":"MeasureReport/40444169-7efc-4600-8345-a3fd0f93feba"}},{"resource":{"resourceType":"Bundle","id":"DENEXPass-HospiceServiceRequestCompleted","type":"transaction","entry":[{"fullUrl":"https://madie.cms.gov/Patient/96c38952-91cc-468c-b16b-32386bb312ec","resource":{"resourceType":"Patient","id":"96c38952-91cc-468c-b16b-32386bb312ec","meta":{"profile":["http://hl7.org/fhir/us/qicore/StructureDefinition/qicore-patient"]},"extension":[{"url":"http://hl7.org/fhir/us/core/StructureDefinition/us-core-race","extension":[{"url":"ombCategory","valueCoding":{"system":"urn:oid:2.16.840.1.113883.6.238","code":"2028-9","display":"Asian"}},{"url":"text","valueString":"Asian"}]},{"url":"http://hl7.org/fhir/us/core/StructureDefinition/us-core-ethnicity","extension":[{"url":"ombCategory","valueCoding":{"system":"urn:oid:2.16.840.1.113883.6.238","code":"2135-2","display":"Hispanic or Latino"}},{"url":"text","valueString":"Hispanic or Latino"}]}],"identifier":[{"system":"http://hospital.smarthealthit.org","value":"999999995"}],"name":[{"family":"Bertha","given":["Betty"]}],"gender":"female","birthDate":"2006-01-01"},"request":{"method":"PUT","url":"Patient/96c38952-91cc-468c-b16b-32386bb312ec"}},{"fullUrl":"https://madie.cms.gov/Encounter/c3a96006-05e1-4415-b3a7-3857cea693ba","resource":{"resourceType":"Encounter","id":"c3a96006-05e1-4415-b3a7-3857cea693ba","meta":{"profile":["http://hl7.org/fhir/us/qicore/StructureDefinition/qicore-encounter"]},"status":"finished","class":{"system":"http://terminology.hl7.org/CodeSystem/v3-ActCode","code":"AMB","display":"ambulatory"},"type":[{"coding":[{"system":"http://www.ada.org/cdt","code":"D0120","display":"periodic oral evaluation - established patient"}]}],"subject":{"reference":"Patient/96c38952-91cc-468c-b16b-32386bb312ec"},"period":{"start":"2026-01-01T00:00:00.000Z","end":"2026-01-01T01:15:00.000Z"}},"request":{"method":"PUT","url":"Encounter/c3a96006-05e1-4415-b3a7-3857cea693ba"}},{"fullUrl":"https://madie.cms.gov/ServiceRequest/d2efce0d-ea50-4de3-9cb0-27fdd427c28e","resource":{"resourceType":"ServiceRequest","id":"d2efce0d-ea50-4de3-9cb0-27fdd427c28e","meta":{"profile":["http://hl7.org/fhir/us/qicore/StructureDefinition/qicore-servicerequest"]},"status":"completed","intent":"order","category":[{"coding":[{"system":"http://snomed.info/sct","code":"387713003","display":"Surgical procedure"}]}],"priority":"routine","code":{"coding":[{"system":"http://snomed.info/sct","code":"385763009","display":"Hospice care (regime/therapy)"}]},"subject":{"reference":"Patient/96c38952-91cc-468c-b16b-32386bb312ec"},"authoredOn":"2026-01-02T00:00:00.000Z","performerType":{"coding":[{"system":"http://snomed.info/sct","code":"405279007","display":"Attending physician (occupation)"}]}},"request":{"method":"PUT","url":"ServiceRequest/d2efce0d-ea50-4de3-9cb0-27fdd427c28e"}},{"fullUrl":"https://madie.cms.gov/MeasureReport/40444169-7efc-4600-8345-a3fd0f93feba","resource":{"resourceType":"MeasureReport","id":"40444169-7efc-4600-8345-a3fd0f93feba","meta":{"profile":["http://hl7.org/fhir/us/cqfmeasures/StructureDefinition/test-case-cqfm"]},"contained":[{"resourceType":"Parameters","id":"2ad67a21-2b0d-46b6-88be-fea94fbbcfbc-parameters","parameter":[{"name":"subject","valueString":"96c38952-91cc-468c-b16b-32386bb312ec"}]}],"extension":[{"url":"http://hl7.org/fhir/StructureDefinition/cqf-inputParameters","valueReference":{"reference":"#2ad67a21-2b0d-46b6-88be-fea94fbbcfbc-parameters"}},{"url":"http://hl7.org/fhir/us/cqfmeasures/StructureDefinition/cqfm-testCaseDescription","valueMarkdown":"Hospice Service Request - For meeting 100% coverage"}],"modifierExtension":[{"url":"http://hl7.org/fhir/us/cqfmeasures/StructureDefinition/cqfm-isTestCase","valueBoolean":true}],"status":"complete","type":"individual","measure":"https://madie.cms.gov/Measure/CMS74FHIRPrimaryCariesPreventionasOfferedbyDentists","period":{"start":"2026-01-01","end":"2026-12-31"},"group":[{"id":"Group_1","population":[{"id":"InitialPopulation_1","code":{"coding":[{"system":"http://terminology.hl7.org/CodeSystem/measure-population","code":"initial-population","display":"Initial Population"}]},"count":1},{"id":"Denominator_1","code":{"coding":[{"system":"http://terminology.hl7.org/CodeSystem/measure-population","code":"denominator","display":"Denominator"}]},"count":1},{"id":"DenominatorExclusion_1","code":{"coding":[{"system":"http://terminology.hl7.org/CodeSystem/measure-population","code":"denominator-exclusion","display":"Denominator Exclusion"}]},"count":1},{"id":"Numerator_1","code":{"coding":[{"system":"http://terminology.hl7.org/CodeSystem/measure-population","code":"numerator","display":"Numerator"}]},"count":0}],"measureScore":{"value":1.0},"stratifier":[{"id":"Stratification_1_1","code":[{"text":"Initial Population"}],"stratum":[{"value":{"text":"true"},"population":[{"id":"InitialPopulation_1","code":{"coding":[{"system":"http://terminology.hl7.org/CodeSystem/measure-population","code":"initial-population","display":"Initial Population"}]},"count":1},{"id":"Denominator_1","code":{"coding":[{"system":"http://terminology.hl7.org/CodeSystem/measure-population","code":"denominator","display":"Denominator"}]},"count":1},{"id":"DenominatorExclusion_1","code":{"coding":[{"system":"http://terminology.hl7.org/CodeSystem/measure-population","code":"denominator-exclusion","display":"Denominator Exclusion"}]},"count":1},{"id":"Numerator_1","code":{"coding":[{"system":"http://terminology.hl7.org/CodeSystem/measure-population","code":"numerator","display":"Numerator"}]},"count":0}]},{"value":{"text":"false"},"population":[{"id":"InitialPopulation_1","code":{"coding":[{"system":"http://terminology.hl7.org/CodeSystem/measure-population","code":"initial-population","display":"Initial Population"}]},"count":0},{"id":"Denominator_1","code":{"coding":[{"system":"http://terminology.hl7.org/CodeSystem/measure-population","code":"denominator","display":"Denominator"}]},"count":0},{"id":"DenominatorExclusion_1","code":{"coding":[{"system":"http://terminology.hl7.org/CodeSystem/measure-population","code":"denominator-exclusion","display":"Denominator Exclusion"}]},"count":0},{"id":"Numerator_1","code":{"coding":[{"system":"http://terminology.hl7.org/CodeSystem/measure-population","code":"numerator","display":"Numerator"}]},"count":1}]}]},{"id":"Stratification_1_2","code":[{"text":"Initial Population"}],"stratum":[{"value":{"text":"true"},"population":[{"id":"InitialPopulation_1","code":{"coding":[{"system":"http://terminology.hl7.org/CodeSystem/measure-population","code":"initial-population","display":"Initial Population"}]},"count":1},{"id":"Denominator_1","code":{"coding":[{"system":"http://terminology.hl7.org/CodeSystem/measure-population","code":"denominator","display":"Denominator"}]},"count":1},{"id":"DenominatorExclusion_1","code":{"coding":[{"system":"http://terminology.hl7.org/CodeSystem/measure-population","code":"denominator-exclusion","display":"Denominator Exclusion"}]},"count":1},{"id":"Numerator_1","code":{"coding":[{"system":"http://terminology.hl7.org/CodeSystem/measure-population","code":"numerator","display":"Numerator"}]},"count":0}]},{"value":{"text":"false"},"population":[{"id":"InitialPopulation_1","code":{"coding":[{"system":"http://terminology.hl7.org/CodeSystem/measure-population","code":"initial-population","display":"Initial Population"}]},"count":0},{"id":"Denominator_1","code":{"coding":[{"system":"http://terminology.hl7.org/CodeSystem/measure-population","code":"denominator","display":"Denominator"}]},"count":0},{"id":"DenominatorExclusion_1","code":{"coding":[{"system":"http://terminology.hl7.org/CodeSystem/measure-population","code":"denominator-exclusion","display":"Denominator Exclusion"}]},"count":0},{"id":"Numerator_1","code":{"coding":[{"system":"http://terminology.hl7.org/CodeSystem/measure-population","code":"numerator","display":"Numerator"}]},"count":1}]}]},{"id":"Stratification_1_3","code":[{"text":"Initial Population"}],"stratum":[{"value":{"text":"true"},"population":[{"id":"InitialPopulation_1","code":{"coding":[{"system":"http://terminology.hl7.org/CodeSystem/measure-population","code":"initial-population","display":"Initial Population"}]},"count":1},{"id":"Denominator_1","code":{"coding":[{"system":"http://terminology.hl7.org/CodeSystem/measure-population","code":"denominator","display":"Denominator"}]},"count":1},{"id":"DenominatorExclusion_1","code":{"coding":[{"system":"http://terminology.hl7.org/CodeSystem/measure-population","code":"denominator-exclusion","display":"Denominator Exclusion"}]},"count":1},{"id":"Numerator_1","code":{"coding":[{"system":"http://terminology.hl7.org/CodeSystem/measure-population","code":"numerator","display":"Numerator"}]},"count":0}]},{"value":{"text":"false"},"population":[{"id":"InitialPopulation_1","code":{"coding":[{"system":"http://terminology.hl7.org/CodeSystem/measure-population","code":"initial-population","display":"Initial Population"}]},"count":0},{"id":"Denominator_1","code":{"coding":[{"system":"http://terminology.hl7.org/CodeSystem/measure-population","code":"denominator","display":"Denominator"}]},"count":0},{"id":"DenominatorExclusion_1","code":{"coding":[{"system":"http://terminology.hl7.org/CodeSystem/measure-population","code":"denominator-exclusion","display":"Denominator Exclusion"}]},"count":0},{"id":"Numerator_1","code":{"coding":[{"system":"http://terminology.hl7.org/CodeSystem/measure-population","code":"numerator","display":"Numerator"}]},"count":1}]}]}]}],"evaluatedResource":[{"reference":"Patient/96c38952-91cc-468c-b16b-32386bb312ec"},{"reference":"Encounter/c3a96006-05e1-4415-b3a7-3857cea693ba"},{"reference":"ServiceRequest/d2efce0d-ea50-4de3-9cb0-27fdd427c28e"}]},"request":{"method":"PUT","url":"MeasureReport/40444169-7efc-4600-8345-a3fd0f93feba"}}]},"request":{"method":"PUT","url":"Bundle/DENEXPass-HospiceServiceRequestCompleted"}},{"resource":{"resourceType":"ServiceRequest","id":"d2efce0d-ea50-4de3-9cb0-27fdd427c28e","meta":{"profile":["http://hl7.org/fhir/us/qicore/StructureDefinition/qicore-servicerequest"]},"status":"completed","intent":"order","category":[{"coding":[{"system":"http://snomed.info/sct","code":"387713003","display":"Surgical procedure"}]}],"priority":"routine","code":{"coding":[{"system":"http://snomed.info/sct","code":"385763009","display":"Hospice care (regime/therapy)"}]},"subject":{"reference":"Patient/96c38952-91cc-468c-b16b-32386bb312ec"},"authoredOn":"2026-01-02T00:00:00.000Z","performerType":{"coding":[{"system":"http://snomed.info/sct","code":"405279007","display":"Attending physician (occupation)"}]}},"request":{"method":"PUT","url":"ServiceRequest/d2efce0d-ea50-4de3-9cb0-27fdd427c28e"}}]}