{"resourceType":"Bundle","id":"tests-f00cb244-a7cc-408f-ab47-7c3ac82469b1-bundle","type":"transaction","entry":[{"resource":{"resourceType":"Condition","id":"806267c3-83c5-42b7-89a4-2630f2f43567","meta":{"profile":["http://hl7.org/fhir/us/qicore/StructureDefinition/qicore-condition-problems-health-concerns"]},"category":[{"coding":[{"system":"http://terminology.hl7.org/CodeSystem/condition-category","code":"problem-list-item","display":"Problem List Item"}]}],"code":{"coding":[{"system":"http://snomed.info/sct","version":"http://snomed.info/sct/731000124108/version/20240301","code":"981000124106","display":"Moderate left ventricular systolic dysfunction (disorder)"}]},"subject":{"reference":"Patient/f00cb244-a7cc-408f-ab47-7c3ac82469b1"}},"request":{"method":"PUT","url":"Condition/806267c3-83c5-42b7-89a4-2630f2f43567"}},{"resource":{"resourceType":"Condition","id":"0c32dffb-6fe5-43e2-8f61-867542166fcc","meta":{"profile":["http://hl7.org/fhir/us/qicore/StructureDefinition/qicore-condition-problems-health-concerns"]},"clinicalStatus":{"coding":[{"system":"http://terminology.hl7.org/CodeSystem/condition-clinical","code":"active","display":"Active"}]},"category":[{"coding":[{"system":"http://terminology.hl7.org/CodeSystem/condition-category","code":"problem-list-item","display":"Problem List Item"}]}],"code":{"coding":[{"system":"http://hl7.org/fhir/sid/icd-10-cm","version":"2024","code":"I44.1"}]},"subject":{"reference":"Patient/f00cb244-a7cc-408f-ab47-7c3ac82469b1"},"onsetPeriod":{"start":"2026-02-03T14:40:00.000+00:00"}},"request":{"method":"PUT","url":"Condition/0c32dffb-6fe5-43e2-8f61-867542166fcc"}},{"resource":{"resourceType":"Condition","id":"c61da8d4-e1d9-4c6e-b249-6bda43199342","meta":{"profile":["http://hl7.org/fhir/us/qicore/StructureDefinition/qicore-condition-problems-health-concerns"]},"clinicalStatus":{"coding":[{"system":"http://terminology.hl7.org/CodeSystem/condition-clinical","code":"active","display":"Active"}]},"verificationStatus":{"coding":[{"system":"http://terminology.hl7.org/CodeSystem/condition-ver-status","code":"confirmed","display":"Confirmed","userSelected":true}]},"category":[{"coding":[{"system":"http://terminology.hl7.org/CodeSystem/condition-category","code":"problem-list-item","display":"Problem List Item"}]}],"code":{"coding":[{"system":"http://hl7.org/fhir/sid/icd-10-cm","version":"2024","code":"I11.0","display":"Hypertensive heart disease with heart failure"}]},"subject":{"reference":"Patient/f00cb244-a7cc-408f-ab47-7c3ac82469b1"},"onsetPeriod":{"start":"2026-04-16T10:00:00.000+00:00"}},"request":{"method":"PUT","url":"Condition/c61da8d4-e1d9-4c6e-b249-6bda43199342"}},{"resource":{"resourceType":"Encounter","id":"a8da450d-b088-4683-bb41-fafd7eb2f0b1","meta":{"profile":["http://hl7.org/fhir/us/qicore/StructureDefinition/qicore-encounter"]},"status":"finished","class":{"system":"http://terminology.hl7.org/CodeSystem/v3-ActCode","code":"AMB","display":"ambulatory"},"type":[{"coding":[{"system":"http://www.ama-assn.org/go/cpt","version":"2024","code":"99212"}]}],"subject":{"reference":"Patient/f00cb244-a7cc-408f-ab47-7c3ac82469b1"},"period":{"start":"2026-07-03T11:50:00.000+00:00","end":"2026-07-03T11:50:00.000+00:00"},"length":{"value":0,"unit":"days"}},"request":{"method":"PUT","url":"Encounter/a8da450d-b088-4683-bb41-fafd7eb2f0b1"}},{"resource":{"resourceType":"Bundle","id":"131516513134563413","type":"transaction","entry":[{"fullUrl":"https://madie.cms.gov/Patient/f00cb244-a7cc-408f-ab47-7c3ac82469b1","resource":{"resourceType":"Patient","id":"f00cb244-a7cc-408f-ab47-7c3ac82469b1","meta":{"profile":["http://hl7.org/fhir/us/qicore/StructureDefinition/qicore-patient"]},"extension":[{"url":"http://hl7.org/fhir/us/core/StructureDefinition/us-core-race","extension":[{"url":"ombCategory","valueCoding":{"system":"urn:oid:2.16.840.1.113883.6.238","code":"2106-3","display":"White"}},{"url":"text","valueString":"White"}]},{"url":"http://hl7.org/fhir/us/core/StructureDefinition/us-core-ethnicity","extension":[{"url":"ombCategory","valueCoding":{"system":"urn:oid:2.16.840.1.113883.6.238","code":"2186-5","display":"Not Hispanic or Latino"}},{"url":"text","valueString":"Not Hispanic or Latino"}]}],"identifier":[{"type":{"coding":[{"system":"http://terminology.hl7.org/CodeSystem/v2-0203","code":"MR"}]},"system":"https://bonnie-fhir.healthit.gov/","value":"6067461d98086b57ea5acf1b"}],"active":true,"name":[{"use":"usual","family":"DENEXCEPPass","given":["AllergyBetaxololBeforeLastEnc"]}],"gender":"male","birthDate":"1953-04-17"},"request":{"method":"PUT","url":"Patient/f00cb244-a7cc-408f-ab47-7c3ac82469b1"}},{"fullUrl":"https://madie.cms.gov/AllergyIntolerance/395ebe68-bffe-45f6-8507-db744dd4d1fd","resource":{"resourceType":"AllergyIntolerance","id":"395ebe68-bffe-45f6-8507-db744dd4d1fd","meta":{"profile":["http://hl7.org/fhir/us/qicore/StructureDefinition/qicore-allergyintolerance"]},"clinicalStatus":{"coding":[{"system":"http://terminology.hl7.org/CodeSystem/allergyintolerance-clinical","code":"active"}]},"verificationStatus":{"coding":[{"system":"http://terminology.hl7.org/CodeSystem/allergyintolerance-verification","code":"confirmed"}]},"type":"allergy","criticality":"high","code":{"coding":[{"system":"http://www.nlm.nih.gov/research/umls/rxnorm","version":"04032023","code":"1520","display":"betaxolol"}]},"patient":{"reference":"Patient/f00cb244-a7cc-408f-ab47-7c3ac82469b1"},"onsetDateTime":"2025-02-01","recordedDate":"2025-02-01T14:00:00.000+00:00"},"request":{"method":"PUT","url":"AllergyIntolerance/395ebe68-bffe-45f6-8507-db744dd4d1fd"}},{"fullUrl":"https://madie.cms.gov/Encounter/6e29b0cb-89de-4128-b517-d713c9853b57","resource":{"resourceType":"Encounter","id":"6e29b0cb-89de-4128-b517-d713c9853b57","meta":{"profile":["http://hl7.org/fhir/us/qicore/StructureDefinition/qicore-encounter"]},"status":"finished","class":{"system":"http://terminology.hl7.org/CodeSystem/v3-ActCode","code":"AMB","display":"ambulatory"},"type":[{"coding":[{"system":"http://www.ama-assn.org/go/cpt","version":"2024","code":"99213"}]}],"subject":{"reference":"Patient/f00cb244-a7cc-408f-ab47-7c3ac82469b1"},"period":{"start":"2026-05-19T14:40:00.000+00:00","end":"2026-05-19T14:40:00.000+00:00"},"length":{"value":0,"unit":"days"}},"request":{"method":"PUT","url":"Encounter/6e29b0cb-89de-4128-b517-d713c9853b57"}},{"fullUrl":"https://madie.cms.gov/Encounter/a8da450d-b088-4683-bb41-fafd7eb2f0b1","resource":{"resourceType":"Encounter","id":"a8da450d-b088-4683-bb41-fafd7eb2f0b1","meta":{"profile":["http://hl7.org/fhir/us/qicore/StructureDefinition/qicore-encounter"]},"status":"finished","class":{"system":"http://terminology.hl7.org/CodeSystem/v3-ActCode","code":"AMB","display":"ambulatory"},"type":[{"coding":[{"system":"http://www.ama-assn.org/go/cpt","version":"2024","code":"99212"}]}],"subject":{"reference":"Patient/f00cb244-a7cc-408f-ab47-7c3ac82469b1"},"period":{"start":"2026-07-03T11:50:00.000+00:00","end":"2026-07-03T11:50:00.000+00:00"},"length":{"value":0,"unit":"days"}},"request":{"method":"PUT","url":"Encounter/a8da450d-b088-4683-bb41-fafd7eb2f0b1"}},{"fullUrl":"https://madie.cms.gov/Condition/0c32dffb-6fe5-43e2-8f61-867542166fcc","resource":{"resourceType":"Condition","id":"0c32dffb-6fe5-43e2-8f61-867542166fcc","meta":{"profile":["http://hl7.org/fhir/us/qicore/StructureDefinition/qicore-condition-problems-health-concerns"]},"clinicalStatus":{"coding":[{"system":"http://terminology.hl7.org/CodeSystem/condition-clinical","code":"active","display":"Active"}]},"category":[{"coding":[{"system":"http://terminology.hl7.org/CodeSystem/condition-category","code":"problem-list-item","display":"Problem List Item"}]}],"code":{"coding":[{"system":"http://hl7.org/fhir/sid/icd-10-cm","version":"2024","code":"I44.1"}]},"subject":{"reference":"Patient/f00cb244-a7cc-408f-ab47-7c3ac82469b1"},"onsetPeriod":{"start":"2026-02-03T14:40:00.000+00:00"}},"request":{"method":"PUT","url":"Condition/0c32dffb-6fe5-43e2-8f61-867542166fcc"}},{"fullUrl":"https://madie.cms.gov/Condition/c61da8d4-e1d9-4c6e-b249-6bda43199342","resource":{"resourceType":"Condition","id":"c61da8d4-e1d9-4c6e-b249-6bda43199342","meta":{"profile":["http://hl7.org/fhir/us/qicore/StructureDefinition/qicore-condition-problems-health-concerns"]},"clinicalStatus":{"coding":[{"system":"http://terminology.hl7.org/CodeSystem/condition-clinical","code":"active","display":"Active"}]},"verificationStatus":{"coding":[{"system":"http://terminology.hl7.org/CodeSystem/condition-ver-status","code":"confirmed","display":"Confirmed","userSelected":true}]},"category":[{"coding":[{"system":"http://terminology.hl7.org/CodeSystem/condition-category","code":"problem-list-item","display":"Problem List Item"}]}],"code":{"coding":[{"system":"http://hl7.org/fhir/sid/icd-10-cm","version":"2024","code":"I11.0","display":"Hypertensive heart disease with heart failure"}]},"subject":{"reference":"Patient/f00cb244-a7cc-408f-ab47-7c3ac82469b1"},"onsetPeriod":{"start":"2026-04-16T10:00:00.000+00:00"}},"request":{"method":"PUT","url":"Condition/c61da8d4-e1d9-4c6e-b249-6bda43199342"}},{"fullUrl":"https://madie.cms.gov/Observation/cf4fb8ff-eca1-4659-abe4-996aa60ec14d","resource":{"resourceType":"Observation","id":"cf4fb8ff-eca1-4659-abe4-996aa60ec14d","meta":{"profile":["http://hl7.org/fhir/us/qicore/StructureDefinition/qicore-observation-clinical-result"]},"status":"final","category":[{"coding":[{"system":"http://terminology.hl7.org/CodeSystem/observation-category","code":"imaging","display":"Imaging"}]}],"code":{"coding":[{"system":"http://loinc.org","version":"2.76","code":"8807-0"}]},"subject":{"reference":"Patient/f00cb244-a7cc-408f-ab47-7c3ac82469b1"},"effectivePeriod":{"start":"2026-04-01T11:50:00.000+00:00","end":"2026-04-01T11:50:00.000+00:00"},"valueQuantity":{"value":39,"unit":"%"}},"request":{"method":"PUT","url":"Observation/cf4fb8ff-eca1-4659-abe4-996aa60ec14d"}},{"fullUrl":"https://madie.cms.gov/Practitioner/83b469bf-8b20-44f6-bd46-2a3f97e05153","resource":{"resourceType":"Practitioner","id":"83b469bf-8b20-44f6-bd46-2a3f97e05153","meta":{"profile":["http://hl7.org/fhir/us/qicore/StructureDefinition/qicore-practitioner"]},"identifier":[{"use":"temp","system":"urn:oid:2.16.840.1.113883.4.336","value":"Practitioner-23"}],"active":true,"name":[{"family":"Careful","given":["Adam"],"prefix":["Dr"]}],"address":[{"use":"home","line":["534 Erewhon St"],"city":"PleasantVille","state":"UT","postalCode":"84414"}],"qualification":[{"identifier":[{"system":"http://example.org/UniversityIdentifier","value":"12345"}],"code":{"coding":[{"system":"http://terminology.hl7.org/CodeSystem/v2-0360|2.7","code":"BS","display":"Bachelor of Science"}],"text":"Bachelor of Science"},"period":{"start":"1996"},"issuer":{"display":"Example University"}}]},"request":{"method":"PUT","url":"Practitioner/83b469bf-8b20-44f6-bd46-2a3f97e05153"}},{"fullUrl":"https://madie.cms.gov/Condition/806267c3-83c5-42b7-89a4-2630f2f43567","resource":{"resourceType":"Condition","id":"806267c3-83c5-42b7-89a4-2630f2f43567","meta":{"profile":["http://hl7.org/fhir/us/qicore/StructureDefinition/qicore-condition-problems-health-concerns"]},"category":[{"coding":[{"system":"http://terminology.hl7.org/CodeSystem/condition-category","code":"problem-list-item","display":"Problem List Item"}]}],"code":{"coding":[{"system":"http://snomed.info/sct","version":"http://snomed.info/sct/731000124108/version/20240301","code":"981000124106","display":"Moderate left ventricular systolic dysfunction (disorder)"}]},"subject":{"reference":"Patient/f00cb244-a7cc-408f-ab47-7c3ac82469b1"}},"request":{"method":"PUT","url":"Condition/806267c3-83c5-42b7-89a4-2630f2f43567"}},{"fullUrl":"https://madie.cms.gov/Condition/d7bc4f37-e964-4006-a35a-63b77c3c0b35","resource":{"resourceType":"Condition","id":"d7bc4f37-e964-4006-a35a-63b77c3c0b35","meta":{"profile":["http://hl7.org/fhir/us/qicore/StructureDefinition/qicore-condition-problems-health-concerns"]},"clinicalStatus":{"coding":[{"system":"http://terminology.hl7.org/CodeSystem/condition-clinical","code":"active","display":"Active"}]},"category":[{"coding":[{"system":"http://terminology.hl7.org/CodeSystem/condition-category","code":"problem-list-item","display":"Problem List Item"}]}],"code":{"coding":[{"system":"http://snomed.info/sct","version":"http://snomed.info/sct/731000124108/version/20240301","code":"981000124106","display":"Moderate left ventricular systolic dysfunction (disorder)"}]},"subject":{"reference":"Patient/f00cb244-a7cc-408f-ab47-7c3ac82469b1"},"onsetPeriod":{"start":"2026-05-13T14:40:00.000+00:00"}},"request":{"method":"PUT","url":"Condition/d7bc4f37-e964-4006-a35a-63b77c3c0b35"}},{"fullUrl":"https://madie.cms.gov/MeasureReport/e9232b97-b3ef-4c09-8cae-e5cd75ff61ad","resource":{"resourceType":"MeasureReport","id":"e9232b97-b3ef-4c09-8cae-e5cd75ff61ad","meta":{"profile":["http://hl7.org/fhir/us/cqfmeasures/StructureDefinition/test-case-cqfm"]},"contained":[{"resourceType":"Parameters","id":"7db594b3-3701-4254-b3b0-5f854e38f859-parameters","parameter":[{"name":"subject","valueString":"f00cb244-a7cc-408f-ab47-7c3ac82469b1"}]}],"extension":[{"url":"http://hl7.org/fhir/StructureDefinition/cqf-inputParameters","valueReference":{"reference":"#7db594b3-3701-4254-b3b0-5f854e38f859-parameters"}},{"url":"http://hl7.org/fhir/us/cqfmeasures/StructureDefinition/cqfm-testCaseDescription","valueMarkdown":"Patient falls in Denom. Exception due to allergy intolerance to beta blocker  (betaxolol) ingredient which overlap before date of LVSD diagnosis"}],"modifierExtension":[{"url":"http://hl7.org/fhir/us/cqfmeasures/StructureDefinition/cqfm-isTestCase","valueBoolean":true}],"status":"complete","type":"individual","measure":"https://madie.cms.gov/Measure/CMS144FHIRHFBetaBlockerTherapyforLVSD","period":{"start":"2026-01-01","end":"2026-12-31"},"group":[{"id":"Group_1","population":[{"id":"InitialPopulation_1","code":{"coding":[{"system":"http://terminology.hl7.org/CodeSystem/measure-population","code":"initial-population","display":"Initial Population"}]},"count":1},{"id":"Denominator_1","code":{"coding":[{"system":"http://terminology.hl7.org/CodeSystem/measure-population","code":"denominator","display":"Denominator"}]},"count":1},{"id":"DenominatorExclusion_1","code":{"coding":[{"system":"http://terminology.hl7.org/CodeSystem/measure-population","code":"denominator-exclusion","display":"Denominator Exclusion"}]},"count":0},{"id":"Numerator_1","code":{"coding":[{"system":"http://terminology.hl7.org/CodeSystem/measure-population","code":"numerator","display":"Numerator"}]},"count":0},{"id":"DenominatorException_1","code":{"coding":[{"system":"http://terminology.hl7.org/CodeSystem/measure-population","code":"denominator-exception","display":"Denominator Exception"}]},"count":1}],"measureScore":{"value":1.0}}],"evaluatedResource":[{"reference":"Patient/f00cb244-a7cc-408f-ab47-7c3ac82469b1"},{"reference":"AllergyIntolerance/395ebe68-bffe-45f6-8507-db744dd4d1fd"},{"reference":"Encounter/6e29b0cb-89de-4128-b517-d713c9853b57"},{"reference":"Encounter/a8da450d-b088-4683-bb41-fafd7eb2f0b1"},{"reference":"Condition/0c32dffb-6fe5-43e2-8f61-867542166fcc"},{"reference":"Condition/c61da8d4-e1d9-4c6e-b249-6bda43199342"},{"reference":"Observation/cf4fb8ff-eca1-4659-abe4-996aa60ec14d"},{"reference":"Practitioner/83b469bf-8b20-44f6-bd46-2a3f97e05153"},{"reference":"Condition/806267c3-83c5-42b7-89a4-2630f2f43567"},{"reference":"Condition/d7bc4f37-e964-4006-a35a-63b77c3c0b35"}]},"request":{"method":"PUT","url":"MeasureReport/e9232b97-b3ef-4c09-8cae-e5cd75ff61ad"}}]},"request":{"method":"PUT","url":"Bundle/131516513134563413"}},{"resource":{"resourceType":"Encounter","id":"6e29b0cb-89de-4128-b517-d713c9853b57","meta":{"profile":["http://hl7.org/fhir/us/qicore/StructureDefinition/qicore-encounter"]},"status":"finished","class":{"system":"http://terminology.hl7.org/CodeSystem/v3-ActCode","code":"AMB","display":"ambulatory"},"type":[{"coding":[{"system":"http://www.ama-assn.org/go/cpt","version":"2024","code":"99213"}]}],"subject":{"reference":"Patient/f00cb244-a7cc-408f-ab47-7c3ac82469b1"},"period":{"start":"2026-05-19T14:40:00.000+00:00","end":"2026-05-19T14:40:00.000+00:00"},"length":{"value":0,"unit":"days"}},"request":{"method":"PUT","url":"Encounter/6e29b0cb-89de-4128-b517-d713c9853b57"}},{"resource":{"resourceType":"AllergyIntolerance","id":"395ebe68-bffe-45f6-8507-db744dd4d1fd","meta":{"profile":["http://hl7.org/fhir/us/qicore/StructureDefinition/qicore-allergyintolerance"]},"clinicalStatus":{"coding":[{"system":"http://terminology.hl7.org/CodeSystem/allergyintolerance-clinical","code":"active"}]},"verificationStatus":{"coding":[{"system":"http://terminology.hl7.org/CodeSystem/allergyintolerance-verification","code":"confirmed"}]},"type":"allergy","criticality":"high","code":{"coding":[{"system":"http://www.nlm.nih.gov/research/umls/rxnorm","version":"04032023","code":"1520","display":"betaxolol"}]},"patient":{"reference":"Patient/f00cb244-a7cc-408f-ab47-7c3ac82469b1"},"onsetDateTime":"2025-02-01","recordedDate":"2025-02-01T14:00:00.000+00:00"},"request":{"method":"PUT","url":"AllergyIntolerance/395ebe68-bffe-45f6-8507-db744dd4d1fd"}},{"resource":{"resourceType":"Observation","id":"cf4fb8ff-eca1-4659-abe4-996aa60ec14d","meta":{"profile":["http://hl7.org/fhir/us/qicore/StructureDefinition/qicore-observation-clinical-result"]},"status":"final","category":[{"coding":[{"system":"http://terminology.hl7.org/CodeSystem/observation-category","code":"imaging","display":"Imaging"}]}],"code":{"coding":[{"system":"http://loinc.org","version":"2.76","code":"8807-0"}]},"subject":{"reference":"Patient/f00cb244-a7cc-408f-ab47-7c3ac82469b1"},"effectivePeriod":{"start":"2026-04-01T11:50:00.000+00:00","end":"2026-04-01T11:50:00.000+00:00"},"valueQuantity":{"value":39,"unit":"%"}},"request":{"method":"PUT","url":"Observation/cf4fb8ff-eca1-4659-abe4-996aa60ec14d"}},{"resource":{"resourceType":"Condition","id":"d7bc4f37-e964-4006-a35a-63b77c3c0b35","meta":{"profile":["http://hl7.org/fhir/us/qicore/StructureDefinition/qicore-condition-problems-health-concerns"]},"clinicalStatus":{"coding":[{"system":"http://terminology.hl7.org/CodeSystem/condition-clinical","code":"active","display":"Active"}]},"category":[{"coding":[{"system":"http://terminology.hl7.org/CodeSystem/condition-category","code":"problem-list-item","display":"Problem List Item"}]}],"code":{"coding":[{"system":"http://snomed.info/sct","version":"http://snomed.info/sct/731000124108/version/20240301","code":"981000124106","display":"Moderate left ventricular systolic dysfunction (disorder)"}]},"subject":{"reference":"Patient/f00cb244-a7cc-408f-ab47-7c3ac82469b1"},"onsetPeriod":{"start":"2026-05-13T14:40:00.000+00:00"}},"request":{"method":"PUT","url":"Condition/d7bc4f37-e964-4006-a35a-63b77c3c0b35"}},{"resource":{"resourceType":"MeasureReport","id":"e9232b97-b3ef-4c09-8cae-e5cd75ff61ad","meta":{"profile":["http://hl7.org/fhir/us/cqfmeasures/StructureDefinition/test-case-cqfm"]},"contained":[{"resourceType":"Parameters","id":"7db594b3-3701-4254-b3b0-5f854e38f859-parameters","parameter":[{"name":"subject","valueString":"f00cb244-a7cc-408f-ab47-7c3ac82469b1"}]}],"extension":[{"url":"http://hl7.org/fhir/StructureDefinition/cqf-inputParameters","valueReference":{"reference":"#7db594b3-3701-4254-b3b0-5f854e38f859-parameters"}},{"url":"http://hl7.org/fhir/us/cqfmeasures/StructureDefinition/cqfm-testCaseDescription","valueMarkdown":"Patient falls in Denom. Exception due to allergy intolerance to beta blocker  (betaxolol) ingredient which overlap before date of LVSD diagnosis"}],"modifierExtension":[{"url":"http://hl7.org/fhir/us/cqfmeasures/StructureDefinition/cqfm-isTestCase","valueBoolean":true}],"status":"complete","type":"individual","measure":"https://madie.cms.gov/Measure/CMS144FHIRHFBetaBlockerTherapyforLVSD","period":{"start":"2026-01-01","end":"2026-12-31"},"group":[{"id":"Group_1","population":[{"id":"InitialPopulation_1","code":{"coding":[{"system":"http://terminology.hl7.org/CodeSystem/measure-population","code":"initial-population","display":"Initial Population"}]},"count":1},{"id":"Denominator_1","code":{"coding":[{"system":"http://terminology.hl7.org/CodeSystem/measure-population","code":"denominator","display":"Denominator"}]},"count":1},{"id":"DenominatorExclusion_1","code":{"coding":[{"system":"http://terminology.hl7.org/CodeSystem/measure-population","code":"denominator-exclusion","display":"Denominator Exclusion"}]},"count":0},{"id":"Numerator_1","code":{"coding":[{"system":"http://terminology.hl7.org/CodeSystem/measure-population","code":"numerator","display":"Numerator"}]},"count":0},{"id":"DenominatorException_1","code":{"coding":[{"system":"http://terminology.hl7.org/CodeSystem/measure-population","code":"denominator-exception","display":"Denominator Exception"}]},"count":1}],"measureScore":{"value":1.0}}],"evaluatedResource":[{"reference":"Patient/f00cb244-a7cc-408f-ab47-7c3ac82469b1"},{"reference":"AllergyIntolerance/395ebe68-bffe-45f6-8507-db744dd4d1fd"},{"reference":"Encounter/6e29b0cb-89de-4128-b517-d713c9853b57"},{"reference":"Encounter/a8da450d-b088-4683-bb41-fafd7eb2f0b1"},{"reference":"Condition/0c32dffb-6fe5-43e2-8f61-867542166fcc"},{"reference":"Condition/c61da8d4-e1d9-4c6e-b249-6bda43199342"},{"reference":"Observation/cf4fb8ff-eca1-4659-abe4-996aa60ec14d"},{"reference":"Practitioner/83b469bf-8b20-44f6-bd46-2a3f97e05153"},{"reference":"Condition/806267c3-83c5-42b7-89a4-2630f2f43567"},{"reference":"Condition/d7bc4f37-e964-4006-a35a-63b77c3c0b35"}]},"request":{"method":"PUT","url":"MeasureReport/e9232b97-b3ef-4c09-8cae-e5cd75ff61ad"}},{"resource":{"resourceType":"Patient","id":"f00cb244-a7cc-408f-ab47-7c3ac82469b1","meta":{"profile":["http://hl7.org/fhir/us/qicore/StructureDefinition/qicore-patient"]},"extension":[{"url":"http://hl7.org/fhir/us/core/StructureDefinition/us-core-race","extension":[{"url":"ombCategory","valueCoding":{"system":"urn:oid:2.16.840.1.113883.6.238","code":"2106-3","display":"White"}},{"url":"text","valueString":"White"}]},{"url":"http://hl7.org/fhir/us/core/StructureDefinition/us-core-ethnicity","extension":[{"url":"ombCategory","valueCoding":{"system":"urn:oid:2.16.840.1.113883.6.238","code":"2186-5","display":"Not Hispanic or Latino"}},{"url":"text","valueString":"Not Hispanic or Latino"}]}],"identifier":[{"type":{"coding":[{"system":"http://terminology.hl7.org/CodeSystem/v2-0203","code":"MR"}]},"system":"https://bonnie-fhir.healthit.gov/","value":"6067461d98086b57ea5acf1b"}],"active":true,"name":[{"use":"usual","family":"DENEXCEPPass","given":["AllergyBetaxololBeforeLastEnc"]}],"gender":"male","birthDate":"1953-04-17"},"request":{"method":"PUT","url":"Patient/f00cb244-a7cc-408f-ab47-7c3ac82469b1"}},{"resource":{"resourceType":"Practitioner","id":"83b469bf-8b20-44f6-bd46-2a3f97e05153","meta":{"profile":["http://hl7.org/fhir/us/qicore/StructureDefinition/qicore-practitioner"]},"identifier":[{"use":"temp","system":"urn:oid:2.16.840.1.113883.4.336","value":"Practitioner-23"}],"active":true,"name":[{"family":"Careful","given":["Adam"],"prefix":["Dr"]}],"address":[{"use":"home","line":["534 Erewhon St"],"city":"PleasantVille","state":"UT","postalCode":"84414"}],"qualification":[{"identifier":[{"system":"http://example.org/UniversityIdentifier","value":"12345"}],"code":{"coding":[{"system":"http://terminology.hl7.org/CodeSystem/v2-0360|2.7","code":"BS","display":"Bachelor of Science"}],"text":"Bachelor of Science"},"period":{"start":"1996"},"issuer":{"display":"Example University"}}]},"request":{"method":"PUT","url":"Practitioner/83b469bf-8b20-44f6-bd46-2a3f97e05153"}}]}