{"resourceType":"Bundle","id":"tests-5e965079-8e53-4011-b4e8-cb3829257450-bundle","type":"transaction","entry":[{"resource":{"resourceType":"Patient","id":"5e965079-8e53-4011-b4e8-cb3829257450","meta":{"profile":["http://hl7.org/fhir/us/qicore/StructureDefinition/qicore-patient"]},"extension":[{"url":"http://hl7.org/fhir/us/core/StructureDefinition/us-core-race","extension":[{"url":"ombCategory","valueCoding":{"system":"urn:oid:2.16.840.1.113883.6.238","code":"2076-8","display":"Native Hawaiian or Other Pacific Islander"}},{"url":"text","valueString":"Native Hawaiian or Other Pacific Islander"}]},{"url":"http://hl7.org/fhir/us/core/StructureDefinition/us-core-ethnicity","extension":[{"url":"ombCategory","valueCoding":{"system":"urn:oid:2.16.840.1.113883.6.238","code":"2186-5","display":"Not Hispanic or Latino"}},{"url":"text","valueString":"Not Hispanic or Latino"}]}],"identifier":[{"type":{"coding":[{"system":"http://terminology.hl7.org/CodeSystem/v2-0203","code":"MR"}]},"system":"https://bonnie-fhir.healthit.gov/","value":"46431231346541"}],"active":true,"name":[{"use":"usual","family":"DENOMEXCEPPass","given":["AllergicToBetaAdrenergicReceptorAntagonist"]}],"gender":"male","birthDate":"1972-12-30"},"request":{"method":"PUT","url":"Patient/5e965079-8e53-4011-b4e8-cb3829257450"}},{"resource":{"resourceType":"Encounter","id":"9e455dbd-060b-4dd7-bc8e-6cb014172213","meta":{"profile":["http://hl7.org/fhir/us/qicore/StructureDefinition/qicore-encounter"]},"status":"finished","class":{"system":"http://terminology.hl7.org/CodeSystem/v3-ActCode","code":"AMB","display":"ambulatory"},"type":[{"coding":[{"system":"http://www.ama-assn.org/go/cpt","version":"2024","code":"99213"}]}],"subject":{"reference":"Patient/5e965079-8e53-4011-b4e8-cb3829257450"},"period":{"start":"2026-04-14T14:40:00.000+00:00","end":"2026-04-14T14:50:00.000+00:00"},"length":{"value":0,"unit":"days"}},"request":{"method":"PUT","url":"Encounter/9e455dbd-060b-4dd7-bc8e-6cb014172213"}},{"resource":{"resourceType":"Encounter","id":"45cdc984-140f-4477-b554-8b73c792534f","meta":{"profile":["http://hl7.org/fhir/us/qicore/StructureDefinition/qicore-encounter"]},"status":"finished","class":{"system":"http://terminology.hl7.org/CodeSystem/v3-ActCode","code":"AMB","display":"ambulatory"},"type":[{"coding":[{"system":"http://www.ama-assn.org/go/cpt","version":"2024","code":"99212"}]}],"subject":{"reference":"Patient/5e965079-8e53-4011-b4e8-cb3829257450"},"period":{"start":"2026-07-20T11:50:00.000+00:00","end":"2026-07-20T11:50:00.000+00:00"},"length":{"value":0,"unit":"days"}},"request":{"method":"PUT","url":"Encounter/45cdc984-140f-4477-b554-8b73c792534f"}},{"resource":{"resourceType":"MeasureReport","id":"1a9a143f-0b00-4dec-9106-2c7e3da6d382","meta":{"profile":["http://hl7.org/fhir/us/cqfmeasures/StructureDefinition/test-case-cqfm"]},"contained":[{"resourceType":"Parameters","id":"dbc89492-25ea-4e08-a595-f1cc62b6e363-parameters","parameter":[{"name":"subject","valueString":"5e965079-8e53-4011-b4e8-cb3829257450"}]}],"extension":[{"url":"http://hl7.org/fhir/StructureDefinition/cqf-inputParameters","valueReference":{"reference":"#dbc89492-25ea-4e08-a595-f1cc62b6e363-parameters"}},{"url":"http://hl7.org/fhir/us/cqfmeasures/StructureDefinition/cqfm-testCaseDescription","valueMarkdown":"Patient falls into denominator exception due to allergy to beta adrenergic receptor antagonist diagnosed before last encounter "}],"modifierExtension":[{"url":"http://hl7.org/fhir/us/cqfmeasures/StructureDefinition/cqfm-isTestCase","valueBoolean":true}],"status":"complete","type":"individual","measure":"https://madie.cms.gov/Measure/CMS144FHIRHFBetaBlockerTherapyforLVSD","period":{"start":"2026-01-01","end":"2026-12-31"},"group":[{"id":"Group_1","population":[{"id":"InitialPopulation_1","code":{"coding":[{"system":"http://terminology.hl7.org/CodeSystem/measure-population","code":"initial-population","display":"Initial Population"}]},"count":1},{"id":"Denominator_1","code":{"coding":[{"system":"http://terminology.hl7.org/CodeSystem/measure-population","code":"denominator","display":"Denominator"}]},"count":1},{"id":"DenominatorExclusion_1","code":{"coding":[{"system":"http://terminology.hl7.org/CodeSystem/measure-population","code":"denominator-exclusion","display":"Denominator Exclusion"}]},"count":0},{"id":"Numerator_1","code":{"coding":[{"system":"http://terminology.hl7.org/CodeSystem/measure-population","code":"numerator","display":"Numerator"}]},"count":0},{"id":"DenominatorException_1","code":{"coding":[{"system":"http://terminology.hl7.org/CodeSystem/measure-population","code":"denominator-exception","display":"Denominator Exception"}]},"count":1}],"measureScore":{"value":1.0}}],"evaluatedResource":[{"reference":"Patient/5e965079-8e53-4011-b4e8-cb3829257450"},{"reference":"Encounter/9e455dbd-060b-4dd7-bc8e-6cb014172213"},{"reference":"Encounter/45cdc984-140f-4477-b554-8b73c792534f"},{"reference":"Condition/b15da73b-715d-4ef4-87eb-ab1986f5a50c"},{"reference":"Condition/749207a4-4db8-4084-8dec-6dbcb4003adb"},{"reference":"AllergyIntolerance/a3e49592-3910-4673-b9bf-1d9c0d5d5eff"}]},"request":{"method":"PUT","url":"MeasureReport/1a9a143f-0b00-4dec-9106-2c7e3da6d382"}},{"resource":{"resourceType":"AllergyIntolerance","id":"a3e49592-3910-4673-b9bf-1d9c0d5d5eff","meta":{"profile":["http://hl7.org/fhir/us/qicore/StructureDefinition/qicore-allergyintolerance"]},"clinicalStatus":{"coding":[{"system":"http://terminology.hl7.org/CodeSystem/allergyintolerance-clinical","code":"active","display":"Active"}]},"verificationStatus":{"coding":[{"system":"http://terminology.hl7.org/CodeSystem/allergyintolerance-verification","code":"confirmed","display":"Confirmed"}]},"code":{"coding":[{"system":"http://snomed.info/sct","version":"http://snomed.info/sct/731000124108/version/20240301","code":"373254001","display":"Substance with beta adrenergic receptor antagonist mechanism of action (substance)"}]},"patient":{"reference":"Patient/5e965079-8e53-4011-b4e8-cb3829257450"},"onsetPeriod":{"start":"2026-01-20T14:32:00.000+00:00"}},"request":{"method":"PUT","url":"AllergyIntolerance/a3e49592-3910-4673-b9bf-1d9c0d5d5eff"}},{"resource":{"resourceType":"Bundle","id":"94651646816513161","type":"transaction","entry":[{"fullUrl":"https://madie.cms.gov/Patient/5e965079-8e53-4011-b4e8-cb3829257450","resource":{"resourceType":"Patient","id":"5e965079-8e53-4011-b4e8-cb3829257450","meta":{"profile":["http://hl7.org/fhir/us/qicore/StructureDefinition/qicore-patient"]},"extension":[{"url":"http://hl7.org/fhir/us/core/StructureDefinition/us-core-race","extension":[{"url":"ombCategory","valueCoding":{"system":"urn:oid:2.16.840.1.113883.6.238","code":"2076-8","display":"Native Hawaiian or Other Pacific Islander"}},{"url":"text","valueString":"Native Hawaiian or Other Pacific Islander"}]},{"url":"http://hl7.org/fhir/us/core/StructureDefinition/us-core-ethnicity","extension":[{"url":"ombCategory","valueCoding":{"system":"urn:oid:2.16.840.1.113883.6.238","code":"2186-5","display":"Not Hispanic or Latino"}},{"url":"text","valueString":"Not Hispanic or Latino"}]}],"identifier":[{"type":{"coding":[{"system":"http://terminology.hl7.org/CodeSystem/v2-0203","code":"MR"}]},"system":"https://bonnie-fhir.healthit.gov/","value":"46431231346541"}],"active":true,"name":[{"use":"usual","family":"DENOMEXCEPPass","given":["AllergicToBetaAdrenergicReceptorAntagonist"]}],"gender":"male","birthDate":"1972-12-30"},"request":{"method":"PUT","url":"Patient/5e965079-8e53-4011-b4e8-cb3829257450"}},{"fullUrl":"https://madie.cms.gov/Encounter/9e455dbd-060b-4dd7-bc8e-6cb014172213","resource":{"resourceType":"Encounter","id":"9e455dbd-060b-4dd7-bc8e-6cb014172213","meta":{"profile":["http://hl7.org/fhir/us/qicore/StructureDefinition/qicore-encounter"]},"status":"finished","class":{"system":"http://terminology.hl7.org/CodeSystem/v3-ActCode","code":"AMB","display":"ambulatory"},"type":[{"coding":[{"system":"http://www.ama-assn.org/go/cpt","version":"2024","code":"99213"}]}],"subject":{"reference":"Patient/5e965079-8e53-4011-b4e8-cb3829257450"},"period":{"start":"2026-04-14T14:40:00.000+00:00","end":"2026-04-14T14:50:00.000+00:00"},"length":{"value":0,"unit":"days"}},"request":{"method":"PUT","url":"Encounter/9e455dbd-060b-4dd7-bc8e-6cb014172213"}},{"fullUrl":"https://madie.cms.gov/Encounter/45cdc984-140f-4477-b554-8b73c792534f","resource":{"resourceType":"Encounter","id":"45cdc984-140f-4477-b554-8b73c792534f","meta":{"profile":["http://hl7.org/fhir/us/qicore/StructureDefinition/qicore-encounter"]},"status":"finished","class":{"system":"http://terminology.hl7.org/CodeSystem/v3-ActCode","code":"AMB","display":"ambulatory"},"type":[{"coding":[{"system":"http://www.ama-assn.org/go/cpt","version":"2024","code":"99212"}]}],"subject":{"reference":"Patient/5e965079-8e53-4011-b4e8-cb3829257450"},"period":{"start":"2026-07-20T11:50:00.000+00:00","end":"2026-07-20T11:50:00.000+00:00"},"length":{"value":0,"unit":"days"}},"request":{"method":"PUT","url":"Encounter/45cdc984-140f-4477-b554-8b73c792534f"}},{"fullUrl":"https://madie.cms.gov/Condition/b15da73b-715d-4ef4-87eb-ab1986f5a50c","resource":{"resourceType":"Condition","id":"b15da73b-715d-4ef4-87eb-ab1986f5a50c","meta":{"profile":["http://hl7.org/fhir/us/qicore/StructureDefinition/qicore-condition-problems-health-concerns"]},"clinicalStatus":{"coding":[{"system":"http://terminology.hl7.org/CodeSystem/condition-clinical","code":"active","display":"Active"}]},"verificationStatus":{"coding":[{"system":"http://terminology.hl7.org/CodeSystem/condition-ver-status","code":"confirmed","display":"Confirmed"}]},"category":[{"coding":[{"system":"http://terminology.hl7.org/CodeSystem/condition-category","code":"problem-list-item","display":"Problem List Item"}]}],"code":{"coding":[{"system":"http://hl7.org/fhir/sid/icd-10-cm","version":"2024","code":"I11.0"}]},"subject":{"reference":"Patient/5e965079-8e53-4011-b4e8-cb3829257450"},"onsetPeriod":{"start":"2026-04-11T10:00:00.000+00:00"}},"request":{"method":"PUT","url":"Condition/b15da73b-715d-4ef4-87eb-ab1986f5a50c"}},{"fullUrl":"https://madie.cms.gov/Condition/749207a4-4db8-4084-8dec-6dbcb4003adb","resource":{"resourceType":"Condition","id":"749207a4-4db8-4084-8dec-6dbcb4003adb","meta":{"profile":["http://hl7.org/fhir/us/qicore/StructureDefinition/qicore-condition-problems-health-concerns"]},"clinicalStatus":{"coding":[{"system":"http://terminology.hl7.org/CodeSystem/condition-clinical","code":"active","display":"Active"}]},"verificationStatus":{"coding":[{"system":"http://terminology.hl7.org/CodeSystem/condition-ver-status","code":"confirmed","display":"Confirmed"}]},"category":[{"coding":[{"system":"http://terminology.hl7.org/CodeSystem/condition-category","code":"problem-list-item","display":"Problem List Item"}]}],"severity":{"coding":[{"system":"http://snomed.info/sct","version":"http://snomed.info/sct/731000124108/version/20240301","code":"24484000","display":"Severe (severity modifier) (qualifier value)"}]},"code":{"coding":[{"system":"http://snomed.info/sct","version":"http://snomed.info/sct/731000124108/version/20240301","code":"134401001","display":"Left ventricular systolic dysfunction (disorder)"}]},"subject":{"reference":"Patient/5e965079-8e53-4011-b4e8-cb3829257450"},"onsetPeriod":{"start":"2026-04-14T14:41:00.000+00:00"}},"request":{"method":"PUT","url":"Condition/749207a4-4db8-4084-8dec-6dbcb4003adb"}},{"fullUrl":"https://madie.cms.gov/AllergyIntolerance/a3e49592-3910-4673-b9bf-1d9c0d5d5eff","resource":{"resourceType":"AllergyIntolerance","id":"a3e49592-3910-4673-b9bf-1d9c0d5d5eff","meta":{"profile":["http://hl7.org/fhir/us/qicore/StructureDefinition/qicore-allergyintolerance"]},"clinicalStatus":{"coding":[{"system":"http://terminology.hl7.org/CodeSystem/allergyintolerance-clinical","code":"active","display":"Active"}]},"verificationStatus":{"coding":[{"system":"http://terminology.hl7.org/CodeSystem/allergyintolerance-verification","code":"confirmed","display":"Confirmed"}]},"code":{"coding":[{"system":"http://snomed.info/sct","version":"http://snomed.info/sct/731000124108/version/20240301","code":"373254001","display":"Substance with beta adrenergic receptor antagonist mechanism of action (substance)"}]},"patient":{"reference":"Patient/5e965079-8e53-4011-b4e8-cb3829257450"},"onsetPeriod":{"start":"2026-01-20T14:32:00.000+00:00"}},"request":{"method":"PUT","url":"AllergyIntolerance/a3e49592-3910-4673-b9bf-1d9c0d5d5eff"}},{"fullUrl":"https://madie.cms.gov/MeasureReport/1a9a143f-0b00-4dec-9106-2c7e3da6d382","resource":{"resourceType":"MeasureReport","id":"1a9a143f-0b00-4dec-9106-2c7e3da6d382","meta":{"profile":["http://hl7.org/fhir/us/cqfmeasures/StructureDefinition/test-case-cqfm"]},"contained":[{"resourceType":"Parameters","id":"dbc89492-25ea-4e08-a595-f1cc62b6e363-parameters","parameter":[{"name":"subject","valueString":"5e965079-8e53-4011-b4e8-cb3829257450"}]}],"extension":[{"url":"http://hl7.org/fhir/StructureDefinition/cqf-inputParameters","valueReference":{"reference":"#dbc89492-25ea-4e08-a595-f1cc62b6e363-parameters"}},{"url":"http://hl7.org/fhir/us/cqfmeasures/StructureDefinition/cqfm-testCaseDescription","valueMarkdown":"Patient falls into denominator exception due to allergy to beta adrenergic receptor antagonist diagnosed before last encounter "}],"modifierExtension":[{"url":"http://hl7.org/fhir/us/cqfmeasures/StructureDefinition/cqfm-isTestCase","valueBoolean":true}],"status":"complete","type":"individual","measure":"https://madie.cms.gov/Measure/CMS144FHIRHFBetaBlockerTherapyforLVSD","period":{"start":"2026-01-01","end":"2026-12-31"},"group":[{"id":"Group_1","population":[{"id":"InitialPopulation_1","code":{"coding":[{"system":"http://terminology.hl7.org/CodeSystem/measure-population","code":"initial-population","display":"Initial Population"}]},"count":1},{"id":"Denominator_1","code":{"coding":[{"system":"http://terminology.hl7.org/CodeSystem/measure-population","code":"denominator","display":"Denominator"}]},"count":1},{"id":"DenominatorExclusion_1","code":{"coding":[{"system":"http://terminology.hl7.org/CodeSystem/measure-population","code":"denominator-exclusion","display":"Denominator Exclusion"}]},"count":0},{"id":"Numerator_1","code":{"coding":[{"system":"http://terminology.hl7.org/CodeSystem/measure-population","code":"numerator","display":"Numerator"}]},"count":0},{"id":"DenominatorException_1","code":{"coding":[{"system":"http://terminology.hl7.org/CodeSystem/measure-population","code":"denominator-exception","display":"Denominator Exception"}]},"count":1}],"measureScore":{"value":1.0}}],"evaluatedResource":[{"reference":"Patient/5e965079-8e53-4011-b4e8-cb3829257450"},{"reference":"Encounter/9e455dbd-060b-4dd7-bc8e-6cb014172213"},{"reference":"Encounter/45cdc984-140f-4477-b554-8b73c792534f"},{"reference":"Condition/b15da73b-715d-4ef4-87eb-ab1986f5a50c"},{"reference":"Condition/749207a4-4db8-4084-8dec-6dbcb4003adb"},{"reference":"AllergyIntolerance/a3e49592-3910-4673-b9bf-1d9c0d5d5eff"}]},"request":{"method":"PUT","url":"MeasureReport/1a9a143f-0b00-4dec-9106-2c7e3da6d382"}}]},"request":{"method":"PUT","url":"Bundle/94651646816513161"}},{"resource":{"resourceType":"Condition","id":"b15da73b-715d-4ef4-87eb-ab1986f5a50c","meta":{"profile":["http://hl7.org/fhir/us/qicore/StructureDefinition/qicore-condition-problems-health-concerns"]},"clinicalStatus":{"coding":[{"system":"http://terminology.hl7.org/CodeSystem/condition-clinical","code":"active","display":"Active"}]},"verificationStatus":{"coding":[{"system":"http://terminology.hl7.org/CodeSystem/condition-ver-status","code":"confirmed","display":"Confirmed"}]},"category":[{"coding":[{"system":"http://terminology.hl7.org/CodeSystem/condition-category","code":"problem-list-item","display":"Problem List Item"}]}],"code":{"coding":[{"system":"http://hl7.org/fhir/sid/icd-10-cm","version":"2024","code":"I11.0"}]},"subject":{"reference":"Patient/5e965079-8e53-4011-b4e8-cb3829257450"},"onsetPeriod":{"start":"2026-04-11T10:00:00.000+00:00"}},"request":{"method":"PUT","url":"Condition/b15da73b-715d-4ef4-87eb-ab1986f5a50c"}},{"resource":{"resourceType":"Condition","id":"749207a4-4db8-4084-8dec-6dbcb4003adb","meta":{"profile":["http://hl7.org/fhir/us/qicore/StructureDefinition/qicore-condition-problems-health-concerns"]},"clinicalStatus":{"coding":[{"system":"http://terminology.hl7.org/CodeSystem/condition-clinical","code":"active","display":"Active"}]},"verificationStatus":{"coding":[{"system":"http://terminology.hl7.org/CodeSystem/condition-ver-status","code":"confirmed","display":"Confirmed"}]},"category":[{"coding":[{"system":"http://terminology.hl7.org/CodeSystem/condition-category","code":"problem-list-item","display":"Problem List Item"}]}],"severity":{"coding":[{"system":"http://snomed.info/sct","version":"http://snomed.info/sct/731000124108/version/20240301","code":"24484000","display":"Severe (severity modifier) (qualifier value)"}]},"code":{"coding":[{"system":"http://snomed.info/sct","version":"http://snomed.info/sct/731000124108/version/20240301","code":"134401001","display":"Left ventricular systolic dysfunction (disorder)"}]},"subject":{"reference":"Patient/5e965079-8e53-4011-b4e8-cb3829257450"},"onsetPeriod":{"start":"2026-04-14T14:41:00.000+00:00"}},"request":{"method":"PUT","url":"Condition/749207a4-4db8-4084-8dec-6dbcb4003adb"}}]}