{"resourceType":"Bundle","id":"tests-07efd4bb-b45d-4bfd-aeb2-08de49742d91-bundle","type":"transaction","entry":[{"fullUrl":"Condition/6a37008b-a14f-4d80-ad6f-5d7c1a67609f","resource":{"resourceType":"Condition","id":"6a37008b-a14f-4d80-ad6f-5d7c1a67609f","meta":{"profile":["http://hl7.org/fhir/us/qicore/StructureDefinition/qicore-condition-problems-health-concerns"]},"clinicalStatus":{"coding":[{"system":"http://terminology.hl7.org/CodeSystem/condition-clinical","code":"active","display":"Active"}]},"verificationStatus":{"coding":[{"system":"http://terminology.hl7.org/CodeSystem/condition-ver-status","code":"confirmed","display":"Confirmed"}]},"category":[{"coding":[{"system":"http://terminology.hl7.org/CodeSystem/condition-category","code":"problem-list-item","display":"Problem List Item"}]}],"severity":{"coding":[{"system":"http://snomed.info/sct","version":"http://snomed.info/sct/731000124108/version/20240301","code":"24484000","display":"Severe (severity modifier) (qualifier value)"}]},"code":{"coding":[{"system":"http://snomed.info/sct","version":"http://snomed.info/sct/731000124108/version/20240301","code":"134401001","display":"Left ventricular systolic dysfunction (disorder)"}]},"subject":{"reference":"Patient/07efd4bb-b45d-4bfd-aeb2-08de49742d91"},"onsetPeriod":{"start":"2026-04-14T14:41:00.000+00:00"}},"request":{"method":"PUT","url":"Condition/6a37008b-a14f-4d80-ad6f-5d7c1a67609f"}},{"fullUrl":"Patient/07efd4bb-b45d-4bfd-aeb2-08de49742d91","resource":{"resourceType":"Patient","id":"07efd4bb-b45d-4bfd-aeb2-08de49742d91","meta":{"profile":["http://hl7.org/fhir/us/qicore/StructureDefinition/qicore-patient"]},"extension":[{"url":"http://hl7.org/fhir/us/core/StructureDefinition/us-core-race","extension":[{"url":"ombCategory","valueCoding":{"system":"urn:oid:2.16.840.1.113883.6.238","code":"2106-3","display":"White"}},{"url":"detailed","valueCoding":{"system":"urn:oid:2.16.840.1.113883.6.238","code":"2036-2","display":"Filipino"}},{"url":"text","valueString":"mixed"}]},{"url":"http://hl7.org/fhir/us/core/StructureDefinition/us-core-ethnicity","extension":[{"url":"ombCategory","valueCoding":{"system":"urn:oid:2.16.840.1.113883.6.238","code":"2135-2","display":"Hispanic or Latino"}},{"url":"detailed","valueCoding":{"system":"urn:oid:2.16.840.1.113883.6.238","code":"2148-5","display":"Mexican"}},{"url":"text","valueString":"Hispanic or Latino"}]}],"identifier":[{"type":{"coding":[{"system":"http://terminology.hl7.org/CodeSystem/v2-0203","code":"MR"}]},"system":"https://bonnie-fhir.healthit.gov/","value":"46431231346541"}],"active":true,"name":[{"use":"usual","family":"DENOMEXEPPass","given":["BetalBlockerNotOrderedPR"]}],"gender":"male","birthDate":"1973-12-13"},"request":{"method":"PUT","url":"Patient/07efd4bb-b45d-4bfd-aeb2-08de49742d91"}},{"fullUrl":"Condition/34f590f6-95f4-413b-a6a9-14dfb0058e71","resource":{"resourceType":"Condition","id":"34f590f6-95f4-413b-a6a9-14dfb0058e71","meta":{"profile":["http://hl7.org/fhir/us/qicore/StructureDefinition/qicore-condition-problems-health-concerns"]},"clinicalStatus":{"coding":[{"system":"http://terminology.hl7.org/CodeSystem/condition-clinical","code":"active","display":"Active"}]},"verificationStatus":{"coding":[{"system":"http://terminology.hl7.org/CodeSystem/condition-ver-status","code":"confirmed","display":"Confirmed"}]},"category":[{"coding":[{"system":"http://terminology.hl7.org/CodeSystem/condition-category","code":"problem-list-item","display":"Problem List Item"}]}],"code":{"coding":[{"system":"http://hl7.org/fhir/sid/icd-10-cm","version":"2024","code":"I11.0"}]},"subject":{"reference":"Patient/07efd4bb-b45d-4bfd-aeb2-08de49742d91"},"onsetPeriod":{"start":"2026-04-11T10:00:00.000+00:00"}},"request":{"method":"PUT","url":"Condition/34f590f6-95f4-413b-a6a9-14dfb0058e71"}},{"fullUrl":"MedicationRequest/78ec9bd7-2861-4024-a1a1-2895f5dd7cac","resource":{"resourceType":"MedicationRequest","id":"78ec9bd7-2861-4024-a1a1-2895f5dd7cac","meta":{"profile":["http://hl7.org/fhir/us/qicore/StructureDefinition/qicore-medicationnotrequested"]},"status":"completed","intent":"order","doNotPerform":true,"medicationCodeableConcept":{"coding":[{"system":"http://www.nlm.nih.gov/research/umls/rxnorm","version":"08072023","code":"1999033","display":"24 HR metoprolol succinate 200 MG Extended Release Oral Capsule"}]},"subject":{"reference":"Patient/07efd4bb-b45d-4bfd-aeb2-08de49742d91"},"authoredOn":"2026-07-20T12:15:00.000+00:00","requester":{"reference":"Practitioner/c7d607c3-a181-447f-878f-427221fe20da"},"reasonCode":[{"coding":[{"system":"http://snomed.info/sct","version":"http://snomed.info/sct/731000124108/version/20230301","code":"406149000","display":"Medication declined (situation)"}]}]},"request":{"method":"PUT","url":"MedicationRequest/78ec9bd7-2861-4024-a1a1-2895f5dd7cac"}},{"fullUrl":"MeasureReport/70793c0f-8485-42b4-8ccb-2a0b93a8dd6e","resource":{"resourceType":"MeasureReport","id":"70793c0f-8485-42b4-8ccb-2a0b93a8dd6e","meta":{"profile":["http://hl7.org/fhir/us/cqfmeasures/StructureDefinition/test-case-cqfm"]},"contained":[{"resourceType":"Parameters","id":"e3efdb42-7e2e-4e84-bd8a-3e6d650a259d-parameters","parameter":[{"name":"subject","valueString":"07efd4bb-b45d-4bfd-aeb2-08de49742d91"}]}],"extension":[{"url":"http://hl7.org/fhir/StructureDefinition/cqf-inputParameters","valueReference":{"reference":"#e3efdb42-7e2e-4e84-bd8a-3e6d650a259d-parameters"}},{"url":"http://hl7.org/fhir/us/cqfmeasures/StructureDefinition/cqfm-testCaseDescription","valueMarkdown":"Beta Blocker was not ordered for LVSD Patient for Patient Reasons. Note: Denominator Exception deselected for now due to negation issue."}],"modifierExtension":[{"url":"http://hl7.org/fhir/us/cqfmeasures/StructureDefinition/cqfm-isTestCase","valueBoolean":true}],"status":"complete","type":"individual","measure":"https://madie.cms.gov/Measure/CMS144FHIRHFBetaBlockerTherapyforLVSD","period":{"start":"2026-01-01","end":"2026-12-31"},"group":[{"id":"Group_1","population":[{"id":"InitialPopulation_1","code":{"coding":[{"system":"http://terminology.hl7.org/CodeSystem/measure-population","code":"initial-population","display":"Initial Population"}]},"count":1},{"id":"Denominator_1","code":{"coding":[{"system":"http://terminology.hl7.org/CodeSystem/measure-population","code":"denominator","display":"Denominator"}]},"count":1},{"id":"DenominatorExclusion_1","code":{"coding":[{"system":"http://terminology.hl7.org/CodeSystem/measure-population","code":"denominator-exclusion","display":"Denominator Exclusion"}]},"count":0},{"id":"Numerator_1","code":{"coding":[{"system":"http://terminology.hl7.org/CodeSystem/measure-population","code":"numerator","display":"Numerator"}]},"count":0},{"id":"DenominatorException_1","code":{"coding":[{"system":"http://terminology.hl7.org/CodeSystem/measure-population","code":"denominator-exception","display":"Denominator Exception"}]},"count":1}],"measureScore":{"value":1.0}}],"evaluatedResource":[{"reference":"Patient/07efd4bb-b45d-4bfd-aeb2-08de49742d91"},{"reference":"Encounter/c1583111-9b81-42f4-a6d5-52d3a91e49bb"},{"reference":"Encounter/b5bad1fb-8caf-4a5f-85a8-b58abba7ef0e"},{"reference":"MedicationRequest/78ec9bd7-2861-4024-a1a1-2895f5dd7cac"},{"reference":"Practitioner/c7d607c3-a181-447f-878f-427221fe20da"},{"reference":"Condition/34f590f6-95f4-413b-a6a9-14dfb0058e71"},{"reference":"Condition/6a37008b-a14f-4d80-ad6f-5d7c1a67609f"}]},"request":{"method":"PUT","url":"MeasureReport/70793c0f-8485-42b4-8ccb-2a0b93a8dd6e"}},{"fullUrl":"Encounter/b5bad1fb-8caf-4a5f-85a8-b58abba7ef0e","resource":{"resourceType":"Encounter","id":"b5bad1fb-8caf-4a5f-85a8-b58abba7ef0e","meta":{"profile":["http://hl7.org/fhir/us/qicore/StructureDefinition/qicore-encounter"]},"status":"finished","class":{"system":"http://terminology.hl7.org/CodeSystem/v3-ActCode","code":"AMB","display":"ambulatory"},"type":[{"coding":[{"system":"http://www.ama-assn.org/go/cpt","version":"2024","code":"99213"}]}],"subject":{"reference":"Patient/07efd4bb-b45d-4bfd-aeb2-08de49742d91"},"period":{"start":"2026-07-20T11:50:00.000+00:00","end":"2026-07-20T12:50:00.000+00:00"},"length":{"value":0,"unit":"days"}},"request":{"method":"PUT","url":"Encounter/b5bad1fb-8caf-4a5f-85a8-b58abba7ef0e"}},{"fullUrl":"Encounter/c1583111-9b81-42f4-a6d5-52d3a91e49bb","resource":{"resourceType":"Encounter","id":"c1583111-9b81-42f4-a6d5-52d3a91e49bb","meta":{"profile":["http://hl7.org/fhir/us/qicore/StructureDefinition/qicore-encounter"]},"status":"finished","class":{"system":"http://terminology.hl7.org/CodeSystem/v3-ActCode","code":"AMB","display":"ambulatory"},"type":[{"coding":[{"system":"http://www.ama-assn.org/go/cpt","version":"2024","code":"99213"}]}],"subject":{"reference":"Patient/07efd4bb-b45d-4bfd-aeb2-08de49742d91"},"period":{"start":"2026-04-14T14:40:00.000+00:00","end":"2026-04-14T14:50:00.000+00:00"},"length":{"value":0,"unit":"days"}},"request":{"method":"PUT","url":"Encounter/c1583111-9b81-42f4-a6d5-52d3a91e49bb"}},{"fullUrl":"Bundle/46313213416131","resource":{"resourceType":"Bundle","id":"46313213416131","type":"transaction","entry":[{"fullUrl":"https://madie.cms.gov/Patient/07efd4bb-b45d-4bfd-aeb2-08de49742d91","resource":{"resourceType":"Patient","id":"07efd4bb-b45d-4bfd-aeb2-08de49742d91","meta":{"profile":["http://hl7.org/fhir/us/qicore/StructureDefinition/qicore-patient"]},"extension":[{"url":"http://hl7.org/fhir/us/core/StructureDefinition/us-core-race","extension":[{"url":"ombCategory","valueCoding":{"system":"urn:oid:2.16.840.1.113883.6.238","code":"2106-3","display":"White"}},{"url":"detailed","valueCoding":{"system":"urn:oid:2.16.840.1.113883.6.238","code":"2036-2","display":"Filipino"}},{"url":"text","valueString":"mixed"}]},{"url":"http://hl7.org/fhir/us/core/StructureDefinition/us-core-ethnicity","extension":[{"url":"ombCategory","valueCoding":{"system":"urn:oid:2.16.840.1.113883.6.238","code":"2135-2","display":"Hispanic or Latino"}},{"url":"detailed","valueCoding":{"system":"urn:oid:2.16.840.1.113883.6.238","code":"2148-5","display":"Mexican"}},{"url":"text","valueString":"Hispanic or Latino"}]}],"identifier":[{"type":{"coding":[{"system":"http://terminology.hl7.org/CodeSystem/v2-0203","code":"MR"}]},"system":"https://bonnie-fhir.healthit.gov/","value":"46431231346541"}],"active":true,"name":[{"use":"usual","family":"DENOMEXEPPass","given":["BetalBlockerNotOrderedPR"]}],"gender":"male","birthDate":"1973-12-13"},"request":{"method":"PUT","url":"Patient/07efd4bb-b45d-4bfd-aeb2-08de49742d91"}},{"fullUrl":"https://madie.cms.gov/Encounter/c1583111-9b81-42f4-a6d5-52d3a91e49bb","resource":{"resourceType":"Encounter","id":"c1583111-9b81-42f4-a6d5-52d3a91e49bb","meta":{"profile":["http://hl7.org/fhir/us/qicore/StructureDefinition/qicore-encounter"]},"status":"finished","class":{"system":"http://terminology.hl7.org/CodeSystem/v3-ActCode","code":"AMB","display":"ambulatory"},"type":[{"coding":[{"system":"http://www.ama-assn.org/go/cpt","version":"2024","code":"99213"}]}],"subject":{"reference":"Patient/07efd4bb-b45d-4bfd-aeb2-08de49742d91"},"period":{"start":"2026-04-14T14:40:00.000+00:00","end":"2026-04-14T14:50:00.000+00:00"},"length":{"value":0,"unit":"days"}},"request":{"method":"PUT","url":"Encounter/c1583111-9b81-42f4-a6d5-52d3a91e49bb"}},{"fullUrl":"https://madie.cms.gov/Encounter/b5bad1fb-8caf-4a5f-85a8-b58abba7ef0e","resource":{"resourceType":"Encounter","id":"b5bad1fb-8caf-4a5f-85a8-b58abba7ef0e","meta":{"profile":["http://hl7.org/fhir/us/qicore/StructureDefinition/qicore-encounter"]},"status":"finished","class":{"system":"http://terminology.hl7.org/CodeSystem/v3-ActCode","code":"AMB","display":"ambulatory"},"type":[{"coding":[{"system":"http://www.ama-assn.org/go/cpt","version":"2024","code":"99213"}]}],"subject":{"reference":"Patient/07efd4bb-b45d-4bfd-aeb2-08de49742d91"},"period":{"start":"2026-07-20T11:50:00.000+00:00","end":"2026-07-20T12:50:00.000+00:00"},"length":{"value":0,"unit":"days"}},"request":{"method":"PUT","url":"Encounter/b5bad1fb-8caf-4a5f-85a8-b58abba7ef0e"}},{"fullUrl":"https://madie.cms.gov/MedicationRequest/78ec9bd7-2861-4024-a1a1-2895f5dd7cac","resource":{"resourceType":"MedicationRequest","id":"78ec9bd7-2861-4024-a1a1-2895f5dd7cac","meta":{"profile":["http://hl7.org/fhir/us/qicore/StructureDefinition/qicore-medicationnotrequested"]},"status":"completed","intent":"order","doNotPerform":true,"medicationCodeableConcept":{"coding":[{"system":"http://www.nlm.nih.gov/research/umls/rxnorm","version":"08072023","code":"1999033","display":"24 HR metoprolol succinate 200 MG Extended Release Oral Capsule"}]},"subject":{"reference":"Patient/07efd4bb-b45d-4bfd-aeb2-08de49742d91"},"authoredOn":"2026-07-20T12:15:00.000+00:00","requester":{"reference":"Practitioner/c7d607c3-a181-447f-878f-427221fe20da"},"reasonCode":[{"coding":[{"system":"http://snomed.info/sct","version":"http://snomed.info/sct/731000124108/version/20230301","code":"406149000","display":"Medication declined (situation)"}]}]},"request":{"method":"PUT","url":"MedicationRequest/78ec9bd7-2861-4024-a1a1-2895f5dd7cac"}},{"fullUrl":"https://madie.cms.gov/Practitioner/c7d607c3-a181-447f-878f-427221fe20da","resource":{"resourceType":"Practitioner","id":"c7d607c3-a181-447f-878f-427221fe20da","meta":{"profile":["http://hl7.org/fhir/us/qicore/StructureDefinition/qicore-practitioner"]},"identifier":[{"use":"temp","system":"urn:oid:2.16.840.1.113883.4.336","value":"Practitioner-45"}],"active":true,"name":[{"family":"Strangelove","given":["Adam"],"prefix":["Dr"]}],"qualification":[{"identifier":[{"system":"http://example.org/UniversityIdentifier","value":"12345"}],"code":{"coding":[{"system":"http://terminology.hl7.org/CodeSystem/v2-0360|2.7","code":"BS","display":"Bachelor of Science"}],"text":"Bachelor of Science"},"period":{"start":"1996"},"issuer":{"display":"Example University"}}]},"request":{"method":"PUT","url":"Practitioner/c7d607c3-a181-447f-878f-427221fe20da"}},{"fullUrl":"https://madie.cms.gov/Condition/34f590f6-95f4-413b-a6a9-14dfb0058e71","resource":{"resourceType":"Condition","id":"34f590f6-95f4-413b-a6a9-14dfb0058e71","meta":{"profile":["http://hl7.org/fhir/us/qicore/StructureDefinition/qicore-condition-problems-health-concerns"]},"clinicalStatus":{"coding":[{"system":"http://terminology.hl7.org/CodeSystem/condition-clinical","code":"active","display":"Active"}]},"verificationStatus":{"coding":[{"system":"http://terminology.hl7.org/CodeSystem/condition-ver-status","code":"confirmed","display":"Confirmed"}]},"category":[{"coding":[{"system":"http://terminology.hl7.org/CodeSystem/condition-category","code":"problem-list-item","display":"Problem List Item"}]}],"code":{"coding":[{"system":"http://hl7.org/fhir/sid/icd-10-cm","version":"2024","code":"I11.0"}]},"subject":{"reference":"Patient/07efd4bb-b45d-4bfd-aeb2-08de49742d91"},"onsetPeriod":{"start":"2026-04-11T10:00:00.000+00:00"}},"request":{"method":"PUT","url":"Condition/34f590f6-95f4-413b-a6a9-14dfb0058e71"}},{"fullUrl":"https://madie.cms.gov/Condition/6a37008b-a14f-4d80-ad6f-5d7c1a67609f","resource":{"resourceType":"Condition","id":"6a37008b-a14f-4d80-ad6f-5d7c1a67609f","meta":{"profile":["http://hl7.org/fhir/us/qicore/StructureDefinition/qicore-condition-problems-health-concerns"]},"clinicalStatus":{"coding":[{"system":"http://terminology.hl7.org/CodeSystem/condition-clinical","code":"active","display":"Active"}]},"verificationStatus":{"coding":[{"system":"http://terminology.hl7.org/CodeSystem/condition-ver-status","code":"confirmed","display":"Confirmed"}]},"category":[{"coding":[{"system":"http://terminology.hl7.org/CodeSystem/condition-category","code":"problem-list-item","display":"Problem List Item"}]}],"severity":{"coding":[{"system":"http://snomed.info/sct","version":"http://snomed.info/sct/731000124108/version/20240301","code":"24484000","display":"Severe (severity modifier) (qualifier value)"}]},"code":{"coding":[{"system":"http://snomed.info/sct","version":"http://snomed.info/sct/731000124108/version/20240301","code":"134401001","display":"Left ventricular systolic dysfunction (disorder)"}]},"subject":{"reference":"Patient/07efd4bb-b45d-4bfd-aeb2-08de49742d91"},"onsetPeriod":{"start":"2026-04-14T14:41:00.000+00:00"}},"request":{"method":"PUT","url":"Condition/6a37008b-a14f-4d80-ad6f-5d7c1a67609f"}},{"fullUrl":"https://madie.cms.gov/MeasureReport/70793c0f-8485-42b4-8ccb-2a0b93a8dd6e","resource":{"resourceType":"MeasureReport","id":"70793c0f-8485-42b4-8ccb-2a0b93a8dd6e","meta":{"profile":["http://hl7.org/fhir/us/cqfmeasures/StructureDefinition/test-case-cqfm"]},"contained":[{"resourceType":"Parameters","id":"e3efdb42-7e2e-4e84-bd8a-3e6d650a259d-parameters","parameter":[{"name":"subject","valueString":"07efd4bb-b45d-4bfd-aeb2-08de49742d91"}]}],"extension":[{"url":"http://hl7.org/fhir/StructureDefinition/cqf-inputParameters","valueReference":{"reference":"#e3efdb42-7e2e-4e84-bd8a-3e6d650a259d-parameters"}},{"url":"http://hl7.org/fhir/us/cqfmeasures/StructureDefinition/cqfm-testCaseDescription","valueMarkdown":"Beta Blocker was not ordered for LVSD Patient for Patient Reasons. Note: Denominator Exception deselected for now due to negation issue."}],"modifierExtension":[{"url":"http://hl7.org/fhir/us/cqfmeasures/StructureDefinition/cqfm-isTestCase","valueBoolean":true}],"status":"complete","type":"individual","measure":"https://madie.cms.gov/Measure/CMS144FHIRHFBetaBlockerTherapyforLVSD","period":{"start":"2026-01-01","end":"2026-12-31"},"group":[{"id":"Group_1","population":[{"id":"InitialPopulation_1","code":{"coding":[{"system":"http://terminology.hl7.org/CodeSystem/measure-population","code":"initial-population","display":"Initial Population"}]},"count":1},{"id":"Denominator_1","code":{"coding":[{"system":"http://terminology.hl7.org/CodeSystem/measure-population","code":"denominator","display":"Denominator"}]},"count":1},{"id":"DenominatorExclusion_1","code":{"coding":[{"system":"http://terminology.hl7.org/CodeSystem/measure-population","code":"denominator-exclusion","display":"Denominator Exclusion"}]},"count":0},{"id":"Numerator_1","code":{"coding":[{"system":"http://terminology.hl7.org/CodeSystem/measure-population","code":"numerator","display":"Numerator"}]},"count":0},{"id":"DenominatorException_1","code":{"coding":[{"system":"http://terminology.hl7.org/CodeSystem/measure-population","code":"denominator-exception","display":"Denominator Exception"}]},"count":1}],"measureScore":{"value":1.0}}],"evaluatedResource":[{"reference":"Patient/07efd4bb-b45d-4bfd-aeb2-08de49742d91"},{"reference":"Encounter/c1583111-9b81-42f4-a6d5-52d3a91e49bb"},{"reference":"Encounter/b5bad1fb-8caf-4a5f-85a8-b58abba7ef0e"},{"reference":"MedicationRequest/78ec9bd7-2861-4024-a1a1-2895f5dd7cac"},{"reference":"Practitioner/c7d607c3-a181-447f-878f-427221fe20da"},{"reference":"Condition/34f590f6-95f4-413b-a6a9-14dfb0058e71"},{"reference":"Condition/6a37008b-a14f-4d80-ad6f-5d7c1a67609f"}]},"request":{"method":"PUT","url":"MeasureReport/70793c0f-8485-42b4-8ccb-2a0b93a8dd6e"}}]},"request":{"method":"PUT","url":"Bundle/46313213416131"}},{"fullUrl":"Practitioner/c7d607c3-a181-447f-878f-427221fe20da","resource":{"resourceType":"Practitioner","id":"c7d607c3-a181-447f-878f-427221fe20da","meta":{"profile":["http://hl7.org/fhir/us/qicore/StructureDefinition/qicore-practitioner"]},"identifier":[{"use":"temp","system":"urn:oid:2.16.840.1.113883.4.336","value":"Practitioner-45"}],"active":true,"name":[{"family":"Strangelove","given":["Adam"],"prefix":["Dr"]}],"qualification":[{"identifier":[{"system":"http://example.org/UniversityIdentifier","value":"12345"}],"code":{"coding":[{"system":"http://terminology.hl7.org/CodeSystem/v2-0360|2.7","code":"BS","display":"Bachelor of Science"}],"text":"Bachelor of Science"},"period":{"start":"1996"},"issuer":{"display":"Example University"}}]},"request":{"method":"PUT","url":"Practitioner/c7d607c3-a181-447f-878f-427221fe20da"}}]}