{"resourceType":"Bundle","id":"tests-b3faae0f-8dba-49d9-8dd9-94bc8e532753-bundle","type":"transaction","entry":[{"fullUrl":"Bundle/6067461f98086b57ea5ad0c4","resource":{"resourceType":"Bundle","id":"6067461f98086b57ea5ad0c4","type":"transaction","entry":[{"fullUrl":"https://madie.cms.gov/Patient/b3faae0f-8dba-49d9-8dd9-94bc8e532753","resource":{"resourceType":"Patient","id":"b3faae0f-8dba-49d9-8dd9-94bc8e532753","meta":{"profile":["http://hl7.org/fhir/us/qicore/StructureDefinition/qicore-patient"]},"extension":[{"url":"http://hl7.org/fhir/us/core/StructureDefinition/us-core-race","extension":[{"url":"ombCategory","valueCoding":{"system":"urn:oid:2.16.840.1.113883.6.238","code":"1002-5","display":"American Indian or Alaska Native"}},{"url":"text","valueString":"American Indian or Alaska Native"}]},{"url":"http://hl7.org/fhir/us/core/StructureDefinition/us-core-ethnicity","extension":[{"url":"ombCategory","valueCoding":{"system":"urn:oid:2.16.840.1.113883.6.238","code":"2186-5","display":"Not Hispanic or Latino"}},{"url":"text","valueString":"Not Hispanic or Latino"}]}],"identifier":[{"type":{"coding":[{"system":"http://terminology.hl7.org/CodeSystem/v2-0203","code":"MR"}]},"system":"https://bonnie-fhir.healthit.gov/","value":"6067461f98086b57ea5ad0c4"}],"active":true,"name":[{"use":"usual","family":"IPFail","given":["AgeLessThan18NoEncs"]}],"gender":"other","birthDate":"2008-04-17"},"request":{"method":"PUT","url":"Patient/b3faae0f-8dba-49d9-8dd9-94bc8e532753"}},{"fullUrl":"https://madie.cms.gov/Condition/03f2cf59-712e-4c3a-b399-37eec2aa9064","resource":{"resourceType":"Condition","id":"03f2cf59-712e-4c3a-b399-37eec2aa9064","meta":{"profile":["http://hl7.org/fhir/us/qicore/StructureDefinition/qicore-condition-problems-health-concerns"]},"clinicalStatus":{"coding":[{"system":"http://terminology.hl7.org/CodeSystem/condition-clinical","code":"active","display":"Active"}]},"verificationStatus":{"coding":[{"system":"http://terminology.hl7.org/CodeSystem/condition-ver-status","code":"confirmed","display":"Confirmed"}]},"category":[{"coding":[{"system":"http://terminology.hl7.org/CodeSystem/condition-category","code":"problem-list-item","display":"problem list item"}]}],"code":{"coding":[{"system":"http://snomed.info/sct","version":"http://snomed.info/sct/731000124108/version/20240301","code":"10091002","display":"High output heart failure (disorder)"}]},"subject":{"reference":"Patient/b3faae0f-8dba-49d9-8dd9-94bc8e532753"},"onsetPeriod":{"start":"2026-04-18T08:00:00.000+00:00"}},"request":{"method":"PUT","url":"Condition/03f2cf59-712e-4c3a-b399-37eec2aa9064"}},{"fullUrl":"https://madie.cms.gov/MeasureReport/5bbe32eb-8dfb-4a76-b064-ab1fce5d6f45","resource":{"resourceType":"MeasureReport","id":"5bbe32eb-8dfb-4a76-b064-ab1fce5d6f45","meta":{"profile":["http://hl7.org/fhir/us/cqfmeasures/StructureDefinition/test-case-cqfm"]},"contained":[{"resourceType":"Parameters","id":"29f620ea-bfc9-4f76-ae60-ba1bbc8b0dea-parameters","parameter":[{"name":"subject","valueString":"b3faae0f-8dba-49d9-8dd9-94bc8e532753"}]}],"extension":[{"url":"http://hl7.org/fhir/StructureDefinition/cqf-inputParameters","valueReference":{"reference":"#29f620ea-bfc9-4f76-ae60-ba1bbc8b0dea-parameters"}},{"url":"http://hl7.org/fhir/us/cqfmeasures/StructureDefinition/cqfm-testCaseDescription","valueMarkdown":"Patient with age <18 and no encounters reported. Patient not included in initial population due to <18 years and no 2 encounters during measurement period. "}],"modifierExtension":[{"url":"http://hl7.org/fhir/us/cqfmeasures/StructureDefinition/cqfm-isTestCase","valueBoolean":true}],"status":"complete","type":"individual","measure":"https://madie.cms.gov/Measure/CMS144FHIRHFBetaBlockerTherapyforLVSD","period":{"start":"2026-01-01","end":"2026-12-31"},"group":[{"id":"Group_1","population":[{"id":"InitialPopulation_1","code":{"coding":[{"system":"http://terminology.hl7.org/CodeSystem/measure-population","code":"initial-population","display":"Initial Population"}]},"count":0},{"id":"Denominator_1","code":{"coding":[{"system":"http://terminology.hl7.org/CodeSystem/measure-population","code":"denominator","display":"Denominator"}]},"count":0},{"id":"DenominatorExclusion_1","code":{"coding":[{"system":"http://terminology.hl7.org/CodeSystem/measure-population","code":"denominator-exclusion","display":"Denominator Exclusion"}]},"count":0},{"id":"Numerator_1","code":{"coding":[{"system":"http://terminology.hl7.org/CodeSystem/measure-population","code":"numerator","display":"Numerator"}]},"count":0},{"id":"DenominatorException_1","code":{"coding":[{"system":"http://terminology.hl7.org/CodeSystem/measure-population","code":"denominator-exception","display":"Denominator Exception"}]},"count":0}],"measureScore":{"value":1.0}}],"evaluatedResource":[{"reference":"Patient/b3faae0f-8dba-49d9-8dd9-94bc8e532753"},{"reference":"Condition/03f2cf59-712e-4c3a-b399-37eec2aa9064"}]},"request":{"method":"PUT","url":"MeasureReport/5bbe32eb-8dfb-4a76-b064-ab1fce5d6f45"}}]},"request":{"method":"PUT","url":"Bundle/6067461f98086b57ea5ad0c4"}},{"fullUrl":"Patient/b3faae0f-8dba-49d9-8dd9-94bc8e532753","resource":{"resourceType":"Patient","id":"b3faae0f-8dba-49d9-8dd9-94bc8e532753","meta":{"profile":["http://hl7.org/fhir/us/qicore/StructureDefinition/qicore-patient"]},"extension":[{"url":"http://hl7.org/fhir/us/core/StructureDefinition/us-core-race","extension":[{"url":"ombCategory","valueCoding":{"system":"urn:oid:2.16.840.1.113883.6.238","code":"1002-5","display":"American Indian or Alaska Native"}},{"url":"text","valueString":"American Indian or Alaska Native"}]},{"url":"http://hl7.org/fhir/us/core/StructureDefinition/us-core-ethnicity","extension":[{"url":"ombCategory","valueCoding":{"system":"urn:oid:2.16.840.1.113883.6.238","code":"2186-5","display":"Not Hispanic or Latino"}},{"url":"text","valueString":"Not Hispanic or Latino"}]}],"identifier":[{"type":{"coding":[{"system":"http://terminology.hl7.org/CodeSystem/v2-0203","code":"MR"}]},"system":"https://bonnie-fhir.healthit.gov/","value":"6067461f98086b57ea5ad0c4"}],"active":true,"name":[{"use":"usual","family":"IPFail","given":["AgeLessThan18NoEncs"]}],"gender":"other","birthDate":"2008-04-17"},"request":{"method":"PUT","url":"Patient/b3faae0f-8dba-49d9-8dd9-94bc8e532753"}},{"fullUrl":"MeasureReport/5bbe32eb-8dfb-4a76-b064-ab1fce5d6f45","resource":{"resourceType":"MeasureReport","id":"5bbe32eb-8dfb-4a76-b064-ab1fce5d6f45","meta":{"profile":["http://hl7.org/fhir/us/cqfmeasures/StructureDefinition/test-case-cqfm"]},"contained":[{"resourceType":"Parameters","id":"29f620ea-bfc9-4f76-ae60-ba1bbc8b0dea-parameters","parameter":[{"name":"subject","valueString":"b3faae0f-8dba-49d9-8dd9-94bc8e532753"}]}],"extension":[{"url":"http://hl7.org/fhir/StructureDefinition/cqf-inputParameters","valueReference":{"reference":"#29f620ea-bfc9-4f76-ae60-ba1bbc8b0dea-parameters"}},{"url":"http://hl7.org/fhir/us/cqfmeasures/StructureDefinition/cqfm-testCaseDescription","valueMarkdown":"Patient with age <18 and no encounters reported. Patient not included in initial population due to <18 years and no 2 encounters during measurement period. "}],"modifierExtension":[{"url":"http://hl7.org/fhir/us/cqfmeasures/StructureDefinition/cqfm-isTestCase","valueBoolean":true}],"status":"complete","type":"individual","measure":"https://madie.cms.gov/Measure/CMS144FHIRHFBetaBlockerTherapyforLVSD","period":{"start":"2026-01-01","end":"2026-12-31"},"group":[{"id":"Group_1","population":[{"id":"InitialPopulation_1","code":{"coding":[{"system":"http://terminology.hl7.org/CodeSystem/measure-population","code":"initial-population","display":"Initial Population"}]},"count":0},{"id":"Denominator_1","code":{"coding":[{"system":"http://terminology.hl7.org/CodeSystem/measure-population","code":"denominator","display":"Denominator"}]},"count":0},{"id":"DenominatorExclusion_1","code":{"coding":[{"system":"http://terminology.hl7.org/CodeSystem/measure-population","code":"denominator-exclusion","display":"Denominator Exclusion"}]},"count":0},{"id":"Numerator_1","code":{"coding":[{"system":"http://terminology.hl7.org/CodeSystem/measure-population","code":"numerator","display":"Numerator"}]},"count":0},{"id":"DenominatorException_1","code":{"coding":[{"system":"http://terminology.hl7.org/CodeSystem/measure-population","code":"denominator-exception","display":"Denominator Exception"}]},"count":0}],"measureScore":{"value":1.0}}],"evaluatedResource":[{"reference":"Patient/b3faae0f-8dba-49d9-8dd9-94bc8e532753"},{"reference":"Condition/03f2cf59-712e-4c3a-b399-37eec2aa9064"}]},"request":{"method":"PUT","url":"MeasureReport/5bbe32eb-8dfb-4a76-b064-ab1fce5d6f45"}},{"fullUrl":"Condition/03f2cf59-712e-4c3a-b399-37eec2aa9064","resource":{"resourceType":"Condition","id":"03f2cf59-712e-4c3a-b399-37eec2aa9064","meta":{"profile":["http://hl7.org/fhir/us/qicore/StructureDefinition/qicore-condition-problems-health-concerns"]},"clinicalStatus":{"coding":[{"system":"http://terminology.hl7.org/CodeSystem/condition-clinical","code":"active","display":"Active"}]},"verificationStatus":{"coding":[{"system":"http://terminology.hl7.org/CodeSystem/condition-ver-status","code":"confirmed","display":"Confirmed"}]},"category":[{"coding":[{"system":"http://terminology.hl7.org/CodeSystem/condition-category","code":"problem-list-item","display":"problem list item"}]}],"code":{"coding":[{"system":"http://snomed.info/sct","version":"http://snomed.info/sct/731000124108/version/20240301","code":"10091002","display":"High output heart failure (disorder)"}]},"subject":{"reference":"Patient/b3faae0f-8dba-49d9-8dd9-94bc8e532753"},"onsetPeriod":{"start":"2026-04-18T08:00:00.000+00:00"}},"request":{"method":"PUT","url":"Condition/03f2cf59-712e-4c3a-b399-37eec2aa9064"}}]}