{"resourceType":"Bundle","id":"tests-a45954f4-f511-4409-8d7a-6ad606d1e5e2-bundle","type":"transaction","entry":[{"fullUrl":"Encounter/a09f9987-30d8-4ded-a10e-3dff474c2e34","resource":{"resourceType":"Encounter","id":"a09f9987-30d8-4ded-a10e-3dff474c2e34","meta":{"profile":["http://hl7.org/fhir/us/qicore/StructureDefinition/qicore-encounter"]},"status":"finished","class":{"system":"http://terminology.hl7.org/CodeSystem/v3-ActCode","code":"AMB","display":"ambulatory"},"type":[{"coding":[{"system":"http://www.ama-assn.org/go/cpt","version":"2024","code":"99212"}]}],"subject":{"reference":"Patient/a45954f4-f511-4409-8d7a-6ad606d1e5e2"},"period":{"start":"2026-07-20T11:50:00.000+00:00","end":"2026-07-20T11:50:00.000+00:00"},"length":{"value":0,"unit":"days"}},"request":{"method":"PUT","url":"Encounter/a09f9987-30d8-4ded-a10e-3dff474c2e34"}},{"fullUrl":"Condition/05fc9854-7e15-4192-8a9e-4e349d6f985a","resource":{"resourceType":"Condition","id":"05fc9854-7e15-4192-8a9e-4e349d6f985a","meta":{"profile":["http://hl7.org/fhir/us/qicore/StructureDefinition/qicore-condition-problems-health-concerns"]},"clinicalStatus":{"coding":[{"system":"http://terminology.hl7.org/CodeSystem/condition-clinical","code":"active","display":"Active"}]},"verificationStatus":{"coding":[{"system":"http://terminology.hl7.org/CodeSystem/condition-ver-status","code":"confirmed","display":"Confirmed"}]},"category":[{"coding":[{"system":"http://terminology.hl7.org/CodeSystem/condition-category","code":"problem-list-item","display":"Problem List Item"}]}],"code":{"coding":[{"system":"http://hl7.org/fhir/sid/icd-10-cm","version":"2024","code":"I11.0"}]},"subject":{"reference":"Patient/a45954f4-f511-4409-8d7a-6ad606d1e5e2"},"onsetPeriod":{"start":"2026-04-11T10:00:00.000+00:00"}},"request":{"method":"PUT","url":"Condition/05fc9854-7e15-4192-8a9e-4e349d6f985a"}},{"fullUrl":"Condition/8f59e739-bdc0-40a0-8928-8962e914fedd","resource":{"resourceType":"Condition","id":"8f59e739-bdc0-40a0-8928-8962e914fedd","meta":{"profile":["http://hl7.org/fhir/us/qicore/StructureDefinition/qicore-condition-problems-health-concerns"]},"clinicalStatus":{"coding":[{"system":"http://terminology.hl7.org/CodeSystem/condition-clinical","code":"active","display":"Active"}]},"verificationStatus":{"coding":[{"system":"http://terminology.hl7.org/CodeSystem/condition-ver-status","code":"confirmed","display":"Confirmed"}]},"category":[{"coding":[{"system":"http://terminology.hl7.org/CodeSystem/condition-category","code":"problem-list-item","display":"Problem List Item"}]}],"severity":{"coding":[{"system":"http://snomed.info/sct","version":"http://snomed.info/sct/731000124108/version/20240301","code":"24484000","display":"Severe (severity modifier) (qualifier value)"}]},"code":{"coding":[{"system":"http://snomed.info/sct","version":"http://snomed.info/sct/731000124108/version/20240301","code":"134401001","display":"Left ventricular systolic dysfunction (disorder)"}]},"subject":{"reference":"Patient/a45954f4-f511-4409-8d7a-6ad606d1e5e2"},"onsetPeriod":{"start":"2026-04-14T14:41:00.000+00:00"}},"request":{"method":"PUT","url":"Condition/8f59e739-bdc0-40a0-8928-8962e914fedd"}},{"fullUrl":"Patient/a45954f4-f511-4409-8d7a-6ad606d1e5e2","resource":{"resourceType":"Patient","id":"a45954f4-f511-4409-8d7a-6ad606d1e5e2","meta":{"profile":["http://hl7.org/fhir/us/qicore/StructureDefinition/qicore-patient"]},"extension":[{"url":"http://hl7.org/fhir/us/core/StructureDefinition/us-core-race","extension":[{"url":"ombCategory","valueCoding":{"system":"urn:oid:2.16.840.1.113883.6.238","code":"2076-8","display":"Native Hawaiian or Other Pacific Islander"}},{"url":"text","valueString":"Native Hawaiian or Other Pacific Islander"}]},{"url":"http://hl7.org/fhir/us/core/StructureDefinition/us-core-ethnicity","extension":[{"url":"ombCategory","valueCoding":{"system":"urn:oid:2.16.840.1.113883.6.238","code":"2186-5","display":"Not Hispanic or Latino"}},{"url":"text","valueString":"Not Hispanic or Latino"}]}],"identifier":[{"type":{"coding":[{"system":"http://terminology.hl7.org/CodeSystem/v2-0203","code":"MR"}]},"system":"https://bonnie-fhir.healthit.gov/","value":"46431231346541"}],"active":true,"name":[{"use":"usual","family":"DENOMEXCEPPass","given":["AsthmaDxBeforeLastEnc"]}],"gender":"male","birthDate":"1972-12-30"},"request":{"method":"PUT","url":"Patient/a45954f4-f511-4409-8d7a-6ad606d1e5e2"}},{"fullUrl":"Encounter/d989a5d2-9b13-4282-a7b6-9e7e7552eb09","resource":{"resourceType":"Encounter","id":"d989a5d2-9b13-4282-a7b6-9e7e7552eb09","meta":{"profile":["http://hl7.org/fhir/us/qicore/StructureDefinition/qicore-encounter"]},"status":"finished","class":{"system":"http://terminology.hl7.org/CodeSystem/v3-ActCode","code":"AMB","display":"ambulatory"},"type":[{"coding":[{"system":"http://www.ama-assn.org/go/cpt","version":"2024","code":"99213"}]}],"subject":{"reference":"Patient/a45954f4-f511-4409-8d7a-6ad606d1e5e2"},"period":{"start":"2026-04-14T14:40:00.000+00:00","end":"2026-04-14T14:50:00.000+00:00"},"length":{"value":0,"unit":"days"}},"request":{"method":"PUT","url":"Encounter/d989a5d2-9b13-4282-a7b6-9e7e7552eb09"}},{"fullUrl":"MeasureReport/6d4e55a3-83a5-4290-89c7-3b59bf44d9f5","resource":{"resourceType":"MeasureReport","id":"6d4e55a3-83a5-4290-89c7-3b59bf44d9f5","meta":{"profile":["http://hl7.org/fhir/us/cqfmeasures/StructureDefinition/test-case-cqfm"]},"contained":[{"resourceType":"Parameters","id":"73e1baf4-270a-40b1-ad00-25b93fe9e1be-parameters","parameter":[{"name":"subject","valueString":"a45954f4-f511-4409-8d7a-6ad606d1e5e2"}]}],"extension":[{"url":"http://hl7.org/fhir/StructureDefinition/cqf-inputParameters","valueReference":{"reference":"#73e1baf4-270a-40b1-ad00-25b93fe9e1be-parameters"}},{"url":"http://hl7.org/fhir/us/cqfmeasures/StructureDefinition/cqfm-testCaseDescription","valueMarkdown":"Patient qualifies for Denom Exception d/t Asthma diagnosis before Last Encounter"}],"modifierExtension":[{"url":"http://hl7.org/fhir/us/cqfmeasures/StructureDefinition/cqfm-isTestCase","valueBoolean":true}],"status":"complete","type":"individual","measure":"https://madie.cms.gov/Measure/CMS144FHIRHFBetaBlockerTherapyforLVSD","period":{"start":"2026-01-01","end":"2026-12-31"},"group":[{"id":"Group_1","population":[{"id":"InitialPopulation_1","code":{"coding":[{"system":"http://terminology.hl7.org/CodeSystem/measure-population","code":"initial-population","display":"Initial Population"}]},"count":1},{"id":"Denominator_1","code":{"coding":[{"system":"http://terminology.hl7.org/CodeSystem/measure-population","code":"denominator","display":"Denominator"}]},"count":1},{"id":"DenominatorExclusion_1","code":{"coding":[{"system":"http://terminology.hl7.org/CodeSystem/measure-population","code":"denominator-exclusion","display":"Denominator Exclusion"}]},"count":0},{"id":"Numerator_1","code":{"coding":[{"system":"http://terminology.hl7.org/CodeSystem/measure-population","code":"numerator","display":"Numerator"}]},"count":0},{"id":"DenominatorException_1","code":{"coding":[{"system":"http://terminology.hl7.org/CodeSystem/measure-population","code":"denominator-exception","display":"Denominator Exception"}]},"count":1}],"measureScore":{"value":1.0}}],"evaluatedResource":[{"reference":"Patient/a45954f4-f511-4409-8d7a-6ad606d1e5e2"},{"reference":"Encounter/d989a5d2-9b13-4282-a7b6-9e7e7552eb09"},{"reference":"Encounter/a09f9987-30d8-4ded-a10e-3dff474c2e34"},{"reference":"Condition/05fc9854-7e15-4192-8a9e-4e349d6f985a"},{"reference":"Condition/8f59e739-bdc0-40a0-8928-8962e914fedd"},{"reference":"Condition/b87aa06c-0e49-4fa6-8cb0-3f91cf9cf577"}]},"request":{"method":"PUT","url":"MeasureReport/6d4e55a3-83a5-4290-89c7-3b59bf44d9f5"}},{"fullUrl":"Bundle/46313213416131","resource":{"resourceType":"Bundle","id":"46313213416131","type":"transaction","entry":[{"fullUrl":"https://madie.cms.gov/Patient/a45954f4-f511-4409-8d7a-6ad606d1e5e2","resource":{"resourceType":"Patient","id":"a45954f4-f511-4409-8d7a-6ad606d1e5e2","meta":{"profile":["http://hl7.org/fhir/us/qicore/StructureDefinition/qicore-patient"]},"extension":[{"url":"http://hl7.org/fhir/us/core/StructureDefinition/us-core-race","extension":[{"url":"ombCategory","valueCoding":{"system":"urn:oid:2.16.840.1.113883.6.238","code":"2076-8","display":"Native Hawaiian or Other Pacific Islander"}},{"url":"text","valueString":"Native Hawaiian or Other Pacific Islander"}]},{"url":"http://hl7.org/fhir/us/core/StructureDefinition/us-core-ethnicity","extension":[{"url":"ombCategory","valueCoding":{"system":"urn:oid:2.16.840.1.113883.6.238","code":"2186-5","display":"Not Hispanic or Latino"}},{"url":"text","valueString":"Not Hispanic or Latino"}]}],"identifier":[{"type":{"coding":[{"system":"http://terminology.hl7.org/CodeSystem/v2-0203","code":"MR"}]},"system":"https://bonnie-fhir.healthit.gov/","value":"46431231346541"}],"active":true,"name":[{"use":"usual","family":"DENOMEXCEPPass","given":["AsthmaDxBeforeLastEnc"]}],"gender":"male","birthDate":"1972-12-30"},"request":{"method":"PUT","url":"Patient/a45954f4-f511-4409-8d7a-6ad606d1e5e2"}},{"fullUrl":"https://madie.cms.gov/Encounter/d989a5d2-9b13-4282-a7b6-9e7e7552eb09","resource":{"resourceType":"Encounter","id":"d989a5d2-9b13-4282-a7b6-9e7e7552eb09","meta":{"profile":["http://hl7.org/fhir/us/qicore/StructureDefinition/qicore-encounter"]},"status":"finished","class":{"system":"http://terminology.hl7.org/CodeSystem/v3-ActCode","code":"AMB","display":"ambulatory"},"type":[{"coding":[{"system":"http://www.ama-assn.org/go/cpt","version":"2024","code":"99213"}]}],"subject":{"reference":"Patient/a45954f4-f511-4409-8d7a-6ad606d1e5e2"},"period":{"start":"2026-04-14T14:40:00.000+00:00","end":"2026-04-14T14:50:00.000+00:00"},"length":{"value":0,"unit":"days"}},"request":{"method":"PUT","url":"Encounter/d989a5d2-9b13-4282-a7b6-9e7e7552eb09"}},{"fullUrl":"https://madie.cms.gov/Encounter/a09f9987-30d8-4ded-a10e-3dff474c2e34","resource":{"resourceType":"Encounter","id":"a09f9987-30d8-4ded-a10e-3dff474c2e34","meta":{"profile":["http://hl7.org/fhir/us/qicore/StructureDefinition/qicore-encounter"]},"status":"finished","class":{"system":"http://terminology.hl7.org/CodeSystem/v3-ActCode","code":"AMB","display":"ambulatory"},"type":[{"coding":[{"system":"http://www.ama-assn.org/go/cpt","version":"2024","code":"99212"}]}],"subject":{"reference":"Patient/a45954f4-f511-4409-8d7a-6ad606d1e5e2"},"period":{"start":"2026-07-20T11:50:00.000+00:00","end":"2026-07-20T11:50:00.000+00:00"},"length":{"value":0,"unit":"days"}},"request":{"method":"PUT","url":"Encounter/a09f9987-30d8-4ded-a10e-3dff474c2e34"}},{"fullUrl":"https://madie.cms.gov/Condition/05fc9854-7e15-4192-8a9e-4e349d6f985a","resource":{"resourceType":"Condition","id":"05fc9854-7e15-4192-8a9e-4e349d6f985a","meta":{"profile":["http://hl7.org/fhir/us/qicore/StructureDefinition/qicore-condition-problems-health-concerns"]},"clinicalStatus":{"coding":[{"system":"http://terminology.hl7.org/CodeSystem/condition-clinical","code":"active","display":"Active"}]},"verificationStatus":{"coding":[{"system":"http://terminology.hl7.org/CodeSystem/condition-ver-status","code":"confirmed","display":"Confirmed"}]},"category":[{"coding":[{"system":"http://terminology.hl7.org/CodeSystem/condition-category","code":"problem-list-item","display":"Problem List Item"}]}],"code":{"coding":[{"system":"http://hl7.org/fhir/sid/icd-10-cm","version":"2024","code":"I11.0"}]},"subject":{"reference":"Patient/a45954f4-f511-4409-8d7a-6ad606d1e5e2"},"onsetPeriod":{"start":"2026-04-11T10:00:00.000+00:00"}},"request":{"method":"PUT","url":"Condition/05fc9854-7e15-4192-8a9e-4e349d6f985a"}},{"fullUrl":"https://madie.cms.gov/Condition/8f59e739-bdc0-40a0-8928-8962e914fedd","resource":{"resourceType":"Condition","id":"8f59e739-bdc0-40a0-8928-8962e914fedd","meta":{"profile":["http://hl7.org/fhir/us/qicore/StructureDefinition/qicore-condition-problems-health-concerns"]},"clinicalStatus":{"coding":[{"system":"http://terminology.hl7.org/CodeSystem/condition-clinical","code":"active","display":"Active"}]},"verificationStatus":{"coding":[{"system":"http://terminology.hl7.org/CodeSystem/condition-ver-status","code":"confirmed","display":"Confirmed"}]},"category":[{"coding":[{"system":"http://terminology.hl7.org/CodeSystem/condition-category","code":"problem-list-item","display":"Problem List Item"}]}],"severity":{"coding":[{"system":"http://snomed.info/sct","version":"http://snomed.info/sct/731000124108/version/20240301","code":"24484000","display":"Severe (severity modifier) (qualifier value)"}]},"code":{"coding":[{"system":"http://snomed.info/sct","version":"http://snomed.info/sct/731000124108/version/20240301","code":"134401001","display":"Left ventricular systolic dysfunction (disorder)"}]},"subject":{"reference":"Patient/a45954f4-f511-4409-8d7a-6ad606d1e5e2"},"onsetPeriod":{"start":"2026-04-14T14:41:00.000+00:00"}},"request":{"method":"PUT","url":"Condition/8f59e739-bdc0-40a0-8928-8962e914fedd"}},{"fullUrl":"https://madie.cms.gov/Condition/b87aa06c-0e49-4fa6-8cb0-3f91cf9cf577","resource":{"resourceType":"Condition","id":"b87aa06c-0e49-4fa6-8cb0-3f91cf9cf577","meta":{"profile":["http://hl7.org/fhir/us/qicore/StructureDefinition/qicore-condition-problems-health-concerns"]},"clinicalStatus":{"coding":[{"system":"http://terminology.hl7.org/CodeSystem/condition-clinical","code":"active","display":"Active"}]},"verificationStatus":{"coding":[{"system":"http://terminology.hl7.org/CodeSystem/condition-ver-status","code":"confirmed","display":"Confirmed"}]},"category":[{"coding":[{"system":"http://terminology.hl7.org/CodeSystem/condition-category","code":"problem-list-item","display":"Problem List Item"}]}],"code":{"coding":[{"system":"http://snomed.info/sct","version":"http://snomed.info/sct/731000124108/version/20240301","code":"233679003","display":"Late onset asthma (disorder)"}]},"subject":{"reference":"Patient/a45954f4-f511-4409-8d7a-6ad606d1e5e2"},"onsetPeriod":{"start":"2026-01-20T14:32:00.000+00:00"}},"request":{"method":"PUT","url":"Condition/b87aa06c-0e49-4fa6-8cb0-3f91cf9cf577"}},{"fullUrl":"https://madie.cms.gov/MeasureReport/6d4e55a3-83a5-4290-89c7-3b59bf44d9f5","resource":{"resourceType":"MeasureReport","id":"6d4e55a3-83a5-4290-89c7-3b59bf44d9f5","meta":{"profile":["http://hl7.org/fhir/us/cqfmeasures/StructureDefinition/test-case-cqfm"]},"contained":[{"resourceType":"Parameters","id":"73e1baf4-270a-40b1-ad00-25b93fe9e1be-parameters","parameter":[{"name":"subject","valueString":"a45954f4-f511-4409-8d7a-6ad606d1e5e2"}]}],"extension":[{"url":"http://hl7.org/fhir/StructureDefinition/cqf-inputParameters","valueReference":{"reference":"#73e1baf4-270a-40b1-ad00-25b93fe9e1be-parameters"}},{"url":"http://hl7.org/fhir/us/cqfmeasures/StructureDefinition/cqfm-testCaseDescription","valueMarkdown":"Patient qualifies for Denom Exception d/t Asthma diagnosis before Last Encounter"}],"modifierExtension":[{"url":"http://hl7.org/fhir/us/cqfmeasures/StructureDefinition/cqfm-isTestCase","valueBoolean":true}],"status":"complete","type":"individual","measure":"https://madie.cms.gov/Measure/CMS144FHIRHFBetaBlockerTherapyforLVSD","period":{"start":"2026-01-01","end":"2026-12-31"},"group":[{"id":"Group_1","population":[{"id":"InitialPopulation_1","code":{"coding":[{"system":"http://terminology.hl7.org/CodeSystem/measure-population","code":"initial-population","display":"Initial Population"}]},"count":1},{"id":"Denominator_1","code":{"coding":[{"system":"http://terminology.hl7.org/CodeSystem/measure-population","code":"denominator","display":"Denominator"}]},"count":1},{"id":"DenominatorExclusion_1","code":{"coding":[{"system":"http://terminology.hl7.org/CodeSystem/measure-population","code":"denominator-exclusion","display":"Denominator Exclusion"}]},"count":0},{"id":"Numerator_1","code":{"coding":[{"system":"http://terminology.hl7.org/CodeSystem/measure-population","code":"numerator","display":"Numerator"}]},"count":0},{"id":"DenominatorException_1","code":{"coding":[{"system":"http://terminology.hl7.org/CodeSystem/measure-population","code":"denominator-exception","display":"Denominator Exception"}]},"count":1}],"measureScore":{"value":1.0}}],"evaluatedResource":[{"reference":"Patient/a45954f4-f511-4409-8d7a-6ad606d1e5e2"},{"reference":"Encounter/d989a5d2-9b13-4282-a7b6-9e7e7552eb09"},{"reference":"Encounter/a09f9987-30d8-4ded-a10e-3dff474c2e34"},{"reference":"Condition/05fc9854-7e15-4192-8a9e-4e349d6f985a"},{"reference":"Condition/8f59e739-bdc0-40a0-8928-8962e914fedd"},{"reference":"Condition/b87aa06c-0e49-4fa6-8cb0-3f91cf9cf577"}]},"request":{"method":"PUT","url":"MeasureReport/6d4e55a3-83a5-4290-89c7-3b59bf44d9f5"}}]},"request":{"method":"PUT","url":"Bundle/46313213416131"}},{"fullUrl":"Condition/b87aa06c-0e49-4fa6-8cb0-3f91cf9cf577","resource":{"resourceType":"Condition","id":"b87aa06c-0e49-4fa6-8cb0-3f91cf9cf577","meta":{"profile":["http://hl7.org/fhir/us/qicore/StructureDefinition/qicore-condition-problems-health-concerns"]},"clinicalStatus":{"coding":[{"system":"http://terminology.hl7.org/CodeSystem/condition-clinical","code":"active","display":"Active"}]},"verificationStatus":{"coding":[{"system":"http://terminology.hl7.org/CodeSystem/condition-ver-status","code":"confirmed","display":"Confirmed"}]},"category":[{"coding":[{"system":"http://terminology.hl7.org/CodeSystem/condition-category","code":"problem-list-item","display":"Problem List Item"}]}],"code":{"coding":[{"system":"http://snomed.info/sct","version":"http://snomed.info/sct/731000124108/version/20240301","code":"233679003","display":"Late onset asthma (disorder)"}]},"subject":{"reference":"Patient/a45954f4-f511-4409-8d7a-6ad606d1e5e2"},"onsetPeriod":{"start":"2026-01-20T14:32:00.000+00:00"}},"request":{"method":"PUT","url":"Condition/b87aa06c-0e49-4fa6-8cb0-3f91cf9cf577"}}]}