{"resourceType":"Bundle","id":"tests-8c717fb3-e820-44c6-b4ef-e9a7f46cd85b-bundle","type":"transaction","entry":[{"resource":{"resourceType":"Observation","id":"c70a9941-f4aa-41cd-a251-df74d8910510","meta":{"profile":["http://hl7.org/fhir/us/core/StructureDefinition/us-core-heart-rate"]},"status":"final","category":[{"coding":[{"system":"http://terminology.hl7.org/CodeSystem/observation-category","code":"imaging","display":"Imaging"}]},{"coding":[{"system":"http://terminology.hl7.org/CodeSystem/observation-category","code":"vital-signs","display":"Vital signs"}]}],"code":{"coding":[{"system":"http://loinc.org","version":"2.76","code":"8867-4"}]},"subject":{"reference":"Patient/8c717fb3-e820-44c6-b4ef-e9a7f46cd85b"},"effectiveDateTime":"2026-09-05T15:35:00.000+00:00","valueQuantity":{"value":30,"unit":"/min","system":"http://unitsofmeasure.org","code":"/min"}},"request":{"method":"PUT","url":"Observation/c70a9941-f4aa-41cd-a251-df74d8910510"}},{"resource":{"resourceType":"Condition","id":"6d7f02af-88d5-49ac-8edf-ebe21136db3d","meta":{"profile":["http://hl7.org/fhir/us/qicore/StructureDefinition/qicore-condition-problems-health-concerns"]},"clinicalStatus":{"coding":[{"system":"http://terminology.hl7.org/CodeSystem/condition-clinical","code":"active","display":"active"}]},"verificationStatus":{"coding":[{"system":"http://terminology.hl7.org/CodeSystem/condition-ver-status","code":"confirmed","display":"Confirmed"}]},"category":[{"coding":[{"system":"http://terminology.hl7.org/CodeSystem/condition-category","code":"problem-list-item","display":"problem list item"}]}],"severity":{"coding":[{"system":"http://snomed.info/sct","version":"http://snomed.info/sct/731000124108/version/20240301","code":"24484000","display":"Severe (severity modifier) (qualifier value)"}]},"code":{"coding":[{"system":"http://snomed.info/sct","version":"http://snomed.info/sct/731000124108/version/20240301","code":"134401001","display":"Left ventricular systolic dysfunction (disorder)"}]},"subject":{"reference":"Patient/8c717fb3-e820-44c6-b4ef-e9a7f46cd85b"},"onsetPeriod":{"start":"2026-08-11T23:50:00.000+00:00"}},"request":{"method":"PUT","url":"Condition/6d7f02af-88d5-49ac-8edf-ebe21136db3d"}},{"resource":{"resourceType":"Encounter","id":"a5060f7d-b81d-48bd-9b2a-510690a5ebe6","meta":{"profile":["http://hl7.org/fhir/us/qicore/StructureDefinition/qicore-encounter"]},"status":"finished","class":{"system":"http://terminology.hl7.org/CodeSystem/v3-ActCode","code":"AMB","display":"ambulatory"},"type":[{"coding":[{"system":"http://www.ama-assn.org/go/cpt","version":"2024","code":"99213"}]}],"subject":{"reference":"Patient/8c717fb3-e820-44c6-b4ef-e9a7f46cd85b"},"period":{"start":"2026-05-25T14:20:00.000+00:00","end":"2026-05-25T14:40:00.000+00:00"}},"request":{"method":"PUT","url":"Encounter/a5060f7d-b81d-48bd-9b2a-510690a5ebe6"}},{"resource":{"resourceType":"Observation","id":"7984205d-f460-4b44-9c6e-509907c8522b","meta":{"profile":["http://hl7.org/fhir/us/core/StructureDefinition/us-core-heart-rate"]},"status":"final","category":[{"coding":[{"system":"http://terminology.hl7.org/CodeSystem/observation-category","code":"imaging","display":"Imaging"}]},{"coding":[{"system":"http://terminology.hl7.org/CodeSystem/observation-category","code":"vital-signs","display":"Vital signs"}]}],"code":{"coding":[{"system":"http://loinc.org","version":"2.76","code":"8867-4"}]},"subject":{"reference":"Patient/8c717fb3-e820-44c6-b4ef-e9a7f46cd85b"},"effectiveDateTime":"2026-09-05T15:40:00.000+00:00","valueQuantity":{"value":30,"unit":"/min","system":"http://unitsofmeasure.org","code":"/min"}},"request":{"method":"PUT","url":"Observation/7984205d-f460-4b44-9c6e-509907c8522b"}},{"resource":{"resourceType":"MeasureReport","id":"e2be9537-e50b-40e3-8d1c-cc8767dbfbd8","meta":{"profile":["http://hl7.org/fhir/us/cqfmeasures/StructureDefinition/test-case-cqfm"]},"contained":[{"resourceType":"Parameters","id":"2ba0766a-a58e-46b2-9cad-f411ecb18363-parameters","parameter":[{"name":"subject","valueString":"8c717fb3-e820-44c6-b4ef-e9a7f46cd85b"}]}],"extension":[{"url":"http://hl7.org/fhir/StructureDefinition/cqf-inputParameters","valueReference":{"reference":"#2ba0766a-a58e-46b2-9cad-f411ecb18363-parameters"}},{"url":"http://hl7.org/fhir/us/cqfmeasures/StructureDefinition/cqfm-testCaseDescription","valueMarkdown":"Patient with arrhythmia starting before last encounter in measurement period. Patient excepted due to arrhythmia diagnosis before last encounter."}],"modifierExtension":[{"url":"http://hl7.org/fhir/us/cqfmeasures/StructureDefinition/cqfm-isTestCase","valueBoolean":true}],"status":"complete","type":"individual","measure":"https://madie.cms.gov/Measure/CMS144FHIRHFBetaBlockerTherapyforLVSD","period":{"start":"2026-01-01","end":"2026-12-31"},"group":[{"id":"Group_1","population":[{"id":"InitialPopulation_1","code":{"coding":[{"system":"http://terminology.hl7.org/CodeSystem/measure-population","code":"initial-population","display":"Initial Population"}]},"count":1},{"id":"Denominator_1","code":{"coding":[{"system":"http://terminology.hl7.org/CodeSystem/measure-population","code":"denominator","display":"Denominator"}]},"count":1},{"id":"DenominatorExclusion_1","code":{"coding":[{"system":"http://terminology.hl7.org/CodeSystem/measure-population","code":"denominator-exclusion","display":"Denominator Exclusion"}]},"count":0},{"id":"Numerator_1","code":{"coding":[{"system":"http://terminology.hl7.org/CodeSystem/measure-population","code":"numerator","display":"Numerator"}]},"count":0},{"id":"DenominatorException_1","code":{"coding":[{"system":"http://terminology.hl7.org/CodeSystem/measure-population","code":"denominator-exception","display":"Denominator Exception"}]},"count":1}],"measureScore":{"value":1.0}}],"evaluatedResource":[{"reference":"Patient/8c717fb3-e820-44c6-b4ef-e9a7f46cd85b"},{"reference":"Encounter/a5060f7d-b81d-48bd-9b2a-510690a5ebe6"},{"reference":"Encounter/6e0a7903-fc5f-42fb-bdd2-9b4f01047fde"},{"reference":"Condition/cb0be2be-3834-4d3b-8164-c3aa98cd82b3"},{"reference":"Condition/6d7f02af-88d5-49ac-8edf-ebe21136db3d"},{"reference":"Observation/7984205d-f460-4b44-9c6e-509907c8522b"},{"reference":"Condition/624fbf6a-942f-4ccb-8c5f-e3716d6f3194"},{"reference":"Observation/c70a9941-f4aa-41cd-a251-df74d8910510"}]},"request":{"method":"PUT","url":"MeasureReport/e2be9537-e50b-40e3-8d1c-cc8767dbfbd8"}},{"resource":{"resourceType":"Bundle","id":"964313131","type":"transaction","entry":[{"fullUrl":"https://madie.cms.gov/Patient/8c717fb3-e820-44c6-b4ef-e9a7f46cd85b","resource":{"resourceType":"Patient","id":"8c717fb3-e820-44c6-b4ef-e9a7f46cd85b","meta":{"profile":["http://hl7.org/fhir/us/qicore/StructureDefinition/qicore-patient"]},"extension":[{"url":"http://hl7.org/fhir/us/core/StructureDefinition/us-core-race","extension":[{"url":"ombCategory","valueCoding":{"system":"urn:oid:2.16.840.1.113883.6.238","code":"2054-5","display":"Black or African American"}},{"url":"text","valueString":"Black or African American"}]},{"url":"http://hl7.org/fhir/us/core/StructureDefinition/us-core-ethnicity","extension":[{"url":"ombCategory","valueCoding":{"system":"urn:oid:2.16.840.1.113883.6.238","code":"2186-5","display":"Not Hispanic or Latino"}},{"url":"text","valueString":"Not Hispanic or Latino"}]}],"identifier":[{"type":{"coding":[{"system":"http://terminology.hl7.org/CodeSystem/v2-0203","code":"MR"}]},"system":"https://bonnie-fhir.healthit.gov/","value":"1351313131"}],"active":true,"name":[{"use":"usual","family":"DENEXCEPPass","given":["ArrhythmiaDxBeforeLastEnc"]}],"gender":"male","birthDate":"1948-02-03"},"request":{"method":"PUT","url":"Patient/8c717fb3-e820-44c6-b4ef-e9a7f46cd85b"}},{"fullUrl":"https://madie.cms.gov/Encounter/a5060f7d-b81d-48bd-9b2a-510690a5ebe6","resource":{"resourceType":"Encounter","id":"a5060f7d-b81d-48bd-9b2a-510690a5ebe6","meta":{"profile":["http://hl7.org/fhir/us/qicore/StructureDefinition/qicore-encounter"]},"status":"finished","class":{"system":"http://terminology.hl7.org/CodeSystem/v3-ActCode","code":"AMB","display":"ambulatory"},"type":[{"coding":[{"system":"http://www.ama-assn.org/go/cpt","version":"2024","code":"99213"}]}],"subject":{"reference":"Patient/8c717fb3-e820-44c6-b4ef-e9a7f46cd85b"},"period":{"start":"2026-05-25T14:20:00.000+00:00","end":"2026-05-25T14:40:00.000+00:00"}},"request":{"method":"PUT","url":"Encounter/a5060f7d-b81d-48bd-9b2a-510690a5ebe6"}},{"fullUrl":"https://madie.cms.gov/Encounter/6e0a7903-fc5f-42fb-bdd2-9b4f01047fde","resource":{"resourceType":"Encounter","id":"6e0a7903-fc5f-42fb-bdd2-9b4f01047fde","meta":{"profile":["http://hl7.org/fhir/us/qicore/StructureDefinition/qicore-encounter"]},"status":"finished","class":{"system":"http://terminology.hl7.org/CodeSystem/v3-ActCode","code":"AMB","display":"ambulatory"},"type":[{"coding":[{"system":"http://www.ama-assn.org/go/cpt","version":"2024","code":"99212"}]}],"subject":{"reference":"Patient/8c717fb3-e820-44c6-b4ef-e9a7f46cd85b"},"period":{"start":"2026-09-05T15:30:00.000+00:00","end":"2026-09-05T15:50:00.000+00:00"}},"request":{"method":"PUT","url":"Encounter/6e0a7903-fc5f-42fb-bdd2-9b4f01047fde"}},{"fullUrl":"https://madie.cms.gov/Condition/cb0be2be-3834-4d3b-8164-c3aa98cd82b3","resource":{"resourceType":"Condition","id":"cb0be2be-3834-4d3b-8164-c3aa98cd82b3","meta":{"profile":["http://hl7.org/fhir/us/qicore/StructureDefinition/qicore-condition-problems-health-concerns"]},"clinicalStatus":{"coding":[{"system":"http://terminology.hl7.org/CodeSystem/condition-clinical","code":"active","display":"active"}]},"verificationStatus":{"coding":[{"system":"http://terminology.hl7.org/CodeSystem/condition-ver-status","code":"confirmed","display":"Confirmed"}]},"category":[{"coding":[{"system":"http://terminology.hl7.org/CodeSystem/condition-category","code":"problem-list-item","display":"problem list item"}]}],"code":{"coding":[{"system":"http://snomed.info/sct","version":"http://snomed.info/sct/731000124108/version/20240301","code":"364006"}]},"subject":{"reference":"Patient/8c717fb3-e820-44c6-b4ef-e9a7f46cd85b"},"onsetPeriod":{"start":"2026-06-27T10:00:00.000+00:00"}},"request":{"method":"PUT","url":"Condition/cb0be2be-3834-4d3b-8164-c3aa98cd82b3"}},{"fullUrl":"https://madie.cms.gov/Condition/6d7f02af-88d5-49ac-8edf-ebe21136db3d","resource":{"resourceType":"Condition","id":"6d7f02af-88d5-49ac-8edf-ebe21136db3d","meta":{"profile":["http://hl7.org/fhir/us/qicore/StructureDefinition/qicore-condition-problems-health-concerns"]},"clinicalStatus":{"coding":[{"system":"http://terminology.hl7.org/CodeSystem/condition-clinical","code":"active","display":"active"}]},"verificationStatus":{"coding":[{"system":"http://terminology.hl7.org/CodeSystem/condition-ver-status","code":"confirmed","display":"Confirmed"}]},"category":[{"coding":[{"system":"http://terminology.hl7.org/CodeSystem/condition-category","code":"problem-list-item","display":"problem list item"}]}],"severity":{"coding":[{"system":"http://snomed.info/sct","version":"http://snomed.info/sct/731000124108/version/20240301","code":"24484000","display":"Severe (severity modifier) (qualifier value)"}]},"code":{"coding":[{"system":"http://snomed.info/sct","version":"http://snomed.info/sct/731000124108/version/20240301","code":"134401001","display":"Left ventricular systolic dysfunction (disorder)"}]},"subject":{"reference":"Patient/8c717fb3-e820-44c6-b4ef-e9a7f46cd85b"},"onsetPeriod":{"start":"2026-08-11T23:50:00.000+00:00"}},"request":{"method":"PUT","url":"Condition/6d7f02af-88d5-49ac-8edf-ebe21136db3d"}},{"fullUrl":"https://madie.cms.gov/Observation/7984205d-f460-4b44-9c6e-509907c8522b","resource":{"resourceType":"Observation","id":"7984205d-f460-4b44-9c6e-509907c8522b","meta":{"profile":["http://hl7.org/fhir/us/core/StructureDefinition/us-core-heart-rate"]},"status":"final","category":[{"coding":[{"system":"http://terminology.hl7.org/CodeSystem/observation-category","code":"imaging","display":"Imaging"}]},{"coding":[{"system":"http://terminology.hl7.org/CodeSystem/observation-category","code":"vital-signs","display":"Vital signs"}]}],"code":{"coding":[{"system":"http://loinc.org","version":"2.76","code":"8867-4"}]},"subject":{"reference":"Patient/8c717fb3-e820-44c6-b4ef-e9a7f46cd85b"},"effectiveDateTime":"2026-09-05T15:40:00.000+00:00","valueQuantity":{"value":30,"unit":"/min","system":"http://unitsofmeasure.org","code":"/min"}},"request":{"method":"PUT","url":"Observation/7984205d-f460-4b44-9c6e-509907c8522b"}},{"fullUrl":"https://madie.cms.gov/Condition/624fbf6a-942f-4ccb-8c5f-e3716d6f3194","resource":{"resourceType":"Condition","id":"624fbf6a-942f-4ccb-8c5f-e3716d6f3194","meta":{"profile":["http://hl7.org/fhir/us/qicore/StructureDefinition/qicore-condition-problems-health-concerns"]},"clinicalStatus":{"coding":[{"system":"http://terminology.hl7.org/CodeSystem/condition-clinical","code":"active","display":"active"}]},"verificationStatus":{"coding":[{"system":"http://terminology.hl7.org/CodeSystem/condition-ver-status","code":"confirmed","display":"Confirmed"}]},"category":[{"coding":[{"system":"http://terminology.hl7.org/CodeSystem/condition-category","code":"problem-list-item","display":"problem list item"}]}],"code":{"coding":[{"system":"http://snomed.info/sct","version":"http://snomed.info/sct/731000124108/version/20240301","code":"11849007","display":"Atrioventricular junctional rhythm (disorder)"}]},"subject":{"reference":"Patient/8c717fb3-e820-44c6-b4ef-e9a7f46cd85b"},"onsetPeriod":{"start":"2026-06-27T10:00:00.000+00:00"}},"request":{"method":"PUT","url":"Condition/624fbf6a-942f-4ccb-8c5f-e3716d6f3194"}},{"fullUrl":"https://madie.cms.gov/Observation/c70a9941-f4aa-41cd-a251-df74d8910510","resource":{"resourceType":"Observation","id":"c70a9941-f4aa-41cd-a251-df74d8910510","meta":{"profile":["http://hl7.org/fhir/us/core/StructureDefinition/us-core-heart-rate"]},"status":"final","category":[{"coding":[{"system":"http://terminology.hl7.org/CodeSystem/observation-category","code":"imaging","display":"Imaging"}]},{"coding":[{"system":"http://terminology.hl7.org/CodeSystem/observation-category","code":"vital-signs","display":"Vital signs"}]}],"code":{"coding":[{"system":"http://loinc.org","version":"2.76","code":"8867-4"}]},"subject":{"reference":"Patient/8c717fb3-e820-44c6-b4ef-e9a7f46cd85b"},"effectiveDateTime":"2026-09-05T15:35:00.000+00:00","valueQuantity":{"value":30,"unit":"/min","system":"http://unitsofmeasure.org","code":"/min"}},"request":{"method":"PUT","url":"Observation/c70a9941-f4aa-41cd-a251-df74d8910510"}},{"fullUrl":"https://madie.cms.gov/MeasureReport/e2be9537-e50b-40e3-8d1c-cc8767dbfbd8","resource":{"resourceType":"MeasureReport","id":"e2be9537-e50b-40e3-8d1c-cc8767dbfbd8","meta":{"profile":["http://hl7.org/fhir/us/cqfmeasures/StructureDefinition/test-case-cqfm"]},"contained":[{"resourceType":"Parameters","id":"2ba0766a-a58e-46b2-9cad-f411ecb18363-parameters","parameter":[{"name":"subject","valueString":"8c717fb3-e820-44c6-b4ef-e9a7f46cd85b"}]}],"extension":[{"url":"http://hl7.org/fhir/StructureDefinition/cqf-inputParameters","valueReference":{"reference":"#2ba0766a-a58e-46b2-9cad-f411ecb18363-parameters"}},{"url":"http://hl7.org/fhir/us/cqfmeasures/StructureDefinition/cqfm-testCaseDescription","valueMarkdown":"Patient with arrhythmia starting before last encounter in measurement period. Patient excepted due to arrhythmia diagnosis before last encounter."}],"modifierExtension":[{"url":"http://hl7.org/fhir/us/cqfmeasures/StructureDefinition/cqfm-isTestCase","valueBoolean":true}],"status":"complete","type":"individual","measure":"https://madie.cms.gov/Measure/CMS144FHIRHFBetaBlockerTherapyforLVSD","period":{"start":"2026-01-01","end":"2026-12-31"},"group":[{"id":"Group_1","population":[{"id":"InitialPopulation_1","code":{"coding":[{"system":"http://terminology.hl7.org/CodeSystem/measure-population","code":"initial-population","display":"Initial Population"}]},"count":1},{"id":"Denominator_1","code":{"coding":[{"system":"http://terminology.hl7.org/CodeSystem/measure-population","code":"denominator","display":"Denominator"}]},"count":1},{"id":"DenominatorExclusion_1","code":{"coding":[{"system":"http://terminology.hl7.org/CodeSystem/measure-population","code":"denominator-exclusion","display":"Denominator Exclusion"}]},"count":0},{"id":"Numerator_1","code":{"coding":[{"system":"http://terminology.hl7.org/CodeSystem/measure-population","code":"numerator","display":"Numerator"}]},"count":0},{"id":"DenominatorException_1","code":{"coding":[{"system":"http://terminology.hl7.org/CodeSystem/measure-population","code":"denominator-exception","display":"Denominator Exception"}]},"count":1}],"measureScore":{"value":1.0}}],"evaluatedResource":[{"reference":"Patient/8c717fb3-e820-44c6-b4ef-e9a7f46cd85b"},{"reference":"Encounter/a5060f7d-b81d-48bd-9b2a-510690a5ebe6"},{"reference":"Encounter/6e0a7903-fc5f-42fb-bdd2-9b4f01047fde"},{"reference":"Condition/cb0be2be-3834-4d3b-8164-c3aa98cd82b3"},{"reference":"Condition/6d7f02af-88d5-49ac-8edf-ebe21136db3d"},{"reference":"Observation/7984205d-f460-4b44-9c6e-509907c8522b"},{"reference":"Condition/624fbf6a-942f-4ccb-8c5f-e3716d6f3194"},{"reference":"Observation/c70a9941-f4aa-41cd-a251-df74d8910510"}]},"request":{"method":"PUT","url":"MeasureReport/e2be9537-e50b-40e3-8d1c-cc8767dbfbd8"}}]},"request":{"method":"PUT","url":"Bundle/964313131"}},{"resource":{"resourceType":"Patient","id":"8c717fb3-e820-44c6-b4ef-e9a7f46cd85b","meta":{"profile":["http://hl7.org/fhir/us/qicore/StructureDefinition/qicore-patient"]},"extension":[{"url":"http://hl7.org/fhir/us/core/StructureDefinition/us-core-race","extension":[{"url":"ombCategory","valueCoding":{"system":"urn:oid:2.16.840.1.113883.6.238","code":"2054-5","display":"Black or African American"}},{"url":"text","valueString":"Black or African American"}]},{"url":"http://hl7.org/fhir/us/core/StructureDefinition/us-core-ethnicity","extension":[{"url":"ombCategory","valueCoding":{"system":"urn:oid:2.16.840.1.113883.6.238","code":"2186-5","display":"Not Hispanic or Latino"}},{"url":"text","valueString":"Not Hispanic or Latino"}]}],"identifier":[{"type":{"coding":[{"system":"http://terminology.hl7.org/CodeSystem/v2-0203","code":"MR"}]},"system":"https://bonnie-fhir.healthit.gov/","value":"1351313131"}],"active":true,"name":[{"use":"usual","family":"DENEXCEPPass","given":["ArrhythmiaDxBeforeLastEnc"]}],"gender":"male","birthDate":"1948-02-03"},"request":{"method":"PUT","url":"Patient/8c717fb3-e820-44c6-b4ef-e9a7f46cd85b"}},{"resource":{"resourceType":"Encounter","id":"6e0a7903-fc5f-42fb-bdd2-9b4f01047fde","meta":{"profile":["http://hl7.org/fhir/us/qicore/StructureDefinition/qicore-encounter"]},"status":"finished","class":{"system":"http://terminology.hl7.org/CodeSystem/v3-ActCode","code":"AMB","display":"ambulatory"},"type":[{"coding":[{"system":"http://www.ama-assn.org/go/cpt","version":"2024","code":"99212"}]}],"subject":{"reference":"Patient/8c717fb3-e820-44c6-b4ef-e9a7f46cd85b"},"period":{"start":"2026-09-05T15:30:00.000+00:00","end":"2026-09-05T15:50:00.000+00:00"}},"request":{"method":"PUT","url":"Encounter/6e0a7903-fc5f-42fb-bdd2-9b4f01047fde"}},{"resource":{"resourceType":"Condition","id":"cb0be2be-3834-4d3b-8164-c3aa98cd82b3","meta":{"profile":["http://hl7.org/fhir/us/qicore/StructureDefinition/qicore-condition-problems-health-concerns"]},"clinicalStatus":{"coding":[{"system":"http://terminology.hl7.org/CodeSystem/condition-clinical","code":"active","display":"active"}]},"verificationStatus":{"coding":[{"system":"http://terminology.hl7.org/CodeSystem/condition-ver-status","code":"confirmed","display":"Confirmed"}]},"category":[{"coding":[{"system":"http://terminology.hl7.org/CodeSystem/condition-category","code":"problem-list-item","display":"problem list item"}]}],"code":{"coding":[{"system":"http://snomed.info/sct","version":"http://snomed.info/sct/731000124108/version/20240301","code":"364006"}]},"subject":{"reference":"Patient/8c717fb3-e820-44c6-b4ef-e9a7f46cd85b"},"onsetPeriod":{"start":"2026-06-27T10:00:00.000+00:00"}},"request":{"method":"PUT","url":"Condition/cb0be2be-3834-4d3b-8164-c3aa98cd82b3"}},{"resource":{"resourceType":"Condition","id":"624fbf6a-942f-4ccb-8c5f-e3716d6f3194","meta":{"profile":["http://hl7.org/fhir/us/qicore/StructureDefinition/qicore-condition-problems-health-concerns"]},"clinicalStatus":{"coding":[{"system":"http://terminology.hl7.org/CodeSystem/condition-clinical","code":"active","display":"active"}]},"verificationStatus":{"coding":[{"system":"http://terminology.hl7.org/CodeSystem/condition-ver-status","code":"confirmed","display":"Confirmed"}]},"category":[{"coding":[{"system":"http://terminology.hl7.org/CodeSystem/condition-category","code":"problem-list-item","display":"problem list item"}]}],"code":{"coding":[{"system":"http://snomed.info/sct","version":"http://snomed.info/sct/731000124108/version/20240301","code":"11849007","display":"Atrioventricular junctional rhythm (disorder)"}]},"subject":{"reference":"Patient/8c717fb3-e820-44c6-b4ef-e9a7f46cd85b"},"onsetPeriod":{"start":"2026-06-27T10:00:00.000+00:00"}},"request":{"method":"PUT","url":"Condition/624fbf6a-942f-4ccb-8c5f-e3716d6f3194"}}]}