{"resourceType":"Bundle","id":"tests-67779bc6-07ee-42cf-8ca7-e71302915dba-bundle","type":"transaction","entry":[{"fullUrl":"Condition/80f3d036-64c3-4409-be77-7432a9bc9c72","resource":{"resourceType":"Condition","id":"80f3d036-64c3-4409-be77-7432a9bc9c72","meta":{"profile":["http://hl7.org/fhir/us/qicore/StructureDefinition/qicore-condition-problems-health-concerns"]},"clinicalStatus":{"coding":[{"system":"http://terminology.hl7.org/CodeSystem/condition-clinical","code":"active","display":"Active"}]},"verificationStatus":{"coding":[{"system":"http://terminology.hl7.org/CodeSystem/condition-ver-status","code":"confirmed","display":"Confirmed"}]},"category":[{"coding":[{"system":"http://terminology.hl7.org/CodeSystem/condition-category","code":"problem-list-item","display":"Problem List Item"}]}],"code":{"coding":[{"system":"http://hl7.org/fhir/sid/icd-10-cm","version":"2024","code":"I11.0"}]},"subject":{"reference":"Patient/67779bc6-07ee-42cf-8ca7-e71302915dba"},"onsetPeriod":{"start":"2026-04-11T10:00:00.000+00:00"}},"request":{"method":"PUT","url":"Condition/80f3d036-64c3-4409-be77-7432a9bc9c72"}},{"fullUrl":"Patient/67779bc6-07ee-42cf-8ca7-e71302915dba","resource":{"resourceType":"Patient","id":"67779bc6-07ee-42cf-8ca7-e71302915dba","meta":{"profile":["http://hl7.org/fhir/us/qicore/StructureDefinition/qicore-patient"]},"extension":[{"url":"http://hl7.org/fhir/us/core/StructureDefinition/us-core-race","extension":[{"url":"ombCategory","valueCoding":{"system":"urn:oid:2.16.840.1.113883.6.238","code":"2106-3","display":"White"}},{"url":"detailed","valueCoding":{"system":"urn:oid:2.16.840.1.113883.6.238","code":"2036-2","display":"Filipino"}},{"url":"text","valueString":"mixed"}]},{"url":"http://hl7.org/fhir/us/core/StructureDefinition/us-core-ethnicity","extension":[{"url":"ombCategory","valueCoding":{"system":"urn:oid:2.16.840.1.113883.6.238","code":"2135-2","display":"Hispanic or Latino"}},{"url":"detailed","valueCoding":{"system":"urn:oid:2.16.840.1.113883.6.238","code":"2148-5","display":"Mexican"}},{"url":"text","valueString":"Hispanic or Latino"}]}],"identifier":[{"type":{"coding":[{"system":"http://terminology.hl7.org/CodeSystem/v2-0203","code":"MR"}]},"system":"https://bonnie-fhir.healthit.gov/","value":"46431231346541"}],"active":true,"name":[{"use":"usual","family":"DENOMEXCEPPass","given":["BetaBlockerNotOrderedMR"]}],"gender":"male","birthDate":"1973-12-13"},"request":{"method":"PUT","url":"Patient/67779bc6-07ee-42cf-8ca7-e71302915dba"}},{"fullUrl":"MeasureReport/0bbef5ad-33bc-48b9-9426-400eeee57967","resource":{"resourceType":"MeasureReport","id":"0bbef5ad-33bc-48b9-9426-400eeee57967","meta":{"profile":["http://hl7.org/fhir/us/cqfmeasures/StructureDefinition/test-case-cqfm"]},"contained":[{"resourceType":"Parameters","id":"ac57f2ca-3ec6-47cc-b94c-c155ee412d75-parameters","parameter":[{"name":"subject","valueString":"67779bc6-07ee-42cf-8ca7-e71302915dba"}]}],"extension":[{"url":"http://hl7.org/fhir/StructureDefinition/cqf-inputParameters","valueReference":{"reference":"#ac57f2ca-3ec6-47cc-b94c-c155ee412d75-parameters"}},{"url":"http://hl7.org/fhir/us/cqfmeasures/StructureDefinition/cqfm-testCaseDescription","valueMarkdown":"BetaBlocker Not orderd for LVSD Patient for Medical Reasons. Note: Denominator Exception deselected for now due to negation issue."}],"modifierExtension":[{"url":"http://hl7.org/fhir/us/cqfmeasures/StructureDefinition/cqfm-isTestCase","valueBoolean":true}],"status":"complete","type":"individual","measure":"https://madie.cms.gov/Measure/CMS144FHIRHFBetaBlockerTherapyforLVSD","period":{"start":"2026-01-01","end":"2026-12-31"},"group":[{"id":"Group_1","population":[{"id":"InitialPopulation_1","code":{"coding":[{"system":"http://terminology.hl7.org/CodeSystem/measure-population","code":"initial-population","display":"Initial Population"}]},"count":1},{"id":"Denominator_1","code":{"coding":[{"system":"http://terminology.hl7.org/CodeSystem/measure-population","code":"denominator","display":"Denominator"}]},"count":1},{"id":"DenominatorExclusion_1","code":{"coding":[{"system":"http://terminology.hl7.org/CodeSystem/measure-population","code":"denominator-exclusion","display":"Denominator Exclusion"}]},"count":0},{"id":"Numerator_1","code":{"coding":[{"system":"http://terminology.hl7.org/CodeSystem/measure-population","code":"numerator","display":"Numerator"}]},"count":0},{"id":"DenominatorException_1","code":{"coding":[{"system":"http://terminology.hl7.org/CodeSystem/measure-population","code":"denominator-exception","display":"Denominator Exception"}]},"count":1}],"measureScore":{"value":1.0}}],"evaluatedResource":[{"reference":"Patient/67779bc6-07ee-42cf-8ca7-e71302915dba"},{"reference":"Encounter/df7b9469-85e5-48e0-8df2-309dcc339f78"},{"reference":"Encounter/a77f5d9d-a0c3-4cae-942b-d77fcb69a0e2"},{"reference":"MedicationRequest/e8c0da8e-ed47-425b-950c-988dc8aac0bc"},{"reference":"Practitioner/6fc42580-f730-4ecc-87fe-0bf1c4ee00b1"},{"reference":"Condition/80f3d036-64c3-4409-be77-7432a9bc9c72"},{"reference":"Condition/97298a99-9589-46aa-a2aa-df3dcc1388bf"}]},"request":{"method":"PUT","url":"MeasureReport/0bbef5ad-33bc-48b9-9426-400eeee57967"}},{"fullUrl":"Condition/97298a99-9589-46aa-a2aa-df3dcc1388bf","resource":{"resourceType":"Condition","id":"97298a99-9589-46aa-a2aa-df3dcc1388bf","meta":{"profile":["http://hl7.org/fhir/us/qicore/StructureDefinition/qicore-condition-problems-health-concerns"]},"clinicalStatus":{"coding":[{"system":"http://terminology.hl7.org/CodeSystem/condition-clinical","code":"active","display":"Active"}]},"verificationStatus":{"coding":[{"system":"http://terminology.hl7.org/CodeSystem/condition-ver-status","code":"confirmed","display":"Confirmed"}]},"category":[{"coding":[{"system":"http://terminology.hl7.org/CodeSystem/condition-category","code":"problem-list-item","display":"Problem List Item"}]}],"severity":{"coding":[{"system":"http://snomed.info/sct","version":"http://snomed.info/sct/731000124108/version/20240301","code":"24484000","display":"Severe (severity modifier) (qualifier value)"}]},"code":{"coding":[{"system":"http://snomed.info/sct","version":"http://snomed.info/sct/731000124108/version/20240301","code":"134401001","display":"Left ventricular systolic dysfunction (disorder)"}]},"subject":{"reference":"Patient/67779bc6-07ee-42cf-8ca7-e71302915dba"},"onsetPeriod":{"start":"2026-04-14T14:41:00.000+00:00"}},"request":{"method":"PUT","url":"Condition/97298a99-9589-46aa-a2aa-df3dcc1388bf"}},{"fullUrl":"Encounter/df7b9469-85e5-48e0-8df2-309dcc339f78","resource":{"resourceType":"Encounter","id":"df7b9469-85e5-48e0-8df2-309dcc339f78","meta":{"profile":["http://hl7.org/fhir/us/qicore/StructureDefinition/qicore-encounter"]},"status":"finished","class":{"system":"http://terminology.hl7.org/CodeSystem/v3-ActCode","code":"AMB","display":"ambulatory"},"type":[{"coding":[{"system":"http://www.ama-assn.org/go/cpt","version":"2024","code":"99213"}]}],"subject":{"reference":"Patient/67779bc6-07ee-42cf-8ca7-e71302915dba"},"period":{"start":"2026-04-14T14:40:00.000+00:00","end":"2026-04-14T14:50:00.000+00:00"},"length":{"value":0,"unit":"days"}},"request":{"method":"PUT","url":"Encounter/df7b9469-85e5-48e0-8df2-309dcc339f78"}},{"fullUrl":"Practitioner/6fc42580-f730-4ecc-87fe-0bf1c4ee00b1","resource":{"resourceType":"Practitioner","id":"6fc42580-f730-4ecc-87fe-0bf1c4ee00b1","meta":{"profile":["http://hl7.org/fhir/us/qicore/StructureDefinition/qicore-practitioner"]},"identifier":[{"use":"temp","system":"urn:oid:2.16.840.1.113883.4.336","value":"Practitioner-45"}],"active":true,"name":[{"family":"Strangelove","given":["Adam"],"prefix":["Dr"]}],"qualification":[{"identifier":[{"system":"http://example.org/UniversityIdentifier","value":"12345"}],"code":{"coding":[{"system":"http://terminology.hl7.org/CodeSystem/v2-0360|2.7","code":"BS","display":"Bachelor of Science"}],"text":"Bachelor of Science"},"period":{"start":"1996"},"issuer":{"display":"Example University"}}]},"request":{"method":"PUT","url":"Practitioner/6fc42580-f730-4ecc-87fe-0bf1c4ee00b1"}},{"fullUrl":"MedicationRequest/e8c0da8e-ed47-425b-950c-988dc8aac0bc","resource":{"resourceType":"MedicationRequest","id":"e8c0da8e-ed47-425b-950c-988dc8aac0bc","meta":{"profile":["http://hl7.org/fhir/us/qicore/StructureDefinition/qicore-medicationnotrequested"]},"status":"completed","intent":"order","doNotPerform":true,"medicationCodeableConcept":{"coding":[{"system":"http://www.nlm.nih.gov/research/umls/rxnorm","version":"08072023","code":"686924","display":"carvedilol 3.125 MG Oral Tablet"}]},"subject":{"reference":"Patient/67779bc6-07ee-42cf-8ca7-e71302915dba"},"authoredOn":"2026-07-20T12:15:00.000+00:00","requester":{"reference":"Practitioner/6fc42580-f730-4ecc-87fe-0bf1c4ee00b1"},"reasonCode":[{"coding":[{"system":"http://snomed.info/sct","version":"http://snomed.info/sct/731000124108/version/20230301","code":"407563006","display":"Treatment not tolerated (situation)"}]}]},"request":{"method":"PUT","url":"MedicationRequest/e8c0da8e-ed47-425b-950c-988dc8aac0bc"}},{"fullUrl":"Encounter/a77f5d9d-a0c3-4cae-942b-d77fcb69a0e2","resource":{"resourceType":"Encounter","id":"a77f5d9d-a0c3-4cae-942b-d77fcb69a0e2","meta":{"profile":["http://hl7.org/fhir/us/qicore/StructureDefinition/qicore-encounter"]},"status":"finished","class":{"system":"http://terminology.hl7.org/CodeSystem/v3-ActCode","code":"AMB","display":"ambulatory"},"type":[{"coding":[{"system":"http://www.ama-assn.org/go/cpt","version":"2024","code":"99212"}]}],"subject":{"reference":"Patient/67779bc6-07ee-42cf-8ca7-e71302915dba"},"period":{"start":"2026-07-20T11:50:00.000+00:00","end":"2026-07-20T12:50:00.000+00:00"},"length":{"value":0,"unit":"days"}},"request":{"method":"PUT","url":"Encounter/a77f5d9d-a0c3-4cae-942b-d77fcb69a0e2"}},{"fullUrl":"Bundle/46313213416131","resource":{"resourceType":"Bundle","id":"46313213416131","type":"transaction","entry":[{"fullUrl":"https://madie.cms.gov/Patient/67779bc6-07ee-42cf-8ca7-e71302915dba","resource":{"resourceType":"Patient","id":"67779bc6-07ee-42cf-8ca7-e71302915dba","meta":{"profile":["http://hl7.org/fhir/us/qicore/StructureDefinition/qicore-patient"]},"extension":[{"url":"http://hl7.org/fhir/us/core/StructureDefinition/us-core-race","extension":[{"url":"ombCategory","valueCoding":{"system":"urn:oid:2.16.840.1.113883.6.238","code":"2106-3","display":"White"}},{"url":"detailed","valueCoding":{"system":"urn:oid:2.16.840.1.113883.6.238","code":"2036-2","display":"Filipino"}},{"url":"text","valueString":"mixed"}]},{"url":"http://hl7.org/fhir/us/core/StructureDefinition/us-core-ethnicity","extension":[{"url":"ombCategory","valueCoding":{"system":"urn:oid:2.16.840.1.113883.6.238","code":"2135-2","display":"Hispanic or Latino"}},{"url":"detailed","valueCoding":{"system":"urn:oid:2.16.840.1.113883.6.238","code":"2148-5","display":"Mexican"}},{"url":"text","valueString":"Hispanic or Latino"}]}],"identifier":[{"type":{"coding":[{"system":"http://terminology.hl7.org/CodeSystem/v2-0203","code":"MR"}]},"system":"https://bonnie-fhir.healthit.gov/","value":"46431231346541"}],"active":true,"name":[{"use":"usual","family":"DENOMEXCEPPass","given":["BetaBlockerNotOrderedMR"]}],"gender":"male","birthDate":"1973-12-13"},"request":{"method":"PUT","url":"Patient/67779bc6-07ee-42cf-8ca7-e71302915dba"}},{"fullUrl":"https://madie.cms.gov/Encounter/df7b9469-85e5-48e0-8df2-309dcc339f78","resource":{"resourceType":"Encounter","id":"df7b9469-85e5-48e0-8df2-309dcc339f78","meta":{"profile":["http://hl7.org/fhir/us/qicore/StructureDefinition/qicore-encounter"]},"status":"finished","class":{"system":"http://terminology.hl7.org/CodeSystem/v3-ActCode","code":"AMB","display":"ambulatory"},"type":[{"coding":[{"system":"http://www.ama-assn.org/go/cpt","version":"2024","code":"99213"}]}],"subject":{"reference":"Patient/67779bc6-07ee-42cf-8ca7-e71302915dba"},"period":{"start":"2026-04-14T14:40:00.000+00:00","end":"2026-04-14T14:50:00.000+00:00"},"length":{"value":0,"unit":"days"}},"request":{"method":"PUT","url":"Encounter/df7b9469-85e5-48e0-8df2-309dcc339f78"}},{"fullUrl":"https://madie.cms.gov/Encounter/a77f5d9d-a0c3-4cae-942b-d77fcb69a0e2","resource":{"resourceType":"Encounter","id":"a77f5d9d-a0c3-4cae-942b-d77fcb69a0e2","meta":{"profile":["http://hl7.org/fhir/us/qicore/StructureDefinition/qicore-encounter"]},"status":"finished","class":{"system":"http://terminology.hl7.org/CodeSystem/v3-ActCode","code":"AMB","display":"ambulatory"},"type":[{"coding":[{"system":"http://www.ama-assn.org/go/cpt","version":"2024","code":"99212"}]}],"subject":{"reference":"Patient/67779bc6-07ee-42cf-8ca7-e71302915dba"},"period":{"start":"2026-07-20T11:50:00.000+00:00","end":"2026-07-20T12:50:00.000+00:00"},"length":{"value":0,"unit":"days"}},"request":{"method":"PUT","url":"Encounter/a77f5d9d-a0c3-4cae-942b-d77fcb69a0e2"}},{"fullUrl":"https://madie.cms.gov/MedicationRequest/e8c0da8e-ed47-425b-950c-988dc8aac0bc","resource":{"resourceType":"MedicationRequest","id":"e8c0da8e-ed47-425b-950c-988dc8aac0bc","meta":{"profile":["http://hl7.org/fhir/us/qicore/StructureDefinition/qicore-medicationnotrequested"]},"status":"completed","intent":"order","doNotPerform":true,"medicationCodeableConcept":{"coding":[{"system":"http://www.nlm.nih.gov/research/umls/rxnorm","version":"08072023","code":"686924","display":"carvedilol 3.125 MG Oral Tablet"}]},"subject":{"reference":"Patient/67779bc6-07ee-42cf-8ca7-e71302915dba"},"authoredOn":"2026-07-20T12:15:00.000+00:00","requester":{"reference":"Practitioner/6fc42580-f730-4ecc-87fe-0bf1c4ee00b1"},"reasonCode":[{"coding":[{"system":"http://snomed.info/sct","version":"http://snomed.info/sct/731000124108/version/20230301","code":"407563006","display":"Treatment not tolerated (situation)"}]}]},"request":{"method":"PUT","url":"MedicationRequest/e8c0da8e-ed47-425b-950c-988dc8aac0bc"}},{"fullUrl":"https://madie.cms.gov/Practitioner/6fc42580-f730-4ecc-87fe-0bf1c4ee00b1","resource":{"resourceType":"Practitioner","id":"6fc42580-f730-4ecc-87fe-0bf1c4ee00b1","meta":{"profile":["http://hl7.org/fhir/us/qicore/StructureDefinition/qicore-practitioner"]},"identifier":[{"use":"temp","system":"urn:oid:2.16.840.1.113883.4.336","value":"Practitioner-45"}],"active":true,"name":[{"family":"Strangelove","given":["Adam"],"prefix":["Dr"]}],"qualification":[{"identifier":[{"system":"http://example.org/UniversityIdentifier","value":"12345"}],"code":{"coding":[{"system":"http://terminology.hl7.org/CodeSystem/v2-0360|2.7","code":"BS","display":"Bachelor of Science"}],"text":"Bachelor of Science"},"period":{"start":"1996"},"issuer":{"display":"Example University"}}]},"request":{"method":"PUT","url":"Practitioner/6fc42580-f730-4ecc-87fe-0bf1c4ee00b1"}},{"fullUrl":"https://madie.cms.gov/Condition/80f3d036-64c3-4409-be77-7432a9bc9c72","resource":{"resourceType":"Condition","id":"80f3d036-64c3-4409-be77-7432a9bc9c72","meta":{"profile":["http://hl7.org/fhir/us/qicore/StructureDefinition/qicore-condition-problems-health-concerns"]},"clinicalStatus":{"coding":[{"system":"http://terminology.hl7.org/CodeSystem/condition-clinical","code":"active","display":"Active"}]},"verificationStatus":{"coding":[{"system":"http://terminology.hl7.org/CodeSystem/condition-ver-status","code":"confirmed","display":"Confirmed"}]},"category":[{"coding":[{"system":"http://terminology.hl7.org/CodeSystem/condition-category","code":"problem-list-item","display":"Problem List Item"}]}],"code":{"coding":[{"system":"http://hl7.org/fhir/sid/icd-10-cm","version":"2024","code":"I11.0"}]},"subject":{"reference":"Patient/67779bc6-07ee-42cf-8ca7-e71302915dba"},"onsetPeriod":{"start":"2026-04-11T10:00:00.000+00:00"}},"request":{"method":"PUT","url":"Condition/80f3d036-64c3-4409-be77-7432a9bc9c72"}},{"fullUrl":"https://madie.cms.gov/Condition/97298a99-9589-46aa-a2aa-df3dcc1388bf","resource":{"resourceType":"Condition","id":"97298a99-9589-46aa-a2aa-df3dcc1388bf","meta":{"profile":["http://hl7.org/fhir/us/qicore/StructureDefinition/qicore-condition-problems-health-concerns"]},"clinicalStatus":{"coding":[{"system":"http://terminology.hl7.org/CodeSystem/condition-clinical","code":"active","display":"Active"}]},"verificationStatus":{"coding":[{"system":"http://terminology.hl7.org/CodeSystem/condition-ver-status","code":"confirmed","display":"Confirmed"}]},"category":[{"coding":[{"system":"http://terminology.hl7.org/CodeSystem/condition-category","code":"problem-list-item","display":"Problem List Item"}]}],"severity":{"coding":[{"system":"http://snomed.info/sct","version":"http://snomed.info/sct/731000124108/version/20240301","code":"24484000","display":"Severe (severity modifier) (qualifier value)"}]},"code":{"coding":[{"system":"http://snomed.info/sct","version":"http://snomed.info/sct/731000124108/version/20240301","code":"134401001","display":"Left ventricular systolic dysfunction (disorder)"}]},"subject":{"reference":"Patient/67779bc6-07ee-42cf-8ca7-e71302915dba"},"onsetPeriod":{"start":"2026-04-14T14:41:00.000+00:00"}},"request":{"method":"PUT","url":"Condition/97298a99-9589-46aa-a2aa-df3dcc1388bf"}},{"fullUrl":"https://madie.cms.gov/MeasureReport/0bbef5ad-33bc-48b9-9426-400eeee57967","resource":{"resourceType":"MeasureReport","id":"0bbef5ad-33bc-48b9-9426-400eeee57967","meta":{"profile":["http://hl7.org/fhir/us/cqfmeasures/StructureDefinition/test-case-cqfm"]},"contained":[{"resourceType":"Parameters","id":"ac57f2ca-3ec6-47cc-b94c-c155ee412d75-parameters","parameter":[{"name":"subject","valueString":"67779bc6-07ee-42cf-8ca7-e71302915dba"}]}],"extension":[{"url":"http://hl7.org/fhir/StructureDefinition/cqf-inputParameters","valueReference":{"reference":"#ac57f2ca-3ec6-47cc-b94c-c155ee412d75-parameters"}},{"url":"http://hl7.org/fhir/us/cqfmeasures/StructureDefinition/cqfm-testCaseDescription","valueMarkdown":"BetaBlocker Not orderd for LVSD Patient for Medical Reasons. Note: Denominator Exception deselected for now due to negation issue."}],"modifierExtension":[{"url":"http://hl7.org/fhir/us/cqfmeasures/StructureDefinition/cqfm-isTestCase","valueBoolean":true}],"status":"complete","type":"individual","measure":"https://madie.cms.gov/Measure/CMS144FHIRHFBetaBlockerTherapyforLVSD","period":{"start":"2026-01-01","end":"2026-12-31"},"group":[{"id":"Group_1","population":[{"id":"InitialPopulation_1","code":{"coding":[{"system":"http://terminology.hl7.org/CodeSystem/measure-population","code":"initial-population","display":"Initial Population"}]},"count":1},{"id":"Denominator_1","code":{"coding":[{"system":"http://terminology.hl7.org/CodeSystem/measure-population","code":"denominator","display":"Denominator"}]},"count":1},{"id":"DenominatorExclusion_1","code":{"coding":[{"system":"http://terminology.hl7.org/CodeSystem/measure-population","code":"denominator-exclusion","display":"Denominator Exclusion"}]},"count":0},{"id":"Numerator_1","code":{"coding":[{"system":"http://terminology.hl7.org/CodeSystem/measure-population","code":"numerator","display":"Numerator"}]},"count":0},{"id":"DenominatorException_1","code":{"coding":[{"system":"http://terminology.hl7.org/CodeSystem/measure-population","code":"denominator-exception","display":"Denominator Exception"}]},"count":1}],"measureScore":{"value":1.0}}],"evaluatedResource":[{"reference":"Patient/67779bc6-07ee-42cf-8ca7-e71302915dba"},{"reference":"Encounter/df7b9469-85e5-48e0-8df2-309dcc339f78"},{"reference":"Encounter/a77f5d9d-a0c3-4cae-942b-d77fcb69a0e2"},{"reference":"MedicationRequest/e8c0da8e-ed47-425b-950c-988dc8aac0bc"},{"reference":"Practitioner/6fc42580-f730-4ecc-87fe-0bf1c4ee00b1"},{"reference":"Condition/80f3d036-64c3-4409-be77-7432a9bc9c72"},{"reference":"Condition/97298a99-9589-46aa-a2aa-df3dcc1388bf"}]},"request":{"method":"PUT","url":"MeasureReport/0bbef5ad-33bc-48b9-9426-400eeee57967"}}]},"request":{"method":"PUT","url":"Bundle/46313213416131"}}]}