{"resourceType":"Bundle","id":"tests-66ef197c-3807-41cf-acd0-f188836e2762-bundle","type":"transaction","entry":[{"fullUrl":"Patient/66ef197c-3807-41cf-acd0-f188836e2762","resource":{"resourceType":"Patient","id":"66ef197c-3807-41cf-acd0-f188836e2762","meta":{"profile":["http://hl7.org/fhir/us/qicore/StructureDefinition/qicore-patient"]},"extension":[{"url":"http://hl7.org/fhir/us/core/StructureDefinition/us-core-race","extension":[{"url":"ombCategory","valueCoding":{"system":"urn:oid:2.16.840.1.113883.6.238","code":"2076-8","display":"Native Hawaiian or Other Pacific Islander"}},{"url":"text","valueString":"Native Hawaiian or Other Pacific Islander"}]},{"url":"http://hl7.org/fhir/us/core/StructureDefinition/us-core-ethnicity","extension":[{"url":"ombCategory","valueCoding":{"system":"urn:oid:2.16.840.1.113883.6.238","code":"2186-5","display":"Not Hispanic or Latino"}},{"url":"text","valueString":"Not Hispanic or Latino"}]}],"identifier":[{"type":{"coding":[{"system":"http://terminology.hl7.org/CodeSystem/v2-0203","code":"MR"}]},"system":"https://bonnie-fhir.healthit.gov/","value":"46431231346541"}],"active":true,"name":[{"use":"usual","family":"DENOMEXCEPFail","given":["ArrthymiaDxAfterLastEnc"]}],"gender":"male","birthDate":"1972-12-30"},"request":{"method":"PUT","url":"Patient/66ef197c-3807-41cf-acd0-f188836e2762"}},{"fullUrl":"Condition/828aac44-33c5-4393-893d-ce65abc97063","resource":{"resourceType":"Condition","id":"828aac44-33c5-4393-893d-ce65abc97063","meta":{"profile":["http://hl7.org/fhir/us/qicore/StructureDefinition/qicore-condition-problems-health-concerns"]},"clinicalStatus":{"coding":[{"system":"http://terminology.hl7.org/CodeSystem/condition-clinical","code":"active","display":"Active"}]},"verificationStatus":{"coding":[{"system":"http://terminology.hl7.org/CodeSystem/condition-ver-status","code":"confirmed","display":"Confirmed"}]},"category":[{"coding":[{"system":"http://terminology.hl7.org/CodeSystem/condition-category","code":"problem-list-item","display":"Problem List Item"}]}],"severity":{"coding":[{"system":"http://snomed.info/sct","version":"http://snomed.info/sct/731000124108/version/20240301","code":"24484000","display":"Severe (severity modifier) (qualifier value)"}]},"code":{"coding":[{"system":"http://snomed.info/sct","version":"http://snomed.info/sct/731000124108/version/20240301","code":"134401001","display":"Left ventricular systolic dysfunction (disorder)"}]},"subject":{"reference":"Patient/66ef197c-3807-41cf-acd0-f188836e2762"},"onsetPeriod":{"start":"2026-04-14T14:41:00.000+00:00"}},"request":{"method":"PUT","url":"Condition/828aac44-33c5-4393-893d-ce65abc97063"}},{"fullUrl":"Bundle/46313213416131","resource":{"resourceType":"Bundle","id":"46313213416131","type":"transaction","entry":[{"fullUrl":"https://madie.cms.gov/Patient/66ef197c-3807-41cf-acd0-f188836e2762","resource":{"resourceType":"Patient","id":"66ef197c-3807-41cf-acd0-f188836e2762","meta":{"profile":["http://hl7.org/fhir/us/qicore/StructureDefinition/qicore-patient"]},"extension":[{"url":"http://hl7.org/fhir/us/core/StructureDefinition/us-core-race","extension":[{"url":"ombCategory","valueCoding":{"system":"urn:oid:2.16.840.1.113883.6.238","code":"2076-8","display":"Native Hawaiian or Other Pacific Islander"}},{"url":"text","valueString":"Native Hawaiian or Other Pacific Islander"}]},{"url":"http://hl7.org/fhir/us/core/StructureDefinition/us-core-ethnicity","extension":[{"url":"ombCategory","valueCoding":{"system":"urn:oid:2.16.840.1.113883.6.238","code":"2186-5","display":"Not Hispanic or Latino"}},{"url":"text","valueString":"Not Hispanic or Latino"}]}],"identifier":[{"type":{"coding":[{"system":"http://terminology.hl7.org/CodeSystem/v2-0203","code":"MR"}]},"system":"https://bonnie-fhir.healthit.gov/","value":"46431231346541"}],"active":true,"name":[{"use":"usual","family":"DENOMEXCEPFail","given":["ArrthymiaDxAfterLastEnc"]}],"gender":"male","birthDate":"1972-12-30"},"request":{"method":"PUT","url":"Patient/66ef197c-3807-41cf-acd0-f188836e2762"}},{"fullUrl":"https://madie.cms.gov/Encounter/7a6bc83e-f0e1-4343-9707-b1076983a5ee","resource":{"resourceType":"Encounter","id":"7a6bc83e-f0e1-4343-9707-b1076983a5ee","meta":{"profile":["http://hl7.org/fhir/us/qicore/StructureDefinition/qicore-encounter"]},"status":"finished","class":{"system":"http://terminology.hl7.org/CodeSystem/v3-ActCode","code":"AMB","display":"ambulatory"},"type":[{"coding":[{"system":"http://www.ama-assn.org/go/cpt","version":"2024","code":"99213"}]}],"subject":{"reference":"Patient/66ef197c-3807-41cf-acd0-f188836e2762"},"period":{"start":"2026-04-14T14:40:00.000+00:00","end":"2026-04-14T14:50:00.000+00:00"},"length":{"value":0,"unit":"days"}},"request":{"method":"PUT","url":"Encounter/7a6bc83e-f0e1-4343-9707-b1076983a5ee"}},{"fullUrl":"https://madie.cms.gov/Encounter/f803e567-304d-41ab-8cd1-3676b53159b4","resource":{"resourceType":"Encounter","id":"f803e567-304d-41ab-8cd1-3676b53159b4","meta":{"profile":["http://hl7.org/fhir/us/qicore/StructureDefinition/qicore-encounter"]},"status":"finished","class":{"system":"http://terminology.hl7.org/CodeSystem/v3-ActCode","code":"AMB","display":"ambulatory"},"type":[{"coding":[{"system":"http://www.ama-assn.org/go/cpt","version":"2024","code":"99212"}]}],"subject":{"reference":"Patient/66ef197c-3807-41cf-acd0-f188836e2762"},"period":{"start":"2026-07-20T11:50:00.000+00:00","end":"2026-07-20T11:50:00.000+00:00"},"length":{"value":0,"unit":"days"}},"request":{"method":"PUT","url":"Encounter/f803e567-304d-41ab-8cd1-3676b53159b4"}},{"fullUrl":"https://madie.cms.gov/Condition/85dfa14f-060d-4758-a2c3-8a7960b56487","resource":{"resourceType":"Condition","id":"85dfa14f-060d-4758-a2c3-8a7960b56487","meta":{"profile":["http://hl7.org/fhir/us/qicore/StructureDefinition/qicore-condition-problems-health-concerns"]},"clinicalStatus":{"coding":[{"system":"http://terminology.hl7.org/CodeSystem/condition-clinical","code":"active","display":"Active"}]},"verificationStatus":{"coding":[{"system":"http://terminology.hl7.org/CodeSystem/condition-ver-status","code":"confirmed","display":"Confirmed"}]},"category":[{"coding":[{"system":"http://terminology.hl7.org/CodeSystem/condition-category","code":"problem-list-item","display":"Problem List Item"}]}],"code":{"coding":[{"system":"http://hl7.org/fhir/sid/icd-10-cm","version":"2024","code":"I11.0"}]},"subject":{"reference":"Patient/66ef197c-3807-41cf-acd0-f188836e2762"},"onsetPeriod":{"start":"2026-04-11T10:00:00.000+00:00"}},"request":{"method":"PUT","url":"Condition/85dfa14f-060d-4758-a2c3-8a7960b56487"}},{"fullUrl":"https://madie.cms.gov/Condition/828aac44-33c5-4393-893d-ce65abc97063","resource":{"resourceType":"Condition","id":"828aac44-33c5-4393-893d-ce65abc97063","meta":{"profile":["http://hl7.org/fhir/us/qicore/StructureDefinition/qicore-condition-problems-health-concerns"]},"clinicalStatus":{"coding":[{"system":"http://terminology.hl7.org/CodeSystem/condition-clinical","code":"active","display":"Active"}]},"verificationStatus":{"coding":[{"system":"http://terminology.hl7.org/CodeSystem/condition-ver-status","code":"confirmed","display":"Confirmed"}]},"category":[{"coding":[{"system":"http://terminology.hl7.org/CodeSystem/condition-category","code":"problem-list-item","display":"Problem List Item"}]}],"severity":{"coding":[{"system":"http://snomed.info/sct","version":"http://snomed.info/sct/731000124108/version/20240301","code":"24484000","display":"Severe (severity modifier) (qualifier value)"}]},"code":{"coding":[{"system":"http://snomed.info/sct","version":"http://snomed.info/sct/731000124108/version/20240301","code":"134401001","display":"Left ventricular systolic dysfunction (disorder)"}]},"subject":{"reference":"Patient/66ef197c-3807-41cf-acd0-f188836e2762"},"onsetPeriod":{"start":"2026-04-14T14:41:00.000+00:00"}},"request":{"method":"PUT","url":"Condition/828aac44-33c5-4393-893d-ce65abc97063"}},{"fullUrl":"https://madie.cms.gov/Condition/be089263-ceb4-4bd2-af1e-1ef78e8afa9c","resource":{"resourceType":"Condition","id":"be089263-ceb4-4bd2-af1e-1ef78e8afa9c","meta":{"profile":["http://hl7.org/fhir/us/qicore/StructureDefinition/qicore-condition-problems-health-concerns"]},"clinicalStatus":{"coding":[{"system":"http://terminology.hl7.org/CodeSystem/condition-clinical","code":"active","display":"Active"}]},"verificationStatus":{"coding":[{"system":"http://terminology.hl7.org/CodeSystem/condition-ver-status","code":"confirmed","display":"Confirmed"}]},"category":[{"coding":[{"system":"http://terminology.hl7.org/CodeSystem/condition-category","code":"problem-list-item","display":"Problem List Item"}]}],"code":{"coding":[{"system":"http://snomed.info/sct","version":"http://snomed.info/sct/731000124108/version/20240301","code":"17366009","display":"Atrial arrhythmia (disorder)"}]},"subject":{"reference":"Patient/66ef197c-3807-41cf-acd0-f188836e2762"},"onsetPeriod":{"start":"2026-10-20T14:32:00.000+00:00"}},"request":{"method":"PUT","url":"Condition/be089263-ceb4-4bd2-af1e-1ef78e8afa9c"}},{"fullUrl":"https://madie.cms.gov/MeasureReport/3124a9fb-1445-4a38-9cde-3b912f6676fb","resource":{"resourceType":"MeasureReport","id":"3124a9fb-1445-4a38-9cde-3b912f6676fb","meta":{"profile":["http://hl7.org/fhir/us/cqfmeasures/StructureDefinition/test-case-cqfm"]},"contained":[{"resourceType":"Parameters","id":"984e56cf-a3ff-4f29-81c3-e2a990c57594-parameters","parameter":[{"name":"subject","valueString":"66ef197c-3807-41cf-acd0-f188836e2762"}]}],"extension":[{"url":"http://hl7.org/fhir/StructureDefinition/cqf-inputParameters","valueReference":{"reference":"#984e56cf-a3ff-4f29-81c3-e2a990c57594-parameters"}},{"url":"http://hl7.org/fhir/us/cqfmeasures/StructureDefinition/cqfm-testCaseDescription","valueMarkdown":"Patient does not qualify for denominator exception because diagnosis of arrthymia is after last Encounter"}],"modifierExtension":[{"url":"http://hl7.org/fhir/us/cqfmeasures/StructureDefinition/cqfm-isTestCase","valueBoolean":true}],"status":"complete","type":"individual","measure":"https://madie.cms.gov/Measure/CMS144FHIRHFBetaBlockerTherapyforLVSD","period":{"start":"2026-01-01","end":"2026-12-31"},"group":[{"id":"Group_1","population":[{"id":"InitialPopulation_1","code":{"coding":[{"system":"http://terminology.hl7.org/CodeSystem/measure-population","code":"initial-population","display":"Initial Population"}]},"count":1},{"id":"Denominator_1","code":{"coding":[{"system":"http://terminology.hl7.org/CodeSystem/measure-population","code":"denominator","display":"Denominator"}]},"count":1},{"id":"DenominatorExclusion_1","code":{"coding":[{"system":"http://terminology.hl7.org/CodeSystem/measure-population","code":"denominator-exclusion","display":"Denominator Exclusion"}]},"count":0},{"id":"Numerator_1","code":{"coding":[{"system":"http://terminology.hl7.org/CodeSystem/measure-population","code":"numerator","display":"Numerator"}]},"count":0},{"id":"DenominatorException_1","code":{"coding":[{"system":"http://terminology.hl7.org/CodeSystem/measure-population","code":"denominator-exception","display":"Denominator Exception"}]},"count":0}],"measureScore":{"value":1.0}}],"evaluatedResource":[{"reference":"Patient/66ef197c-3807-41cf-acd0-f188836e2762"},{"reference":"Encounter/7a6bc83e-f0e1-4343-9707-b1076983a5ee"},{"reference":"Encounter/f803e567-304d-41ab-8cd1-3676b53159b4"},{"reference":"Condition/85dfa14f-060d-4758-a2c3-8a7960b56487"},{"reference":"Condition/828aac44-33c5-4393-893d-ce65abc97063"},{"reference":"Condition/be089263-ceb4-4bd2-af1e-1ef78e8afa9c"}]},"request":{"method":"PUT","url":"MeasureReport/3124a9fb-1445-4a38-9cde-3b912f6676fb"}}]},"request":{"method":"PUT","url":"Bundle/46313213416131"}},{"fullUrl":"Encounter/7a6bc83e-f0e1-4343-9707-b1076983a5ee","resource":{"resourceType":"Encounter","id":"7a6bc83e-f0e1-4343-9707-b1076983a5ee","meta":{"profile":["http://hl7.org/fhir/us/qicore/StructureDefinition/qicore-encounter"]},"status":"finished","class":{"system":"http://terminology.hl7.org/CodeSystem/v3-ActCode","code":"AMB","display":"ambulatory"},"type":[{"coding":[{"system":"http://www.ama-assn.org/go/cpt","version":"2024","code":"99213"}]}],"subject":{"reference":"Patient/66ef197c-3807-41cf-acd0-f188836e2762"},"period":{"start":"2026-04-14T14:40:00.000+00:00","end":"2026-04-14T14:50:00.000+00:00"},"length":{"value":0,"unit":"days"}},"request":{"method":"PUT","url":"Encounter/7a6bc83e-f0e1-4343-9707-b1076983a5ee"}},{"fullUrl":"Encounter/f803e567-304d-41ab-8cd1-3676b53159b4","resource":{"resourceType":"Encounter","id":"f803e567-304d-41ab-8cd1-3676b53159b4","meta":{"profile":["http://hl7.org/fhir/us/qicore/StructureDefinition/qicore-encounter"]},"status":"finished","class":{"system":"http://terminology.hl7.org/CodeSystem/v3-ActCode","code":"AMB","display":"ambulatory"},"type":[{"coding":[{"system":"http://www.ama-assn.org/go/cpt","version":"2024","code":"99212"}]}],"subject":{"reference":"Patient/66ef197c-3807-41cf-acd0-f188836e2762"},"period":{"start":"2026-07-20T11:50:00.000+00:00","end":"2026-07-20T11:50:00.000+00:00"},"length":{"value":0,"unit":"days"}},"request":{"method":"PUT","url":"Encounter/f803e567-304d-41ab-8cd1-3676b53159b4"}},{"fullUrl":"Condition/be089263-ceb4-4bd2-af1e-1ef78e8afa9c","resource":{"resourceType":"Condition","id":"be089263-ceb4-4bd2-af1e-1ef78e8afa9c","meta":{"profile":["http://hl7.org/fhir/us/qicore/StructureDefinition/qicore-condition-problems-health-concerns"]},"clinicalStatus":{"coding":[{"system":"http://terminology.hl7.org/CodeSystem/condition-clinical","code":"active","display":"Active"}]},"verificationStatus":{"coding":[{"system":"http://terminology.hl7.org/CodeSystem/condition-ver-status","code":"confirmed","display":"Confirmed"}]},"category":[{"coding":[{"system":"http://terminology.hl7.org/CodeSystem/condition-category","code":"problem-list-item","display":"Problem List Item"}]}],"code":{"coding":[{"system":"http://snomed.info/sct","version":"http://snomed.info/sct/731000124108/version/20240301","code":"17366009","display":"Atrial arrhythmia (disorder)"}]},"subject":{"reference":"Patient/66ef197c-3807-41cf-acd0-f188836e2762"},"onsetPeriod":{"start":"2026-10-20T14:32:00.000+00:00"}},"request":{"method":"PUT","url":"Condition/be089263-ceb4-4bd2-af1e-1ef78e8afa9c"}},{"fullUrl":"Condition/85dfa14f-060d-4758-a2c3-8a7960b56487","resource":{"resourceType":"Condition","id":"85dfa14f-060d-4758-a2c3-8a7960b56487","meta":{"profile":["http://hl7.org/fhir/us/qicore/StructureDefinition/qicore-condition-problems-health-concerns"]},"clinicalStatus":{"coding":[{"system":"http://terminology.hl7.org/CodeSystem/condition-clinical","code":"active","display":"Active"}]},"verificationStatus":{"coding":[{"system":"http://terminology.hl7.org/CodeSystem/condition-ver-status","code":"confirmed","display":"Confirmed"}]},"category":[{"coding":[{"system":"http://terminology.hl7.org/CodeSystem/condition-category","code":"problem-list-item","display":"Problem List Item"}]}],"code":{"coding":[{"system":"http://hl7.org/fhir/sid/icd-10-cm","version":"2024","code":"I11.0"}]},"subject":{"reference":"Patient/66ef197c-3807-41cf-acd0-f188836e2762"},"onsetPeriod":{"start":"2026-04-11T10:00:00.000+00:00"}},"request":{"method":"PUT","url":"Condition/85dfa14f-060d-4758-a2c3-8a7960b56487"}},{"fullUrl":"MeasureReport/3124a9fb-1445-4a38-9cde-3b912f6676fb","resource":{"resourceType":"MeasureReport","id":"3124a9fb-1445-4a38-9cde-3b912f6676fb","meta":{"profile":["http://hl7.org/fhir/us/cqfmeasures/StructureDefinition/test-case-cqfm"]},"contained":[{"resourceType":"Parameters","id":"984e56cf-a3ff-4f29-81c3-e2a990c57594-parameters","parameter":[{"name":"subject","valueString":"66ef197c-3807-41cf-acd0-f188836e2762"}]}],"extension":[{"url":"http://hl7.org/fhir/StructureDefinition/cqf-inputParameters","valueReference":{"reference":"#984e56cf-a3ff-4f29-81c3-e2a990c57594-parameters"}},{"url":"http://hl7.org/fhir/us/cqfmeasures/StructureDefinition/cqfm-testCaseDescription","valueMarkdown":"Patient does not qualify for denominator exception because diagnosis of arrthymia is after last Encounter"}],"modifierExtension":[{"url":"http://hl7.org/fhir/us/cqfmeasures/StructureDefinition/cqfm-isTestCase","valueBoolean":true}],"status":"complete","type":"individual","measure":"https://madie.cms.gov/Measure/CMS144FHIRHFBetaBlockerTherapyforLVSD","period":{"start":"2026-01-01","end":"2026-12-31"},"group":[{"id":"Group_1","population":[{"id":"InitialPopulation_1","code":{"coding":[{"system":"http://terminology.hl7.org/CodeSystem/measure-population","code":"initial-population","display":"Initial Population"}]},"count":1},{"id":"Denominator_1","code":{"coding":[{"system":"http://terminology.hl7.org/CodeSystem/measure-population","code":"denominator","display":"Denominator"}]},"count":1},{"id":"DenominatorExclusion_1","code":{"coding":[{"system":"http://terminology.hl7.org/CodeSystem/measure-population","code":"denominator-exclusion","display":"Denominator Exclusion"}]},"count":0},{"id":"Numerator_1","code":{"coding":[{"system":"http://terminology.hl7.org/CodeSystem/measure-population","code":"numerator","display":"Numerator"}]},"count":0},{"id":"DenominatorException_1","code":{"coding":[{"system":"http://terminology.hl7.org/CodeSystem/measure-population","code":"denominator-exception","display":"Denominator Exception"}]},"count":0}],"measureScore":{"value":1.0}}],"evaluatedResource":[{"reference":"Patient/66ef197c-3807-41cf-acd0-f188836e2762"},{"reference":"Encounter/7a6bc83e-f0e1-4343-9707-b1076983a5ee"},{"reference":"Encounter/f803e567-304d-41ab-8cd1-3676b53159b4"},{"reference":"Condition/85dfa14f-060d-4758-a2c3-8a7960b56487"},{"reference":"Condition/828aac44-33c5-4393-893d-ce65abc97063"},{"reference":"Condition/be089263-ceb4-4bd2-af1e-1ef78e8afa9c"}]},"request":{"method":"PUT","url":"MeasureReport/3124a9fb-1445-4a38-9cde-3b912f6676fb"}}]}