{
  "resourceType": "Bundle",
  "id": "46313213416131",
  "type": "transaction",
  "entry": [ {
    "fullUrl": "https://madie.cms.gov/Patient/442a40d5-a18e-434b-ad30-7760e73adac2",
    "resource": {
      "resourceType": "Patient",
      "id": "442a40d5-a18e-434b-ad30-7760e73adac2",
      "meta": {
        "profile": [ "http://hl7.org/fhir/us/qicore/StructureDefinition/qicore-patient" ]
      },
      "extension": [ {
        "url": "http://hl7.org/fhir/us/core/StructureDefinition/us-core-race",
        "extension": [ {
          "url": "ombCategory",
          "valueCoding": {
            "system": "urn:oid:2.16.840.1.113883.6.238",
            "code": "2106-3",
            "display": "White"
          }
        }, {
          "url": "detailed",
          "valueCoding": {
            "system": "urn:oid:2.16.840.1.113883.6.238",
            "code": "2036-2",
            "display": "Filipino"
          }
        }, {
          "url": "text",
          "valueString": "mixed"
        } ]
      }, {
        "url": "http://hl7.org/fhir/us/core/StructureDefinition/us-core-ethnicity",
        "extension": [ {
          "url": "ombCategory",
          "valueCoding": {
            "system": "urn:oid:2.16.840.1.113883.6.238",
            "code": "2135-2",
            "display": "Hispanic or Latino"
          }
        }, {
          "url": "detailed",
          "valueCoding": {
            "system": "urn:oid:2.16.840.1.113883.6.238",
            "code": "2148-5",
            "display": "Mexican"
          }
        }, {
          "url": "text",
          "valueString": "Hispanic or Latino"
        } ]
      } ],
      "identifier": [ {
        "type": {
          "coding": [ {
            "system": "http://terminology.hl7.org/CodeSystem/v2-0203",
            "code": "MR"
          } ]
        },
        "system": "https://bonnie-fhir.healthit.gov/",
        "value": "46431231346541"
      } ],
      "active": true,
      "name": [ {
        "use": "usual",
        "family": "DENOMEXCEPFail",
        "given": [ "NotPrescribedforMROutofBounds" ]
      } ],
      "gender": "male",
      "birthDate": "1973-12-13"
    },
    "request": {
      "method": "PUT",
      "url": "Patient/442a40d5-a18e-434b-ad30-7760e73adac2"
    }
  }, {
    "fullUrl": "https://madie.cms.gov/Encounter/021b40e4-ea98-4528-90c6-70f00a0bb2f3",
    "resource": {
      "resourceType": "Encounter",
      "id": "021b40e4-ea98-4528-90c6-70f00a0bb2f3",
      "meta": {
        "profile": [ "http://hl7.org/fhir/us/qicore/StructureDefinition/qicore-encounter" ]
      },
      "status": "finished",
      "class": {
        "system": "http://terminology.hl7.org/CodeSystem/v3-ActCode",
        "code": "AMB",
        "display": "ambulatory"
      },
      "type": [ {
        "coding": [ {
          "system": "http://www.ama-assn.org/go/cpt",
          "version": "2024",
          "code": "99213"
        } ]
      } ],
      "subject": {
        "reference": "Patient/442a40d5-a18e-434b-ad30-7760e73adac2"
      },
      "period": {
        "start": "2026-04-14T14:40:00.000+00:00",
        "end": "2026-04-14T14:50:00.000+00:00"
      },
      "length": {
        "value": 0,
        "unit": "days"
      }
    },
    "request": {
      "method": "PUT",
      "url": "Encounter/021b40e4-ea98-4528-90c6-70f00a0bb2f3"
    }
  }, {
    "fullUrl": "https://madie.cms.gov/Encounter/4e02dbfe-d17c-422a-817d-2d0b83f4df5c",
    "resource": {
      "resourceType": "Encounter",
      "id": "4e02dbfe-d17c-422a-817d-2d0b83f4df5c",
      "meta": {
        "profile": [ "http://hl7.org/fhir/us/qicore/StructureDefinition/qicore-encounter" ]
      },
      "status": "finished",
      "class": {
        "system": "http://terminology.hl7.org/CodeSystem/v3-ActCode",
        "code": "AMB",
        "display": "ambulatory"
      },
      "type": [ {
        "coding": [ {
          "system": "http://snomed.info/sct",
          "version": "http://snomed.info/sct/731000124108/version/20230301",
          "code": "185320006",
          "display": "Encounter by computer link (procedure)"
        } ]
      } ],
      "subject": {
        "reference": "Patient/442a40d5-a18e-434b-ad30-7760e73adac2"
      },
      "period": {
        "start": "2026-07-20T11:50:00.000+00:00",
        "end": "2026-07-20T12:50:00.000+00:00"
      },
      "length": {
        "value": 0,
        "unit": "days"
      }
    },
    "request": {
      "method": "PUT",
      "url": "Encounter/4e02dbfe-d17c-422a-817d-2d0b83f4df5c"
    }
  }, {
    "fullUrl": "https://madie.cms.gov/MedicationRequest/eaf25474-d96b-456f-a929-68b39bb498eb",
    "resource": {
      "resourceType": "MedicationRequest",
      "id": "eaf25474-d96b-456f-a929-68b39bb498eb",
      "meta": {
        "profile": [ "http://hl7.org/fhir/us/qicore/StructureDefinition/qicore-mednotrequested" ]
      },
      "status": "completed",
      "intent": "order",
      "doNotPerform": true,
      "medicationCodeableConcept": {
        "coding": [ {
          "system": "http://www.nlm.nih.gov/research/umls/rxnorm",
          "version": "08072023",
          "code": "686924",
          "display": "carvedilol 3.125 MG Oral Tablet"
        } ]
      },
      "subject": {
        "reference": "Patient/442a40d5-a18e-434b-ad30-7760e73adac2"
      },
      "authoredOn": "2026-07-20T15:15:00.000+00:00",
      "requester": {
        "reference": "Practitioner/7c37c910-1592-4938-a3d0-ee15fc024ede"
      },
      "reasonCode": [ {
        "coding": [ {
          "system": "http://snomed.info/sct",
          "version": "http://snomed.info/sct/731000124108/version/20230301",
          "code": "407563006",
          "display": "Treatment not tolerated (situation)"
        } ]
      } ]
    },
    "request": {
      "method": "PUT",
      "url": "MedicationRequest/eaf25474-d96b-456f-a929-68b39bb498eb"
    }
  }, {
    "fullUrl": "https://madie.cms.gov/Practitioner/7c37c910-1592-4938-a3d0-ee15fc024ede",
    "resource": {
      "resourceType": "Practitioner",
      "id": "7c37c910-1592-4938-a3d0-ee15fc024ede",
      "meta": {
        "profile": [ "http://hl7.org/fhir/us/qicore/StructureDefinition/qicore-practitioner" ]
      },
      "identifier": [ {
        "use": "temp",
        "system": "urn:oid:2.16.840.1.113883.4.336",
        "value": "Practitioner-45"
      } ],
      "active": true,
      "name": [ {
        "family": "Strangelove",
        "given": [ "Adam" ],
        "prefix": [ "Dr" ]
      } ],
      "qualification": [ {
        "identifier": [ {
          "system": "http://example.org/UniversityIdentifier",
          "value": "12345"
        } ],
        "code": {
          "coding": [ {
            "system": "http://terminology.hl7.org/CodeSystem/v2-0360|2.7",
            "code": "BS",
            "display": "Bachelor of Science"
          } ],
          "text": "Bachelor of Science"
        },
        "period": {
          "start": "1996"
        },
        "issuer": {
          "display": "Example University"
        }
      } ]
    },
    "request": {
      "method": "PUT",
      "url": "Practitioner/7c37c910-1592-4938-a3d0-ee15fc024ede"
    }
  }, {
    "fullUrl": "https://madie.cms.gov/Condition/749cf7fd-889d-474a-9d05-1099f7921192",
    "resource": {
      "resourceType": "Condition",
      "id": "749cf7fd-889d-474a-9d05-1099f7921192",
      "meta": {
        "profile": [ "http://hl7.org/fhir/us/qicore/StructureDefinition/qicore-condition-problems-health-concerns" ]
      },
      "clinicalStatus": {
        "coding": [ {
          "system": "http://terminology.hl7.org/CodeSystem/condition-clinical",
          "code": "active",
          "display": "Active"
        } ]
      },
      "verificationStatus": {
        "coding": [ {
          "system": "http://terminology.hl7.org/CodeSystem/condition-ver-status",
          "code": "confirmed",
          "display": "Confirmed"
        } ]
      },
      "category": [ {
        "coding": [ {
          "system": "http://terminology.hl7.org/CodeSystem/condition-category",
          "code": "problem-list-item",
          "display": "Problem List Item"
        } ]
      } ],
      "code": {
        "coding": [ {
          "system": "http://hl7.org/fhir/sid/icd-10-cm",
          "version": "2024",
          "code": "I11.0"
        } ]
      },
      "subject": {
        "reference": "Patient/442a40d5-a18e-434b-ad30-7760e73adac2"
      },
      "onsetPeriod": {
        "start": "2026-04-11T10:00:00.000+00:00"
      }
    },
    "request": {
      "method": "PUT",
      "url": "Condition/749cf7fd-889d-474a-9d05-1099f7921192"
    }
  }, {
    "fullUrl": "https://madie.cms.gov/Condition/0447c49f-d6be-4037-9a84-0ec39f650f89",
    "resource": {
      "resourceType": "Condition",
      "id": "0447c49f-d6be-4037-9a84-0ec39f650f89",
      "meta": {
        "profile": [ "http://hl7.org/fhir/us/qicore/StructureDefinition/qicore-condition-problems-health-concerns" ]
      },
      "clinicalStatus": {
        "coding": [ {
          "system": "http://terminology.hl7.org/CodeSystem/condition-clinical",
          "code": "active",
          "display": "Active"
        } ]
      },
      "verificationStatus": {
        "coding": [ {
          "system": "http://terminology.hl7.org/CodeSystem/condition-ver-status",
          "code": "confirmed",
          "display": "Confirmed"
        } ]
      },
      "category": [ {
        "coding": [ {
          "system": "http://terminology.hl7.org/CodeSystem/condition-category",
          "code": "problem-list-item",
          "display": "Problem List Item"
        } ]
      } ],
      "severity": {
        "coding": [ {
          "system": "http://snomed.info/sct",
          "version": "http://snomed.info/sct/731000124108/version/20240301",
          "code": "24484000",
          "display": "Severe (severity modifier) (qualifier value)"
        } ]
      },
      "code": {
        "coding": [ {
          "system": "http://snomed.info/sct",
          "version": "http://snomed.info/sct/731000124108/version/20240301",
          "code": "134401001",
          "display": "Left ventricular systolic dysfunction (disorder)"
        } ]
      },
      "subject": {
        "reference": "Patient/442a40d5-a18e-434b-ad30-7760e73adac2"
      },
      "onsetPeriod": {
        "start": "2026-04-14T14:41:00.000+00:00"
      }
    },
    "request": {
      "method": "PUT",
      "url": "Condition/0447c49f-d6be-4037-9a84-0ec39f650f89"
    }
  }, {
    "fullUrl": "https://madie.cms.gov/MeasureReport/385b26d2-250e-474c-b06b-bc3cb2b87b35",
    "resource": {
      "resourceType": "MeasureReport",
      "id": "385b26d2-250e-474c-b06b-bc3cb2b87b35",
      "meta": {
        "profile": [ "http://hl7.org/fhir/us/cqfmeasures/StructureDefinition/test-case-cqfm" ]
      },
      "contained": [ {
        "resourceType": "Parameters",
        "id": "e86680bc-61f2-4ded-a4d6-d781294ea9c0-parameters",
        "parameter": [ {
          "name": "subject",
          "valueString": "442a40d5-a18e-434b-ad30-7760e73adac2"
        } ]
      } ],
      "extension": [ {
        "url": "http://hl7.org/fhir/StructureDefinition/cqf-inputParameters",
        "valueReference": {
          "reference": "#e86680bc-61f2-4ded-a4d6-d781294ea9c0-parameters"
        }
      }, {
        "url": "http://hl7.org/fhir/us/cqfmeasures/StructureDefinition/cqfm-testCaseDescription",
        "valueMarkdown": "Patient with LVEF has record of Medication Request for MR but is not within allocated time bounds"
      } ],
      "modifierExtension": [ {
        "url": "http://hl7.org/fhir/us/cqfmeasures/StructureDefinition/cqfm-isTestCase",
        "valueBoolean": true
      } ],
      "status": "complete",
      "type": "individual",
      "measure": "https://madie.cms.gov/Measure/CMS144FHIRHFBetaBlockerTherapyforLVSD",
      "period": {
        "start": "2026-01-01",
        "end": "2026-12-31"
      },
      "group": [ {
        "id": "Group_1",
        "population": [ {
          "id": "InitialPopulation_1",
          "code": {
            "coding": [ {
              "system": "http://terminology.hl7.org/CodeSystem/measure-population",
              "code": "initial-population",
              "display": "Initial Population"
            } ]
          },
          "count": 1
        }, {
          "id": "Denominator_1",
          "code": {
            "coding": [ {
              "system": "http://terminology.hl7.org/CodeSystem/measure-population",
              "code": "denominator",
              "display": "Denominator"
            } ]
          },
          "count": 1
        }, {
          "id": "DenominatorExclusion_1",
          "code": {
            "coding": [ {
              "system": "http://terminology.hl7.org/CodeSystem/measure-population",
              "code": "denominator-exclusion",
              "display": "Denominator Exclusion"
            } ]
          },
          "count": 0
        }, {
          "id": "Numerator_1",
          "code": {
            "coding": [ {
              "system": "http://terminology.hl7.org/CodeSystem/measure-population",
              "code": "numerator",
              "display": "Numerator"
            } ]
          },
          "count": 0
        }, {
          "id": "DenominatorException_1",
          "code": {
            "coding": [ {
              "system": "http://terminology.hl7.org/CodeSystem/measure-population",
              "code": "denominator-exception",
              "display": "Denominator Exception"
            } ]
          },
          "count": 0
        } ],
        "measureScore": {
          "value": 1.0
        }
      } ],
      "evaluatedResource": [ {
        "reference": "Patient/442a40d5-a18e-434b-ad30-7760e73adac2"
      }, {
        "reference": "Encounter/021b40e4-ea98-4528-90c6-70f00a0bb2f3"
      }, {
        "reference": "Encounter/4e02dbfe-d17c-422a-817d-2d0b83f4df5c"
      }, {
        "reference": "MedicationRequest/eaf25474-d96b-456f-a929-68b39bb498eb"
      }, {
        "reference": "Practitioner/7c37c910-1592-4938-a3d0-ee15fc024ede"
      }, {
        "reference": "Condition/749cf7fd-889d-474a-9d05-1099f7921192"
      }, {
        "reference": "Condition/0447c49f-d6be-4037-9a84-0ec39f650f89"
      } ]
    },
    "request": {
      "method": "PUT",
      "url": "MeasureReport/385b26d2-250e-474c-b06b-bc3cb2b87b35"
    }
  } ]
}