{
  "resourceType": "Bundle",
  "id": "6179ec6bad1a790b7af75257",
  "type": "transaction",
  "entry": [ {
    "fullUrl": "https://madie.cms.gov/Patient/e1b7a174-137f-4613-92d2-d0a1fedc48e1",
    "resource": {
      "resourceType": "Patient",
      "id": "e1b7a174-137f-4613-92d2-d0a1fedc48e1",
      "meta": {
        "profile": [ "http://hl7.org/fhir/us/qicore/StructureDefinition/qicore-patient" ]
      },
      "extension": [ {
        "url": "http://hl7.org/fhir/us/core/StructureDefinition/us-core-race",
        "extension": [ {
          "url": "ombCategory",
          "valueCoding": {
            "system": "urn:oid:2.16.840.1.113883.6.238",
            "code": "2076-8",
            "display": "Native Hawaiian or Other Pacific Islander",
            "userSelected": true
          }
        }, {
          "url": "text",
          "valueString": "Native Hawaiian or Other Pacific Islander"
        } ]
      }, {
        "url": "http://hl7.org/fhir/us/core/StructureDefinition/us-core-ethnicity",
        "extension": [ {
          "url": "ombCategory",
          "valueCoding": {
            "system": "urn:oid:2.16.840.1.113883.6.238",
            "code": "2186-5",
            "display": "Not Hispanic or Latino",
            "userSelected": true
          }
        }, {
          "url": "text",
          "valueString": "Not Hispanic or Latino"
        } ]
      }, {
        "url": "http://hl7.org/fhir/us/core/StructureDefinition/us-core-sex",
        "valueCode": "248152002"
      } ],
      "identifier": [ {
        "type": {
          "coding": [ {
            "system": "http://terminology.hl7.org/CodeSystem/v2-0203",
            "code": "MR"
          } ]
        },
        "system": "https://bonnie-fhir.healthit.gov/",
        "value": "6179ec6bad1a790b7af75257"
      } ],
      "name": [ {
        "family": "DenExcl3Fail",
        "given": [ "PxStartsOver30DBeforeEDEndsDuringED" ]
      } ],
      "gender": "female",
      "birthDate": "1985-12-02"
    },
    "request": {
      "method": "PUT",
      "url": "Patient/e1b7a174-137f-4613-92d2-d0a1fedc48e1"
    }
  }, {
    "fullUrl": "https://madie.cms.gov/Encounter/b7639fc4-8d1d-4063-b84a-4f1e86fb4faa",
    "resource": {
      "resourceType": "Encounter",
      "id": "b7639fc4-8d1d-4063-b84a-4f1e86fb4faa",
      "meta": {
        "profile": [ "http://hl7.org/fhir/us/qicore/StructureDefinition/qicore-encounter" ]
      },
      "status": "finished",
      "class": {
        "system": "http://terminology.hl7.org/CodeSystem/v3-ActCode",
        "code": "EMER",
        "display": "emergency",
        "userSelected": true
      },
      "type": [ {
        "coding": [ {
          "system": "http://snomed.info/sct",
          "version": "2020-09",
          "code": "4525004",
          "display": "Emergency department patient visit (procedure)",
          "userSelected": true
        } ]
      } ],
      "subject": {
        "reference": "Patient/e1b7a174-137f-4613-92d2-d0a1fedc48e1"
      },
      "period": {
        "start": "2026-10-09T08:05:00.000+00:00",
        "end": "2026-10-10T07:15:00.000+00:00"
      },
      "reasonReference": [ {
        "reference": "Condition/0a29ae3b-591b-4d05-b32e-6c1626953185"
      } ]
    },
    "request": {
      "method": "PUT",
      "url": "Encounter/b7639fc4-8d1d-4063-b84a-4f1e86fb4faa"
    }
  }, {
    "fullUrl": "https://madie.cms.gov/Condition/0a29ae3b-591b-4d05-b32e-6c1626953185",
    "resource": {
      "resourceType": "Condition",
      "id": "0a29ae3b-591b-4d05-b32e-6c1626953185",
      "meta": {
        "profile": [ "http://hl7.org/fhir/us/qicore/StructureDefinition/qicore-condition-problems-health-concerns" ]
      },
      "clinicalStatus": {
        "coding": [ {
          "system": "http://terminology.hl7.org/CodeSystem/condition-clinical",
          "code": "active",
          "display": "active",
          "userSelected": true
        } ]
      },
      "category": [ {
        "coding": [ {
          "system": "http://terminology.hl7.org/CodeSystem/condition-category",
          "code": "problem-list-item",
          "display": "Problem List Item",
          "userSelected": true
        } ]
      } ],
      "code": {
        "coding": [ {
          "system": "http://snomed.info/sct",
          "version": "2020-09",
          "code": "401303003",
          "display": "Acute ST segment elevation myocardial infarction (disorder)",
          "userSelected": true
        } ]
      },
      "subject": {
        "reference": "Patient/e1b7a174-137f-4613-92d2-d0a1fedc48e1"
      },
      "onsetDateTime": "2026-10-09T08:30:00.000+00:00"
    },
    "request": {
      "method": "PUT",
      "url": "Condition/0a29ae3b-591b-4d05-b32e-6c1626953185"
    }
  }, {
    "fullUrl": "https://madie.cms.gov/Procedure/47c13cb5-1adf-4d20-aed8-6186f3108753",
    "resource": {
      "resourceType": "Procedure",
      "id": "47c13cb5-1adf-4d20-aed8-6186f3108753",
      "meta": {
        "profile": [ "http://hl7.org/fhir/us/qicore/StructureDefinition/qicore-procedure" ]
      },
      "extension": [ {
        "url": "http://hl7.org/fhir/us/qicore/StructureDefinition/qicore-recorded",
        "valueDateTime": "2026-10-09T08:45:00.000+00:00"
      } ],
      "status": "completed",
      "category": {
        "coding": [ {
          "system": "http://snomed.info/sct",
          "code": "387713003",
          "display": "Surgical procedure",
          "userSelected": true
        } ]
      },
      "code": {
        "coding": [ {
          "system": "http://snomed.info/sct",
          "code": "10615008",
          "userSelected": true
        } ]
      },
      "subject": {
        "reference": "Patient/e1b7a174-137f-4613-92d2-d0a1fedc48e1"
      },
      "performedPeriod": {
        "start": "2026-08-02T08:00:00.000+00:00",
        "end": "2026-10-09T08:45:00.000+00:00"
      }
    },
    "request": {
      "method": "PUT",
      "url": "Procedure/47c13cb5-1adf-4d20-aed8-6186f3108753"
    }
  }, {
    "fullUrl": "https://madie.cms.gov/MeasureReport/d1fcc3c8-12cd-4368-8b94-6c833daf9fca",
    "resource": {
      "resourceType": "MeasureReport",
      "id": "d1fcc3c8-12cd-4368-8b94-6c833daf9fca",
      "meta": {
        "profile": [ "http://hl7.org/fhir/us/cqfmeasures/StructureDefinition/test-case-cqfm" ]
      },
      "contained": [ {
        "resourceType": "Parameters",
        "id": "6a86adaa-8c89-45e4-a54e-d64e9d2c1610-parameters",
        "parameter": [ {
          "name": "subject",
          "valueString": "e1b7a174-137f-4613-92d2-d0a1fedc48e1"
        } ]
      } ],
      "extension": [ {
        "url": "http://hl7.org/fhir/StructureDefinition/cqf-inputParameters",
        "valueReference": {
          "reference": "#6a86adaa-8c89-45e4-a54e-d64e9d2c1610-parameters"
        }
      }, {
        "url": "http://hl7.org/fhir/us/cqfmeasures/StructureDefinition/cqfm-testCaseDescription",
        "valueMarkdown": "Patient has Major Surgical Procedure (exclusion Px) starts over 30 days before ED visit and ends during ED\n**due to overlap of value sets - need to select code carefully to truly test major surgical procedure logic**"
      } ],
      "modifierExtension": [ {
        "url": "http://hl7.org/fhir/us/cqfmeasures/StructureDefinition/cqfm-isTestCase",
        "valueBoolean": true
      } ],
      "status": "complete",
      "type": "individual",
      "measure": "https://madie.cms.gov/Measure/CMS996FHIRAptTxforSTEMI",
      "period": {
        "start": "2026-01-01",
        "end": "2026-12-31"
      },
      "group": [ {
        "id": "Group_1",
        "population": [ {
          "id": "InitialPopulation_1",
          "code": {
            "coding": [ {
              "system": "http://terminology.hl7.org/CodeSystem/measure-population",
              "code": "initial-population",
              "display": "Initial Population"
            } ]
          },
          "count": 1
        }, {
          "id": "Denominator_1",
          "code": {
            "coding": [ {
              "system": "http://terminology.hl7.org/CodeSystem/measure-population",
              "code": "denominator",
              "display": "Denominator"
            } ]
          },
          "count": 1
        }, {
          "id": "DenominatorExclusion_1",
          "code": {
            "coding": [ {
              "system": "http://terminology.hl7.org/CodeSystem/measure-population",
              "code": "denominator-exclusion",
              "display": "Denominator Exclusion"
            } ]
          },
          "count": 0
        }, {
          "id": "Numerator_1",
          "code": {
            "coding": [ {
              "system": "http://terminology.hl7.org/CodeSystem/measure-population",
              "code": "numerator",
              "display": "Numerator"
            } ]
          },
          "count": 0
        }, {
          "id": "DenominatorException_1",
          "code": {
            "coding": [ {
              "system": "http://terminology.hl7.org/CodeSystem/measure-population",
              "code": "denominator-exception",
              "display": "Denominator Exception"
            } ]
          },
          "count": 0
        } ],
        "measureScore": {
          "value": 0.0
        }
      } ],
      "evaluatedResource": [ {
        "reference": "Patient/e1b7a174-137f-4613-92d2-d0a1fedc48e1"
      }, {
        "reference": "Encounter/b7639fc4-8d1d-4063-b84a-4f1e86fb4faa"
      }, {
        "reference": "Condition/0a29ae3b-591b-4d05-b32e-6c1626953185"
      }, {
        "reference": "Procedure/47c13cb5-1adf-4d20-aed8-6186f3108753"
      } ]
    },
    "request": {
      "method": "PUT",
      "url": "MeasureReport/d1fcc3c8-12cd-4368-8b94-6c833daf9fca"
    }
  } ]
}