{"resourceType":"Bundle","id":"tests-1f4e0855-2a5a-4076-8086-10a14e61c298-bundle","type":"transaction","entry":[{"resource":{"resourceType":"MeasureReport","id":"2de2c019-ad3b-4d6a-b539-19fd053137fc","meta":{"profile":["http://hl7.org/fhir/us/cqfmeasures/StructureDefinition/test-case-cqfm"]},"contained":[{"resourceType":"Parameters","id":"be1a40c6-758f-4813-9101-fa83eaf28cd7-parameters","parameter":[{"name":"subject","valueString":"1f4e0855-2a5a-4076-8086-10a14e61c298"}]}],"extension":[{"url":"http://hl7.org/fhir/StructureDefinition/cqf-inputParameters","valueReference":{"reference":"#be1a40c6-758f-4813-9101-fa83eaf28cd7-parameters"}},{"url":"http://hl7.org/fhir/us/cqfmeasures/StructureDefinition/cqfm-testCaseDescription","valueMarkdown":"Patient 11 months and 30 days old w/ an Oral Evaluation Encounter 1/1 of the Measurement Period."}],"modifierExtension":[{"url":"http://hl7.org/fhir/us/cqfmeasures/StructureDefinition/cqfm-isTestCase","valueBoolean":true}],"status":"complete","type":"individual","measure":"https://madie.cms.gov/Measure/CMS75FHIRChildrenWhoHaveDentalDecayOrCavities","period":{"start":"2026-01-01","end":"2026-12-31"},"group":[{"id":"Group_1","population":[{"id":"InitialPopulation_1","code":{"coding":[{"system":"http://terminology.hl7.org/CodeSystem/measure-population","code":"initial-population","display":"Initial Population"}]},"count":0},{"id":"Denominator_1","code":{"coding":[{"system":"http://terminology.hl7.org/CodeSystem/measure-population","code":"denominator","display":"Denominator"}]},"count":0},{"id":"DenominatorExclusion_1","code":{"coding":[{"system":"http://terminology.hl7.org/CodeSystem/measure-population","code":"denominator-exclusion","display":"Denominator Exclusion"}]},"count":0},{"id":"Numerator_1","code":{"coding":[{"system":"http://terminology.hl7.org/CodeSystem/measure-population","code":"numerator","display":"Numerator"}]},"count":0}],"measureScore":{"value":1.0}}],"evaluatedResource":[{"reference":"Patient/1f4e0855-2a5a-4076-8086-10a14e61c298"},{"reference":"Encounter/7cfdc6d2-9099-41fc-9820-575e2e35b174"}]},"request":{"method":"PUT","url":"MeasureReport/2de2c019-ad3b-4d6a-b539-19fd053137fc"}},{"resource":{"resourceType":"Patient","id":"1f4e0855-2a5a-4076-8086-10a14e61c298","meta":{"profile":["http://hl7.org/fhir/us/qicore/StructureDefinition/qicore-patient"]},"extension":[{"url":"http://hl7.org/fhir/us/core/StructureDefinition/us-core-race","extension":[{"url":"ombCategory","valueCoding":{"system":"urn:oid:2.16.840.1.113883.6.238","code":"2028-9","display":"Asian"}},{"url":"text","valueString":"Asian"}]},{"url":"http://hl7.org/fhir/us/core/StructureDefinition/us-core-ethnicity","extension":[{"url":"ombCategory","valueCoding":{"system":"urn:oid:2.16.840.1.113883.6.238","code":"2135-2","display":"Hispanic or Latino"}},{"url":"text","valueString":"Hispanic or Latino"}]},{"url":"http://hl7.org/fhir/us/core/StructureDefinition/us-core-sex","valueCode":"248153007"}],"identifier":[{"system":"http://hospital.smarthealthit.org","value":"999999995"}],"name":[{"family":"Bertha","given":["Betty"]}],"gender":"male","birthDate":"2025-01-02"},"request":{"method":"PUT","url":"Patient/1f4e0855-2a5a-4076-8086-10a14e61c298"}},{"resource":{"resourceType":"Encounter","id":"7cfdc6d2-9099-41fc-9820-575e2e35b174","meta":{"profile":["http://hl7.org/fhir/us/qicore/StructureDefinition/qicore-encounter"]},"status":"finished","class":{"system":"http://terminology.hl7.org/CodeSystem/v3-ActCode","code":"AMB","display":"ambulatory"},"type":[{"coding":[{"system":"http://www.ada.org/cdt","code":"D0120","display":"periodic oral evaluation - established patient"}]}],"subject":{"reference":"Patient/1f4e0855-2a5a-4076-8086-10a14e61c298"},"period":{"start":"2026-01-01T00:00:00.000Z","end":"2026-01-01T01:15:00.000Z"}},"request":{"method":"PUT","url":"Encounter/7cfdc6d2-9099-41fc-9820-575e2e35b174"}},{"resource":{"resourceType":"Bundle","id":"IPFail-11mo30daysOld","type":"transaction","entry":[{"fullUrl":"https://madie.cms.gov/Patient/1f4e0855-2a5a-4076-8086-10a14e61c298","resource":{"resourceType":"Patient","id":"1f4e0855-2a5a-4076-8086-10a14e61c298","meta":{"profile":["http://hl7.org/fhir/us/qicore/StructureDefinition/qicore-patient"]},"extension":[{"url":"http://hl7.org/fhir/us/core/StructureDefinition/us-core-race","extension":[{"url":"ombCategory","valueCoding":{"system":"urn:oid:2.16.840.1.113883.6.238","code":"2028-9","display":"Asian"}},{"url":"text","valueString":"Asian"}]},{"url":"http://hl7.org/fhir/us/core/StructureDefinition/us-core-ethnicity","extension":[{"url":"ombCategory","valueCoding":{"system":"urn:oid:2.16.840.1.113883.6.238","code":"2135-2","display":"Hispanic or Latino"}},{"url":"text","valueString":"Hispanic or Latino"}]},{"url":"http://hl7.org/fhir/us/core/StructureDefinition/us-core-sex","valueCode":"248153007"}],"identifier":[{"system":"http://hospital.smarthealthit.org","value":"999999995"}],"name":[{"family":"Bertha","given":["Betty"]}],"gender":"male","birthDate":"2025-01-02"},"request":{"method":"PUT","url":"Patient/1f4e0855-2a5a-4076-8086-10a14e61c298"}},{"fullUrl":"https://madie.cms.gov/Encounter/7cfdc6d2-9099-41fc-9820-575e2e35b174","resource":{"resourceType":"Encounter","id":"7cfdc6d2-9099-41fc-9820-575e2e35b174","meta":{"profile":["http://hl7.org/fhir/us/qicore/StructureDefinition/qicore-encounter"]},"status":"finished","class":{"system":"http://terminology.hl7.org/CodeSystem/v3-ActCode","code":"AMB","display":"ambulatory"},"type":[{"coding":[{"system":"http://www.ada.org/cdt","code":"D0120","display":"periodic oral evaluation - established patient"}]}],"subject":{"reference":"Patient/1f4e0855-2a5a-4076-8086-10a14e61c298"},"period":{"start":"2026-01-01T00:00:00.000Z","end":"2026-01-01T01:15:00.000Z"}},"request":{"method":"PUT","url":"Encounter/7cfdc6d2-9099-41fc-9820-575e2e35b174"}},{"fullUrl":"https://madie.cms.gov/MeasureReport/2de2c019-ad3b-4d6a-b539-19fd053137fc","resource":{"resourceType":"MeasureReport","id":"2de2c019-ad3b-4d6a-b539-19fd053137fc","meta":{"profile":["http://hl7.org/fhir/us/cqfmeasures/StructureDefinition/test-case-cqfm"]},"contained":[{"resourceType":"Parameters","id":"be1a40c6-758f-4813-9101-fa83eaf28cd7-parameters","parameter":[{"name":"subject","valueString":"1f4e0855-2a5a-4076-8086-10a14e61c298"}]}],"extension":[{"url":"http://hl7.org/fhir/StructureDefinition/cqf-inputParameters","valueReference":{"reference":"#be1a40c6-758f-4813-9101-fa83eaf28cd7-parameters"}},{"url":"http://hl7.org/fhir/us/cqfmeasures/StructureDefinition/cqfm-testCaseDescription","valueMarkdown":"Patient 11 months and 30 days old w/ an Oral Evaluation Encounter 1/1 of the Measurement Period."}],"modifierExtension":[{"url":"http://hl7.org/fhir/us/cqfmeasures/StructureDefinition/cqfm-isTestCase","valueBoolean":true}],"status":"complete","type":"individual","measure":"https://madie.cms.gov/Measure/CMS75FHIRChildrenWhoHaveDentalDecayOrCavities","period":{"start":"2026-01-01","end":"2026-12-31"},"group":[{"id":"Group_1","population":[{"id":"InitialPopulation_1","code":{"coding":[{"system":"http://terminology.hl7.org/CodeSystem/measure-population","code":"initial-population","display":"Initial Population"}]},"count":0},{"id":"Denominator_1","code":{"coding":[{"system":"http://terminology.hl7.org/CodeSystem/measure-population","code":"denominator","display":"Denominator"}]},"count":0},{"id":"DenominatorExclusion_1","code":{"coding":[{"system":"http://terminology.hl7.org/CodeSystem/measure-population","code":"denominator-exclusion","display":"Denominator Exclusion"}]},"count":0},{"id":"Numerator_1","code":{"coding":[{"system":"http://terminology.hl7.org/CodeSystem/measure-population","code":"numerator","display":"Numerator"}]},"count":0}],"measureScore":{"value":1.0}}],"evaluatedResource":[{"reference":"Patient/1f4e0855-2a5a-4076-8086-10a14e61c298"},{"reference":"Encounter/7cfdc6d2-9099-41fc-9820-575e2e35b174"}]},"request":{"method":"PUT","url":"MeasureReport/2de2c019-ad3b-4d6a-b539-19fd053137fc"}}]},"request":{"method":"PUT","url":"Bundle/IPFail-11mo30daysOld"}}]}