{
  "resourceType": "Bundle",
  "id": "612e6b2e02c62a011f2ecc81",
  "type": "transaction",
  "entry": [ {
    "fullUrl": "https://madie.cms.gov/Patient/d205878e-b861-43a8-92e8-47f680987e4d",
    "resource": {
      "resourceType": "Patient",
      "id": "d205878e-b861-43a8-92e8-47f680987e4d",
      "meta": {
        "profile": [ "http://hl7.org/fhir/us/qicore/StructureDefinition/qicore-patient" ]
      },
      "text": {
        "status": "generated",
        "div": "<div xmlns=\"http://www.w3.org/1999/xhtml\"><div class=\"hapiHeaderText\">PtRefMOLMWHTaskReject <b>NUMERPASS </b></div><table class=\"hapiPropertyTable\"><tbody><tr><td>Identifier</td><td>bec2580a47ed4bf7691b191e0654b2de</td></tr><tr><td>Date of birth</td><td><span>02 January 1974</span></td></tr></tbody></table></div>"
      },
      "extension": [ {
        "url": "http://hl7.org/fhir/us/core/StructureDefinition/us-core-race",
        "extension": [ {
          "url": "ombCategory",
          "valueCoding": {
            "system": "urn:oid:2.16.840.1.113883.6.238",
            "code": "1002-5",
            "display": "American Indian or Alaska Native",
            "userSelected": true
          }
        }, {
          "url": "text",
          "valueString": "American Indian or Alaska Native"
        } ]
      }, {
        "url": "http://hl7.org/fhir/us/core/StructureDefinition/us-core-ethnicity",
        "extension": [ {
          "url": "ombCategory",
          "valueCoding": {
            "system": "urn:oid:2.16.840.1.113883.6.238",
            "code": "2135-2",
            "display": "Hispanic or Latino",
            "userSelected": true
          }
        }, {
          "url": "text",
          "valueString": "Hispanic or Latino"
        } ]
      } ],
      "identifier": [ {
        "type": {
          "coding": [ {
            "system": "http://terminology.hl7.org/CodeSystem/v2-0203",
            "code": "MR"
          } ]
        },
        "system": "https://bonnie-fhir.healthit.gov/",
        "value": "612e6b2e02c62a011f2ecc81"
      } ],
      "active": true,
      "name": [ {
        "use": "usual",
        "family": "NUMERPass",
        "given": [ "PtRefMOWarfarinTaskReject" ]
      } ],
      "gender": "male",
      "birthDate": "1975-01-02"
    },
    "request": {
      "method": "PUT",
      "url": "Patient/d205878e-b861-43a8-92e8-47f680987e4d"
    }
  }, {
    "fullUrl": "https://madie.cms.gov/Encounter/adb9be21-a9fa-419a-bf58-9030a53d55f0",
    "resource": {
      "resourceType": "Encounter",
      "id": "adb9be21-a9fa-419a-bf58-9030a53d55f0",
      "meta": {
        "profile": [ "http://hl7.org/fhir/us/qicore/StructureDefinition/qicore-encounter" ]
      },
      "status": "finished",
      "class": {
        "system": "http://terminology.hl7.org/CodeSystem/v3-ActCode",
        "code": "IMP",
        "display": "inpatient encounter"
      },
      "type": [ {
        "coding": [ {
          "system": "http://snomed.info/sct",
          "code": "8715000"
        } ]
      } ],
      "subject": {
        "reference": "Patient/d205878e-b861-43a8-92e8-47f680987e4d"
      },
      "period": {
        "start": "2026-11-01T08:00:00.000+00:00",
        "end": "2026-11-26T08:15:00.000+00:00"
      },
      "length": {
        "value": 25,
        "unit": "days"
      }
    },
    "request": {
      "method": "PUT",
      "url": "Encounter/adb9be21-a9fa-419a-bf58-9030a53d55f0"
    }
  }, {
    "fullUrl": "https://madie.cms.gov/Coverage/b9455233-58a0-4a2b-b289-2abb22fa5344",
    "resource": {
      "resourceType": "Coverage",
      "id": "b9455233-58a0-4a2b-b289-2abb22fa5344",
      "status": "active",
      "beneficiary": {
        "reference": "Patient/d205878e-b861-43a8-92e8-47f680987e4d"
      },
      "period": {
        "start": "1975-01-02T08:00:00.000+00:00"
      },
      "payor": [ {
        "reference": "Organization/a283dc9e-6144-481a-9101-49698f0e0182"
      } ]
    },
    "request": {
      "method": "PUT",
      "url": "Coverage/b9455233-58a0-4a2b-b289-2abb22fa5344"
    }
  }, {
    "fullUrl": "https://madie.cms.gov/MedicationRequest/2ed759f2-86e8-4056-9d81-faa4010d0897",
    "resource": {
      "resourceType": "MedicationRequest",
      "id": "2ed759f2-86e8-4056-9d81-faa4010d0897",
      "meta": {
        "profile": [ "http://hl7.org/fhir/us/qicore/StructureDefinition/qicore-medicationrequest" ]
      },
      "status": "active",
      "intent": "order",
      "category": [ {
        "coding": [ {
          "system": "http://terminology.hl7.org/CodeSystem/medicationrequest-category",
          "code": "inpatient"
        } ]
      } ],
      "doNotPerform": false,
      "medicationCodeableConcept": {
        "coding": [ {
          "system": "http://www.nlm.nih.gov/research/umls/rxnorm",
          "code": "855338"
        } ]
      },
      "subject": {
        "reference": "Patient/d205878e-b861-43a8-92e8-47f680987e4d"
      },
      "authoredOn": "2026-11-01T08:00:00.000+00:00",
      "requester": {
        "reference": "Practitioner/123456"
      },
      "dosageInstruction": [ {
        "timing": {
          "repeat": {
            "boundsPeriod": {
              "start": "2026-11-03T09:00:00.000+00:00"
            }
          }
        }
      } ]
    },
    "request": {
      "method": "PUT",
      "url": "MedicationRequest/2ed759f2-86e8-4056-9d81-faa4010d0897"
    }
  }, {
    "fullUrl": "https://madie.cms.gov/Task/2f8b6710-1815-4401-abd3-3d814494f0d1",
    "resource": {
      "resourceType": "Task",
      "id": "2f8b6710-1815-4401-abd3-3d814494f0d1",
      "meta": {
        "profile": [ "http://hl7.org/fhir/us/qicore/StructureDefinition/qicore-taskrejected" ]
      },
      "status": "rejected",
      "statusReason": {
        "coding": [ {
          "system": "http://snomed.info/sct",
          "code": "443390004",
          "display": "Refusal of treatment by patient (situation)",
          "userSelected": true
        } ]
      },
      "code": {
        "coding": [ {
          "system": "http://hl7.org/fhir/CodeSystem/task-code",
          "code": "fulfill"
        } ]
      },
      "focus": {
        "reference": "MedicationRequest/2ed759f2-86e8-4056-9d81-faa4010d0897"
      },
      "executionPeriod": {
        "start": "2026-11-01T09:00:00.000+00:00",
        "end": "2026-11-03T09:00:00.000+00:00"
      }
    },
    "request": {
      "method": "PUT",
      "url": "Task/2f8b6710-1815-4401-abd3-3d814494f0d1"
    }
  }, {
    "fullUrl": "https://madie.cms.gov/Organization/a283dc9e-6144-481a-9101-49698f0e0182",
    "resource": {
      "resourceType": "Organization",
      "id": "a283dc9e-6144-481a-9101-49698f0e0182",
      "meta": {
        "profile": [ "http://hl7.org/fhir/us/qicore/StructureDefinition/qicore-organization" ]
      },
      "identifier": [ {
        "use": "temp",
        "system": "urn:oid:2.16.840.1.113883.4.4",
        "value": "21-3259825"
      } ],
      "active": true,
      "type": [ {
        "coding": [ {
          "system": "http://terminology.hl7.org/CodeSystem/organization-type",
          "code": "pay",
          "display": "Payer"
        } ]
      } ],
      "name": "Blue Cross Blue Shield of Texas",
      "telecom": [ {
        "system": "phone",
        "value": "(+1) 972-766-6900"
      } ],
      "address": [ {
        "use": "billing",
        "type": "postal",
        "line": [ "P.O. Box 660044" ],
        "city": "Dallas",
        "state": "TX",
        "postalCode": "75266-0044",
        "country": "USA"
      } ]
    },
    "request": {
      "method": "PUT",
      "url": "Organization/a283dc9e-6144-481a-9101-49698f0e0182"
    }
  }, {
    "fullUrl": "https://madie.cms.gov/Practitioner/1e1da77f-f75e-4665-bd2a-25338120da28",
    "resource": {
      "resourceType": "Practitioner",
      "id": "1e1da77f-f75e-4665-bd2a-25338120da28",
      "identifier": [ {
        "system": "http://hl7.org/fhir/sid/us-npi",
        "value": "123456"
      } ],
      "name": [ {
        "family": "Evil",
        "prefix": [ "Dr" ]
      } ]
    },
    "request": {
      "method": "PUT",
      "url": "Practitioner/1e1da77f-f75e-4665-bd2a-25338120da28"
    }
  }, {
    "fullUrl": "https://madie.cms.gov/MeasureReport/bbe5fb4e-ba19-4923-a98e-fdeca5ac42c9",
    "resource": {
      "resourceType": "MeasureReport",
      "id": "bbe5fb4e-ba19-4923-a98e-fdeca5ac42c9",
      "meta": {
        "profile": [ "http://hl7.org/fhir/us/cqfmeasures/StructureDefinition/test-case-cqfm" ]
      },
      "contained": [ {
        "resourceType": "Parameters",
        "id": "53fe3848-f1f9-46d2-aa1f-e67150409578-parameters",
        "parameter": [ {
          "name": "subject",
          "valueString": "d205878e-b861-43a8-92e8-47f680987e4d"
        } ]
      } ],
      "extension": [ {
        "url": "http://hl7.org/fhir/StructureDefinition/cqf-inputParameters",
        "valueReference": {
          "reference": "#53fe3848-f1f9-46d2-aa1f-e67150409578-parameters"
        }
      }, {
        "url": "http://hl7.org/fhir/us/cqfmeasures/StructureDefinition/cqfm-testCaseDescription",
        "valueMarkdown": "Warfarin refused with taskReject profile\n"
      } ],
      "modifierExtension": [ {
        "url": "http://hl7.org/fhir/us/cqfmeasures/StructureDefinition/cqfm-isTestCase",
        "valueBoolean": true
      } ],
      "status": "complete",
      "type": "individual",
      "measure": "https://madie.cms.gov/Measure/CMS108FHIRVTEProphylaxis",
      "period": {
        "start": "2026-01-01",
        "end": "2026-12-31"
      },
      "group": [ {
        "id": "Group_1",
        "population": [ {
          "id": "InitialPopulation_1",
          "code": {
            "coding": [ {
              "system": "http://terminology.hl7.org/CodeSystem/measure-population",
              "code": "initial-population",
              "display": "Initial Population"
            } ]
          },
          "count": 1
        }, {
          "id": "Denominator_1",
          "code": {
            "coding": [ {
              "system": "http://terminology.hl7.org/CodeSystem/measure-population",
              "code": "denominator",
              "display": "Denominator"
            } ]
          },
          "count": 1
        }, {
          "id": "DenominatorExclusion_1",
          "code": {
            "coding": [ {
              "system": "http://terminology.hl7.org/CodeSystem/measure-population",
              "code": "denominator-exclusion",
              "display": "Denominator Exclusion"
            } ]
          },
          "count": 0
        }, {
          "id": "Numerator_1",
          "code": {
            "coding": [ {
              "system": "http://terminology.hl7.org/CodeSystem/measure-population",
              "code": "numerator",
              "display": "Numerator"
            } ]
          },
          "count": 1
        } ],
        "measureScore": {
          "value": 0.0
        }
      } ],
      "evaluatedResource": [ {
        "reference": "Patient/d205878e-b861-43a8-92e8-47f680987e4d"
      }, {
        "reference": "Encounter/adb9be21-a9fa-419a-bf58-9030a53d55f0"
      }, {
        "reference": "Coverage/b9455233-58a0-4a2b-b289-2abb22fa5344"
      }, {
        "reference": "MedicationRequest/2ed759f2-86e8-4056-9d81-faa4010d0897"
      }, {
        "reference": "Task/2f8b6710-1815-4401-abd3-3d814494f0d1"
      }, {
        "reference": "Organization/a283dc9e-6144-481a-9101-49698f0e0182"
      }, {
        "reference": "Practitioner/1e1da77f-f75e-4665-bd2a-25338120da28"
      } ]
    },
    "request": {
      "method": "PUT",
      "url": "MeasureReport/bbe5fb4e-ba19-4923-a98e-fdeca5ac42c9"
    }
  } ]
}