{
  "resourceType": "Bundle",
  "id": "63487c2d0968f80122540149",
  "type": "transaction",
  "entry": [ {
    "fullUrl": "https://madie.cms.gov/Patient/655df7e2-45d9-4dab-b218-863126c06ec7",
    "resource": {
      "resourceType": "Patient",
      "id": "655df7e2-45d9-4dab-b218-863126c06ec7",
      "meta": {
        "profile": [ "http://hl7.org/fhir/us/qicore/StructureDefinition/qicore-patient" ]
      },
      "text": {
        "status": "generated",
        "div": "<div xmlns=\"http://www.w3.org/1999/xhtml\"><div class=\"hapiHeaderText\">AgeGT65<b>IPOPFail</b></div><table class=\"hapiPropertyTable\"><tbody><tr><td>Identifier</td><td>d130de5f4e42b38bd935fc8ebcd660c0e5f442917fd322d307794dfacd0563d2</td></tr><tr><td>Date of birth</td><td><span>14 February 2004</span></td></tr></tbody></table></div>"
      },
      "extension": [ {
        "url": "http://hl7.org/fhir/us/core/StructureDefinition/us-core-race",
        "extension": [ {
          "url": "ombCategory",
          "valueCoding": {
            "system": "urn:oid:2.16.840.1.113883.6.238",
            "code": "1002-5",
            "display": "American Indian or Alaska Native",
            "userSelected": true
          }
        }, {
          "url": "text",
          "valueString": "American Indian or Alaska Native"
        } ]
      }, {
        "url": "http://hl7.org/fhir/us/core/StructureDefinition/us-core-ethnicity",
        "extension": [ {
          "url": "ombCategory",
          "valueCoding": {
            "system": "urn:oid:2.16.840.1.113883.6.238",
            "code": "2135-2",
            "display": "Hispanic or Latino",
            "userSelected": true
          }
        }, {
          "url": "text",
          "valueString": "Hispanic or Latino"
        } ]
      } ],
      "identifier": [ {
        "type": {
          "coding": [ {
            "system": "http://terminology.hl7.org/CodeSystem/v2-0203",
            "code": "MR"
          } ]
        },
        "system": "https://bonnie-fhir.healthit.gov/",
        "value": "63487c2d0968f80122540149"
      } ],
      "active": true,
      "name": [ {
        "use": "usual",
        "family": "IPOPFail",
        "given": [ "AgeGT65" ]
      } ],
      "gender": "female",
      "birthDate": "1941-02-14"
    },
    "request": {
      "method": "PUT",
      "url": "Patient/655df7e2-45d9-4dab-b218-863126c06ec7"
    }
  }, {
    "fullUrl": "https://madie.cms.gov/Encounter/f36f3666-45f2-4fc9-bdb4-9fc2fcf4949a",
    "resource": {
      "resourceType": "Encounter",
      "id": "f36f3666-45f2-4fc9-bdb4-9fc2fcf4949a",
      "meta": {
        "profile": [ "http://hl7.org/fhir/us/qicore/StructureDefinition/qicore-encounter" ]
      },
      "status": "finished",
      "class": {
        "system": "http://terminology.hl7.org/CodeSystem/v3-ActCode",
        "code": "IMP",
        "display": "inpatient encounter"
      },
      "type": [ {
        "coding": [ {
          "system": "http://snomed.info/sct",
          "code": "8715000"
        } ]
      } ],
      "subject": {
        "reference": "Patient/655df7e2-45d9-4dab-b218-863126c06ec7"
      },
      "period": {
        "start": "2026-11-28T08:00:00.000+00:00",
        "end": "2026-11-30T08:15:00.000+00:00"
      },
      "reasonCode": [ {
        "coding": [ {
          "system": "http://snomed.info/sct",
          "code": "169826009",
          "display": "Single live birth from singleton pregnancy (finding)"
        } ]
      } ]
    },
    "request": {
      "method": "PUT",
      "url": "Encounter/f36f3666-45f2-4fc9-bdb4-9fc2fcf4949a"
    }
  }, {
    "fullUrl": "https://madie.cms.gov/Procedure/e59ab5ed-340c-42f7-b4f4-18978e69b891",
    "resource": {
      "resourceType": "Procedure",
      "id": "e59ab5ed-340c-42f7-b4f4-18978e69b891",
      "meta": {
        "profile": [ "http://hl7.org/fhir/us/qicore/StructureDefinition/qicore-procedure" ]
      },
      "extension": [ {
        "url": "http://hl7.org/fhir/us/qicore/StructureDefinition/qicore-recorded",
        "valueDateTime": "2014-04-05T13:35:00.000+00:00"
      } ],
      "status": "completed",
      "code": {
        "coding": [ {
          "system": "http://snomed.info/sct",
          "version": "2022-09",
          "code": "10745001",
          "display": "Delivery of transverse presentation (procedure)",
          "userSelected": true
        } ]
      },
      "subject": {
        "reference": "Patient/655df7e2-45d9-4dab-b218-863126c06ec7"
      },
      "performedDateTime": "2026-11-28T20:00:00.000+00:00"
    },
    "request": {
      "method": "PUT",
      "url": "Procedure/e59ab5ed-340c-42f7-b4f4-18978e69b891"
    }
  }, {
    "fullUrl": "https://madie.cms.gov/Coverage/33729c21-5cfc-4ad3-9079-0accfa267548",
    "resource": {
      "resourceType": "Coverage",
      "id": "33729c21-5cfc-4ad3-9079-0accfa267548",
      "status": "active",
      "type": {
        "coding": [ {
          "system": "http://www.nlm.nih.gov/research/umls/sop",
          "version": "9.2",
          "code": "1",
          "display": "MEDICARE",
          "userSelected": true
        } ]
      },
      "subscriberId": "523435",
      "beneficiary": {
        "reference": "Patient/655df7e2-45d9-4dab-b218-863126c06ec7"
      },
      "relationship": {
        "coding": [ {
          "system": "http://terminology.hl7.org/CodeSystem/subscriber-relationship",
          "code": "self"
        } ]
      },
      "period": {
        "start": "2026-11-28T08:00:00.000+00:00",
        "end": "2026-11-30T08:15:00.000+00:00"
      },
      "payor": [ {
        "reference": "Organization/5f451720-f9c8-4f97-976d-cf47e65c2cfc"
      } ]
    },
    "request": {
      "method": "PUT",
      "url": "Coverage/33729c21-5cfc-4ad3-9079-0accfa267548"
    }
  }, {
    "fullUrl": "https://madie.cms.gov/Organization/5f451720-f9c8-4f97-976d-cf47e65c2cfc",
    "resource": {
      "resourceType": "Organization",
      "id": "5f451720-f9c8-4f97-976d-cf47e65c2cfc",
      "meta": {
        "profile": [ "http://hl7.org/fhir/us/qicore/StructureDefinition/qicore-organization" ]
      },
      "identifier": [ {
        "use": "temp",
        "system": "urn:oid:2.16.840.1.113883.4.4",
        "value": "21-3259825"
      } ],
      "active": true,
      "type": [ {
        "coding": [ {
          "system": "http://terminology.hl7.org/CodeSystem/organization-type",
          "code": "pay",
          "display": "Payer"
        } ]
      } ],
      "name": "Blue Cross Blue Shield of Texas",
      "telecom": [ {
        "system": "phone",
        "value": "(+1) 972-766-6900"
      } ],
      "address": [ {
        "use": "billing",
        "type": "postal",
        "line": [ "P.O. Box 660044" ],
        "city": "Dallas",
        "state": "TX",
        "postalCode": "75266-0044",
        "country": "USA"
      } ]
    },
    "request": {
      "method": "PUT",
      "url": "Organization/5f451720-f9c8-4f97-976d-cf47e65c2cfc"
    }
  }, {
    "fullUrl": "https://madie.cms.gov/Practitioner/52e524e8-90e2-4cba-aef1-cdc2b6118c43",
    "resource": {
      "resourceType": "Practitioner",
      "id": "52e524e8-90e2-4cba-aef1-cdc2b6118c43",
      "meta": {
        "profile": [ "http://hl7.org/fhir/us/qicore/StructureDefinition/qicore-practitioner" ]
      },
      "identifier": [ {
        "system": "http://hl7.org/fhir/sid/us-npi",
        "value": "1234567890"
      } ],
      "name": [ {
        "family": "Evil",
        "prefix": [ "Dr" ]
      } ]
    },
    "request": {
      "method": "PUT",
      "url": "Practitioner/52e524e8-90e2-4cba-aef1-cdc2b6118c43"
    }
  }, {
    "fullUrl": "https://madie.cms.gov/MeasureReport/b1f9e5d1-c980-4685-b301-3c2f0e288b92",
    "resource": {
      "resourceType": "MeasureReport",
      "id": "b1f9e5d1-c980-4685-b301-3c2f0e288b92",
      "meta": {
        "profile": [ "http://hl7.org/fhir/us/cqfmeasures/StructureDefinition/test-case-cqfm" ]
      },
      "contained": [ {
        "resourceType": "Parameters",
        "id": "ce2caad6-ccd0-49bb-baf2-db2f47ca1594-parameters",
        "parameter": [ {
          "name": "subject",
          "valueString": "655df7e2-45d9-4dab-b218-863126c06ec7"
        } ]
      } ],
      "extension": [ {
        "url": "http://hl7.org/fhir/StructureDefinition/cqf-inputParameters",
        "valueReference": {
          "reference": "#ce2caad6-ccd0-49bb-baf2-db2f47ca1594-parameters"
        }
      }, {
        "url": "http://hl7.org/fhir/us/cqfmeasures/StructureDefinition/cqfm-testCaseDescription",
        "valueMarkdown": "Pt >65 years of age .  This  is an intentional fail \n"
      } ],
      "modifierExtension": [ {
        "url": "http://hl7.org/fhir/us/cqfmeasures/StructureDefinition/cqfm-isTestCase",
        "valueBoolean": true
      } ],
      "status": "complete",
      "type": "individual",
      "measure": "https://madie.cms.gov/Measure/CMS0334FHIRPCCesareanBirth",
      "period": {
        "start": "2026-01-01",
        "end": "2026-12-31"
      },
      "group": [ {
        "id": "Group_1",
        "population": [ {
          "id": "InitialPopulation_1",
          "code": {
            "coding": [ {
              "system": "http://terminology.hl7.org/CodeSystem/measure-population",
              "code": "initial-population",
              "display": "Initial Population"
            } ]
          },
          "count": 0
        }, {
          "id": "Denominator_1",
          "code": {
            "coding": [ {
              "system": "http://terminology.hl7.org/CodeSystem/measure-population",
              "code": "denominator",
              "display": "Denominator"
            } ]
          },
          "count": 0
        }, {
          "id": "DenominatorExclusion_1",
          "code": {
            "coding": [ {
              "system": "http://terminology.hl7.org/CodeSystem/measure-population",
              "code": "denominator-exclusion",
              "display": "Denominator Exclusion"
            } ]
          },
          "count": 0
        }, {
          "id": "Numerator_1",
          "code": {
            "coding": [ {
              "system": "http://terminology.hl7.org/CodeSystem/measure-population",
              "code": "numerator",
              "display": "Numerator"
            } ]
          },
          "count": 0
        } ],
        "measureScore": {
          "value": 0.0
        }
      } ],
      "evaluatedResource": [ {
        "reference": "Patient/655df7e2-45d9-4dab-b218-863126c06ec7"
      }, {
        "reference": "Encounter/f36f3666-45f2-4fc9-bdb4-9fc2fcf4949a"
      }, {
        "reference": "Procedure/e59ab5ed-340c-42f7-b4f4-18978e69b891"
      }, {
        "reference": "Coverage/33729c21-5cfc-4ad3-9079-0accfa267548"
      }, {
        "reference": "Organization/5f451720-f9c8-4f97-976d-cf47e65c2cfc"
      }, {
        "reference": "Practitioner/52e524e8-90e2-4cba-aef1-cdc2b6118c43"
      } ]
    },
    "request": {
      "method": "PUT",
      "url": "MeasureReport/b1f9e5d1-c980-4685-b301-3c2f0e288b92"
    }
  } ]
}