{"resourceType":"Bundle","id":"tests-6ee7c92c-c8cd-4025-8002-ca1253ba830b-bundle","type":"transaction","entry":[{"resource":{"resourceType":"MeasureReport","id":"467a2d7e-819a-4ceb-a267-825e1cc46a0b","meta":{"profile":["http://hl7.org/fhir/us/cqfmeasures/StructureDefinition/test-case-cqfm"]},"contained":[{"resourceType":"Parameters","id":"81fde4a3-4729-4e21-abb0-208e1c209411-parameters","parameter":[{"name":"subject","valueString":"6ee7c92c-c8cd-4025-8002-ca1253ba830b"}]}],"extension":[{"url":"http://hl7.org/fhir/StructureDefinition/cqf-inputParameters","valueReference":{"reference":"#81fde4a3-4729-4e21-abb0-208e1c209411-parameters"}},{"url":"http://hl7.org/fhir/us/cqfmeasures/StructureDefinition/cqfm-testCaseDescription","valueMarkdown":"Palliative Care Condition - Testing condition encounter diagnosis for meeting 100% coverage"}],"modifierExtension":[{"url":"http://hl7.org/fhir/us/cqfmeasures/StructureDefinition/cqfm-isTestCase","valueBoolean":true}],"status":"complete","type":"individual","measure":"https://madie.cms.gov/Measure/CMS124FHIRCervicalCancerScreening","period":{"start":"2026-01-01","end":"2026-12-31"},"group":[{"id":"Group_1","population":[{"id":"InitialPopulation_1","code":{"coding":[{"system":"http://terminology.hl7.org/CodeSystem/measure-population","code":"initial-population","display":"Initial Population"}]},"count":1},{"id":"Denominator_1","code":{"coding":[{"system":"http://terminology.hl7.org/CodeSystem/measure-population","code":"denominator","display":"Denominator"}]},"count":1},{"id":"DenominatorExclusion_1","code":{"coding":[{"system":"http://terminology.hl7.org/CodeSystem/measure-population","code":"denominator-exclusion","display":"Denominator Exclusion"}]},"count":1},{"id":"Numerator_1","code":{"coding":[{"system":"http://terminology.hl7.org/CodeSystem/measure-population","code":"numerator","display":"Numerator"}]},"count":0}],"measureScore":{"value":1.0}}],"evaluatedResource":[{"reference":"Patient/6ee7c92c-c8cd-4025-8002-ca1253ba830b"},{"reference":"Encounter/1b449d1c-7534-40a4-b8f1-94885dc72f65"},{"reference":"Condition/676c443a-0173-451a-a9ff-d7b0c34ef4d4"}]},"request":{"method":"PUT","url":"MeasureReport/467a2d7e-819a-4ceb-a267-825e1cc46a0b"}},{"resource":{"resourceType":"Patient","id":"6ee7c92c-c8cd-4025-8002-ca1253ba830b","meta":{"profile":["http://hl7.org/fhir/us/qicore/StructureDefinition/qicore-patient"]},"extension":[{"url":"http://hl7.org/fhir/us/core/StructureDefinition/us-core-race","extension":[{"url":"ombCategory","valueCoding":{"system":"urn:oid:2.16.840.1.113883.6.238","code":"2028-9","display":"Asian"}},{"url":"text","valueString":"Asian"}]},{"url":"http://hl7.org/fhir/us/core/StructureDefinition/us-core-sex","valueCode":"248152002"},{"url":"http://hl7.org/fhir/us/core/StructureDefinition/us-core-ethnicity","extension":[{"url":"ombCategory","valueCoding":{"system":"urn:oid:2.16.840.1.113883.6.238","code":"2135-2","display":"Hispanic or Latino"}},{"url":"text","valueString":"Hispanic or Latino"}]}],"identifier":[{"system":"http://hospital.smarthealthit.org","value":"999999995"}],"name":[{"family":"Bertha","given":["Betty"]}],"gender":"female","birthDate":"2002-12-31"},"request":{"method":"PUT","url":"Patient/6ee7c92c-c8cd-4025-8002-ca1253ba830b"}},{"resource":{"resourceType":"Encounter","id":"1b449d1c-7534-40a4-b8f1-94885dc72f65","meta":{"profile":["http://hl7.org/fhir/us/qicore/StructureDefinition/qicore-encounter"]},"status":"finished","class":{"system":"http://terminology.hl7.org/CodeSystem/v3-ActCode","code":"AMB","display":"ambulatory"},"type":[{"coding":[{"system":"http://snomed.info/sct","code":"185460008","display":"Home visit request by patient (procedure)"}]}],"subject":{"reference":"Patient/6ee7c92c-c8cd-4025-8002-ca1253ba830b"},"period":{"start":"2026-01-01T00:00:00.000+00:00","end":"2026-01-01T01:00:00.000+00:00"}},"request":{"method":"PUT","url":"Encounter/1b449d1c-7534-40a4-b8f1-94885dc72f65"}},{"resource":{"resourceType":"Bundle","id":"DENEXPass-PalliativeCareCondEncDiagnosisDuringMP","type":"transaction","entry":[{"fullUrl":"https://madie.cms.gov/Patient/6ee7c92c-c8cd-4025-8002-ca1253ba830b","resource":{"resourceType":"Patient","id":"6ee7c92c-c8cd-4025-8002-ca1253ba830b","meta":{"profile":["http://hl7.org/fhir/us/qicore/StructureDefinition/qicore-patient"]},"extension":[{"url":"http://hl7.org/fhir/us/core/StructureDefinition/us-core-race","extension":[{"url":"ombCategory","valueCoding":{"system":"urn:oid:2.16.840.1.113883.6.238","code":"2028-9","display":"Asian"}},{"url":"text","valueString":"Asian"}]},{"url":"http://hl7.org/fhir/us/core/StructureDefinition/us-core-sex","valueCode":"248152002"},{"url":"http://hl7.org/fhir/us/core/StructureDefinition/us-core-ethnicity","extension":[{"url":"ombCategory","valueCoding":{"system":"urn:oid:2.16.840.1.113883.6.238","code":"2135-2","display":"Hispanic or Latino"}},{"url":"text","valueString":"Hispanic or Latino"}]}],"identifier":[{"system":"http://hospital.smarthealthit.org","value":"999999995"}],"name":[{"family":"Bertha","given":["Betty"]}],"gender":"female","birthDate":"2002-12-31"},"request":{"method":"PUT","url":"Patient/6ee7c92c-c8cd-4025-8002-ca1253ba830b"}},{"fullUrl":"https://madie.cms.gov/Encounter/1b449d1c-7534-40a4-b8f1-94885dc72f65","resource":{"resourceType":"Encounter","id":"1b449d1c-7534-40a4-b8f1-94885dc72f65","meta":{"profile":["http://hl7.org/fhir/us/qicore/StructureDefinition/qicore-encounter"]},"status":"finished","class":{"system":"http://terminology.hl7.org/CodeSystem/v3-ActCode","code":"AMB","display":"ambulatory"},"type":[{"coding":[{"system":"http://snomed.info/sct","code":"185460008","display":"Home visit request by patient (procedure)"}]}],"subject":{"reference":"Patient/6ee7c92c-c8cd-4025-8002-ca1253ba830b"},"period":{"start":"2026-01-01T00:00:00.000+00:00","end":"2026-01-01T01:00:00.000+00:00"}},"request":{"method":"PUT","url":"Encounter/1b449d1c-7534-40a4-b8f1-94885dc72f65"}},{"fullUrl":"https://madie.cms.gov/Condition/676c443a-0173-451a-a9ff-d7b0c34ef4d4","resource":{"resourceType":"Condition","id":"676c443a-0173-451a-a9ff-d7b0c34ef4d4","meta":{"profile":["http://hl7.org/fhir/us/qicore/StructureDefinition/qicore-condition-encounter-diagnosis"]},"clinicalStatus":{"coding":[{"system":"http://terminology.hl7.org/CodeSystem/condition-clinical","code":"active"}]},"category":[{"coding":[{"system":"http://terminology.hl7.org/CodeSystem/condition-category","code":"encounter-diagnosis","display":"Encounter Diagnosis"}]}],"code":{"coding":[{"system":"http://snomed.info/sct","code":"441874000","display":"Seen by palliative care service (finding)"}]},"subject":{"reference":"Patient/6ee7c92c-c8cd-4025-8002-ca1253ba830b"},"onsetDateTime":"2026-12-31T23:59:59.000+00:00"},"request":{"method":"PUT","url":"Condition/676c443a-0173-451a-a9ff-d7b0c34ef4d4"}},{"fullUrl":"https://madie.cms.gov/MeasureReport/467a2d7e-819a-4ceb-a267-825e1cc46a0b","resource":{"resourceType":"MeasureReport","id":"467a2d7e-819a-4ceb-a267-825e1cc46a0b","meta":{"profile":["http://hl7.org/fhir/us/cqfmeasures/StructureDefinition/test-case-cqfm"]},"contained":[{"resourceType":"Parameters","id":"81fde4a3-4729-4e21-abb0-208e1c209411-parameters","parameter":[{"name":"subject","valueString":"6ee7c92c-c8cd-4025-8002-ca1253ba830b"}]}],"extension":[{"url":"http://hl7.org/fhir/StructureDefinition/cqf-inputParameters","valueReference":{"reference":"#81fde4a3-4729-4e21-abb0-208e1c209411-parameters"}},{"url":"http://hl7.org/fhir/us/cqfmeasures/StructureDefinition/cqfm-testCaseDescription","valueMarkdown":"Palliative Care Condition - Testing condition encounter diagnosis for meeting 100% coverage"}],"modifierExtension":[{"url":"http://hl7.org/fhir/us/cqfmeasures/StructureDefinition/cqfm-isTestCase","valueBoolean":true}],"status":"complete","type":"individual","measure":"https://madie.cms.gov/Measure/CMS124FHIRCervicalCancerScreening","period":{"start":"2026-01-01","end":"2026-12-31"},"group":[{"id":"Group_1","population":[{"id":"InitialPopulation_1","code":{"coding":[{"system":"http://terminology.hl7.org/CodeSystem/measure-population","code":"initial-population","display":"Initial Population"}]},"count":1},{"id":"Denominator_1","code":{"coding":[{"system":"http://terminology.hl7.org/CodeSystem/measure-population","code":"denominator","display":"Denominator"}]},"count":1},{"id":"DenominatorExclusion_1","code":{"coding":[{"system":"http://terminology.hl7.org/CodeSystem/measure-population","code":"denominator-exclusion","display":"Denominator Exclusion"}]},"count":1},{"id":"Numerator_1","code":{"coding":[{"system":"http://terminology.hl7.org/CodeSystem/measure-population","code":"numerator","display":"Numerator"}]},"count":0}],"measureScore":{"value":1.0}}],"evaluatedResource":[{"reference":"Patient/6ee7c92c-c8cd-4025-8002-ca1253ba830b"},{"reference":"Encounter/1b449d1c-7534-40a4-b8f1-94885dc72f65"},{"reference":"Condition/676c443a-0173-451a-a9ff-d7b0c34ef4d4"}]},"request":{"method":"PUT","url":"MeasureReport/467a2d7e-819a-4ceb-a267-825e1cc46a0b"}}]},"request":{"method":"PUT","url":"Bundle/DENEXPass-PalliativeCareCondEncDiagnosisDuringMP"}},{"resource":{"resourceType":"Condition","id":"676c443a-0173-451a-a9ff-d7b0c34ef4d4","meta":{"profile":["http://hl7.org/fhir/us/qicore/StructureDefinition/qicore-condition-encounter-diagnosis"]},"clinicalStatus":{"coding":[{"system":"http://terminology.hl7.org/CodeSystem/condition-clinical","code":"active"}]},"category":[{"coding":[{"system":"http://terminology.hl7.org/CodeSystem/condition-category","code":"encounter-diagnosis","display":"Encounter Diagnosis"}]}],"code":{"coding":[{"system":"http://snomed.info/sct","code":"441874000","display":"Seen by palliative care service (finding)"}]},"subject":{"reference":"Patient/6ee7c92c-c8cd-4025-8002-ca1253ba830b"},"onsetDateTime":"2026-12-31T23:59:59.000+00:00"},"request":{"method":"PUT","url":"Condition/676c443a-0173-451a-a9ff-d7b0c34ef4d4"}}]}