{"resourceType":"Bundle","id":"tests-25727adc-4495-4e13-9dfc-8b9cb6bf17b9-bundle","type":"transaction","entry":[{"resource":{"resourceType":"MeasureReport","id":"740f43af-18a8-4bbd-9312-00d301f41f23","meta":{"profile":["http://hl7.org/fhir/us/cqfmeasures/StructureDefinition/test-case-cqfm"]},"contained":[{"resourceType":"Parameters","id":"cef289f8-7c28-4377-b9b4-db3db5eac026-parameters","parameter":[{"name":"subject","valueString":"25727adc-4495-4e13-9dfc-8b9cb6bf17b9"}]}],"extension":[{"url":"http://hl7.org/fhir/StructureDefinition/cqf-inputParameters","valueReference":{"reference":"#cef289f8-7c28-4377-b9b4-db3db5eac026-parameters"}},{"url":"http://hl7.org/fhir/us/cqfmeasures/StructureDefinition/cqfm-testCaseDescription","valueMarkdown":"Female 24 years old with Cervical Cytology performed during MP"}],"modifierExtension":[{"url":"http://hl7.org/fhir/us/cqfmeasures/StructureDefinition/cqfm-isTestCase","valueBoolean":true}],"status":"complete","type":"individual","measure":"https://madie.cms.gov/Measure/CMS124FHIRCervicalCancerScreening","period":{"start":"2026-01-01","end":"2026-12-31"},"group":[{"id":"Group_1","population":[{"id":"InitialPopulation_1","code":{"coding":[{"system":"http://terminology.hl7.org/CodeSystem/measure-population","code":"initial-population","display":"Initial Population"}]},"count":1},{"id":"Denominator_1","code":{"coding":[{"system":"http://terminology.hl7.org/CodeSystem/measure-population","code":"denominator","display":"Denominator"}]},"count":1},{"id":"DenominatorExclusion_1","code":{"coding":[{"system":"http://terminology.hl7.org/CodeSystem/measure-population","code":"denominator-exclusion","display":"Denominator Exclusion"}]},"count":0},{"id":"Numerator_1","code":{"coding":[{"system":"http://terminology.hl7.org/CodeSystem/measure-population","code":"numerator","display":"Numerator"}]},"count":1}],"measureScore":{"value":1.0}}],"evaluatedResource":[{"reference":"Patient/25727adc-4495-4e13-9dfc-8b9cb6bf17b9"},{"reference":"Encounter/610f7690-71b7-4b76-96ce-f573b49228a4"},{"reference":"Observation/97547c0c-d686-4ff8-8923-737a2360945d"}]},"request":{"method":"PUT","url":"MeasureReport/740f43af-18a8-4bbd-9312-00d301f41f23"}},{"resource":{"resourceType":"Patient","id":"25727adc-4495-4e13-9dfc-8b9cb6bf17b9","meta":{"profile":["http://hl7.org/fhir/us/qicore/StructureDefinition/qicore-patient"]},"extension":[{"url":"http://hl7.org/fhir/us/core/StructureDefinition/us-core-race","extension":[{"url":"ombCategory","valueCoding":{"system":"urn:oid:2.16.840.1.113883.6.238","code":"2028-9","display":"Asian"}},{"url":"text","valueString":"Asian"}]},{"url":"http://hl7.org/fhir/us/core/StructureDefinition/us-core-sex","valueCode":"248152002"},{"url":"http://hl7.org/fhir/us/core/StructureDefinition/us-core-ethnicity","extension":[{"url":"ombCategory","valueCoding":{"system":"urn:oid:2.16.840.1.113883.6.238","code":"2135-2","display":"Hispanic or Latino"}},{"url":"text","valueString":"Hispanic or Latino"}]}],"identifier":[{"system":"http://hospital.smarthealthit.org","value":"999999995"}],"name":[{"family":"Bertha","given":["Betty"]}],"gender":"female","birthDate":"2002-12-31"},"request":{"method":"PUT","url":"Patient/25727adc-4495-4e13-9dfc-8b9cb6bf17b9"}},{"resource":{"resourceType":"Observation","id":"97547c0c-d686-4ff8-8923-737a2360945d","meta":{"profile":["http://hl7.org/fhir/us/qicore/StructureDefinition/qicore-observation-lab"]},"status":"final","category":[{"coding":[{"system":"http://terminology.hl7.org/CodeSystem/observation-category","code":"laboratory","display":"laboratory"}],"text":"laboratory"}],"code":{"coding":[{"system":"http://loinc.org","code":"10524-7","display":"Microscopic observation [Identifier] in Cervix by Cyto stain"}]},"subject":{"reference":"Patient/25727adc-4495-4e13-9dfc-8b9cb6bf17b9"},"effectivePeriod":{"start":"2026-12-31T23:00:00.000+00:00","end":"2026-12-31T23:59:00.000+00:00"},"valueInteger":1},"request":{"method":"PUT","url":"Observation/97547c0c-d686-4ff8-8923-737a2360945d"}},{"resource":{"resourceType":"Encounter","id":"610f7690-71b7-4b76-96ce-f573b49228a4","meta":{"profile":["http://hl7.org/fhir/us/qicore/StructureDefinition/qicore-encounter"]},"status":"finished","class":{"system":"http://terminology.hl7.org/CodeSystem/v3-ActCode","code":"AMB","display":"ambulatory"},"type":[{"coding":[{"system":"http://snomed.info/sct","code":"185317003","display":"Telephone encounter (procedure)"}]}],"subject":{"reference":"Patient/25727adc-4495-4e13-9dfc-8b9cb6bf17b9"},"period":{"start":"2026-01-01T01:00:00.000+00:00","end":"2026-01-01T01:15:00.000+00:00"}},"request":{"method":"PUT","url":"Encounter/610f7690-71b7-4b76-96ce-f573b49228a4"}},{"resource":{"resourceType":"Bundle","id":"NUMPass-CervicalCytologyDuringMP","type":"transaction","entry":[{"fullUrl":"https://madie.cms.gov/Patient/25727adc-4495-4e13-9dfc-8b9cb6bf17b9","resource":{"resourceType":"Patient","id":"25727adc-4495-4e13-9dfc-8b9cb6bf17b9","meta":{"profile":["http://hl7.org/fhir/us/qicore/StructureDefinition/qicore-patient"]},"extension":[{"url":"http://hl7.org/fhir/us/core/StructureDefinition/us-core-race","extension":[{"url":"ombCategory","valueCoding":{"system":"urn:oid:2.16.840.1.113883.6.238","code":"2028-9","display":"Asian"}},{"url":"text","valueString":"Asian"}]},{"url":"http://hl7.org/fhir/us/core/StructureDefinition/us-core-sex","valueCode":"248152002"},{"url":"http://hl7.org/fhir/us/core/StructureDefinition/us-core-ethnicity","extension":[{"url":"ombCategory","valueCoding":{"system":"urn:oid:2.16.840.1.113883.6.238","code":"2135-2","display":"Hispanic or Latino"}},{"url":"text","valueString":"Hispanic or Latino"}]}],"identifier":[{"system":"http://hospital.smarthealthit.org","value":"999999995"}],"name":[{"family":"Bertha","given":["Betty"]}],"gender":"female","birthDate":"2002-12-31"},"request":{"method":"PUT","url":"Patient/25727adc-4495-4e13-9dfc-8b9cb6bf17b9"}},{"fullUrl":"https://madie.cms.gov/Encounter/610f7690-71b7-4b76-96ce-f573b49228a4","resource":{"resourceType":"Encounter","id":"610f7690-71b7-4b76-96ce-f573b49228a4","meta":{"profile":["http://hl7.org/fhir/us/qicore/StructureDefinition/qicore-encounter"]},"status":"finished","class":{"system":"http://terminology.hl7.org/CodeSystem/v3-ActCode","code":"AMB","display":"ambulatory"},"type":[{"coding":[{"system":"http://snomed.info/sct","code":"185317003","display":"Telephone encounter (procedure)"}]}],"subject":{"reference":"Patient/25727adc-4495-4e13-9dfc-8b9cb6bf17b9"},"period":{"start":"2026-01-01T01:00:00.000+00:00","end":"2026-01-01T01:15:00.000+00:00"}},"request":{"method":"PUT","url":"Encounter/610f7690-71b7-4b76-96ce-f573b49228a4"}},{"fullUrl":"https://madie.cms.gov/Observation/97547c0c-d686-4ff8-8923-737a2360945d","resource":{"resourceType":"Observation","id":"97547c0c-d686-4ff8-8923-737a2360945d","meta":{"profile":["http://hl7.org/fhir/us/qicore/StructureDefinition/qicore-observation-lab"]},"status":"final","category":[{"coding":[{"system":"http://terminology.hl7.org/CodeSystem/observation-category","code":"laboratory","display":"laboratory"}],"text":"laboratory"}],"code":{"coding":[{"system":"http://loinc.org","code":"10524-7","display":"Microscopic observation [Identifier] in Cervix by Cyto stain"}]},"subject":{"reference":"Patient/25727adc-4495-4e13-9dfc-8b9cb6bf17b9"},"effectivePeriod":{"start":"2026-12-31T23:00:00.000+00:00","end":"2026-12-31T23:59:00.000+00:00"},"valueInteger":1},"request":{"method":"PUT","url":"Observation/97547c0c-d686-4ff8-8923-737a2360945d"}},{"fullUrl":"https://madie.cms.gov/MeasureReport/740f43af-18a8-4bbd-9312-00d301f41f23","resource":{"resourceType":"MeasureReport","id":"740f43af-18a8-4bbd-9312-00d301f41f23","meta":{"profile":["http://hl7.org/fhir/us/cqfmeasures/StructureDefinition/test-case-cqfm"]},"contained":[{"resourceType":"Parameters","id":"cef289f8-7c28-4377-b9b4-db3db5eac026-parameters","parameter":[{"name":"subject","valueString":"25727adc-4495-4e13-9dfc-8b9cb6bf17b9"}]}],"extension":[{"url":"http://hl7.org/fhir/StructureDefinition/cqf-inputParameters","valueReference":{"reference":"#cef289f8-7c28-4377-b9b4-db3db5eac026-parameters"}},{"url":"http://hl7.org/fhir/us/cqfmeasures/StructureDefinition/cqfm-testCaseDescription","valueMarkdown":"Female 24 years old with Cervical Cytology performed during MP"}],"modifierExtension":[{"url":"http://hl7.org/fhir/us/cqfmeasures/StructureDefinition/cqfm-isTestCase","valueBoolean":true}],"status":"complete","type":"individual","measure":"https://madie.cms.gov/Measure/CMS124FHIRCervicalCancerScreening","period":{"start":"2026-01-01","end":"2026-12-31"},"group":[{"id":"Group_1","population":[{"id":"InitialPopulation_1","code":{"coding":[{"system":"http://terminology.hl7.org/CodeSystem/measure-population","code":"initial-population","display":"Initial Population"}]},"count":1},{"id":"Denominator_1","code":{"coding":[{"system":"http://terminology.hl7.org/CodeSystem/measure-population","code":"denominator","display":"Denominator"}]},"count":1},{"id":"DenominatorExclusion_1","code":{"coding":[{"system":"http://terminology.hl7.org/CodeSystem/measure-population","code":"denominator-exclusion","display":"Denominator Exclusion"}]},"count":0},{"id":"Numerator_1","code":{"coding":[{"system":"http://terminology.hl7.org/CodeSystem/measure-population","code":"numerator","display":"Numerator"}]},"count":1}],"measureScore":{"value":1.0}}],"evaluatedResource":[{"reference":"Patient/25727adc-4495-4e13-9dfc-8b9cb6bf17b9"},{"reference":"Encounter/610f7690-71b7-4b76-96ce-f573b49228a4"},{"reference":"Observation/97547c0c-d686-4ff8-8923-737a2360945d"}]},"request":{"method":"PUT","url":"MeasureReport/740f43af-18a8-4bbd-9312-00d301f41f23"}}]},"request":{"method":"PUT","url":"Bundle/NUMPass-CervicalCytologyDuringMP"}}]}