{"resourceType":"Bundle","id":"tests-4c40d1e6-3943-4a0e-a95c-6e6b845f0851-bundle","type":"transaction","entry":[{"resource":{"resourceType":"Patient","id":"4c40d1e6-3943-4a0e-a95c-6e6b845f0851","meta":{"profile":["http://hl7.org/fhir/us/qicore/StructureDefinition/qicore-patient"]},"extension":[{"url":"http://hl7.org/fhir/us/core/StructureDefinition/us-core-race","extension":[{"url":"ombCategory","valueCoding":{"system":"urn:oid:2.16.840.1.113883.6.238","code":"2028-9","display":"Asian"}},{"url":"text","valueString":"Asian"}]},{"url":"http://hl7.org/fhir/us/core/StructureDefinition/us-core-sex","valueCode":"248152002"},{"url":"http://hl7.org/fhir/us/core/StructureDefinition/us-core-ethnicity","extension":[{"url":"ombCategory","valueCoding":{"system":"urn:oid:2.16.840.1.113883.6.238","code":"2135-2","display":"Hispanic or Latino"}},{"url":"text","valueString":"Hispanic or Latino"}]}],"identifier":[{"system":"http://hospital.smarthealthit.org","value":"999999995"}],"name":[{"family":"Bertha","given":["Betty"]}],"gender":"female","birthDate":"1991-12-31"},"request":{"method":"PUT","url":"Patient/4c40d1e6-3943-4a0e-a95c-6e6b845f0851"}},{"resource":{"resourceType":"Bundle","id":"NUMPass-Age30HPVTestFourYearsPriorMP","type":"transaction","entry":[{"fullUrl":"https://madie.cms.gov/Patient/4c40d1e6-3943-4a0e-a95c-6e6b845f0851","resource":{"resourceType":"Patient","id":"4c40d1e6-3943-4a0e-a95c-6e6b845f0851","meta":{"profile":["http://hl7.org/fhir/us/qicore/StructureDefinition/qicore-patient"]},"extension":[{"url":"http://hl7.org/fhir/us/core/StructureDefinition/us-core-race","extension":[{"url":"ombCategory","valueCoding":{"system":"urn:oid:2.16.840.1.113883.6.238","code":"2028-9","display":"Asian"}},{"url":"text","valueString":"Asian"}]},{"url":"http://hl7.org/fhir/us/core/StructureDefinition/us-core-sex","valueCode":"248152002"},{"url":"http://hl7.org/fhir/us/core/StructureDefinition/us-core-ethnicity","extension":[{"url":"ombCategory","valueCoding":{"system":"urn:oid:2.16.840.1.113883.6.238","code":"2135-2","display":"Hispanic or Latino"}},{"url":"text","valueString":"Hispanic or Latino"}]}],"identifier":[{"system":"http://hospital.smarthealthit.org","value":"999999995"}],"name":[{"family":"Bertha","given":["Betty"]}],"gender":"female","birthDate":"1991-12-31"},"request":{"method":"PUT","url":"Patient/4c40d1e6-3943-4a0e-a95c-6e6b845f0851"}},{"fullUrl":"https://madie.cms.gov/Encounter/cd25e83d-8ecb-4b16-8abe-cf07b9f68701","resource":{"resourceType":"Encounter","id":"cd25e83d-8ecb-4b16-8abe-cf07b9f68701","meta":{"profile":["http://hl7.org/fhir/us/qicore/StructureDefinition/qicore-encounter"]},"status":"finished","class":{"system":"http://terminology.hl7.org/CodeSystem/v3-ActCode","code":"AMB","display":"ambulatory"},"type":[{"coding":[{"system":"http://snomed.info/sct","code":"185317003","display":"Telephone encounter (procedure)"}]}],"subject":{"reference":"Patient/4c40d1e6-3943-4a0e-a95c-6e6b845f0851"},"period":{"start":"2026-01-01T01:00:00.000+00:00","end":"2026-01-01T01:15:00.000+00:00"}},"request":{"method":"PUT","url":"Encounter/cd25e83d-8ecb-4b16-8abe-cf07b9f68701"}},{"fullUrl":"https://madie.cms.gov/Observation/4ec00fd5-417a-4148-8808-25dc9d4dd391","resource":{"resourceType":"Observation","id":"4ec00fd5-417a-4148-8808-25dc9d4dd391","meta":{"profile":["http://hl7.org/fhir/us/qicore/StructureDefinition/qicore-observation-lab"]},"status":"final","category":[{"coding":[{"system":"http://terminology.hl7.org/CodeSystem/observation-category","code":"laboratory","display":"laboratory"}],"text":"laboratory"}],"code":{"coding":[{"system":"http://loinc.org","code":"21440-3","display":"Human papilloma virus 16+18+31+33+35+45+51+52+56 DNA [Presence] in Cervix by Probe"}]},"subject":{"reference":"Patient/4c40d1e6-3943-4a0e-a95c-6e6b845f0851"},"effectivePeriod":{"start":"2022-01-01T23:00:00.000+00:00","end":"2022-01-01T23:59:00.000+00:00"},"valueInteger":1},"request":{"method":"PUT","url":"Observation/4ec00fd5-417a-4148-8808-25dc9d4dd391"}},{"fullUrl":"https://madie.cms.gov/MeasureReport/56078a68-7124-4233-9a3f-f3c4361bb348","resource":{"resourceType":"MeasureReport","id":"56078a68-7124-4233-9a3f-f3c4361bb348","meta":{"profile":["http://hl7.org/fhir/us/cqfmeasures/StructureDefinition/test-case-cqfm"]},"contained":[{"resourceType":"Parameters","id":"542bd63f-10a0-4ae3-9476-83a5ebad68e5-parameters","parameter":[{"name":"subject","valueString":"4c40d1e6-3943-4a0e-a95c-6e6b845f0851"}]}],"extension":[{"url":"http://hl7.org/fhir/StructureDefinition/cqf-inputParameters","valueReference":{"reference":"#542bd63f-10a0-4ae3-9476-83a5ebad68e5-parameters"}},{"url":"http://hl7.org/fhir/us/cqfmeasures/StructureDefinition/cqfm-testCaseDescription","valueMarkdown":"Female 30 years old with HPV Test four years prior MP"}],"modifierExtension":[{"url":"http://hl7.org/fhir/us/cqfmeasures/StructureDefinition/cqfm-isTestCase","valueBoolean":true}],"status":"complete","type":"individual","measure":"https://madie.cms.gov/Measure/CMS124FHIRCervicalCancerScreening","period":{"start":"2026-01-01","end":"2026-12-31"},"group":[{"id":"Group_1","population":[{"id":"InitialPopulation_1","code":{"coding":[{"system":"http://terminology.hl7.org/CodeSystem/measure-population","code":"initial-population","display":"Initial Population"}]},"count":1},{"id":"Denominator_1","code":{"coding":[{"system":"http://terminology.hl7.org/CodeSystem/measure-population","code":"denominator","display":"Denominator"}]},"count":1},{"id":"DenominatorExclusion_1","code":{"coding":[{"system":"http://terminology.hl7.org/CodeSystem/measure-population","code":"denominator-exclusion","display":"Denominator Exclusion"}]},"count":0},{"id":"Numerator_1","code":{"coding":[{"system":"http://terminology.hl7.org/CodeSystem/measure-population","code":"numerator","display":"Numerator"}]},"count":1}],"measureScore":{"value":1.0}}],"evaluatedResource":[{"reference":"Patient/4c40d1e6-3943-4a0e-a95c-6e6b845f0851"},{"reference":"Encounter/cd25e83d-8ecb-4b16-8abe-cf07b9f68701"},{"reference":"Observation/4ec00fd5-417a-4148-8808-25dc9d4dd391"}]},"request":{"method":"PUT","url":"MeasureReport/56078a68-7124-4233-9a3f-f3c4361bb348"}}]},"request":{"method":"PUT","url":"Bundle/NUMPass-Age30HPVTestFourYearsPriorMP"}},{"resource":{"resourceType":"Encounter","id":"cd25e83d-8ecb-4b16-8abe-cf07b9f68701","meta":{"profile":["http://hl7.org/fhir/us/qicore/StructureDefinition/qicore-encounter"]},"status":"finished","class":{"system":"http://terminology.hl7.org/CodeSystem/v3-ActCode","code":"AMB","display":"ambulatory"},"type":[{"coding":[{"system":"http://snomed.info/sct","code":"185317003","display":"Telephone encounter (procedure)"}]}],"subject":{"reference":"Patient/4c40d1e6-3943-4a0e-a95c-6e6b845f0851"},"period":{"start":"2026-01-01T01:00:00.000+00:00","end":"2026-01-01T01:15:00.000+00:00"}},"request":{"method":"PUT","url":"Encounter/cd25e83d-8ecb-4b16-8abe-cf07b9f68701"}},{"resource":{"resourceType":"MeasureReport","id":"56078a68-7124-4233-9a3f-f3c4361bb348","meta":{"profile":["http://hl7.org/fhir/us/cqfmeasures/StructureDefinition/test-case-cqfm"]},"contained":[{"resourceType":"Parameters","id":"542bd63f-10a0-4ae3-9476-83a5ebad68e5-parameters","parameter":[{"name":"subject","valueString":"4c40d1e6-3943-4a0e-a95c-6e6b845f0851"}]}],"extension":[{"url":"http://hl7.org/fhir/StructureDefinition/cqf-inputParameters","valueReference":{"reference":"#542bd63f-10a0-4ae3-9476-83a5ebad68e5-parameters"}},{"url":"http://hl7.org/fhir/us/cqfmeasures/StructureDefinition/cqfm-testCaseDescription","valueMarkdown":"Female 30 years old with HPV Test four years prior MP"}],"modifierExtension":[{"url":"http://hl7.org/fhir/us/cqfmeasures/StructureDefinition/cqfm-isTestCase","valueBoolean":true}],"status":"complete","type":"individual","measure":"https://madie.cms.gov/Measure/CMS124FHIRCervicalCancerScreening","period":{"start":"2026-01-01","end":"2026-12-31"},"group":[{"id":"Group_1","population":[{"id":"InitialPopulation_1","code":{"coding":[{"system":"http://terminology.hl7.org/CodeSystem/measure-population","code":"initial-population","display":"Initial Population"}]},"count":1},{"id":"Denominator_1","code":{"coding":[{"system":"http://terminology.hl7.org/CodeSystem/measure-population","code":"denominator","display":"Denominator"}]},"count":1},{"id":"DenominatorExclusion_1","code":{"coding":[{"system":"http://terminology.hl7.org/CodeSystem/measure-population","code":"denominator-exclusion","display":"Denominator Exclusion"}]},"count":0},{"id":"Numerator_1","code":{"coding":[{"system":"http://terminology.hl7.org/CodeSystem/measure-population","code":"numerator","display":"Numerator"}]},"count":1}],"measureScore":{"value":1.0}}],"evaluatedResource":[{"reference":"Patient/4c40d1e6-3943-4a0e-a95c-6e6b845f0851"},{"reference":"Encounter/cd25e83d-8ecb-4b16-8abe-cf07b9f68701"},{"reference":"Observation/4ec00fd5-417a-4148-8808-25dc9d4dd391"}]},"request":{"method":"PUT","url":"MeasureReport/56078a68-7124-4233-9a3f-f3c4361bb348"}},{"resource":{"resourceType":"Observation","id":"4ec00fd5-417a-4148-8808-25dc9d4dd391","meta":{"profile":["http://hl7.org/fhir/us/qicore/StructureDefinition/qicore-observation-lab"]},"status":"final","category":[{"coding":[{"system":"http://terminology.hl7.org/CodeSystem/observation-category","code":"laboratory","display":"laboratory"}],"text":"laboratory"}],"code":{"coding":[{"system":"http://loinc.org","code":"21440-3","display":"Human papilloma virus 16+18+31+33+35+45+51+52+56 DNA [Presence] in Cervix by Probe"}]},"subject":{"reference":"Patient/4c40d1e6-3943-4a0e-a95c-6e6b845f0851"},"effectivePeriod":{"start":"2022-01-01T23:00:00.000+00:00","end":"2022-01-01T23:59:00.000+00:00"},"valueInteger":1},"request":{"method":"PUT","url":"Observation/4ec00fd5-417a-4148-8808-25dc9d4dd391"}}]}