{"resourceType":"Bundle","id":"tests-cadbffa0-20b2-4c26-b202-75b9edfd0a07-bundle","type":"transaction","entry":[{"resource":{"resourceType":"Patient","id":"cadbffa0-20b2-4c26-b202-75b9edfd0a07","meta":{"profile":["http://hl7.org/fhir/us/qicore/StructureDefinition/qicore-patient"]},"extension":[{"url":"http://hl7.org/fhir/us/core/StructureDefinition/us-core-race","extension":[{"url":"ombCategory","valueCoding":{"system":"urn:oid:2.16.840.1.113883.6.238","code":"2028-9","display":"Asian"}},{"url":"text","valueString":"Asian"}]},{"url":"http://hl7.org/fhir/us/core/StructureDefinition/us-core-sex","valueCode":"248152002"},{"url":"http://hl7.org/fhir/us/core/StructureDefinition/us-core-ethnicity","extension":[{"url":"ombCategory","valueCoding":{"system":"urn:oid:2.16.840.1.113883.6.238","code":"2135-2","display":"Hispanic or Latino"}},{"url":"text","valueString":"Hispanic or Latino"}]}],"identifier":[{"system":"http://hospital.smarthealthit.org","value":"999999995"}],"name":[{"family":"Bertha","given":["Betty"]}],"gender":"female","birthDate":"2002-12-31"},"request":{"method":"PUT","url":"Patient/cadbffa0-20b2-4c26-b202-75b9edfd0a07"}},{"resource":{"resourceType":"MeasureReport","id":"fd7ce8b2-789e-473a-9a92-cdbc36dfd70a","meta":{"profile":["http://hl7.org/fhir/us/cqfmeasures/StructureDefinition/test-case-cqfm"]},"contained":[{"resourceType":"Parameters","id":"a3b89c73-359a-457e-9a92-249f82091570-parameters","parameter":[{"name":"subject","valueString":"cadbffa0-20b2-4c26-b202-75b9edfd0a07"}]}],"extension":[{"url":"http://hl7.org/fhir/StructureDefinition/cqf-inputParameters","valueReference":{"reference":"#a3b89c73-359a-457e-9a92-249f82091570-parameters"}},{"url":"http://hl7.org/fhir/us/cqfmeasures/StructureDefinition/cqfm-testCaseDescription","valueMarkdown":"Hospice Condition - For meeting 100% coverage"}],"modifierExtension":[{"url":"http://hl7.org/fhir/us/cqfmeasures/StructureDefinition/cqfm-isTestCase","valueBoolean":true}],"status":"complete","type":"individual","measure":"https://madie.cms.gov/Measure/CMS124FHIRCervicalCancerScreening","period":{"start":"2026-01-01","end":"2026-12-31"},"group":[{"id":"Group_1","population":[{"id":"InitialPopulation_1","code":{"coding":[{"system":"http://terminology.hl7.org/CodeSystem/measure-population","code":"initial-population","display":"Initial Population"}]},"count":1},{"id":"Denominator_1","code":{"coding":[{"system":"http://terminology.hl7.org/CodeSystem/measure-population","code":"denominator","display":"Denominator"}]},"count":1},{"id":"DenominatorExclusion_1","code":{"coding":[{"system":"http://terminology.hl7.org/CodeSystem/measure-population","code":"denominator-exclusion","display":"Denominator Exclusion"}]},"count":1},{"id":"Numerator_1","code":{"coding":[{"system":"http://terminology.hl7.org/CodeSystem/measure-population","code":"numerator","display":"Numerator"}]},"count":0}],"measureScore":{"value":1.0}}],"evaluatedResource":[{"reference":"Patient/cadbffa0-20b2-4c26-b202-75b9edfd0a07"},{"reference":"Encounter/c7438479-4adb-4678-a2ef-a90c4797e4c7"},{"reference":"Condition/96201589-b943-4f62-914f-8de8c77a5742"}]},"request":{"method":"PUT","url":"MeasureReport/fd7ce8b2-789e-473a-9a92-cdbc36dfd70a"}},{"resource":{"resourceType":"Encounter","id":"c7438479-4adb-4678-a2ef-a90c4797e4c7","meta":{"profile":["http://hl7.org/fhir/us/qicore/StructureDefinition/qicore-encounter"]},"status":"finished","class":{"system":"http://terminology.hl7.org/CodeSystem/v3-ActCode","code":"AMB","display":"ambulatory"},"type":[{"coding":[{"system":"http://snomed.info/sct","code":"185460008","display":"Home visit request by patient (procedure)"}]}],"subject":{"reference":"Patient/cadbffa0-20b2-4c26-b202-75b9edfd0a07"},"period":{"start":"2026-01-01T00:00:00.000+00:00","end":"2026-01-01T01:00:00.000+00:00"}},"request":{"method":"PUT","url":"Encounter/c7438479-4adb-4678-a2ef-a90c4797e4c7"}},{"resource":{"resourceType":"Condition","id":"96201589-b943-4f62-914f-8de8c77a5742","meta":{"profile":["http://hl7.org/fhir/us/qicore/StructureDefinition/qicore-condition-problems-health-concerns"]},"clinicalStatus":{"coding":[{"system":"http://terminology.hl7.org/CodeSystem/condition-clinical","code":"active"}]},"category":[{"coding":[{"system":"http://terminology.hl7.org/CodeSystem/condition-category","code":"problem-list-item","display":"Problem List Item"}]}],"code":{"coding":[{"system":"http://snomed.info/sct","code":"170935008","display":"Full care by hospice (finding)"}]},"subject":{"reference":"Patient/cadbffa0-20b2-4c26-b202-75b9edfd0a07"},"onsetDateTime":"2026-01-01T00:00:00.000+00:00"},"request":{"method":"PUT","url":"Condition/96201589-b943-4f62-914f-8de8c77a5742"}},{"resource":{"resourceType":"Bundle","id":"DENEXPass-HospiceDiagnosisOverlapsMP","type":"transaction","entry":[{"fullUrl":"https://madie.cms.gov/Patient/cadbffa0-20b2-4c26-b202-75b9edfd0a07","resource":{"resourceType":"Patient","id":"cadbffa0-20b2-4c26-b202-75b9edfd0a07","meta":{"profile":["http://hl7.org/fhir/us/qicore/StructureDefinition/qicore-patient"]},"extension":[{"url":"http://hl7.org/fhir/us/core/StructureDefinition/us-core-race","extension":[{"url":"ombCategory","valueCoding":{"system":"urn:oid:2.16.840.1.113883.6.238","code":"2028-9","display":"Asian"}},{"url":"text","valueString":"Asian"}]},{"url":"http://hl7.org/fhir/us/core/StructureDefinition/us-core-sex","valueCode":"248152002"},{"url":"http://hl7.org/fhir/us/core/StructureDefinition/us-core-ethnicity","extension":[{"url":"ombCategory","valueCoding":{"system":"urn:oid:2.16.840.1.113883.6.238","code":"2135-2","display":"Hispanic or Latino"}},{"url":"text","valueString":"Hispanic or Latino"}]}],"identifier":[{"system":"http://hospital.smarthealthit.org","value":"999999995"}],"name":[{"family":"Bertha","given":["Betty"]}],"gender":"female","birthDate":"2002-12-31"},"request":{"method":"PUT","url":"Patient/cadbffa0-20b2-4c26-b202-75b9edfd0a07"}},{"fullUrl":"https://madie.cms.gov/Encounter/c7438479-4adb-4678-a2ef-a90c4797e4c7","resource":{"resourceType":"Encounter","id":"c7438479-4adb-4678-a2ef-a90c4797e4c7","meta":{"profile":["http://hl7.org/fhir/us/qicore/StructureDefinition/qicore-encounter"]},"status":"finished","class":{"system":"http://terminology.hl7.org/CodeSystem/v3-ActCode","code":"AMB","display":"ambulatory"},"type":[{"coding":[{"system":"http://snomed.info/sct","code":"185460008","display":"Home visit request by patient (procedure)"}]}],"subject":{"reference":"Patient/cadbffa0-20b2-4c26-b202-75b9edfd0a07"},"period":{"start":"2026-01-01T00:00:00.000+00:00","end":"2026-01-01T01:00:00.000+00:00"}},"request":{"method":"PUT","url":"Encounter/c7438479-4adb-4678-a2ef-a90c4797e4c7"}},{"fullUrl":"https://madie.cms.gov/Condition/96201589-b943-4f62-914f-8de8c77a5742","resource":{"resourceType":"Condition","id":"96201589-b943-4f62-914f-8de8c77a5742","meta":{"profile":["http://hl7.org/fhir/us/qicore/StructureDefinition/qicore-condition-problems-health-concerns"]},"clinicalStatus":{"coding":[{"system":"http://terminology.hl7.org/CodeSystem/condition-clinical","code":"active"}]},"category":[{"coding":[{"system":"http://terminology.hl7.org/CodeSystem/condition-category","code":"problem-list-item","display":"Problem List Item"}]}],"code":{"coding":[{"system":"http://snomed.info/sct","code":"170935008","display":"Full care by hospice (finding)"}]},"subject":{"reference":"Patient/cadbffa0-20b2-4c26-b202-75b9edfd0a07"},"onsetDateTime":"2026-01-01T00:00:00.000+00:00"},"request":{"method":"PUT","url":"Condition/96201589-b943-4f62-914f-8de8c77a5742"}},{"fullUrl":"https://madie.cms.gov/MeasureReport/fd7ce8b2-789e-473a-9a92-cdbc36dfd70a","resource":{"resourceType":"MeasureReport","id":"fd7ce8b2-789e-473a-9a92-cdbc36dfd70a","meta":{"profile":["http://hl7.org/fhir/us/cqfmeasures/StructureDefinition/test-case-cqfm"]},"contained":[{"resourceType":"Parameters","id":"a3b89c73-359a-457e-9a92-249f82091570-parameters","parameter":[{"name":"subject","valueString":"cadbffa0-20b2-4c26-b202-75b9edfd0a07"}]}],"extension":[{"url":"http://hl7.org/fhir/StructureDefinition/cqf-inputParameters","valueReference":{"reference":"#a3b89c73-359a-457e-9a92-249f82091570-parameters"}},{"url":"http://hl7.org/fhir/us/cqfmeasures/StructureDefinition/cqfm-testCaseDescription","valueMarkdown":"Hospice Condition - For meeting 100% coverage"}],"modifierExtension":[{"url":"http://hl7.org/fhir/us/cqfmeasures/StructureDefinition/cqfm-isTestCase","valueBoolean":true}],"status":"complete","type":"individual","measure":"https://madie.cms.gov/Measure/CMS124FHIRCervicalCancerScreening","period":{"start":"2026-01-01","end":"2026-12-31"},"group":[{"id":"Group_1","population":[{"id":"InitialPopulation_1","code":{"coding":[{"system":"http://terminology.hl7.org/CodeSystem/measure-population","code":"initial-population","display":"Initial Population"}]},"count":1},{"id":"Denominator_1","code":{"coding":[{"system":"http://terminology.hl7.org/CodeSystem/measure-population","code":"denominator","display":"Denominator"}]},"count":1},{"id":"DenominatorExclusion_1","code":{"coding":[{"system":"http://terminology.hl7.org/CodeSystem/measure-population","code":"denominator-exclusion","display":"Denominator Exclusion"}]},"count":1},{"id":"Numerator_1","code":{"coding":[{"system":"http://terminology.hl7.org/CodeSystem/measure-population","code":"numerator","display":"Numerator"}]},"count":0}],"measureScore":{"value":1.0}}],"evaluatedResource":[{"reference":"Patient/cadbffa0-20b2-4c26-b202-75b9edfd0a07"},{"reference":"Encounter/c7438479-4adb-4678-a2ef-a90c4797e4c7"},{"reference":"Condition/96201589-b943-4f62-914f-8de8c77a5742"}]},"request":{"method":"PUT","url":"MeasureReport/fd7ce8b2-789e-473a-9a92-cdbc36dfd70a"}}]},"request":{"method":"PUT","url":"Bundle/DENEXPass-HospiceDiagnosisOverlapsMP"}}]}