{"resourceType":"Bundle","id":"tests-71b8882f-bb0f-4402-a4b7-adc60e2008a8-bundle","type":"transaction","entry":[{"resource":{"resourceType":"MeasureReport","id":"917b6fb1-78b1-4370-a0e1-2fda65bc8fbd","meta":{"profile":["http://hl7.org/fhir/us/cqfmeasures/StructureDefinition/test-case-cqfm"]},"contained":[{"resourceType":"Parameters","id":"25541513-9add-479e-ac9a-bf9644e70f81-parameters","parameter":[{"name":"subject","valueString":"71b8882f-bb0f-4402-a4b7-adc60e2008a8"}]}],"extension":[{"url":"http://hl7.org/fhir/StructureDefinition/cqf-inputParameters","valueReference":{"reference":"#25541513-9add-479e-ac9a-bf9644e70f81-parameters"}},{"url":"http://hl7.org/fhir/us/cqfmeasures/StructureDefinition/cqfm-testCaseDescription","valueMarkdown":"Female 24 years old with Absence of Cervix during MP"}],"modifierExtension":[{"url":"http://hl7.org/fhir/us/cqfmeasures/StructureDefinition/cqfm-isTestCase","valueBoolean":true}],"status":"complete","type":"individual","measure":"https://madie.cms.gov/Measure/CMS124FHIRCervicalCancerScreening","period":{"start":"2026-01-01","end":"2026-12-31"},"group":[{"id":"Group_1","population":[{"id":"InitialPopulation_1","code":{"coding":[{"system":"http://terminology.hl7.org/CodeSystem/measure-population","code":"initial-population","display":"Initial Population"}]},"count":1},{"id":"Denominator_1","code":{"coding":[{"system":"http://terminology.hl7.org/CodeSystem/measure-population","code":"denominator","display":"Denominator"}]},"count":1},{"id":"DenominatorExclusion_1","code":{"coding":[{"system":"http://terminology.hl7.org/CodeSystem/measure-population","code":"denominator-exclusion","display":"Denominator Exclusion"}]},"count":1},{"id":"Numerator_1","code":{"coding":[{"system":"http://terminology.hl7.org/CodeSystem/measure-population","code":"numerator","display":"Numerator"}]},"count":0}],"measureScore":{"value":1.0}}],"evaluatedResource":[{"reference":"Patient/71b8882f-bb0f-4402-a4b7-adc60e2008a8"},{"reference":"Encounter/644d058b-f2e9-4462-b4b3-394ac553e4a2"},{"reference":"Procedure/2108b383-2a6a-470f-aa82-f77afb4968cc"}]},"request":{"method":"PUT","url":"MeasureReport/917b6fb1-78b1-4370-a0e1-2fda65bc8fbd"}},{"resource":{"resourceType":"Encounter","id":"644d058b-f2e9-4462-b4b3-394ac553e4a2","meta":{"profile":["http://hl7.org/fhir/us/qicore/StructureDefinition/qicore-encounter"]},"status":"finished","class":{"system":"http://terminology.hl7.org/CodeSystem/v3-ActCode","code":"AMB","display":"ambulatory"},"type":[{"coding":[{"system":"http://snomed.info/sct","code":"185317003","display":"Telephone encounter (procedure)"}]}],"subject":{"reference":"Patient/71b8882f-bb0f-4402-a4b7-adc60e2008a8"},"period":{"start":"2026-01-01T01:00:00.000+00:00","end":"2026-01-01T01:15:00.000+00:00"}},"request":{"method":"PUT","url":"Encounter/644d058b-f2e9-4462-b4b3-394ac553e4a2"}},{"resource":{"resourceType":"Procedure","id":"2108b383-2a6a-470f-aa82-f77afb4968cc","meta":{"profile":["http://hl7.org/fhir/us/qicore/StructureDefinition/qicore-procedure"]},"extension":[{"url":"http://hl7.org/fhir/us/qicore/StructureDefinition/qicore-recorded","valueDateTime":"2026-12-31T23:00:00.000+00:00"}],"status":"completed","code":{"coding":[{"system":"http://snomed.info/sct","code":"116140006","display":"Total hysterectomy (procedure)"}]},"subject":{"reference":"Patient/71b8882f-bb0f-4402-a4b7-adc60e2008a8"},"performedPeriod":{"start":"2026-12-31T23:00:00.000+00:00","end":"2026-12-31T23:59:00.000+00:00"}},"request":{"method":"PUT","url":"Procedure/2108b383-2a6a-470f-aa82-f77afb4968cc"}},{"resource":{"resourceType":"Patient","id":"71b8882f-bb0f-4402-a4b7-adc60e2008a8","meta":{"profile":["http://hl7.org/fhir/us/qicore/StructureDefinition/qicore-patient"]},"extension":[{"url":"http://hl7.org/fhir/us/core/StructureDefinition/us-core-race","extension":[{"url":"ombCategory","valueCoding":{"system":"urn:oid:2.16.840.1.113883.6.238","code":"2028-9","display":"Asian"}},{"url":"text","valueString":"Asian"}]},{"url":"http://hl7.org/fhir/us/core/StructureDefinition/us-core-sex","valueCode":"248152002"},{"url":"http://hl7.org/fhir/us/core/StructureDefinition/us-core-ethnicity","extension":[{"url":"ombCategory","valueCoding":{"system":"urn:oid:2.16.840.1.113883.6.238","code":"2135-2","display":"Hispanic or Latino"}},{"url":"text","valueString":"Hispanic or Latino"}]}],"identifier":[{"system":"http://hospital.smarthealthit.org","value":"999999995"}],"name":[{"family":"Bertha","given":["Betty"]}],"gender":"female","birthDate":"2002-12-31"},"request":{"method":"PUT","url":"Patient/71b8882f-bb0f-4402-a4b7-adc60e2008a8"}},{"resource":{"resourceType":"Bundle","id":"DENEXPass-AbsenceOfCervixDuringMP","type":"transaction","entry":[{"fullUrl":"https://madie.cms.gov/Patient/71b8882f-bb0f-4402-a4b7-adc60e2008a8","resource":{"resourceType":"Patient","id":"71b8882f-bb0f-4402-a4b7-adc60e2008a8","meta":{"profile":["http://hl7.org/fhir/us/qicore/StructureDefinition/qicore-patient"]},"extension":[{"url":"http://hl7.org/fhir/us/core/StructureDefinition/us-core-race","extension":[{"url":"ombCategory","valueCoding":{"system":"urn:oid:2.16.840.1.113883.6.238","code":"2028-9","display":"Asian"}},{"url":"text","valueString":"Asian"}]},{"url":"http://hl7.org/fhir/us/core/StructureDefinition/us-core-sex","valueCode":"248152002"},{"url":"http://hl7.org/fhir/us/core/StructureDefinition/us-core-ethnicity","extension":[{"url":"ombCategory","valueCoding":{"system":"urn:oid:2.16.840.1.113883.6.238","code":"2135-2","display":"Hispanic or Latino"}},{"url":"text","valueString":"Hispanic or Latino"}]}],"identifier":[{"system":"http://hospital.smarthealthit.org","value":"999999995"}],"name":[{"family":"Bertha","given":["Betty"]}],"gender":"female","birthDate":"2002-12-31"},"request":{"method":"PUT","url":"Patient/71b8882f-bb0f-4402-a4b7-adc60e2008a8"}},{"fullUrl":"https://madie.cms.gov/Encounter/644d058b-f2e9-4462-b4b3-394ac553e4a2","resource":{"resourceType":"Encounter","id":"644d058b-f2e9-4462-b4b3-394ac553e4a2","meta":{"profile":["http://hl7.org/fhir/us/qicore/StructureDefinition/qicore-encounter"]},"status":"finished","class":{"system":"http://terminology.hl7.org/CodeSystem/v3-ActCode","code":"AMB","display":"ambulatory"},"type":[{"coding":[{"system":"http://snomed.info/sct","code":"185317003","display":"Telephone encounter (procedure)"}]}],"subject":{"reference":"Patient/71b8882f-bb0f-4402-a4b7-adc60e2008a8"},"period":{"start":"2026-01-01T01:00:00.000+00:00","end":"2026-01-01T01:15:00.000+00:00"}},"request":{"method":"PUT","url":"Encounter/644d058b-f2e9-4462-b4b3-394ac553e4a2"}},{"fullUrl":"https://madie.cms.gov/Procedure/2108b383-2a6a-470f-aa82-f77afb4968cc","resource":{"resourceType":"Procedure","id":"2108b383-2a6a-470f-aa82-f77afb4968cc","meta":{"profile":["http://hl7.org/fhir/us/qicore/StructureDefinition/qicore-procedure"]},"extension":[{"url":"http://hl7.org/fhir/us/qicore/StructureDefinition/qicore-recorded","valueDateTime":"2026-12-31T23:00:00.000+00:00"}],"status":"completed","code":{"coding":[{"system":"http://snomed.info/sct","code":"116140006","display":"Total hysterectomy (procedure)"}]},"subject":{"reference":"Patient/71b8882f-bb0f-4402-a4b7-adc60e2008a8"},"performedPeriod":{"start":"2026-12-31T23:00:00.000+00:00","end":"2026-12-31T23:59:00.000+00:00"}},"request":{"method":"PUT","url":"Procedure/2108b383-2a6a-470f-aa82-f77afb4968cc"}},{"fullUrl":"https://madie.cms.gov/MeasureReport/917b6fb1-78b1-4370-a0e1-2fda65bc8fbd","resource":{"resourceType":"MeasureReport","id":"917b6fb1-78b1-4370-a0e1-2fda65bc8fbd","meta":{"profile":["http://hl7.org/fhir/us/cqfmeasures/StructureDefinition/test-case-cqfm"]},"contained":[{"resourceType":"Parameters","id":"25541513-9add-479e-ac9a-bf9644e70f81-parameters","parameter":[{"name":"subject","valueString":"71b8882f-bb0f-4402-a4b7-adc60e2008a8"}]}],"extension":[{"url":"http://hl7.org/fhir/StructureDefinition/cqf-inputParameters","valueReference":{"reference":"#25541513-9add-479e-ac9a-bf9644e70f81-parameters"}},{"url":"http://hl7.org/fhir/us/cqfmeasures/StructureDefinition/cqfm-testCaseDescription","valueMarkdown":"Female 24 years old with Absence of Cervix during MP"}],"modifierExtension":[{"url":"http://hl7.org/fhir/us/cqfmeasures/StructureDefinition/cqfm-isTestCase","valueBoolean":true}],"status":"complete","type":"individual","measure":"https://madie.cms.gov/Measure/CMS124FHIRCervicalCancerScreening","period":{"start":"2026-01-01","end":"2026-12-31"},"group":[{"id":"Group_1","population":[{"id":"InitialPopulation_1","code":{"coding":[{"system":"http://terminology.hl7.org/CodeSystem/measure-population","code":"initial-population","display":"Initial Population"}]},"count":1},{"id":"Denominator_1","code":{"coding":[{"system":"http://terminology.hl7.org/CodeSystem/measure-population","code":"denominator","display":"Denominator"}]},"count":1},{"id":"DenominatorExclusion_1","code":{"coding":[{"system":"http://terminology.hl7.org/CodeSystem/measure-population","code":"denominator-exclusion","display":"Denominator Exclusion"}]},"count":1},{"id":"Numerator_1","code":{"coding":[{"system":"http://terminology.hl7.org/CodeSystem/measure-population","code":"numerator","display":"Numerator"}]},"count":0}],"measureScore":{"value":1.0}}],"evaluatedResource":[{"reference":"Patient/71b8882f-bb0f-4402-a4b7-adc60e2008a8"},{"reference":"Encounter/644d058b-f2e9-4462-b4b3-394ac553e4a2"},{"reference":"Procedure/2108b383-2a6a-470f-aa82-f77afb4968cc"}]},"request":{"method":"PUT","url":"MeasureReport/917b6fb1-78b1-4370-a0e1-2fda65bc8fbd"}}]},"request":{"method":"PUT","url":"Bundle/DENEXPass-AbsenceOfCervixDuringMP"}}]}