{"resourceType":"Bundle","id":"tests-72af08cd-4f6d-4e7a-b3da-a7ebb2bd3887-bundle","type":"transaction","entry":[{"resource":{"resourceType":"Bundle","id":"IPFail-23WithVisit","type":"transaction","entry":[{"fullUrl":"https://madie.cms.gov/Patient/72af08cd-4f6d-4e7a-b3da-a7ebb2bd3887","resource":{"resourceType":"Patient","id":"72af08cd-4f6d-4e7a-b3da-a7ebb2bd3887","meta":{"profile":["http://hl7.org/fhir/us/qicore/StructureDefinition/qicore-patient"]},"extension":[{"url":"http://hl7.org/fhir/us/core/StructureDefinition/us-core-race","extension":[{"url":"ombCategory","valueCoding":{"system":"urn:oid:2.16.840.1.113883.6.238","code":"2028-9","display":"Asian"}},{"url":"text","valueString":"Asian"}]},{"url":"http://hl7.org/fhir/us/core/StructureDefinition/us-core-sex","valueCode":"248152002"},{"url":"http://hl7.org/fhir/us/core/StructureDefinition/us-core-ethnicity","extension":[{"url":"ombCategory","valueCoding":{"system":"urn:oid:2.16.840.1.113883.6.238","code":"2135-2","display":"Hispanic or Latino"}},{"url":"text","valueString":"Hispanic or Latino"}]}],"identifier":[{"system":"http://hospital.smarthealthit.org","value":"999999995"}],"name":[{"family":"Bertha","given":["Betty"]}],"gender":"female","birthDate":"2003-12-31"},"request":{"method":"PUT","url":"Patient/72af08cd-4f6d-4e7a-b3da-a7ebb2bd3887"}},{"fullUrl":"https://madie.cms.gov/Encounter/cecf1da0-c1a4-48b5-b9c6-e4b9ffd12021","resource":{"resourceType":"Encounter","id":"cecf1da0-c1a4-48b5-b9c6-e4b9ffd12021","meta":{"profile":["http://hl7.org/fhir/us/qicore/StructureDefinition/qicore-encounter"]},"status":"finished","class":{"system":"http://terminology.hl7.org/CodeSystem/v3-ActCode","code":"AMB","display":"ambulatory"},"type":[{"coding":[{"system":"http://snomed.info/sct","code":"444971000124105","display":"Annual wellness visit (procedure)"}]}],"subject":{"reference":"Patient/72af08cd-4f6d-4e7a-b3da-a7ebb2bd3887"},"period":{"start":"2026-01-01T01:00:00.000+00:00","end":"2026-01-01T01:15:00.000+00:00"}},"request":{"method":"PUT","url":"Encounter/cecf1da0-c1a4-48b5-b9c6-e4b9ffd12021"}},{"fullUrl":"https://madie.cms.gov/MeasureReport/65a0c804-3f50-4576-9702-cb67d3ccedb0","resource":{"resourceType":"MeasureReport","id":"65a0c804-3f50-4576-9702-cb67d3ccedb0","meta":{"profile":["http://hl7.org/fhir/us/cqfmeasures/StructureDefinition/test-case-cqfm"]},"contained":[{"resourceType":"Parameters","id":"0f509d5a-705d-4f9b-b7dd-6a98e3d76534-parameters","parameter":[{"name":"subject","valueString":"72af08cd-4f6d-4e7a-b3da-a7ebb2bd3887"}]}],"extension":[{"url":"http://hl7.org/fhir/StructureDefinition/cqf-inputParameters","valueReference":{"reference":"#0f509d5a-705d-4f9b-b7dd-6a98e3d76534-parameters"}},{"url":"http://hl7.org/fhir/us/cqfmeasures/StructureDefinition/cqfm-testCaseDescription","valueMarkdown":"Female 23 years old with qualifying encounter during MP"}],"modifierExtension":[{"url":"http://hl7.org/fhir/us/cqfmeasures/StructureDefinition/cqfm-isTestCase","valueBoolean":true}],"status":"complete","type":"individual","measure":"https://madie.cms.gov/Measure/CMS124FHIRCervicalCancerScreening","period":{"start":"2026-01-01","end":"2026-12-31"},"group":[{"id":"Group_1","population":[{"id":"InitialPopulation_1","code":{"coding":[{"system":"http://terminology.hl7.org/CodeSystem/measure-population","code":"initial-population","display":"Initial Population"}]},"count":0},{"id":"Denominator_1","code":{"coding":[{"system":"http://terminology.hl7.org/CodeSystem/measure-population","code":"denominator","display":"Denominator"}]},"count":0},{"id":"DenominatorExclusion_1","code":{"coding":[{"system":"http://terminology.hl7.org/CodeSystem/measure-population","code":"denominator-exclusion","display":"Denominator Exclusion"}]},"count":0},{"id":"Numerator_1","code":{"coding":[{"system":"http://terminology.hl7.org/CodeSystem/measure-population","code":"numerator","display":"Numerator"}]},"count":0}],"measureScore":{"value":1.0}}],"evaluatedResource":[{"reference":"Patient/72af08cd-4f6d-4e7a-b3da-a7ebb2bd3887"},{"reference":"Encounter/cecf1da0-c1a4-48b5-b9c6-e4b9ffd12021"}]},"request":{"method":"PUT","url":"MeasureReport/65a0c804-3f50-4576-9702-cb67d3ccedb0"}}]},"request":{"method":"PUT","url":"Bundle/IPFail-23WithVisit"}},{"resource":{"resourceType":"MeasureReport","id":"65a0c804-3f50-4576-9702-cb67d3ccedb0","meta":{"profile":["http://hl7.org/fhir/us/cqfmeasures/StructureDefinition/test-case-cqfm"]},"contained":[{"resourceType":"Parameters","id":"0f509d5a-705d-4f9b-b7dd-6a98e3d76534-parameters","parameter":[{"name":"subject","valueString":"72af08cd-4f6d-4e7a-b3da-a7ebb2bd3887"}]}],"extension":[{"url":"http://hl7.org/fhir/StructureDefinition/cqf-inputParameters","valueReference":{"reference":"#0f509d5a-705d-4f9b-b7dd-6a98e3d76534-parameters"}},{"url":"http://hl7.org/fhir/us/cqfmeasures/StructureDefinition/cqfm-testCaseDescription","valueMarkdown":"Female 23 years old with qualifying encounter during MP"}],"modifierExtension":[{"url":"http://hl7.org/fhir/us/cqfmeasures/StructureDefinition/cqfm-isTestCase","valueBoolean":true}],"status":"complete","type":"individual","measure":"https://madie.cms.gov/Measure/CMS124FHIRCervicalCancerScreening","period":{"start":"2026-01-01","end":"2026-12-31"},"group":[{"id":"Group_1","population":[{"id":"InitialPopulation_1","code":{"coding":[{"system":"http://terminology.hl7.org/CodeSystem/measure-population","code":"initial-population","display":"Initial Population"}]},"count":0},{"id":"Denominator_1","code":{"coding":[{"system":"http://terminology.hl7.org/CodeSystem/measure-population","code":"denominator","display":"Denominator"}]},"count":0},{"id":"DenominatorExclusion_1","code":{"coding":[{"system":"http://terminology.hl7.org/CodeSystem/measure-population","code":"denominator-exclusion","display":"Denominator Exclusion"}]},"count":0},{"id":"Numerator_1","code":{"coding":[{"system":"http://terminology.hl7.org/CodeSystem/measure-population","code":"numerator","display":"Numerator"}]},"count":0}],"measureScore":{"value":1.0}}],"evaluatedResource":[{"reference":"Patient/72af08cd-4f6d-4e7a-b3da-a7ebb2bd3887"},{"reference":"Encounter/cecf1da0-c1a4-48b5-b9c6-e4b9ffd12021"}]},"request":{"method":"PUT","url":"MeasureReport/65a0c804-3f50-4576-9702-cb67d3ccedb0"}},{"resource":{"resourceType":"Patient","id":"72af08cd-4f6d-4e7a-b3da-a7ebb2bd3887","meta":{"profile":["http://hl7.org/fhir/us/qicore/StructureDefinition/qicore-patient"]},"extension":[{"url":"http://hl7.org/fhir/us/core/StructureDefinition/us-core-race","extension":[{"url":"ombCategory","valueCoding":{"system":"urn:oid:2.16.840.1.113883.6.238","code":"2028-9","display":"Asian"}},{"url":"text","valueString":"Asian"}]},{"url":"http://hl7.org/fhir/us/core/StructureDefinition/us-core-sex","valueCode":"248152002"},{"url":"http://hl7.org/fhir/us/core/StructureDefinition/us-core-ethnicity","extension":[{"url":"ombCategory","valueCoding":{"system":"urn:oid:2.16.840.1.113883.6.238","code":"2135-2","display":"Hispanic or Latino"}},{"url":"text","valueString":"Hispanic or Latino"}]}],"identifier":[{"system":"http://hospital.smarthealthit.org","value":"999999995"}],"name":[{"family":"Bertha","given":["Betty"]}],"gender":"female","birthDate":"2003-12-31"},"request":{"method":"PUT","url":"Patient/72af08cd-4f6d-4e7a-b3da-a7ebb2bd3887"}},{"resource":{"resourceType":"Encounter","id":"cecf1da0-c1a4-48b5-b9c6-e4b9ffd12021","meta":{"profile":["http://hl7.org/fhir/us/qicore/StructureDefinition/qicore-encounter"]},"status":"finished","class":{"system":"http://terminology.hl7.org/CodeSystem/v3-ActCode","code":"AMB","display":"ambulatory"},"type":[{"coding":[{"system":"http://snomed.info/sct","code":"444971000124105","display":"Annual wellness visit (procedure)"}]}],"subject":{"reference":"Patient/72af08cd-4f6d-4e7a-b3da-a7ebb2bd3887"},"period":{"start":"2026-01-01T01:00:00.000+00:00","end":"2026-01-01T01:15:00.000+00:00"}},"request":{"method":"PUT","url":"Encounter/cecf1da0-c1a4-48b5-b9c6-e4b9ffd12021"}}]}