{"resourceType":"Bundle","id":"tests-dc5b8054-7432-4905-aaef-3acd6f3f75b9-bundle","type":"transaction","entry":[{"resource":{"resourceType":"Observation","id":"fcf2b06d-dda2-44d8-a265-eb6785f16b72","meta":{"profile":["http://hl7.org/fhir/us/qicore/StructureDefinition/qicore-observation"]},"status":"final","category":[{"coding":[{"system":"http://terminology.hl7.org/CodeSystem/observation-category","code":"laboratory","display":"laboratory"}],"text":"laboratory"}],"code":{"coding":[{"system":"http://loinc.org","code":"10524-7","display":"Microscopic observation [Identifier] in Cervix by Cyto stain"}]},"subject":{"reference":"Patient/dc5b8054-7432-4905-aaef-3acd6f3f75b9"},"effectivePeriod":{"start":"2027-01-01T00:00:00.000+00:00","end":"2027-01-01T01:00:00.000+00:00"},"valueInteger":1},"request":{"method":"PUT","url":"Observation/fcf2b06d-dda2-44d8-a265-eb6785f16b72"}},{"resource":{"resourceType":"MeasureReport","id":"a5c26cf3-52fc-4b30-ae6e-e7385d97fbb3","meta":{"profile":["http://hl7.org/fhir/us/cqfmeasures/StructureDefinition/test-case-cqfm"]},"contained":[{"resourceType":"Parameters","id":"8271aa3a-f7d1-4f60-8ad7-292ac7b4f909-parameters","parameter":[{"name":"subject","valueString":"dc5b8054-7432-4905-aaef-3acd6f3f75b9"}]}],"extension":[{"url":"http://hl7.org/fhir/StructureDefinition/cqf-inputParameters","valueReference":{"reference":"#8271aa3a-f7d1-4f60-8ad7-292ac7b4f909-parameters"}},{"url":"http://hl7.org/fhir/us/cqfmeasures/StructureDefinition/cqfm-testCaseDescription","valueMarkdown":"Female 24 years old with Cervical Cytology performed after MP"}],"modifierExtension":[{"url":"http://hl7.org/fhir/us/cqfmeasures/StructureDefinition/cqfm-isTestCase","valueBoolean":true}],"status":"complete","type":"individual","measure":"https://madie.cms.gov/Measure/CMS124FHIRCervicalCancerScreening","period":{"start":"2026-01-01","end":"2026-12-31"},"group":[{"id":"Group_1","population":[{"id":"InitialPopulation_1","code":{"coding":[{"system":"http://terminology.hl7.org/CodeSystem/measure-population","code":"initial-population","display":"Initial Population"}]},"count":1},{"id":"Denominator_1","code":{"coding":[{"system":"http://terminology.hl7.org/CodeSystem/measure-population","code":"denominator","display":"Denominator"}]},"count":1},{"id":"DenominatorExclusion_1","code":{"coding":[{"system":"http://terminology.hl7.org/CodeSystem/measure-population","code":"denominator-exclusion","display":"Denominator Exclusion"}]},"count":0},{"id":"Numerator_1","code":{"coding":[{"system":"http://terminology.hl7.org/CodeSystem/measure-population","code":"numerator","display":"Numerator"}]},"count":0}],"measureScore":{"value":1.0}}],"evaluatedResource":[{"reference":"Patient/dc5b8054-7432-4905-aaef-3acd6f3f75b9"},{"reference":"Encounter/0b1da9f4-8572-4a65-9035-d9ec2f7427da"},{"reference":"Observation/fcf2b06d-dda2-44d8-a265-eb6785f16b72"}]},"request":{"method":"PUT","url":"MeasureReport/a5c26cf3-52fc-4b30-ae6e-e7385d97fbb3"}},{"resource":{"resourceType":"Patient","id":"dc5b8054-7432-4905-aaef-3acd6f3f75b9","meta":{"profile":["http://hl7.org/fhir/us/qicore/StructureDefinition/qicore-patient"]},"extension":[{"url":"http://hl7.org/fhir/us/core/StructureDefinition/us-core-race","extension":[{"url":"ombCategory","valueCoding":{"system":"urn:oid:2.16.840.1.113883.6.238","code":"2028-9","display":"Asian"}},{"url":"text","valueString":"Asian"}]},{"url":"http://hl7.org/fhir/us/core/StructureDefinition/us-core-sex","valueCode":"248152002"},{"url":"http://hl7.org/fhir/us/core/StructureDefinition/us-core-ethnicity","extension":[{"url":"ombCategory","valueCoding":{"system":"urn:oid:2.16.840.1.113883.6.238","code":"2135-2","display":"Hispanic or Latino"}},{"url":"text","valueString":"Hispanic or Latino"}]}],"identifier":[{"system":"http://hospital.smarthealthit.org","value":"999999995"}],"name":[{"family":"Bertha","given":["Betty"]}],"gender":"female","birthDate":"2002-12-31"},"request":{"method":"PUT","url":"Patient/dc5b8054-7432-4905-aaef-3acd6f3f75b9"}},{"resource":{"resourceType":"Encounter","id":"0b1da9f4-8572-4a65-9035-d9ec2f7427da","meta":{"profile":["http://hl7.org/fhir/us/qicore/StructureDefinition/qicore-encounter"]},"status":"finished","class":{"system":"http://terminology.hl7.org/CodeSystem/v3-ActCode","code":"AMB","display":"ambulatory"},"type":[{"coding":[{"system":"http://snomed.info/sct","code":"185317003","display":"Telephone encounter (procedure)"}]}],"subject":{"reference":"Patient/dc5b8054-7432-4905-aaef-3acd6f3f75b9"},"period":{"start":"2026-01-01T01:00:00.000+00:00","end":"2026-01-01T01:15:00.000+00:00"}},"request":{"method":"PUT","url":"Encounter/0b1da9f4-8572-4a65-9035-d9ec2f7427da"}},{"resource":{"resourceType":"Bundle","id":"NUMFail-CervicalCytolgyAfterMP","type":"transaction","entry":[{"fullUrl":"https://madie.cms.gov/Patient/dc5b8054-7432-4905-aaef-3acd6f3f75b9","resource":{"resourceType":"Patient","id":"dc5b8054-7432-4905-aaef-3acd6f3f75b9","meta":{"profile":["http://hl7.org/fhir/us/qicore/StructureDefinition/qicore-patient"]},"extension":[{"url":"http://hl7.org/fhir/us/core/StructureDefinition/us-core-race","extension":[{"url":"ombCategory","valueCoding":{"system":"urn:oid:2.16.840.1.113883.6.238","code":"2028-9","display":"Asian"}},{"url":"text","valueString":"Asian"}]},{"url":"http://hl7.org/fhir/us/core/StructureDefinition/us-core-sex","valueCode":"248152002"},{"url":"http://hl7.org/fhir/us/core/StructureDefinition/us-core-ethnicity","extension":[{"url":"ombCategory","valueCoding":{"system":"urn:oid:2.16.840.1.113883.6.238","code":"2135-2","display":"Hispanic or Latino"}},{"url":"text","valueString":"Hispanic or Latino"}]}],"identifier":[{"system":"http://hospital.smarthealthit.org","value":"999999995"}],"name":[{"family":"Bertha","given":["Betty"]}],"gender":"female","birthDate":"2002-12-31"},"request":{"method":"PUT","url":"Patient/dc5b8054-7432-4905-aaef-3acd6f3f75b9"}},{"fullUrl":"https://madie.cms.gov/Encounter/0b1da9f4-8572-4a65-9035-d9ec2f7427da","resource":{"resourceType":"Encounter","id":"0b1da9f4-8572-4a65-9035-d9ec2f7427da","meta":{"profile":["http://hl7.org/fhir/us/qicore/StructureDefinition/qicore-encounter"]},"status":"finished","class":{"system":"http://terminology.hl7.org/CodeSystem/v3-ActCode","code":"AMB","display":"ambulatory"},"type":[{"coding":[{"system":"http://snomed.info/sct","code":"185317003","display":"Telephone encounter (procedure)"}]}],"subject":{"reference":"Patient/dc5b8054-7432-4905-aaef-3acd6f3f75b9"},"period":{"start":"2026-01-01T01:00:00.000+00:00","end":"2026-01-01T01:15:00.000+00:00"}},"request":{"method":"PUT","url":"Encounter/0b1da9f4-8572-4a65-9035-d9ec2f7427da"}},{"fullUrl":"https://madie.cms.gov/Observation/fcf2b06d-dda2-44d8-a265-eb6785f16b72","resource":{"resourceType":"Observation","id":"fcf2b06d-dda2-44d8-a265-eb6785f16b72","meta":{"profile":["http://hl7.org/fhir/us/qicore/StructureDefinition/qicore-observation"]},"status":"final","category":[{"coding":[{"system":"http://terminology.hl7.org/CodeSystem/observation-category","code":"laboratory","display":"laboratory"}],"text":"laboratory"}],"code":{"coding":[{"system":"http://loinc.org","code":"10524-7","display":"Microscopic observation [Identifier] in Cervix by Cyto stain"}]},"subject":{"reference":"Patient/dc5b8054-7432-4905-aaef-3acd6f3f75b9"},"effectivePeriod":{"start":"2027-01-01T00:00:00.000+00:00","end":"2027-01-01T01:00:00.000+00:00"},"valueInteger":1},"request":{"method":"PUT","url":"Observation/fcf2b06d-dda2-44d8-a265-eb6785f16b72"}},{"fullUrl":"https://madie.cms.gov/MeasureReport/a5c26cf3-52fc-4b30-ae6e-e7385d97fbb3","resource":{"resourceType":"MeasureReport","id":"a5c26cf3-52fc-4b30-ae6e-e7385d97fbb3","meta":{"profile":["http://hl7.org/fhir/us/cqfmeasures/StructureDefinition/test-case-cqfm"]},"contained":[{"resourceType":"Parameters","id":"8271aa3a-f7d1-4f60-8ad7-292ac7b4f909-parameters","parameter":[{"name":"subject","valueString":"dc5b8054-7432-4905-aaef-3acd6f3f75b9"}]}],"extension":[{"url":"http://hl7.org/fhir/StructureDefinition/cqf-inputParameters","valueReference":{"reference":"#8271aa3a-f7d1-4f60-8ad7-292ac7b4f909-parameters"}},{"url":"http://hl7.org/fhir/us/cqfmeasures/StructureDefinition/cqfm-testCaseDescription","valueMarkdown":"Female 24 years old with Cervical Cytology performed after MP"}],"modifierExtension":[{"url":"http://hl7.org/fhir/us/cqfmeasures/StructureDefinition/cqfm-isTestCase","valueBoolean":true}],"status":"complete","type":"individual","measure":"https://madie.cms.gov/Measure/CMS124FHIRCervicalCancerScreening","period":{"start":"2026-01-01","end":"2026-12-31"},"group":[{"id":"Group_1","population":[{"id":"InitialPopulation_1","code":{"coding":[{"system":"http://terminology.hl7.org/CodeSystem/measure-population","code":"initial-population","display":"Initial Population"}]},"count":1},{"id":"Denominator_1","code":{"coding":[{"system":"http://terminology.hl7.org/CodeSystem/measure-population","code":"denominator","display":"Denominator"}]},"count":1},{"id":"DenominatorExclusion_1","code":{"coding":[{"system":"http://terminology.hl7.org/CodeSystem/measure-population","code":"denominator-exclusion","display":"Denominator Exclusion"}]},"count":0},{"id":"Numerator_1","code":{"coding":[{"system":"http://terminology.hl7.org/CodeSystem/measure-population","code":"numerator","display":"Numerator"}]},"count":0}],"measureScore":{"value":1.0}}],"evaluatedResource":[{"reference":"Patient/dc5b8054-7432-4905-aaef-3acd6f3f75b9"},{"reference":"Encounter/0b1da9f4-8572-4a65-9035-d9ec2f7427da"},{"reference":"Observation/fcf2b06d-dda2-44d8-a265-eb6785f16b72"}]},"request":{"method":"PUT","url":"MeasureReport/a5c26cf3-52fc-4b30-ae6e-e7385d97fbb3"}}]},"request":{"method":"PUT","url":"Bundle/NUMFail-CervicalCytolgyAfterMP"}}]}