{
  "resourceType": "Bundle",
  "id": "64134616313131",
  "type": "transaction",
  "entry": [ {
    "fullUrl": "https://madie.cms.gov/Patient/342d2bec-0acc-43e5-aaf7-3c9a65b09f91",
    "resource": {
      "resourceType": "Patient",
      "id": "342d2bec-0acc-43e5-aaf7-3c9a65b09f91",
      "meta": {
        "profile": [ "http://hl7.org/fhir/us/qicore/StructureDefinition/qicore-patient" ]
      },
      "extension": [ {
        "url": "http://hl7.org/fhir/us/core/StructureDefinition/us-core-race",
        "extension": [ {
          "url": "ombCategory",
          "valueCoding": {
            "system": "urn:oid:2.16.840.1.113883.6.238",
            "code": "2106-3",
            "display": "White"
          }
        }, {
          "url": "detailed",
          "valueCoding": {
            "system": "urn:oid:2.16.840.1.113883.6.238",
            "code": "2036-2",
            "display": "Filipino"
          }
        }, {
          "url": "text",
          "valueString": "mixed"
        } ]
      }, {
        "url": "http://hl7.org/fhir/us/core/StructureDefinition/us-core-ethnicity",
        "extension": [ {
          "url": "ombCategory",
          "valueCoding": {
            "system": "urn:oid:2.16.840.1.113883.6.238",
            "code": "2135-2",
            "display": "Hispanic or Latino"
          }
        }, {
          "url": "detailed",
          "valueCoding": {
            "system": "urn:oid:2.16.840.1.113883.6.238",
            "code": "2148-5",
            "display": "Mexican"
          }
        }, {
          "url": "text",
          "valueString": "Hispanic or Latino"
        } ]
      } ],
      "identifier": [ {
        "type": {
          "coding": [ {
            "system": "http://terminology.hl7.org/CodeSystem/v2-0203",
            "code": "MR"
          } ]
        },
        "system": "https://bonnie-fhir.healthit.gov/",
        "value": "98465413516846513641"
      } ],
      "name": [ {
        "family": "DENEXPass",
        "given": [ "ImmunosuppresiveMedEventB4BCS" ]
      } ],
      "gender": "female",
      "birthDate": "1947-11-03"
    },
    "request": {
      "method": "PUT",
      "url": "Patient/342d2bec-0acc-43e5-aaf7-3c9a65b09f91"
    }
  }, {
    "fullUrl": "https://madie.cms.gov/Encounter/f83ab784-d361-4133-86ae-cf89968eec4a",
    "resource": {
      "resourceType": "Encounter",
      "id": "f83ab784-d361-4133-86ae-cf89968eec4a",
      "meta": {
        "profile": [ "http://hl7.org/fhir/us/qicore/StructureDefinition/qicore-encounter" ]
      },
      "status": "finished",
      "class": {
        "system": "http://terminology.hl7.org/CodeSystem/v3-ActCode",
        "code": "AMB",
        "display": "ambulatory"
      },
      "type": [ {
        "coding": [ {
          "system": "http://snomed.info/sct",
          "version": "http://snomed.info/sct/731000124108/version/20240301",
          "code": "185463005",
          "display": "Visit out of hours (procedure)"
        } ]
      } ],
      "subject": {
        "reference": "Patient/342d2bec-0acc-43e5-aaf7-3c9a65b09f91"
      },
      "period": {
        "start": "2026-04-06T08:00:00.000+00:00",
        "end": "2026-04-06T09:15:00.000+00:00"
      }
    },
    "request": {
      "method": "PUT",
      "url": "Encounter/f83ab784-d361-4133-86ae-cf89968eec4a"
    }
  }, {
    "fullUrl": "https://madie.cms.gov/Condition/9c397b51-3624-4639-8b04-e2102ff3104a",
    "resource": {
      "resourceType": "Condition",
      "id": "9c397b51-3624-4639-8b04-e2102ff3104a",
      "meta": {
        "profile": [ "http://hl7.org/fhir/us/qicore/StructureDefinition/qicore-condition-problems-health-concerns" ]
      },
      "clinicalStatus": {
        "coding": [ {
          "system": "http://terminology.hl7.org/CodeSystem/condition-clinical",
          "code": "active",
          "display": "Active"
        } ]
      },
      "verificationStatus": {
        "coding": [ {
          "system": "http://terminology.hl7.org/CodeSystem/condition-ver-status",
          "code": "confirmed",
          "display": "Confirmed"
        } ]
      },
      "category": [ {
        "coding": [ {
          "system": "http://terminology.hl7.org/CodeSystem/condition-category",
          "code": "problem-list-item",
          "display": "Problem List Item"
        } ]
      } ],
      "code": {
        "coding": [ {
          "system": "http://hl7.org/fhir/sid/icd-10-cm",
          "version": "2024",
          "code": "C67.1",
          "display": "Malignant neoplasm of dome of bladder"
        } ]
      },
      "subject": {
        "reference": "Patient/342d2bec-0acc-43e5-aaf7-3c9a65b09f91"
      },
      "onsetPeriod": {
        "start": "2026-04-06T08:00:00.000+00:00"
      }
    },
    "request": {
      "method": "PUT",
      "url": "Condition/9c397b51-3624-4639-8b04-e2102ff3104a"
    }
  }, {
    "fullUrl": "https://madie.cms.gov/MedicationRequest/dad84dd2-dbe3-42ae-98a4-46f7a69a5008",
    "resource": {
      "resourceType": "MedicationRequest",
      "id": "dad84dd2-dbe3-42ae-98a4-46f7a69a5008",
      "meta": {
        "profile": [ "http://hl7.org/fhir/us/qicore/StructureDefinition/qicore-medicationrequest" ]
      },
      "status": "completed",
      "intent": "order",
      "medicationCodeableConcept": {
        "coding": [ {
          "system": "http://www.nlm.nih.gov/research/umls/rxnorm",
          "version": "08072023",
          "code": "1303125",
          "display": "prednisone 1 MG Delayed Release Oral Tablet"
        } ]
      },
      "subject": {
        "reference": "Patient/342d2bec-0acc-43e5-aaf7-3c9a65b09f91"
      },
      "authoredOn": "2026-03-03T14:00:00.000+00:00",
      "requester": {
        "reference": "Practitioner/1351644115135131"
      },
      "dosageInstruction": [ {
        "timing": {
          "event": [ "2026-03-03T14:00:00.000+00:00", "2026-06-03T14:00:00.000+00:00" ]
        }
      } ]
    },
    "request": {
      "method": "PUT",
      "url": "MedicationRequest/dad84dd2-dbe3-42ae-98a4-46f7a69a5008"
    }
  }, {
    "fullUrl": "https://madie.cms.gov/Procedure/8d59208d-b7db-4e5f-8c8c-cddc00078aa1",
    "resource": {
      "resourceType": "Procedure",
      "id": "8d59208d-b7db-4e5f-8c8c-cddc00078aa1",
      "meta": {
        "profile": [ "http://hl7.org/fhir/us/qicore/StructureDefinition/qicore-procedure" ]
      },
      "extension": [ {
        "url": "http://hl7.org/fhir/us/qicore/StructureDefinition/qicore-recorded",
        "valueDateTime": "2026-04-06T08:00:00.000+00:00"
      } ],
      "status": "completed",
      "code": {
        "coding": [ {
          "system": "http://snomed.info/sct",
          "version": "http://snomed.info/sct/731000124108/version/20240301",
          "code": "254292007",
          "display": "Tumor staging"
        } ]
      },
      "subject": {
        "reference": "Patient/342d2bec-0acc-43e5-aaf7-3c9a65b09f91"
      },
      "performedDateTime": "2026-04-06T08:00:00.000+00:00"
    },
    "request": {
      "method": "PUT",
      "url": "Procedure/8d59208d-b7db-4e5f-8c8c-cddc00078aa1"
    }
  }, {
    "fullUrl": "https://madie.cms.gov/Coverage/0fa63eaa-2040-44ea-8534-2a62d8446466",
    "resource": {
      "resourceType": "Coverage",
      "id": "0fa63eaa-2040-44ea-8534-2a62d8446466",
      "meta": {
        "profile": [ "http://hl7.org/fhir/us/qicore/StructureDefinition/qicore-coverage" ]
      },
      "status": "active",
      "type": {
        "coding": [ {
          "system": "https://nahdo.org/sopt",
          "code": "59",
          "display": "Other Private Insurance"
        } ]
      },
      "beneficiary": {
        "reference": "Patient/342d2bec-0acc-43e5-aaf7-3c9a65b09f91"
      },
      "period": {
        "start": "2025-05-01",
        "end": "2026-04-27"
      },
      "payor": [ {
        "reference": "Organization/f9b8e62e-367b-473d-91c6-3a20a4d4ebcb"
      } ]
    },
    "request": {
      "method": "PUT",
      "url": "Coverage/0fa63eaa-2040-44ea-8534-2a62d8446466"
    }
  }, {
    "fullUrl": "https://madie.cms.gov/Organization/f9b8e62e-367b-473d-91c6-3a20a4d4ebcb",
    "resource": {
      "resourceType": "Organization",
      "id": "f9b8e62e-367b-473d-91c6-3a20a4d4ebcb",
      "meta": {
        "profile": [ "http://hl7.org/fhir/us/qicore/StructureDefinition/qicore-organization" ]
      },
      "identifier": [ {
        "use": "temp",
        "system": "urn:oid:2.16.840.1.113883.4.4",
        "value": "21-3259825"
      } ],
      "active": true,
      "type": [ {
        "coding": [ {
          "system": "http://terminology.hl7.org/CodeSystem/organization-type",
          "code": "pay",
          "display": "Payer"
        } ]
      } ],
      "name": "Blue Cross Blue Shield of Texas",
      "telecom": [ {
        "system": "phone",
        "value": "(+1) 972-766-6900"
      } ],
      "address": [ {
        "use": "billing",
        "type": "postal",
        "line": [ "P.O. Box 660044" ],
        "city": "Dallas",
        "state": "TX",
        "postalCode": "75266-0044",
        "country": "USA"
      } ]
    },
    "request": {
      "method": "PUT",
      "url": "Organization/f9b8e62e-367b-473d-91c6-3a20a4d4ebcb"
    }
  }, {
    "fullUrl": "https://madie.cms.gov/Practitioner/251de9b9-9b4d-4f8d-b53a-57dac613e0d2",
    "resource": {
      "resourceType": "Practitioner",
      "id": "251de9b9-9b4d-4f8d-b53a-57dac613e0d2",
      "meta": {
        "profile": [ "http://hl7.org/fhir/us/qicore/StructureDefinition/qicore-practitioner" ]
      },
      "identifier": [ {
        "system": "http://hl7.org/fhir/sid/us-npi",
        "value": "123456"
      } ],
      "name": [ {
        "family": "Evil",
        "prefix": [ "Dr" ]
      } ]
    },
    "request": {
      "method": "PUT",
      "url": "Practitioner/251de9b9-9b4d-4f8d-b53a-57dac613e0d2"
    }
  }, {
    "fullUrl": "https://madie.cms.gov/Observation/573fea89-d5e7-4480-8e07-4962f9fa5e53",
    "resource": {
      "resourceType": "Observation",
      "id": "573fea89-d5e7-4480-8e07-4962f9fa5e53",
      "meta": {
        "profile": [ "http://hl7.org/fhir/us/qicore/StructureDefinition/qicore-observation-lab" ]
      },
      "partOf": [ {
        "reference": "Procedure/8d59208d-b7db-4e5f-8c8c-cddc00078aa1"
      } ],
      "status": "final",
      "category": [ {
        "coding": [ {
          "system": "http://terminology.hl7.org/CodeSystem/observation-category",
          "code": "procedure",
          "display": "Procedure"
        } ]
      } ],
      "code": {
        "coding": [ {
          "system": "http://loinc.org",
          "version": "2.76",
          "code": "21902-2",
          "display": "Stage group.pathology Cancer"
        } ]
      },
      "subject": {
        "reference": "Patient/342d2bec-0acc-43e5-aaf7-3c9a65b09f91"
      },
      "effectiveDateTime": "2026-04-06T08:00:00.000+00:00",
      "issued": "2026-04-06T08:10:00.000+00:00",
      "valueCodeableConcept": {
        "coding": [ {
          "system": "http://snomed.info/sct",
          "version": "http://snomed.info/sct/731000124108/version/20240301",
          "code": "1228884006",
          "display": "American Joint Committee on Cancer cTis (qualifier value)"
        } ]
      }
    },
    "request": {
      "method": "PUT",
      "url": "Observation/573fea89-d5e7-4480-8e07-4962f9fa5e53"
    }
  }, {
    "fullUrl": "https://madie.cms.gov/MeasureReport/2d8b481e-a4ff-4ef4-8df5-a2b5d0ffb0fd",
    "resource": {
      "resourceType": "MeasureReport",
      "id": "2d8b481e-a4ff-4ef4-8df5-a2b5d0ffb0fd",
      "meta": {
        "profile": [ "http://hl7.org/fhir/us/cqfmeasures/StructureDefinition/test-case-cqfm" ]
      },
      "contained": [ {
        "resourceType": "Parameters",
        "id": "135782c1-fcd4-4472-abc3-c4668c92fbef-parameters",
        "parameter": [ {
          "name": "subject",
          "valueString": "342d2bec-0acc-43e5-aaf7-3c9a65b09f91"
        } ]
      } ],
      "extension": [ {
        "url": "http://hl7.org/fhir/StructureDefinition/cqf-inputParameters",
        "valueReference": {
          "reference": "#135782c1-fcd4-4472-abc3-c4668c92fbef-parameters"
        }
      }, {
        "url": "http://hl7.org/fhir/us/cqfmeasures/StructureDefinition/cqfm-testCaseDescription",
        "valueMarkdown": "Patient's most recent bladder cancer tumor staging is Tis. Patient has Medication Request for prednisone before BCS which qualifies for denominator exclusion. Uses Event timing."
      } ],
      "modifierExtension": [ {
        "url": "http://hl7.org/fhir/us/cqfmeasures/StructureDefinition/cqfm-isTestCase",
        "valueBoolean": true
      } ],
      "status": "complete",
      "type": "individual",
      "measure": "https://madie.cms.gov/Measure/CMS646FHIRIntravesicalBacillusCalmetteGuerinForBladderCancer",
      "period": {
        "start": "2026-01-01",
        "end": "2026-12-31"
      },
      "group": [ {
        "id": "Group_1",
        "population": [ {
          "id": "InitialPopulation_1",
          "code": {
            "coding": [ {
              "system": "http://terminology.hl7.org/CodeSystem/measure-population",
              "code": "initial-population",
              "display": "Initial Population"
            } ]
          },
          "count": 1
        }, {
          "id": "Denominator_1",
          "code": {
            "coding": [ {
              "system": "http://terminology.hl7.org/CodeSystem/measure-population",
              "code": "denominator",
              "display": "Denominator"
            } ]
          },
          "count": 1
        }, {
          "id": "DenominatorExclusion_1",
          "code": {
            "coding": [ {
              "system": "http://terminology.hl7.org/CodeSystem/measure-population",
              "code": "denominator-exclusion",
              "display": "Denominator Exclusion"
            } ]
          },
          "count": 1
        }, {
          "id": "Numerator_1",
          "code": {
            "coding": [ {
              "system": "http://terminology.hl7.org/CodeSystem/measure-population",
              "code": "numerator",
              "display": "Numerator"
            } ]
          },
          "count": 0
        }, {
          "id": "DenominatorException_1",
          "code": {
            "coding": [ {
              "system": "http://terminology.hl7.org/CodeSystem/measure-population",
              "code": "denominator-exception",
              "display": "Denominator Exception"
            } ]
          },
          "count": 0
        } ],
        "measureScore": {
          "value": 1.0
        }
      } ],
      "evaluatedResource": [ {
        "reference": "Patient/342d2bec-0acc-43e5-aaf7-3c9a65b09f91"
      }, {
        "reference": "Encounter/f83ab784-d361-4133-86ae-cf89968eec4a"
      }, {
        "reference": "Condition/9c397b51-3624-4639-8b04-e2102ff3104a"
      }, {
        "reference": "MedicationRequest/dad84dd2-dbe3-42ae-98a4-46f7a69a5008"
      }, {
        "reference": "Procedure/8d59208d-b7db-4e5f-8c8c-cddc00078aa1"
      }, {
        "reference": "Coverage/0fa63eaa-2040-44ea-8534-2a62d8446466"
      }, {
        "reference": "Organization/f9b8e62e-367b-473d-91c6-3a20a4d4ebcb"
      }, {
        "reference": "Practitioner/251de9b9-9b4d-4f8d-b53a-57dac613e0d2"
      }, {
        "reference": "Observation/573fea89-d5e7-4480-8e07-4962f9fa5e53"
      } ]
    },
    "request": {
      "method": "PUT",
      "url": "MeasureReport/2d8b481e-a4ff-4ef4-8df5-a2b5d0ffb0fd"
    }
  } ]
}