{
  "resourceType": "Bundle",
  "id": "60f82c2e98086b570510e266",
  "type": "transaction",
  "entry": [ {
    "fullUrl": "https://madie.cms.gov/Patient/8873f644-9b17-4ee1-9152-8c77c7374bd1",
    "resource": {
      "resourceType": "Patient",
      "id": "8873f644-9b17-4ee1-9152-8c77c7374bd1",
      "meta": {
        "profile": [ "http://hl7.org/fhir/us/qicore/StructureDefinition/qicore-patient" ]
      },
      "text": {
        "status": "generated",
        "div": "<div xmlns=\"http://www.w3.org/1999/xhtml\"><div class=\"hapiHeaderText\">CMP=1Day_DuringEncIP <b>DENEXPASS </b></div><table class=\"hapiPropertyTable\"><tbody><tr><td>Identifier</td><td>912400d032c570bbcae9bbdbf6e22fb5</td></tr><tr><td>Date of birth</td><td><span>26 September 1975</span></td></tr></tbody></table></div>"
      },
      "extension": [ {
        "url": "http://hl7.org/fhir/us/core/StructureDefinition/us-core-race",
        "extension": [ {
          "url": "ombCategory",
          "valueCoding": {
            "system": "urn:oid:2.16.840.1.113883.6.238",
            "code": "2054-5",
            "display": "Black or African American",
            "userSelected": true
          }
        }, {
          "url": "text",
          "valueString": "Black or African American"
        } ]
      }, {
        "url": "http://hl7.org/fhir/us/core/StructureDefinition/us-core-ethnicity",
        "extension": [ {
          "url": "ombCategory",
          "valueCoding": {
            "system": "urn:oid:2.16.840.1.113883.6.238",
            "code": "2186-5",
            "display": "Not Hispanic or Latino",
            "userSelected": true
          }
        }, {
          "url": "text",
          "valueString": "Not Hispanic or Latino"
        } ]
      } ],
      "identifier": [ {
        "type": {
          "coding": [ {
            "system": "http://terminology.hl7.org/CodeSystem/v2-0203",
            "code": "MR"
          } ]
        },
        "system": "https://bonnie-fhir.healthit.gov/",
        "value": "60f82c2e98086b570510e266"
      } ],
      "active": true,
      "name": [ {
        "use": "usual",
        "family": "DENEXPass",
        "given": [ "CMP=1DayDuringEncIP" ]
      } ],
      "gender": "female",
      "birthDate": "1976-09-26"
    },
    "request": {
      "method": "PUT",
      "url": "Patient/8873f644-9b17-4ee1-9152-8c77c7374bd1"
    }
  }, {
    "fullUrl": "https://madie.cms.gov/Encounter/ed846850-7c53-461f-b799-2faeb9dbf2a8",
    "resource": {
      "resourceType": "Encounter",
      "id": "ed846850-7c53-461f-b799-2faeb9dbf2a8",
      "meta": {
        "profile": [ "http://hl7.org/fhir/us/qicore/StructureDefinition/qicore-encounter" ]
      },
      "status": "finished",
      "class": {
        "system": "http://terminology.hl7.org/CodeSystem/v3-ActCode",
        "code": "EMER",
        "display": "emergency",
        "userSelected": true
      },
      "type": [ {
        "coding": [ {
          "system": "http://snomed.info/sct",
          "code": "4525004"
        } ]
      } ],
      "subject": {
        "reference": "Patient/8873f644-9b17-4ee1-9152-8c77c7374bd1"
      },
      "period": {
        "start": "2026-10-10T04:00:00Z",
        "end": "2026-10-10T06:15:00.000+00:00"
      },
      "length": {
        "value": 0,
        "unit": "days"
      }
    },
    "request": {
      "method": "PUT",
      "url": "Encounter/ed846850-7c53-461f-b799-2faeb9dbf2a8"
    }
  }, {
    "fullUrl": "https://madie.cms.gov/Encounter/bf16872c-ed35-45b3-8187-422c3f23f1d2",
    "resource": {
      "resourceType": "Encounter",
      "id": "bf16872c-ed35-45b3-8187-422c3f23f1d2",
      "meta": {
        "profile": [ "http://hl7.org/fhir/us/qicore/StructureDefinition/qicore-encounter" ]
      },
      "status": "finished",
      "class": {
        "system": "http://terminology.hl7.org/CodeSystem/v3-ActCode",
        "code": "IMP",
        "display": "inpatient encounter",
        "userSelected": true
      },
      "type": [ {
        "coding": [ {
          "system": "http://snomed.info/sct",
          "code": "32485007"
        } ]
      } ],
      "subject": {
        "reference": "Patient/8873f644-9b17-4ee1-9152-8c77c7374bd1"
      },
      "period": {
        "start": "2026-10-10T06:16:00Z",
        "end": "2026-10-12T06:31:00.000+00:00"
      },
      "length": {
        "value": 2,
        "unit": "days"
      },
      "reasonReference": [ {
        "reference": "Condition/d62da30b-6602-47b5-be88-043af42fc6ae"
      } ]
    },
    "request": {
      "method": "PUT",
      "url": "Encounter/bf16872c-ed35-45b3-8187-422c3f23f1d2"
    }
  }, {
    "fullUrl": "https://madie.cms.gov/claim/5ca62962b8484628b8de1ec5",
    "resource": {
      "resourceType": "Claim",
      "id": "5ca62962b8484628b8de1ec5",
      "meta": {
        "profile": [ "http://hl7.org/fhir/us/qicore/StructureDefinition/qicore-claim" ]
      },
      "status": "active",
      "type": {
        "coding": [ {
          "system": "http://terminology.hl7.org/CodeSystem/claim-type",
          "code": "institutional"
        } ]
      },
      "use": "claim",
      "patient": {
        "reference": "Patient/8873f644-9b17-4ee1-9152-8c77c7374bd1"
      },
      "created": "2026-12-01",
      "provider": {
        "reference": "Practitioner/practitioner-123456"
      },
      "priority": {
        "coding": [ {
          "system": "http://terminology.hl7.org/CodeSystem/processpriority",
          "code": "normal"
        } ]
      },
      "diagnosis": [ {
        "sequence": 1,
        "diagnosisCodeableConcept": {
          "coding": [ {
            "system": "http://hl7.org/fhir/sid/icd-10-cm",
            "code": "I63.00"
          } ]
        },
        "type": [ {
          "coding": [ {
            "system": "http://terminology.hl7.org/CodeSystem/ex-diagnosistype",
            "code": "principal"
          } ]
        } ]
      } ],
      "insurance": [ {
        "sequence": 1,
        "focal": true,
        "coverage": {
          "reference": "Coverage/1a01ba9a-ba0e-4c6c-b78e-8aaa99c5aa75"
        }
      } ],
      "item": [ {
        "sequence": 1,
        "diagnosisSequence": [ 1 ],
        "productOrService": {
          "coding": [ {
            "system": "http://terminology.hl7.org/CodeSystem/ex-USCLS",
            "code": "99555"
          } ]
        },
        "encounter": [ {
          "reference": "Encounter/bf16872c-ed35-45b3-8187-422c3f23f1d2"
        } ]
      } ]
    },
    "request": {
      "method": "PUT",
      "url": "Claim/5ca62962b8484628b8de1ec5"
    }
  }, {
    "fullUrl": "https://madie.cms.gov/Procedure/7687203e-10b7-4b50-aa81-e63fcfa82992",
    "resource": {
      "resourceType": "Procedure",
      "id": "7687203e-10b7-4b50-aa81-e63fcfa82992",
      "meta": {
        "profile": [ "http://hl7.org/fhir/us/qicore/StructureDefinition/qicore-procedure" ]
      },
      "extension": [ {
        "url": "http://hl7.org/fhir/us/qicore/StructureDefinition/qicore-recorded",
        "valueDateTime": "2026-11-19T13:35:00Z"
      } ],
      "status": "completed",
      "code": {
        "coding": [ {
          "system": "http://snomed.info/sct",
          "code": "133918004"
        } ]
      },
      "subject": {
        "reference": "Patient/8873f644-9b17-4ee1-9152-8c77c7374bd1"
      },
      "performedPeriod": {
        "start": "2026-10-11T23:59:00Z"
      }
    },
    "request": {
      "method": "PUT",
      "url": "Procedure/7687203e-10b7-4b50-aa81-e63fcfa82992"
    }
  }, {
    "fullUrl": "https://madie.cms.gov/Coverage/1a01ba9a-ba0e-4c6c-b78e-8aaa99c5aa75",
    "resource": {
      "resourceType": "Coverage",
      "id": "1a01ba9a-ba0e-4c6c-b78e-8aaa99c5aa75",
      "status": "active",
      "beneficiary": {
        "reference": "Patient/8873f644-9b17-4ee1-9152-8c77c7374bd1"
      },
      "period": {
        "start": "1976-09-26T08:00:00Z"
      },
      "payor": [ {
        "reference": "Organization/ed288ac0-8d2e-4911-b1ee-3d9e6420a6b6"
      } ]
    },
    "request": {
      "method": "PUT",
      "url": "Coverage/1a01ba9a-ba0e-4c6c-b78e-8aaa99c5aa75"
    }
  }, {
    "fullUrl": "https://madie.cms.gov/Condition/d62da30b-6602-47b5-be88-043af42fc6ae",
    "resource": {
      "resourceType": "Condition",
      "id": "d62da30b-6602-47b5-be88-043af42fc6ae",
      "meta": {
        "profile": [ "http://hl7.org/fhir/us/qicore/StructureDefinition/qicore-condition-encounter-diagnosis" ]
      },
      "clinicalStatus": {
        "coding": [ {
          "system": "http://terminology.hl7.org/CodeSystem/condition-clinical",
          "code": "active"
        } ]
      },
      "verificationStatus": {
        "coding": [ {
          "system": "http://terminology.hl7.org/CodeSystem/condition-ver-status",
          "code": "confirmed"
        } ]
      },
      "category": [ {
        "coding": [ {
          "system": "http://terminology.hl7.org/CodeSystem/condition-category",
          "code": "encounter-diagnosis",
          "display": "Encounter Diagnosis"
        } ]
      } ],
      "code": {
        "coding": [ {
          "system": "http://snomed.info/sct",
          "version": "2020-09",
          "code": "111297002",
          "display": "Nonparalytic stroke (disorder)",
          "userSelected": true
        } ]
      },
      "subject": {
        "reference": "Patient/8873f644-9b17-4ee1-9152-8c77c7374bd1"
      },
      "recordedDate": "2026-08-13T08:00:00Z"
    },
    "request": {
      "method": "PUT",
      "url": "Condition/d62da30b-6602-47b5-be88-043af42fc6ae"
    }
  }, {
    "fullUrl": "https://madie.cms.gov/Organization/ed288ac0-8d2e-4911-b1ee-3d9e6420a6b6",
    "resource": {
      "resourceType": "Organization",
      "id": "ed288ac0-8d2e-4911-b1ee-3d9e6420a6b6",
      "meta": {
        "profile": [ "http://hl7.org/fhir/us/qicore/StructureDefinition/qicore-organization" ]
      },
      "identifier": [ {
        "use": "temp",
        "system": "urn:oid:2.16.840.1.113883.4.4",
        "value": "21-3259825"
      } ],
      "active": true,
      "type": [ {
        "coding": [ {
          "system": "http://terminology.hl7.org/CodeSystem/organization-type",
          "code": "pay",
          "display": "Payer"
        } ]
      } ],
      "name": "Blue Cross Blue Shield of Texas",
      "telecom": [ {
        "system": "phone",
        "value": "(+1) 972-766-6900"
      } ],
      "address": [ {
        "use": "billing",
        "type": "postal",
        "line": [ "P.O. Box 660044" ],
        "city": "Dallas",
        "state": "TX",
        "postalCode": "75266-0044",
        "country": "USA"
      } ]
    },
    "request": {
      "method": "PUT",
      "url": "Organization/ed288ac0-8d2e-4911-b1ee-3d9e6420a6b6"
    }
  }, {
    "fullUrl": "https://madie.cms.gov/MeasureReport/6e2dd135-00a6-4b33-8e67-05bd850e9a30",
    "resource": {
      "resourceType": "MeasureReport",
      "id": "6e2dd135-00a6-4b33-8e67-05bd850e9a30",
      "meta": {
        "profile": [ "http://hl7.org/fhir/us/cqfmeasures/StructureDefinition/test-case-cqfm" ]
      },
      "contained": [ {
        "resourceType": "Parameters",
        "id": "1849fbbb-1b42-448f-b542-870583be4a81-parameters",
        "parameter": [ {
          "name": "subject",
          "valueString": "8873f644-9b17-4ee1-9152-8c77c7374bd1"
        } ]
      } ],
      "extension": [ {
        "url": "http://hl7.org/fhir/StructureDefinition/cqf-inputParameters",
        "valueReference": {
          "reference": "#1849fbbb-1b42-448f-b542-870583be4a81-parameters"
        }
      }, {
        "url": "http://hl7.org/fhir/us/cqfmeasures/StructureDefinition/cqfm-testCaseDescription",
        "valueMarkdown": "Patient receives comfort measures performed <= 1 (=1 day) day during IP encounter\n"
      } ],
      "modifierExtension": [ {
        "url": "http://hl7.org/fhir/us/cqfmeasures/StructureDefinition/cqfm-isTestCase",
        "valueBoolean": true
      } ],
      "status": "complete",
      "type": "individual",
      "measure": "https://madie.cms.gov/Measure/CMS72FHIRSTKAntithromboticDay2",
      "period": {
        "start": "2026-01-01",
        "end": "2026-12-31"
      },
      "group": [ {
        "id": "Group_1",
        "population": [ {
          "id": "InitialPopulation_1",
          "code": {
            "coding": [ {
              "system": "http://terminology.hl7.org/CodeSystem/measure-population",
              "code": "initial-population",
              "display": "Initial Population"
            } ]
          },
          "count": 1
        }, {
          "id": "Denominator_1",
          "code": {
            "coding": [ {
              "system": "http://terminology.hl7.org/CodeSystem/measure-population",
              "code": "denominator",
              "display": "Denominator"
            } ]
          },
          "count": 1
        }, {
          "id": "DenominatorExclusion_1",
          "code": {
            "coding": [ {
              "system": "http://terminology.hl7.org/CodeSystem/measure-population",
              "code": "denominator-exclusion",
              "display": "Denominator Exclusion"
            } ]
          },
          "count": 1
        }, {
          "id": "Numerator_1",
          "code": {
            "coding": [ {
              "system": "http://terminology.hl7.org/CodeSystem/measure-population",
              "code": "numerator",
              "display": "Numerator"
            } ]
          },
          "count": 0
        }, {
          "id": "DenominatorException_1",
          "code": {
            "coding": [ {
              "system": "http://terminology.hl7.org/CodeSystem/measure-population",
              "code": "denominator-exception",
              "display": "Denominator Exception"
            } ]
          },
          "count": 0
        } ],
        "measureScore": {
          "value": 0.0
        }
      } ],
      "evaluatedResource": [ {
        "reference": "Patient/8873f644-9b17-4ee1-9152-8c77c7374bd1"
      }, {
        "reference": "Encounter/ed846850-7c53-461f-b799-2faeb9dbf2a8"
      }, {
        "reference": "Encounter/bf16872c-ed35-45b3-8187-422c3f23f1d2"
      }, {
        "reference": "Claim/5ca62962b8484628b8de1ec5"
      }, {
        "reference": "Procedure/7687203e-10b7-4b50-aa81-e63fcfa82992"
      }, {
        "reference": "Coverage/1a01ba9a-ba0e-4c6c-b78e-8aaa99c5aa75"
      }, {
        "reference": "Condition/d62da30b-6602-47b5-be88-043af42fc6ae"
      }, {
        "reference": "Organization/ed288ac0-8d2e-4911-b1ee-3d9e6420a6b6"
      } ]
    },
    "request": {
      "method": "PUT",
      "url": "MeasureReport/6e2dd135-00a6-4b33-8e67-05bd850e9a30"
    }
  } ]
}