{
  "resourceType": "Bundle",
  "id": "612e6aeb02c62a011f2ebbf9",
  "type": "transaction",
  "entry": [ {
    "fullUrl": "https://madie.cms.gov/Patient/dfc6a903-e637-4fff-8619-996099874454",
    "resource": {
      "resourceType": "Patient",
      "id": "dfc6a903-e637-4fff-8619-996099874454",
      "meta": {
        "profile": [ "http://hl7.org/fhir/us/qicore/StructureDefinition/qicore-patient" ]
      },
      "text": {
        "status": "generated",
        "div": "<div xmlns=\"http://www.w3.org/1999/xhtml\"><div class=\"hapiHeaderText\">INR_InvalidValue <b>NUMERFAIL </b></div><table class=\"hapiPropertyTable\"><tbody><tr><td>Identifier</td><td>698cb035726013399ea3ce60e92c9a6fae5c605ed7af65e4a30123b6e34d303e</td></tr><tr><td>Date of birth</td><td><span>02 January 1974</span></td></tr></tbody></table></div>"
      },
      "extension": [ {
        "url": "http://hl7.org/fhir/us/core/StructureDefinition/us-core-race",
        "extension": [ {
          "url": "ombCategory",
          "valueCoding": {
            "system": "urn:oid:2.16.840.1.113883.6.238",
            "code": "1002-5",
            "display": "American Indian or Alaska Native",
            "userSelected": true
          }
        }, {
          "url": "text",
          "valueString": "American Indian or Alaska Native"
        } ]
      }, {
        "url": "http://hl7.org/fhir/us/core/StructureDefinition/us-core-ethnicity",
        "extension": [ {
          "url": "ombCategory",
          "valueCoding": {
            "system": "urn:oid:2.16.840.1.113883.6.238",
            "code": "2135-2",
            "display": "Hispanic or Latino",
            "userSelected": true
          }
        }, {
          "url": "text",
          "valueString": "Hispanic or Latino"
        } ]
      } ],
      "identifier": [ {
        "type": {
          "coding": [ {
            "system": "http://terminology.hl7.org/CodeSystem/v2-0203",
            "code": "MR"
          } ]
        },
        "system": "https://bonnie-fhir.healthit.gov/",
        "value": "612e6aeb02c62a011f2ebbf9"
      } ],
      "active": true,
      "name": [ {
        "use": "usual",
        "family": "NUMERFail",
        "given": [ "INR_InvalidValue" ]
      } ],
      "gender": "male",
      "birthDate": "1975-01-02"
    },
    "request": {
      "method": "PUT",
      "url": "Patient/dfc6a903-e637-4fff-8619-996099874454"
    }
  }, {
    "fullUrl": "https://madie.cms.gov/Encounter/64f011c8-9852-4989-87b3-58909fff8548",
    "resource": {
      "resourceType": "Encounter",
      "id": "64f011c8-9852-4989-87b3-58909fff8548",
      "meta": {
        "profile": [ "http://hl7.org/fhir/us/qicore/StructureDefinition/qicore-encounter" ]
      },
      "status": "finished",
      "class": {
        "system": "http://terminology.hl7.org/CodeSystem/v3-ActCode",
        "code": "IMP",
        "display": "inpatient encounter"
      },
      "type": [ {
        "coding": [ {
          "system": "http://snomed.info/sct",
          "code": "8715000"
        } ]
      } ],
      "subject": {
        "reference": "Patient/dfc6a903-e637-4fff-8619-996099874454"
      },
      "period": {
        "start": "2026-11-01T08:00:00.000+00:00",
        "end": "2026-11-26T08:15:00.000+00:00"
      },
      "length": {
        "value": 25,
        "unit": "days"
      }
    },
    "request": {
      "method": "PUT",
      "url": "Encounter/64f011c8-9852-4989-87b3-58909fff8548"
    }
  }, {
    "fullUrl": "https://madie.cms.gov/Coverage/4d785a47-4442-4c31-8156-917462517d83",
    "resource": {
      "resourceType": "Coverage",
      "id": "4d785a47-4442-4c31-8156-917462517d83",
      "status": "active",
      "beneficiary": {
        "reference": "Patient/dfc6a903-e637-4fff-8619-996099874454"
      },
      "period": {
        "start": "1975-01-02T08:00:00.000+00:00"
      },
      "payor": [ {
        "reference": "Organization/62835643-12c7-4eec-918a-7321fd5b155b"
      } ]
    },
    "request": {
      "method": "PUT",
      "url": "Coverage/4d785a47-4442-4c31-8156-917462517d83"
    }
  }, {
    "fullUrl": "https://madie.cms.gov/Observation/5c5429b2-3fb3-4628-b2de-66f7dd0ec7a9",
    "resource": {
      "resourceType": "Observation",
      "id": "5c5429b2-3fb3-4628-b2de-66f7dd0ec7a9",
      "meta": {
        "profile": [ "http://hl7.org/fhir/us/qicore/StructureDefinition/qicore-observation-lab" ]
      },
      "status": "amended",
      "category": [ {
        "coding": [ {
          "system": "http://terminology.hl7.org/CodeSystem/observation-category",
          "code": "laboratory",
          "display": "Laboratory"
        } ]
      } ],
      "code": {
        "coding": [ {
          "system": "http://loinc.org",
          "code": "34714-6"
        } ]
      },
      "subject": {
        "reference": "Patient/dfc6a903-e637-4fff-8619-996099874454"
      },
      "issued": "2026-11-01T10:00:00.000+00:00",
      "valueCodeableConcept": {
        "coding": [ {
          "system": "http://cts.nlm.nih.gov/fhir/cs/cdcrec",
          "code": "2135-2",
          "display": "Ethnicity"
        } ]
      }
    },
    "request": {
      "method": "PUT",
      "url": "Observation/5c5429b2-3fb3-4628-b2de-66f7dd0ec7a9"
    }
  }, {
    "fullUrl": "https://madie.cms.gov/Procedure/a26145de-d459-40f1-be8e-02e7be672599",
    "resource": {
      "resourceType": "Procedure",
      "id": "a26145de-d459-40f1-be8e-02e7be672599",
      "status": "completed",
      "code": {
        "coding": [ {
          "system": "http://www.icd10data.com/icd10pcs",
          "code": "3E030FZ"
        }, {
          "system": "http://snomed.info/sct",
          "code": "18946005"
        } ]
      },
      "subject": {
        "reference": "Patient/dfc6a903-e637-4fff-8619-996099874454"
      },
      "performedPeriod": {
        "start": "2026-11-01T09:00:00.000+00:00",
        "end": "2026-11-01T09:15:00.000+00:00"
      }
    },
    "request": {
      "method": "PUT",
      "url": "Procedure/a26145de-d459-40f1-be8e-02e7be672599"
    }
  }, {
    "fullUrl": "https://madie.cms.gov/Organization/62835643-12c7-4eec-918a-7321fd5b155b",
    "resource": {
      "resourceType": "Organization",
      "id": "62835643-12c7-4eec-918a-7321fd5b155b",
      "meta": {
        "profile": [ "http://hl7.org/fhir/us/qicore/StructureDefinition/qicore-organization" ]
      },
      "identifier": [ {
        "use": "temp",
        "system": "urn:oid:2.16.840.1.113883.4.4",
        "value": "21-3259825"
      } ],
      "active": true,
      "type": [ {
        "coding": [ {
          "system": "http://terminology.hl7.org/CodeSystem/organization-type",
          "code": "pay",
          "display": "Payer"
        } ]
      } ],
      "name": "Blue Cross Blue Shield of Texas",
      "telecom": [ {
        "system": "phone",
        "value": "(+1) 972-766-6900"
      } ],
      "address": [ {
        "use": "billing",
        "type": "postal",
        "line": [ "P.O. Box 660044" ],
        "city": "Dallas",
        "state": "TX",
        "postalCode": "75266-0044",
        "country": "USA"
      } ]
    },
    "request": {
      "method": "PUT",
      "url": "Organization/62835643-12c7-4eec-918a-7321fd5b155b"
    }
  }, {
    "fullUrl": "https://madie.cms.gov/Practitioner/8243237b-630f-4ff0-9c18-41ef061ab60e",
    "resource": {
      "resourceType": "Practitioner",
      "id": "8243237b-630f-4ff0-9c18-41ef061ab60e",
      "identifier": [ {
        "system": "http://hl7.org/fhir/sid/us-npi",
        "value": "123456"
      } ],
      "name": [ {
        "family": "Evil",
        "prefix": [ "Dr" ]
      } ]
    },
    "request": {
      "method": "PUT",
      "url": "Practitioner/8243237b-630f-4ff0-9c18-41ef061ab60e"
    }
  }, {
    "fullUrl": "https://madie.cms.gov/MeasureReport/7bb7b81f-ea30-45b2-9293-74cc1521b87e",
    "resource": {
      "resourceType": "MeasureReport",
      "id": "7bb7b81f-ea30-45b2-9293-74cc1521b87e",
      "meta": {
        "profile": [ "http://hl7.org/fhir/us/cqfmeasures/StructureDefinition/test-case-cqfm" ]
      },
      "contained": [ {
        "resourceType": "Parameters",
        "id": "e653f1dc-8d7d-40bd-9ae7-947a2df1a482-parameters",
        "parameter": [ {
          "name": "subject",
          "valueString": "dfc6a903-e637-4fff-8619-996099874454"
        } ]
      } ],
      "extension": [ {
        "url": "http://hl7.org/fhir/StructureDefinition/cqf-inputParameters",
        "valueReference": {
          "reference": "#e653f1dc-8d7d-40bd-9ae7-947a2df1a482-parameters"
        }
      }, {
        "url": "http://hl7.org/fhir/us/cqfmeasures/StructureDefinition/cqfm-testCaseDescription",
        "valueMarkdown": ">18, dx VTE, LOS<120 day,   LabResult INR is a invalid value as coded value,  < 0 day after surgery end datetime\n"
      } ],
      "modifierExtension": [ {
        "url": "http://hl7.org/fhir/us/cqfmeasures/StructureDefinition/cqfm-isTestCase",
        "valueBoolean": true
      } ],
      "status": "complete",
      "type": "individual",
      "measure": "https://madie.cms.gov/Measure/CMS108FHIRVTEProphylaxis",
      "period": {
        "start": "2026-01-01",
        "end": "2026-12-31"
      },
      "group": [ {
        "id": "Group_1",
        "population": [ {
          "id": "InitialPopulation_1",
          "code": {
            "coding": [ {
              "system": "http://terminology.hl7.org/CodeSystem/measure-population",
              "code": "initial-population",
              "display": "Initial Population"
            } ]
          },
          "count": 1
        }, {
          "id": "Denominator_1",
          "code": {
            "coding": [ {
              "system": "http://terminology.hl7.org/CodeSystem/measure-population",
              "code": "denominator",
              "display": "Denominator"
            } ]
          },
          "count": 1
        }, {
          "id": "DenominatorExclusion_1",
          "code": {
            "coding": [ {
              "system": "http://terminology.hl7.org/CodeSystem/measure-population",
              "code": "denominator-exclusion",
              "display": "Denominator Exclusion"
            } ]
          },
          "count": 0
        }, {
          "id": "Numerator_1",
          "code": {
            "coding": [ {
              "system": "http://terminology.hl7.org/CodeSystem/measure-population",
              "code": "numerator",
              "display": "Numerator"
            } ]
          },
          "count": 0
        } ],
        "measureScore": {
          "value": 0.0
        }
      } ],
      "evaluatedResource": [ {
        "reference": "Patient/dfc6a903-e637-4fff-8619-996099874454"
      }, {
        "reference": "Encounter/64f011c8-9852-4989-87b3-58909fff8548"
      }, {
        "reference": "Coverage/4d785a47-4442-4c31-8156-917462517d83"
      }, {
        "reference": "Observation/5c5429b2-3fb3-4628-b2de-66f7dd0ec7a9"
      }, {
        "reference": "Procedure/a26145de-d459-40f1-be8e-02e7be672599"
      }, {
        "reference": "Organization/62835643-12c7-4eec-918a-7321fd5b155b"
      }, {
        "reference": "Practitioner/8243237b-630f-4ff0-9c18-41ef061ab60e"
      } ]
    },
    "request": {
      "method": "PUT",
      "url": "MeasureReport/7bb7b81f-ea30-45b2-9293-74cc1521b87e"
    }
  } ]
}