{
  "resourceType": "Bundle",
  "id": "numerpass-high-dose",
  "type": "transaction",
  "entry": [ {
    "fullUrl": "https://madie.cms.gov/Patient/719d9b3b-583a-4743-8250-9e2496e65f21",
    "resource": {
      "resourceType": "Patient",
      "id": "719d9b3b-583a-4743-8250-9e2496e65f21",
      "meta": {
        "profile": [ "http://hl7.org/fhir/us/core/StructureDefinition/us-core-patient", "http://hl7.org/fhir/us/qicore/StructureDefinition/qicore-patient" ]
      },
      "extension": [ {
        "url": "http://hl7.org/fhir/us/core/StructureDefinition/us-core-race",
        "extension": [ {
          "url": "ombCategory",
          "valueCoding": {
            "system": "urn:oid:2.16.840.1.113883.6.238",
            "code": "2028-9",
            "display": "Asian"
          }
        }, {
          "url": "text",
          "valueString": "Asian"
        } ]
      }, {
        "url": "http://hl7.org/fhir/us/core/StructureDefinition/us-core-ethnicity",
        "extension": [ {
          "url": "ombCategory",
          "valueCoding": {
            "system": "urn:oid:2.16.840.1.113883.6.238",
            "code": "2135-2",
            "display": "Hispanic or Latino"
          }
        }, {
          "url": "text",
          "valueString": "Hispanic or Latino"
        } ]
      } ],
      "identifier": [ {
        "system": "http://hospital.smarthealthit.org",
        "value": "999999995"
      } ],
      "name": [ {
        "family": "HighDose",
        "given": [ "NUMERPass" ]
      } ],
      "gender": "female",
      "birthDate": "1988-06-12"
    },
    "request": {
      "method": "PUT",
      "url": "Patient/719d9b3b-583a-4743-8250-9e2496e65f21"
    }
  }, {
    "fullUrl": "https://madie.cms.gov/Encounter/5a7f64cc-c2bf-4537-9412-b9db91de83de",
    "resource": {
      "resourceType": "Encounter",
      "id": "5a7f64cc-c2bf-4537-9412-b9db91de83de",
      "meta": {
        "profile": [ "http://hl7.org/fhir/us/qicore/StructureDefinition/qicore-encounter" ]
      },
      "status": "finished",
      "class": {
        "system": "http://terminology.hl7.org/CodeSystem/v3-ActCode",
        "code": "IMP",
        "display": "inpatient encounter"
      },
      "type": [ {
        "coding": [ {
          "system": "http://snomed.info/sct",
          "code": "183452005",
          "display": "Emergency hospital admission"
        } ]
      } ],
      "subject": {
        "reference": "Patient/719d9b3b-583a-4743-8250-9e2496e65f21"
      },
      "period": {
        "start": "2026-01-01T00:00:00Z",
        "end": "2026-01-03T01:00:00.000+00:00"
      }
    },
    "request": {
      "method": "PUT",
      "url": "Encounter/5a7f64cc-c2bf-4537-9412-b9db91de83de"
    }
  }, {
    "fullUrl": "https://madie.cms.gov/Observation/22759bc2-a73b-45ae-b4ad-20bbf2cf8428",
    "resource": {
      "resourceType": "Observation",
      "id": "22759bc2-a73b-45ae-b4ad-20bbf2cf8428",
      "meta": {
        "profile": [ "http://hl7.org/fhir/us/qicore/StructureDefinition/qicore-observation-clinical-result" ]
      },
      "status": "final",
      "category": [ {
        "coding": [ {
          "system": "http://terminology.hl7.org/CodeSystem/observation-category",
          "code": "imaging",
          "display": "Imaging"
        } ]
      } ],
      "code": {
        "coding": [ {
          "system": "http://loinc.org",
          "code": "96914-7",
          "display": "CT dose and image quality category"
        } ],
        "text": "CT dose and image quality category"
      },
      "subject": {
        "reference": "Patient/719d9b3b-583a-4743-8250-9e2496e65f21"
      },
      "encounter": {
        "reference": "Encounter/5a7f64cc-c2bf-4537-9412-b9db91de83de"
      },
      "effectiveDateTime": "2026-01-02T00:00:00Z",
      "valueCodeableConcept": {
        "coding": [ {
          "system": "http://loinc.org",
          "code": "LA31752-1",
          "display": "Abdomen and Pelvis Low Dose"
        } ]
      },
      "component": [ {
        "code": {
          "coding": [ {
            "system": "http://loinc.org",
            "code": "96912-1",
            "display": "Calculated CT global noise"
          } ]
        },
        "valueQuantity": {
          "value": 63,
          "unit": "[hnsf'U]",
          "system": "http://unitsofmeasure.org",
          "code": "[hnsf'U]"
        }
      }, {
        "code": {
          "coding": [ {
            "system": "http://loinc.org",
            "code": "96913-9",
            "display": "Calculated CT size-adjusted dose"
          } ]
        },
        "valueQuantity": {
          "value": 599,
          "unit": "mGy.cm",
          "system": "http://unitsofmeasure.org",
          "code": "mGy.cm"
        }
      } ]
    },
    "request": {
      "method": "PUT",
      "url": "Observation/22759bc2-a73b-45ae-b4ad-20bbf2cf8428"
    }
  }, {
    "fullUrl": "https://madie.cms.gov/MeasureReport/c7d3e9a2-5eca-4dcc-89c4-8959a1061ac2",
    "resource": {
      "resourceType": "MeasureReport",
      "id": "c7d3e9a2-5eca-4dcc-89c4-8959a1061ac2",
      "meta": {
        "profile": [ "http://hl7.org/fhir/us/cqfmeasures/StructureDefinition/test-case-cqfm" ]
      },
      "contained": [ {
        "resourceType": "Parameters",
        "id": "671e1fa8-4bd6-41f0-98ad-1fdfa34fa743-parameters",
        "parameter": [ {
          "name": "subject",
          "valueString": "719d9b3b-583a-4743-8250-9e2496e65f21"
        } ]
      } ],
      "extension": [ {
        "url": "http://hl7.org/fhir/StructureDefinition/cqf-inputParameters",
        "valueReference": {
          "reference": "#671e1fa8-4bd6-41f0-98ad-1fdfa34fa743-parameters"
        }
      }, {
        "url": "http://hl7.org/fhir/us/cqfmeasures/StructureDefinition/cqfm-testCaseDescription",
        "valueMarkdown": "Patient has ABDOPEL LD scan with good noise but high dose"
      } ],
      "modifierExtension": [ {
        "url": "http://hl7.org/fhir/us/cqfmeasures/StructureDefinition/cqfm-isTestCase",
        "valueBoolean": true
      } ],
      "status": "complete",
      "type": "individual",
      "measure": "https://madie.cms.gov/Measure/CMS1074FHIRCTIQR",
      "period": {
        "start": "2026-01-01",
        "end": "2026-12-31"
      },
      "group": [ {
        "id": "Group_1",
        "population": [ {
          "id": "InitialPopulation_1",
          "code": {
            "coding": [ {
              "system": "http://terminology.hl7.org/CodeSystem/measure-population",
              "code": "initial-population",
              "display": "Initial Population"
            } ]
          },
          "count": 1
        }, {
          "id": "Denominator_1",
          "code": {
            "coding": [ {
              "system": "http://terminology.hl7.org/CodeSystem/measure-population",
              "code": "denominator",
              "display": "Denominator"
            } ]
          },
          "count": 1
        }, {
          "id": "DenominatorExclusion_1",
          "code": {
            "coding": [ {
              "system": "http://terminology.hl7.org/CodeSystem/measure-population",
              "code": "denominator-exclusion",
              "display": "Denominator Exclusion"
            } ]
          },
          "count": 0
        }, {
          "id": "Numerator_1",
          "code": {
            "coding": [ {
              "system": "http://terminology.hl7.org/CodeSystem/measure-population",
              "code": "numerator",
              "display": "Numerator"
            } ]
          },
          "count": 1
        } ],
        "measureScore": {
          "value": 0.0
        }
      } ],
      "evaluatedResource": [ {
        "reference": "Patient/719d9b3b-583a-4743-8250-9e2496e65f21"
      }, {
        "reference": "Encounter/5a7f64cc-c2bf-4537-9412-b9db91de83de"
      }, {
        "reference": "Observation/22759bc2-a73b-45ae-b4ad-20bbf2cf8428"
      } ]
    },
    "request": {
      "method": "PUT",
      "url": "MeasureReport/c7d3e9a2-5eca-4dcc-89c4-8959a1061ac2"
    }
  } ]
}