{
  "resourceType": "Bundle",
  "id": "61095b0998086b53805591a5",
  "type": "transaction",
  "entry": [ {
    "fullUrl": "https://madie.cms.gov/Patient/f68e8f1d-8c06-4ce8-a541-af39083a984c",
    "resource": {
      "resourceType": "Patient",
      "id": "f68e8f1d-8c06-4ce8-a541-af39083a984c",
      "meta": {
        "profile": [ "http://hl7.org/fhir/us/qicore/StructureDefinition/qicore-patient" ]
      },
      "text": {
        "status": "generated",
        "div": "<div xmlns=\"http://www.w3.org/1999/xhtml\"><div class=\"hapiHeaderText\">Age@18 <b>DENOMPASS </b></div><table class=\"hapiPropertyTable\"><tbody><tr><td>Identifier</td><td>67f3e33acf17bcb386e754d726ed064ccd48ba21ff0ffb2eb678740a684398be</td></tr><tr><td>Date of birth</td><td><span>01 January 1994</span></td></tr></tbody></table></div>"
      },
      "extension": [ {
        "url": "http://hl7.org/fhir/us/core/StructureDefinition/us-core-race",
        "extension": [ {
          "url": "ombCategory",
          "valueCoding": {
            "system": "urn:oid:2.16.840.1.113883.6.238",
            "code": "1002-5",
            "display": "American Indian or Alaska Native",
            "userSelected": true
          }
        }, {
          "url": "text",
          "valueString": "American Indian or Alaska Native"
        } ]
      }, {
        "url": "http://hl7.org/fhir/us/core/StructureDefinition/us-core-ethnicity",
        "extension": [ {
          "url": "ombCategory",
          "valueCoding": {
            "system": "urn:oid:2.16.840.1.113883.6.238",
            "code": "2135-2",
            "display": "Hispanic or Latino",
            "userSelected": true
          }
        }, {
          "url": "text",
          "valueString": "Hispanic or Latino"
        } ]
      } ],
      "identifier": [ {
        "type": {
          "coding": [ {
            "system": "http://terminology.hl7.org/CodeSystem/v2-0203",
            "code": "MR"
          } ]
        },
        "system": "https://bonnie-fhir.healthit.gov/",
        "value": "61095b0998086b53805591a5"
      } ],
      "active": true,
      "name": [ {
        "use": "usual",
        "family": "DENEXPASS",
        "given": [ "OpenWoundofEyeballWithCatSurg" ]
      } ],
      "gender": "female",
      "birthDate": "1996-01-01"
    },
    "request": {
      "method": "PUT",
      "url": "Patient/f68e8f1d-8c06-4ce8-a541-af39083a984c"
    }
  }, {
    "fullUrl": "https://madie.cms.gov/Observation/a436da0b-2718-402f-815e-944ac6bb20f5",
    "resource": {
      "resourceType": "Observation",
      "id": "a436da0b-2718-402f-815e-944ac6bb20f5",
      "meta": {
        "profile": [ "http://hl7.org/fhir/us/qicore/StructureDefinition/qicore-observation-clinical-result" ]
      },
      "status": "final",
      "category": [ {
        "coding": [ {
          "system": "http://terminology.hl7.org/CodeSystem/observation-category",
          "code": "exam",
          "display": "exam"
        } ]
      } ],
      "code": {
        "coding": [ {
          "system": "http://snomed.info/sct",
          "code": "419775003"
        } ]
      },
      "subject": {
        "reference": "Patient/f68e8f1d-8c06-4ce8-a541-af39083a984c"
      },
      "effectivePeriod": {
        "start": "2026-03-13T09:00:00+00:00",
        "end": "2026-03-13T09:30:00+00:00"
      }
    },
    "request": {
      "method": "PUT",
      "url": "Observation/a436da0b-2718-402f-815e-944ac6bb20f5"
    }
  }, {
    "fullUrl": "https://madie.cms.gov/Procedure/917f05b9-410b-4788-a533-8265d8583664",
    "resource": {
      "resourceType": "Procedure",
      "id": "917f05b9-410b-4788-a533-8265d8583664",
      "meta": {
        "profile": [ "http://hl7.org/fhir/us/qicore/StructureDefinition/qicore-procedure" ]
      },
      "extension": [ {
        "url": "http://hl7.org/fhir/us/qicore/StructureDefinition/qicore-recorded",
        "valueDateTime": "2026-03-05T09:35:00-04:00"
      } ],
      "status": "completed",
      "code": {
        "coding": [ {
          "system": "http://snomed.info/sct",
          "code": "84149000"
        } ]
      },
      "subject": {
        "reference": "Patient/f68e8f1d-8c06-4ce8-a541-af39083a984c"
      },
      "performedPeriod": {
        "start": "2026-03-05T09:20:00-04:00",
        "end": "2026-04-05T10:30:00-04:00"
      }
    },
    "request": {
      "method": "PUT",
      "url": "Procedure/917f05b9-410b-4788-a533-8265d8583664"
    }
  }, {
    "fullUrl": "https://madie.cms.gov/Condition/ff5f8bc5-4cb9-4a02-81a0-2d695ec59427",
    "resource": {
      "resourceType": "Condition",
      "id": "ff5f8bc5-4cb9-4a02-81a0-2d695ec59427",
      "meta": {
        "profile": [ "http://hl7.org/fhir/us/qicore/StructureDefinition/qicore-condition-problems-health-concerns" ]
      },
      "clinicalStatus": {
        "coding": [ {
          "system": "http://terminology.hl7.org/CodeSystem/condition-clinical",
          "code": "active",
          "display": "active",
          "userSelected": true
        } ]
      },
      "category": [ {
        "coding": [ {
          "system": "http://terminology.hl7.org/CodeSystem/condition-clinical",
          "code": "active",
          "display": "active",
          "userSelected": true
        } ]
      } ],
      "code": {
        "coding": [ {
          "system": "http://hl7.org/fhir/sid/icd-10-cm",
          "code": "S05.8X2A",
          "userSelected": true
        }, {
          "system": "http://snomed.info/sct",
          "code": "1869002",
          "userSelected": true
        } ]
      },
      "subject": {
        "reference": "Patient/f68e8f1d-8c06-4ce8-a541-af39083a984c"
      },
      "onsetDateTime": "2024-11-01T08:00:00.000+00:00"
    },
    "request": {
      "method": "PUT",
      "url": "Condition/ff5f8bc5-4cb9-4a02-81a0-2d695ec59427"
    }
  }, {
    "fullUrl": "https://madie.cms.gov/Coverage/a0b5d1ce-1340-4b62-a90a-5e956f8434da",
    "resource": {
      "resourceType": "Coverage",
      "id": "a0b5d1ce-1340-4b62-a90a-5e956f8434da",
      "meta": {
        "profile": [ "http://hl7.org/fhir/us/qicore/StructureDefinition/qicore-coverage" ]
      },
      "status": "active",
      "beneficiary": {
        "reference": "Patient/f68e8f1d-8c06-4ce8-a541-af39083a984c"
      },
      "payor": [ {
        "reference": "Organization/c61edacb-eeef-452b-8605-254d37304f1d"
      } ]
    },
    "request": {
      "method": "PUT",
      "url": "Coverage/a0b5d1ce-1340-4b62-a90a-5e956f8434da"
    }
  }, {
    "fullUrl": "https://madie.cms.gov/Organization/c61edacb-eeef-452b-8605-254d37304f1d",
    "resource": {
      "resourceType": "Organization",
      "id": "c61edacb-eeef-452b-8605-254d37304f1d",
      "meta": {
        "profile": [ "http://hl7.org/fhir/us/qicore/StructureDefinition/qicore-organization" ]
      },
      "identifier": [ {
        "use": "temp",
        "system": "urn:oid:2.16.840.1.113883.4.4",
        "value": "21-3259825"
      } ],
      "active": true,
      "type": [ {
        "coding": [ {
          "system": "http://terminology.hl7.org/CodeSystem/organization-type",
          "code": "pay",
          "display": "Payer"
        } ]
      } ],
      "name": "Blue Cross Blue Shield of Texas",
      "telecom": [ {
        "system": "phone",
        "value": "(+1) 972-766-6900"
      } ],
      "address": [ {
        "use": "billing",
        "type": "postal",
        "line": [ "P.O. Box 660044" ],
        "city": "Dallas",
        "state": "TX",
        "postalCode": "75266-0044",
        "country": "USA"
      } ]
    },
    "request": {
      "method": "PUT",
      "url": "Organization/c61edacb-eeef-452b-8605-254d37304f1d"
    }
  }, {
    "fullUrl": "https://madie.cms.gov/Practitioner/eabc5d3c-f9a7-43c4-8825-4248e9cd7414",
    "resource": {
      "resourceType": "Practitioner",
      "id": "eabc5d3c-f9a7-43c4-8825-4248e9cd7414",
      "meta": {
        "profile": [ "http://hl7.org/fhir/us/qicore/StructureDefinition/qicore-practitioner" ]
      },
      "identifier": [ {
        "system": "http://hl7.org/fhir/sid/us-npi",
        "value": "123456"
      } ],
      "name": [ {
        "family": "Evil",
        "prefix": [ "Dr" ]
      } ]
    },
    "request": {
      "method": "PUT",
      "url": "Practitioner/eabc5d3c-f9a7-43c4-8825-4248e9cd7414"
    }
  }, {
    "fullUrl": "https://madie.cms.gov/MeasureReport/b06655e0-4f65-4758-adc4-d532cdfb32e4",
    "resource": {
      "resourceType": "MeasureReport",
      "id": "b06655e0-4f65-4758-adc4-d532cdfb32e4",
      "meta": {
        "profile": [ "http://hl7.org/fhir/us/cqfmeasures/StructureDefinition/test-case-cqfm" ]
      },
      "contained": [ {
        "resourceType": "Parameters",
        "id": "3bf6afed-6b43-420f-a91a-e5e1172c3ff1-parameters",
        "parameter": [ {
          "name": "subject",
          "valueString": "f68e8f1d-8c06-4ce8-a541-af39083a984c"
        } ]
      } ],
      "extension": [ {
        "url": "http://hl7.org/fhir/StructureDefinition/cqf-inputParameters",
        "valueReference": {
          "reference": "#3bf6afed-6b43-420f-a91a-e5e1172c3ff1-parameters"
        }
      }, {
        "url": "http://hl7.org/fhir/us/cqfmeasures/StructureDefinition/cqfm-testCaseDescription",
        "valueMarkdown": "Patient with Open Wound of Eyeball with cataract surgery. "
      } ],
      "modifierExtension": [ {
        "url": "http://hl7.org/fhir/us/cqfmeasures/StructureDefinition/cqfm-isTestCase",
        "valueBoolean": true
      } ],
      "status": "complete",
      "type": "individual",
      "measure": "https://madie.cms.gov/Measure/CMS133FHIRCataracts2040BCVAwithin90Days",
      "period": {
        "start": "2026-01-01",
        "end": "2026-12-31"
      },
      "group": [ {
        "id": "Group_1",
        "population": [ {
          "id": "InitialPopulation_1",
          "code": {
            "coding": [ {
              "system": "http://terminology.hl7.org/CodeSystem/measure-population",
              "code": "initial-population",
              "display": "Initial Population"
            } ]
          },
          "count": 1
        }, {
          "id": "Denominator_1",
          "code": {
            "coding": [ {
              "system": "http://terminology.hl7.org/CodeSystem/measure-population",
              "code": "denominator",
              "display": "Denominator"
            } ]
          },
          "count": 1
        }, {
          "id": "DenominatorExclusion_1",
          "code": {
            "coding": [ {
              "system": "http://terminology.hl7.org/CodeSystem/measure-population",
              "code": "denominator-exclusion",
              "display": "Denominator Exclusion"
            } ]
          },
          "count": 1
        }, {
          "id": "Numerator_1",
          "code": {
            "coding": [ {
              "system": "http://terminology.hl7.org/CodeSystem/measure-population",
              "code": "numerator",
              "display": "Numerator"
            } ]
          },
          "count": 0
        } ],
        "measureScore": {
          "value": 0.0
        }
      } ],
      "evaluatedResource": [ {
        "reference": "Patient/f68e8f1d-8c06-4ce8-a541-af39083a984c"
      }, {
        "reference": "Observation/a436da0b-2718-402f-815e-944ac6bb20f5"
      }, {
        "reference": "Procedure/917f05b9-410b-4788-a533-8265d8583664"
      }, {
        "reference": "Condition/ff5f8bc5-4cb9-4a02-81a0-2d695ec59427"
      }, {
        "reference": "Coverage/a0b5d1ce-1340-4b62-a90a-5e956f8434da"
      }, {
        "reference": "Organization/c61edacb-eeef-452b-8605-254d37304f1d"
      }, {
        "reference": "Practitioner/eabc5d3c-f9a7-43c4-8825-4248e9cd7414"
      } ]
    },
    "request": {
      "method": "PUT",
      "url": "MeasureReport/b06655e0-4f65-4758-adc4-d532cdfb32e4"
    }
  } ]
}