{
  "resourceType": "Bundle",
  "id": "6179ef8fad1a790b7af7525c",
  "type": "transaction",
  "entry": [ {
    "fullUrl": "https://madie.cms.gov/Patient/51d39e56-b8b3-40af-976a-4027addbc1ad",
    "resource": {
      "resourceType": "Patient",
      "id": "51d39e56-b8b3-40af-976a-4027addbc1ad",
      "meta": {
        "profile": [ "http://hl7.org/fhir/us/qicore/StructureDefinition/qicore-patient" ]
      },
      "extension": [ {
        "url": "http://hl7.org/fhir/us/core/StructureDefinition/us-core-race",
        "extension": [ {
          "url": "ombCategory",
          "valueCoding": {
            "system": "urn:oid:2.16.840.1.113883.6.238",
            "code": "2076-8",
            "display": "Native Hawaiian or Other Pacific Islander",
            "userSelected": true
          }
        }, {
          "url": "text",
          "valueString": "Native Hawaiian or Other Pacific Islander"
        } ]
      }, {
        "url": "http://hl7.org/fhir/us/core/StructureDefinition/us-core-ethnicity",
        "extension": [ {
          "url": "ombCategory",
          "valueCoding": {
            "system": "urn:oid:2.16.840.1.113883.6.238",
            "code": "2186-5",
            "display": "Not Hispanic or Latino",
            "userSelected": true
          }
        }, {
          "url": "text",
          "valueString": "Not Hispanic or Latino"
        } ]
      }, {
        "url": "http://hl7.org/fhir/us/core/StructureDefinition/us-core-sex",
        "valueCode": "248152002"
      } ],
      "identifier": [ {
        "type": {
          "coding": [ {
            "system": "http://terminology.hl7.org/CodeSystem/v2-0203",
            "code": "MR"
          } ]
        },
        "system": "https://bonnie-fhir.healthit.gov/",
        "value": "6179ef8fad1a790b7af7525c"
      } ],
      "name": [ {
        "family": "DenExcl3Pass",
        "given": [ "PxStarts8DBeforeEDNoEndrelevantPeriod" ]
      } ],
      "gender": "female",
      "birthDate": "1985-12-02"
    },
    "request": {
      "method": "PUT",
      "url": "Patient/51d39e56-b8b3-40af-976a-4027addbc1ad"
    }
  }, {
    "fullUrl": "https://madie.cms.gov/Encounter/b72f6db2-c62c-490c-bc4c-b7eb198e674f",
    "resource": {
      "resourceType": "Encounter",
      "id": "b72f6db2-c62c-490c-bc4c-b7eb198e674f",
      "meta": {
        "profile": [ "http://hl7.org/fhir/us/qicore/StructureDefinition/qicore-encounter" ]
      },
      "status": "finished",
      "class": {
        "system": "http://terminology.hl7.org/CodeSystem/v3-ActCode",
        "code": "EMER",
        "display": "emergency",
        "userSelected": true
      },
      "type": [ {
        "coding": [ {
          "system": "http://snomed.info/sct",
          "version": "2020-09",
          "code": "4525004",
          "display": "Emergency department patient visit (procedure)",
          "userSelected": true
        } ]
      } ],
      "subject": {
        "reference": "Patient/51d39e56-b8b3-40af-976a-4027addbc1ad"
      },
      "period": {
        "start": "2026-10-09T08:05:00.000+00:00",
        "end": "2026-10-10T07:15:00.000+00:00"
      },
      "reasonReference": [ {
        "reference": "Condition/c2da7edf-3734-48e8-a9a2-d4e9095afc5a"
      } ]
    },
    "request": {
      "method": "PUT",
      "url": "Encounter/b72f6db2-c62c-490c-bc4c-b7eb198e674f"
    }
  }, {
    "fullUrl": "https://madie.cms.gov/Condition/c2da7edf-3734-48e8-a9a2-d4e9095afc5a",
    "resource": {
      "resourceType": "Condition",
      "id": "c2da7edf-3734-48e8-a9a2-d4e9095afc5a",
      "meta": {
        "profile": [ "http://hl7.org/fhir/us/qicore/StructureDefinition/qicore-condition-problems-health-concerns" ]
      },
      "clinicalStatus": {
        "coding": [ {
          "system": "http://terminology.hl7.org/CodeSystem/condition-clinical",
          "code": "active",
          "display": "active",
          "userSelected": true
        } ]
      },
      "category": [ {
        "coding": [ {
          "system": "http://terminology.hl7.org/CodeSystem/condition-category",
          "code": "problem-list-item",
          "display": "Problem List Item",
          "userSelected": true
        } ]
      } ],
      "code": {
        "coding": [ {
          "system": "http://snomed.info/sct",
          "version": "2020-09",
          "code": "401303003",
          "display": "Acute ST segment elevation myocardial infarction (disorder)",
          "userSelected": true
        } ]
      },
      "subject": {
        "reference": "Patient/51d39e56-b8b3-40af-976a-4027addbc1ad"
      },
      "onsetDateTime": "2026-10-09T08:30:00.000+00:00"
    },
    "request": {
      "method": "PUT",
      "url": "Condition/c2da7edf-3734-48e8-a9a2-d4e9095afc5a"
    }
  }, {
    "fullUrl": "https://madie.cms.gov/Procedure/ea20c7a9-306b-446a-bd49-4a7949d700cd",
    "resource": {
      "resourceType": "Procedure",
      "id": "ea20c7a9-306b-446a-bd49-4a7949d700cd",
      "meta": {
        "profile": [ "http://hl7.org/fhir/us/qicore/StructureDefinition/qicore-procedure" ]
      },
      "extension": [ {
        "url": "http://hl7.org/fhir/us/qicore/StructureDefinition/qicore-recorded",
        "valueDateTime": "2026-10-01T08:00:00.000+00:00"
      } ],
      "status": "completed",
      "category": {
        "coding": [ {
          "system": "http://snomed.info/sct",
          "code": "387713003",
          "display": "Surgical procedure",
          "userSelected": true
        } ]
      },
      "code": {
        "coding": [ {
          "system": "http://www.cms.gov/Medicare/Coding/ICD10",
          "code": "02100J3",
          "userSelected": true
        } ]
      },
      "subject": {
        "reference": "Patient/51d39e56-b8b3-40af-976a-4027addbc1ad"
      },
      "performedDateTime": "2026-10-01T08:00:00.000+00:00"
    },
    "request": {
      "method": "PUT",
      "url": "Procedure/ea20c7a9-306b-446a-bd49-4a7949d700cd"
    }
  }, {
    "fullUrl": "https://madie.cms.gov/MeasureReport/bd552f41-b901-469c-b7be-b9e9b2f80ff4",
    "resource": {
      "resourceType": "MeasureReport",
      "id": "bd552f41-b901-469c-b7be-b9e9b2f80ff4",
      "meta": {
        "profile": [ "http://hl7.org/fhir/us/cqfmeasures/StructureDefinition/test-case-cqfm" ]
      },
      "contained": [ {
        "resourceType": "Parameters",
        "id": "1b50f26e-f194-410c-b4ff-2c30e77f9432-parameters",
        "parameter": [ {
          "name": "subject",
          "valueString": "51d39e56-b8b3-40af-976a-4027addbc1ad"
        } ]
      } ],
      "extension": [ {
        "url": "http://hl7.org/fhir/StructureDefinition/cqf-inputParameters",
        "valueReference": {
          "reference": "#1b50f26e-f194-410c-b4ff-2c30e77f9432-parameters"
        }
      }, {
        "url": "http://hl7.org/fhir/us/cqfmeasures/StructureDefinition/cqfm-testCaseDescription",
        "valueMarkdown": "Patient has Major Surgical Procedure (exclusion Px) 8 days before ED visit and does not end - using relevantPeriod"
      } ],
      "modifierExtension": [ {
        "url": "http://hl7.org/fhir/us/cqfmeasures/StructureDefinition/cqfm-isTestCase",
        "valueBoolean": true
      } ],
      "status": "complete",
      "type": "individual",
      "measure": "https://madie.cms.gov/Measure/CMS996FHIRAptTxforSTEMI",
      "period": {
        "start": "2026-01-01",
        "end": "2026-12-31"
      },
      "group": [ {
        "id": "Group_1",
        "population": [ {
          "id": "InitialPopulation_1",
          "code": {
            "coding": [ {
              "system": "http://terminology.hl7.org/CodeSystem/measure-population",
              "code": "initial-population",
              "display": "Initial Population"
            } ]
          },
          "count": 1
        }, {
          "id": "Denominator_1",
          "code": {
            "coding": [ {
              "system": "http://terminology.hl7.org/CodeSystem/measure-population",
              "code": "denominator",
              "display": "Denominator"
            } ]
          },
          "count": 1
        }, {
          "id": "DenominatorExclusion_1",
          "code": {
            "coding": [ {
              "system": "http://terminology.hl7.org/CodeSystem/measure-population",
              "code": "denominator-exclusion",
              "display": "Denominator Exclusion"
            } ]
          },
          "count": 1
        }, {
          "id": "Numerator_1",
          "code": {
            "coding": [ {
              "system": "http://terminology.hl7.org/CodeSystem/measure-population",
              "code": "numerator",
              "display": "Numerator"
            } ]
          },
          "count": 0
        }, {
          "id": "DenominatorException_1",
          "code": {
            "coding": [ {
              "system": "http://terminology.hl7.org/CodeSystem/measure-population",
              "code": "denominator-exception",
              "display": "Denominator Exception"
            } ]
          },
          "count": 0
        } ],
        "measureScore": {
          "value": 0.0
        }
      } ],
      "evaluatedResource": [ {
        "reference": "Patient/51d39e56-b8b3-40af-976a-4027addbc1ad"
      }, {
        "reference": "Encounter/b72f6db2-c62c-490c-bc4c-b7eb198e674f"
      }, {
        "reference": "Condition/c2da7edf-3734-48e8-a9a2-d4e9095afc5a"
      }, {
        "reference": "Procedure/ea20c7a9-306b-446a-bd49-4a7949d700cd"
      } ]
    },
    "request": {
      "method": "PUT",
      "url": "MeasureReport/bd552f41-b901-469c-b7be-b9e9b2f80ff4"
    }
  } ]
}