{
  "resourceType": "Bundle",
  "id": "633b3f9f0968f80122503cdd",
  "type": "transaction",
  "entry": [ {
    "fullUrl": "https://madie.cms.gov/Patient/39b4a302-b060-4fc7-b2a5-3ac12fa98a43",
    "resource": {
      "resourceType": "Patient",
      "id": "39b4a302-b060-4fc7-b2a5-3ac12fa98a43",
      "meta": {
        "profile": [ "http://hl7.org/fhir/us/qicore/StructureDefinition/qicore-patient" ]
      },
      "text": {
        "status": "generated",
        "div": "<div xmlns=\"http://www.w3.org/1999/xhtml\"><div class=\"hapiHeaderText\">LastAssPrfEGARelvTm24HrB4LastTmDELRsltDtTime<b>DENOMPASS</b></div><table class=\"hapiPropertyTable\"><tbody><tr><td>Date of birth</td><td><span>01 February 2004</span></td></tr></tbody></table></div>"
      },
      "extension": [ {
        "url": "http://hl7.org/fhir/us/core/StructureDefinition/us-core-race",
        "extension": [ {
          "url": "ombCategory",
          "valueCoding": {
            "system": "urn:oid:2.16.840.1.113883.6.238",
            "code": "1002-5",
            "display": "American Indian or Alaska Native",
            "userSelected": true
          }
        }, {
          "url": "text",
          "valueString": "American Indian or Alaska Native"
        } ]
      }, {
        "url": "http://hl7.org/fhir/us/core/StructureDefinition/us-core-ethnicity",
        "extension": [ {
          "url": "ombCategory",
          "valueCoding": {
            "system": "urn:oid:2.16.840.1.113883.6.238",
            "code": "2135-2",
            "display": "Hispanic or Latino",
            "userSelected": true
          }
        }, {
          "url": "text",
          "valueString": "Hispanic or Latino"
        } ]
      } ],
      "identifier": [ {
        "type": {
          "coding": [ {
            "system": "http://terminology.hl7.org/CodeSystem/v2-0203",
            "code": "MR"
          } ]
        },
        "system": "https://bonnie-fhir.healthit.gov/",
        "value": "633b3f9f0968f80122503cdd"
      } ],
      "active": true,
      "name": [ {
        "use": "usual",
        "family": "DENOMPass",
        "given": [ "LastAssPrfEGARelvTm24HrB4LastTmDELRsltDtTime" ]
      } ],
      "gender": "female",
      "birthDate": "2005-02-01"
    },
    "request": {
      "method": "PUT",
      "url": "Patient/39b4a302-b060-4fc7-b2a5-3ac12fa98a43"
    }
  }, {
    "fullUrl": "https://madie.cms.gov/Observation/08363f41-4cfd-4c04-8fcf-f042adebfb59",
    "resource": {
      "resourceType": "Observation",
      "id": "08363f41-4cfd-4c04-8fcf-f042adebfb59",
      "meta": {
        "profile": [ "http://hl7.org/fhir/us/qicore/StructureDefinition/qicore-simple-observation" ]
      },
      "status": "final",
      "category": [ {
        "coding": [ {
          "system": "http://terminology.hl7.org/CodeSystem/observation-category",
          "code": "exam",
          "display": "exam",
          "userSelected": true
        } ]
      } ],
      "code": {
        "coding": [ {
          "system": "http://loinc.org",
          "code": "93857-1"
        } ]
      },
      "subject": {
        "reference": "Patient/39b4a302-b060-4fc7-b2a5-3ac12fa98a43"
      },
      "effectiveDateTime": "2026-02-01T08:00:00Z",
      "performer": [ {
        "reference": "Organization/example1",
        "display": "Hendricks Country Hospital"
      } ],
      "valueDateTime": "2026-02-01T08:00:00.000+00:00"
    },
    "request": {
      "method": "PUT",
      "url": "Observation/08363f41-4cfd-4c04-8fcf-f042adebfb59"
    }
  }, {
    "fullUrl": "https://madie.cms.gov/Observation/50634cd8-0e06-4bb7-a3f3-dc59b1d80e8b",
    "resource": {
      "resourceType": "Observation",
      "id": "50634cd8-0e06-4bb7-a3f3-dc59b1d80e8b",
      "meta": {
        "profile": [ "http://hl7.org/fhir/us/qicore/StructureDefinition/qicore-simple-observation" ]
      },
      "status": "final",
      "category": [ {
        "coding": [ {
          "system": "http://terminology.hl7.org/CodeSystem/observation-category",
          "code": "exam",
          "display": "exam",
          "userSelected": true
        } ]
      } ],
      "code": {
        "coding": [ {
          "system": "http://loinc.org",
          "code": "11884-4"
        } ]
      },
      "subject": {
        "reference": "Patient/39b4a302-b060-4fc7-b2a5-3ac12fa98a43"
      },
      "effectiveDateTime": "2026-01-31T08:00:00Z",
      "performer": [ {
        "reference": "Organization/example1",
        "display": "Hendricks Country Hospital"
      } ],
      "valueQuantity": {
        "value": 20,
        "unit": "wk"
      }
    },
    "request": {
      "method": "PUT",
      "url": "Observation/50634cd8-0e06-4bb7-a3f3-dc59b1d80e8b"
    }
  }, {
    "fullUrl": "https://madie.cms.gov/Encounter/2fd8ba9e-6d48-4c44-8576-006e910db18b",
    "resource": {
      "resourceType": "Encounter",
      "id": "2fd8ba9e-6d48-4c44-8576-006e910db18b",
      "meta": {
        "profile": [ "http://hl7.org/fhir/us/qicore/StructureDefinition/qicore-encounter" ]
      },
      "status": "finished",
      "class": {
        "system": "http://terminology.hl7.org/CodeSystem/v3-ActCode",
        "code": "IMP",
        "display": "inpatient encounter"
      },
      "type": [ {
        "coding": [ {
          "system": "http://snomed.info/sct",
          "code": "183452005"
        } ]
      } ],
      "subject": {
        "reference": "Patient/39b4a302-b060-4fc7-b2a5-3ac12fa98a43"
      },
      "period": {
        "start": "2026-02-01T08:00:00Z",
        "end": "2026-02-05T08:15:00.000+00:00"
      }
    },
    "request": {
      "method": "PUT",
      "url": "Encounter/2fd8ba9e-6d48-4c44-8576-006e910db18b"
    }
  }, {
    "fullUrl": "https://madie.cms.gov/Procedure/89a9eede-1073-4b3b-8265-e67da461cc6a",
    "resource": {
      "resourceType": "Procedure",
      "id": "89a9eede-1073-4b3b-8265-e67da461cc6a",
      "meta": {
        "profile": [ "http://hl7.org/fhir/us/qicore/StructureDefinition/qicore-procedure" ]
      },
      "extension": [ {
        "url": "http://hl7.org/fhir/us/qicore/StructureDefinition/qicore-recorded",
        "valueDateTime": "2014-04-05T13:35:00Z"
      } ],
      "status": "completed",
      "code": {
        "coding": [ {
          "system": "http://snomed.info/sct",
          "code": "10745001"
        } ]
      },
      "subject": {
        "reference": "Patient/39b4a302-b060-4fc7-b2a5-3ac12fa98a43"
      },
      "performedPeriod": {
        "start": "2026-02-01T08:00:00Z",
        "end": "2026-02-05T08:15:00.000+00:00"
      }
    },
    "request": {
      "method": "PUT",
      "url": "Procedure/89a9eede-1073-4b3b-8265-e67da461cc6a"
    }
  }, {
    "fullUrl": "https://madie.cms.gov/Coverage/07a00a1b-25df-4a2e-9174-070940368033",
    "resource": {
      "resourceType": "Coverage",
      "id": "07a00a1b-25df-4a2e-9174-070940368033",
      "meta": {
        "profile": [ "http://hl7.org/fhir/us/qicore/StructureDefinition/qicore-coverage" ]
      },
      "status": "active",
      "subscriberId": "523435",
      "beneficiary": {
        "reference": "Patient/39b4a302-b060-4fc7-b2a5-3ac12fa98a43"
      },
      "relationship": {
        "coding": [ {
          "system": "http://terminology.hl7.org/CodeSystem/subscriber-relationship",
          "code": "self"
        } ]
      },
      "payor": [ {
        "reference": "Organization/09c964ae-bde8-4332-b2a7-ee2ddce0b1e6"
      } ]
    },
    "request": {
      "method": "PUT",
      "url": "Coverage/07a00a1b-25df-4a2e-9174-070940368033"
    }
  }, {
    "fullUrl": "https://madie.cms.gov/Organization/09c964ae-bde8-4332-b2a7-ee2ddce0b1e6",
    "resource": {
      "resourceType": "Organization",
      "id": "09c964ae-bde8-4332-b2a7-ee2ddce0b1e6",
      "meta": {
        "profile": [ "http://hl7.org/fhir/us/qicore/StructureDefinition/qicore-organization" ]
      },
      "identifier": [ {
        "use": "temp",
        "system": "urn:oid:2.16.840.1.113883.4.4",
        "value": "21-3259825"
      } ],
      "active": true,
      "type": [ {
        "coding": [ {
          "system": "http://terminology.hl7.org/CodeSystem/organization-type",
          "code": "pay",
          "display": "Payer"
        } ]
      } ],
      "name": "Blue Cross Blue Shield of Texas",
      "telecom": [ {
        "system": "phone",
        "value": "(+1) 972-766-6900"
      } ],
      "address": [ {
        "use": "billing",
        "type": "postal",
        "line": [ "P.O. Box 660044" ],
        "city": "Dallas",
        "state": "TX",
        "postalCode": "75266-0044",
        "country": "USA"
      } ]
    },
    "request": {
      "method": "PUT",
      "url": "Organization/09c964ae-bde8-4332-b2a7-ee2ddce0b1e6"
    }
  }, {
    "fullUrl": "https://madie.cms.gov/Practitioner/df575dc8-f5e4-403d-aa23-54ce2a840bf2",
    "resource": {
      "resourceType": "Practitioner",
      "id": "df575dc8-f5e4-403d-aa23-54ce2a840bf2",
      "meta": {
        "profile": [ "http://hl7.org/fhir/us/qicore/StructureDefinition/qicore-practitioner" ]
      },
      "identifier": [ {
        "system": "http://hl7.org/fhir/sid/us-npi",
        "value": "1234567890"
      } ],
      "name": [ {
        "family": "Evil",
        "prefix": [ "Dr" ]
      } ]
    },
    "request": {
      "method": "PUT",
      "url": "Practitioner/df575dc8-f5e4-403d-aa23-54ce2a840bf2"
    }
  }, {
    "fullUrl": "https://madie.cms.gov/MeasureReport/4c7be30c-9611-4e15-ab5c-9bd60307f621",
    "resource": {
      "resourceType": "MeasureReport",
      "id": "4c7be30c-9611-4e15-ab5c-9bd60307f621",
      "meta": {
        "profile": [ "http://hl7.org/fhir/us/cqfmeasures/StructureDefinition/test-case-cqfm" ]
      },
      "contained": [ {
        "resourceType": "Parameters",
        "id": "1019c736-aa64-4dc8-91d8-0bb5c9bc729c-parameters",
        "parameter": [ {
          "name": "subject",
          "valueString": "39b4a302-b060-4fc7-b2a5-3ac12fa98a43"
        } ]
      } ],
      "extension": [ {
        "url": "http://hl7.org/fhir/StructureDefinition/cqf-inputParameters",
        "valueReference": {
          "reference": "#1019c736-aa64-4dc8-91d8-0bb5c9bc729c-parameters"
        }
      }, {
        "url": "http://hl7.org/fhir/us/cqfmeasures/StructureDefinition/cqfm-testCaseDescription",
        "valueMarkdown": "Estimated Gestational Age Relevant Date Time is 24 hours before Time of Delivery (result)\n"
      } ],
      "modifierExtension": [ {
        "url": "http://hl7.org/fhir/us/cqfmeasures/StructureDefinition/cqfm-isTestCase",
        "valueBoolean": true
      } ],
      "status": "complete",
      "type": "individual",
      "measure": "https://madie.cms.gov/Measure/CMS1028FHIRPCSevereOBComps",
      "period": {
        "start": "2026-01-01",
        "end": "2026-12-31"
      },
      "group": [ {
        "id": "Group_1",
        "population": [ {
          "id": "InitialPopulation_1",
          "code": {
            "coding": [ {
              "system": "http://terminology.hl7.org/CodeSystem/measure-population",
              "code": "initial-population",
              "display": "Initial Population"
            } ]
          },
          "count": 1
        }, {
          "id": "Denominator_1",
          "code": {
            "coding": [ {
              "system": "http://terminology.hl7.org/CodeSystem/measure-population",
              "code": "denominator",
              "display": "Denominator"
            } ]
          },
          "count": 1
        }, {
          "id": "Numerator_1",
          "code": {
            "coding": [ {
              "system": "http://terminology.hl7.org/CodeSystem/measure-population",
              "code": "numerator",
              "display": "Numerator"
            } ]
          },
          "count": 0
        }, {
          "id": "NumeratorExclusion_1",
          "code": {
            "coding": [ {
              "system": "http://terminology.hl7.org/CodeSystem/measure-population",
              "code": "numerator-exclusion",
              "display": "Numerator Exclusion"
            } ]
          },
          "count": 0
        } ],
        "measureScore": {
          "value": 0.0
        }
      }, {
        "id": "Group_2",
        "population": [ {
          "id": "InitialPopulation_2",
          "code": {
            "coding": [ {
              "system": "http://terminology.hl7.org/CodeSystem/measure-population",
              "code": "initial-population",
              "display": "Initial Population"
            } ]
          },
          "count": 1
        }, {
          "id": "Denominator_2",
          "code": {
            "coding": [ {
              "system": "http://terminology.hl7.org/CodeSystem/measure-population",
              "code": "denominator",
              "display": "Denominator"
            } ]
          },
          "count": 1
        }, {
          "id": "Numerator_2",
          "code": {
            "coding": [ {
              "system": "http://terminology.hl7.org/CodeSystem/measure-population",
              "code": "numerator",
              "display": "Numerator"
            } ]
          },
          "count": 0
        }, {
          "id": "NumeratorExclusion_2",
          "code": {
            "coding": [ {
              "system": "http://terminology.hl7.org/CodeSystem/measure-population",
              "code": "numerator-exclusion",
              "display": "Numerator Exclusion"
            } ]
          },
          "count": 0
        } ],
        "measureScore": {
          "value": 0.0
        }
      } ],
      "evaluatedResource": [ {
        "reference": "Patient/39b4a302-b060-4fc7-b2a5-3ac12fa98a43"
      }, {
        "reference": "Observation/08363f41-4cfd-4c04-8fcf-f042adebfb59"
      }, {
        "reference": "Observation/50634cd8-0e06-4bb7-a3f3-dc59b1d80e8b"
      }, {
        "reference": "Encounter/2fd8ba9e-6d48-4c44-8576-006e910db18b"
      }, {
        "reference": "Procedure/89a9eede-1073-4b3b-8265-e67da461cc6a"
      }, {
        "reference": "Coverage/07a00a1b-25df-4a2e-9174-070940368033"
      }, {
        "reference": "Organization/09c964ae-bde8-4332-b2a7-ee2ddce0b1e6"
      }, {
        "reference": "Practitioner/df575dc8-f5e4-403d-aa23-54ce2a840bf2"
      } ]
    },
    "request": {
      "method": "PUT",
      "url": "MeasureReport/4c7be30c-9611-4e15-ab5c-9bd60307f621"
    }
  } ]
}