{
  "resourceType": "Bundle",
  "id": "Patient-7-DENEXPass-TwoOutpatientVisitsDifferentDays",
  "type": "transaction",
  "entry": [ {
    "fullUrl": "https://madie.cms.gov/Patient/ac4d7076-d1cb-44c6-a94f-c2c86266d53b",
    "resource": {
      "resourceType": "Patient",
      "id": "ac4d7076-d1cb-44c6-a94f-c2c86266d53b",
      "meta": {
        "profile": [ "http://hl7.org/fhir/us/qicore/StructureDefinition/qicore-patient" ]
      },
      "extension": [ {
        "url": "http://hl7.org/fhir/us/core/StructureDefinition/us-core-race",
        "extension": [ {
          "url": "ombCategory",
          "valueCoding": {
            "system": "urn:oid:2.16.840.1.113883.6.238",
            "code": "2028-9",
            "display": "Asian",
            "userSelected": true
          }
        }, {
          "url": "text",
          "valueString": "Asian"
        } ]
      }, {
        "url": "http://hl7.org/fhir/us/core/StructureDefinition/us-core-ethnicity",
        "extension": [ {
          "url": "ombCategory",
          "valueCoding": {
            "system": "urn:oid:2.16.840.1.113883.6.238",
            "code": "2135-2",
            "display": "Hispanic or Latino",
            "userSelected": true
          }
        }, {
          "url": "text",
          "valueString": "Hispanic or Latino"
        } ]
      } ],
      "identifier": [ {
        "type": {
          "coding": [ {
            "system": "http://terminology.hl7.org/CodeSystem/v2-0203",
            "code": "MR"
          } ]
        },
        "system": "http://hospital.smarthealthit.org",
        "value": "999999995"
      } ],
      "name": [ {
        "family": "Bertha",
        "given": [ "Betty" ]
      } ],
      "gender": "female",
      "birthDate": "1957-12-31"
    },
    "request": {
      "method": "PUT",
      "url": "Patient/ac4d7076-d1cb-44c6-a94f-c2c86266d53b"
    }
  }, {
    "fullUrl": "https://madie.cms.gov/Encounter/5eb5104f-8f19-4e86-babf-865d72b51899",
    "resource": {
      "resourceType": "Encounter",
      "id": "5eb5104f-8f19-4e86-babf-865d72b51899",
      "meta": {
        "profile": [ "http://hl7.org/fhir/us/qicore/StructureDefinition/qicore-encounter" ]
      },
      "status": "finished",
      "class": {
        "system": "http://terminology.hl7.org/CodeSystem/v3-ActCode",
        "code": "AMB",
        "display": "ambulatory"
      },
      "type": [ {
        "coding": [ {
          "system": "http://snomed.info/sct",
          "code": "185460008",
          "display": "Home visit request by patient (procedure)"
        } ]
      } ],
      "subject": {
        "reference": "Patient/ac4d7076-d1cb-44c6-a94f-c2c86266d53b"
      },
      "period": {
        "start": "2026-01-01T00:00:00.000+00:00",
        "end": "2026-01-01T00:15:00.000+00:00"
      }
    },
    "request": {
      "method": "PUT",
      "url": "Encounter/5eb5104f-8f19-4e86-babf-865d72b51899"
    }
  }, {
    "fullUrl": "https://madie.cms.gov/Condition/81713961-df5d-4bb5-8fb8-fd3f5c0426c1",
    "resource": {
      "resourceType": "Condition",
      "id": "81713961-df5d-4bb5-8fb8-fd3f5c0426c1",
      "meta": {
        "profile": [ "http://hl7.org/fhir/us/qicore/StructureDefinition/qicore-condition-encounter-diagnosis" ]
      },
      "clinicalStatus": {
        "coding": [ {
          "system": "http://terminology.hl7.org/CodeSystem/condition-clinical",
          "code": "active"
        } ]
      },
      "category": [ {
        "coding": [ {
          "system": "http://terminology.hl7.org/CodeSystem/condition-category",
          "code": "encounter-diagnosis",
          "display": "Encounter Diagnosis"
        } ]
      } ],
      "code": {
        "coding": [ {
          "system": "http://snomed.info/sct",
          "code": "102781000119107",
          "display": "Sensory neuropathy due to type 1 diabetes mellitus (disorder)"
        } ]
      },
      "subject": {
        "reference": "Patient/ac4d7076-d1cb-44c6-a94f-c2c86266d53b"
      },
      "onsetDateTime": "2026-01-01T23:59:00.000+00:00"
    },
    "request": {
      "method": "PUT",
      "url": "Condition/81713961-df5d-4bb5-8fb8-fd3f5c0426c1"
    }
  }, {
    "fullUrl": "https://madie.cms.gov/Condition/13f4abce-abff-4316-8e42-b140901977b4",
    "resource": {
      "resourceType": "Condition",
      "id": "13f4abce-abff-4316-8e42-b140901977b4",
      "meta": {
        "profile": [ "http://hl7.org/fhir/us/qicore/StructureDefinition/qicore-condition-encounter-diagnosis" ]
      },
      "clinicalStatus": {
        "coding": [ {
          "system": "http://terminology.hl7.org/CodeSystem/condition-clinical",
          "code": "active"
        } ]
      },
      "category": [ {
        "coding": [ {
          "system": "http://terminology.hl7.org/CodeSystem/condition-category",
          "code": "encounter-diagnosis",
          "display": "Encounter Diagnosis"
        } ]
      } ],
      "code": {
        "coding": [ {
          "system": "http://snomed.info/sct",
          "code": "101421000119107",
          "display": "Dementia due to Parkinson's disease (disorder)"
        } ]
      },
      "subject": {
        "reference": "Patient/ac4d7076-d1cb-44c6-a94f-c2c86266d53b"
      },
      "onsetDateTime": "2025-12-31T23:59:59.000+00:00"
    },
    "request": {
      "method": "PUT",
      "url": "Condition/13f4abce-abff-4316-8e42-b140901977b4"
    }
  }, {
    "fullUrl": "https://madie.cms.gov/Encounter/c80fb63f-c15a-4a16-8f61-523f60fc9158",
    "resource": {
      "resourceType": "Encounter",
      "id": "c80fb63f-c15a-4a16-8f61-523f60fc9158",
      "meta": {
        "profile": [ "http://hl7.org/fhir/us/qicore/StructureDefinition/qicore-encounter" ]
      },
      "status": "finished",
      "class": {
        "system": "http://terminology.hl7.org/CodeSystem/v3-ActCode",
        "code": "AMB",
        "display": "ambulatory"
      },
      "type": [ {
        "coding": [ {
          "system": "http://snomed.info/sct",
          "code": "4525004",
          "display": "Emergency department patient visit (procedure)"
        } ]
      } ],
      "subject": {
        "reference": "Patient/ac4d7076-d1cb-44c6-a94f-c2c86266d53b"
      },
      "period": {
        "start": "2025-12-31T00:00:00.000+00:00",
        "end": "2026-01-01T01:00:00.000+00:00"
      },
      "diagnosis": [ {
        "condition": {
          "reference": "Condition/13f4abce-abff-4316-8e42-b140901977b4"
        }
      } ]
    },
    "request": {
      "method": "PUT",
      "url": "Encounter/c80fb63f-c15a-4a16-8f61-523f60fc9158"
    }
  }, {
    "fullUrl": "https://madie.cms.gov/Encounter/566b4500-ad24-45f2-96b1-94f738be8ba8",
    "resource": {
      "resourceType": "Encounter",
      "id": "566b4500-ad24-45f2-96b1-94f738be8ba8",
      "meta": {
        "profile": [ "http://hl7.org/fhir/us/qicore/StructureDefinition/qicore-encounter" ]
      },
      "status": "finished",
      "class": {
        "system": "http://terminology.hl7.org/CodeSystem/v3-ActCode",
        "code": "AMB",
        "display": "ambulatory"
      },
      "type": [ {
        "coding": [ {
          "system": "http://snomed.info/sct",
          "code": "4525004",
          "display": "Emergency department patient visit (procedure)"
        } ]
      } ],
      "subject": {
        "reference": "Patient/ac4d7076-d1cb-44c6-a94f-c2c86266d53b"
      },
      "period": {
        "start": "2026-05-01T00:00:00.000+00:00",
        "end": "2026-05-01T01:00:00.000+00:00"
      },
      "diagnosis": [ {
        "condition": {
          "reference": "Condition/13f4abce-abff-4316-8e42-b140901977b4"
        }
      } ]
    },
    "request": {
      "method": "PUT",
      "url": "Encounter/566b4500-ad24-45f2-96b1-94f738be8ba8"
    }
  }, {
    "fullUrl": "https://madie.cms.gov/DeviceRequest/4defd4ae-7224-4b9a-8c2d-3e1566d1ebe3",
    "resource": {
      "resourceType": "DeviceRequest",
      "id": "4defd4ae-7224-4b9a-8c2d-3e1566d1ebe3",
      "meta": {
        "profile": [ "http://hl7.org/fhir/us/qicore/StructureDefinition/qicore-devicerequest" ]
      },
      "modifierExtension": [ {
        "url": "http://hl7.org/fhir/5.0/StructureDefinition/extension-DeviceRequest.doNotPerform",
        "valueBoolean": false
      } ],
      "status": "completed",
      "intent": "order",
      "codeCodeableConcept": {
        "coding": [ {
          "system": "http://snomed.info/sct",
          "code": "183240000",
          "display": "Self-propelled wheelchair (physical object)"
        } ]
      },
      "subject": {
        "reference": "Patient/ac4d7076-d1cb-44c6-a94f-c2c86266d53b"
      },
      "authoredOn": "2026-11-01T23:59:00.000+00:00"
    },
    "request": {
      "method": "PUT",
      "url": "DeviceRequest/4defd4ae-7224-4b9a-8c2d-3e1566d1ebe3"
    }
  }, {
    "fullUrl": "https://madie.cms.gov/MeasureReport/44477db5-2f9b-4e89-aa9d-78863e69e4f9",
    "resource": {
      "resourceType": "MeasureReport",
      "id": "44477db5-2f9b-4e89-aa9d-78863e69e4f9",
      "meta": {
        "profile": [ "http://hl7.org/fhir/us/cqfmeasures/StructureDefinition/test-case-cqfm" ]
      },
      "contained": [ {
        "resourceType": "Parameters",
        "id": "3b24e3fc-43fa-4633-89b7-1bbc959712c6-parameters",
        "parameter": [ {
          "name": "subject",
          "valueString": "ac4d7076-d1cb-44c6-a94f-c2c86266d53b"
        } ]
      } ],
      "extension": [ {
        "url": "http://hl7.org/fhir/StructureDefinition/cqf-inputParameters",
        "valueReference": {
          "reference": "#3b24e3fc-43fa-4633-89b7-1bbc959712c6-parameters"
        }
      }, {
        "url": "http://hl7.org/fhir/us/cqfmeasures/StructureDefinition/cqfm-testCaseDescription",
        "valueMarkdown": "Two outpatient visits on different days of service"
      } ],
      "modifierExtension": [ {
        "url": "http://hl7.org/fhir/us/cqfmeasures/StructureDefinition/cqfm-isTestCase",
        "valueBoolean": true
      } ],
      "status": "complete",
      "type": "individual",
      "measure": "https://madie.cms.gov/Measure/CMS122FHIRDiabetesAssessGreaterThan9Percent",
      "period": {
        "start": "2026-01-01",
        "end": "2026-12-31"
      },
      "group": [ {
        "id": "Group_1",
        "population": [ {
          "id": "InitialPopulation_1",
          "code": {
            "coding": [ {
              "system": "http://terminology.hl7.org/CodeSystem/measure-population",
              "code": "initial-population",
              "display": "Initial Population"
            } ]
          },
          "count": 1
        }, {
          "id": "Denominator_1",
          "code": {
            "coding": [ {
              "system": "http://terminology.hl7.org/CodeSystem/measure-population",
              "code": "denominator",
              "display": "Denominator"
            } ]
          },
          "count": 1
        }, {
          "id": "DenominatorExclusion_1",
          "code": {
            "coding": [ {
              "system": "http://terminology.hl7.org/CodeSystem/measure-population",
              "code": "denominator-exclusion",
              "display": "Denominator Exclusion"
            } ]
          },
          "count": 1
        }, {
          "id": "Numerator_1",
          "code": {
            "coding": [ {
              "system": "http://terminology.hl7.org/CodeSystem/measure-population",
              "code": "numerator",
              "display": "Numerator"
            } ]
          },
          "count": 0
        } ],
        "measureScore": {
          "value": 1.0
        }
      } ],
      "evaluatedResource": [ {
        "reference": "Patient/ac4d7076-d1cb-44c6-a94f-c2c86266d53b"
      }, {
        "reference": "Encounter/5eb5104f-8f19-4e86-babf-865d72b51899"
      }, {
        "reference": "Condition/81713961-df5d-4bb5-8fb8-fd3f5c0426c1"
      }, {
        "reference": "Condition/13f4abce-abff-4316-8e42-b140901977b4"
      }, {
        "reference": "Encounter/c80fb63f-c15a-4a16-8f61-523f60fc9158"
      }, {
        "reference": "Encounter/566b4500-ad24-45f2-96b1-94f738be8ba8"
      }, {
        "reference": "DeviceRequest/4defd4ae-7224-4b9a-8c2d-3e1566d1ebe3"
      } ]
    },
    "request": {
      "method": "PUT",
      "url": "MeasureReport/44477db5-2f9b-4e89-aa9d-78863e69e4f9"
    }
  } ]
}