{
    "entry": [
        {
            "request": {
                "method": "PUT",
                "url": "Patient/42d7a924-fba7-4820-9ca9-f12a588b4ad3"
            },
            "resource": {
                "identifier": [{
                    "system": "https://bonnie-fhir.healthit.gov/",
                    "type": {"coding": [{
                        "system": "http://terminology.hl7.org/CodeSystem/v2-0203",
                        "code": "MR"
                    }]},
                    "value": "62d96413f0347d1abcae6c0b"
                }],
                "extension": [
                    {
                        "extension": [
                            {
                                "valueCoding": {
                                    "system": "urn:oid:2.16.840.1.113883.6.238",
                                    "code": "1002-5",
                                    "userSelected": true,
                                    "display": "American Indian or Alaska Native"
                                },
                                "url": "ombCategory"
                            },
                            {
                                "valueString": "American Indian or Alaska Native",
                                "url": "text"
                            }
                        ],
                        "url": "http://hl7.org/fhir/us/core/StructureDefinition/us-core-race"
                    },
                    {
                        "extension": [
                            {
                                "valueCoding": {
                                    "system": "urn:oid:2.16.840.1.113883.6.238",
                                    "code": "2135-2",
                                    "userSelected": true,
                                    "display": "Hispanic or Latino"
                                },
                                "url": "ombCategory"
                            },
                            {
                                "valueString": "Hispanic or Latino",
                                "url": "text"
                            }
                        ],
                        "url": "http://hl7.org/fhir/us/core/StructureDefinition/us-core-ethnicity"
                    }
                ],
                "gender": "male",
                "meta": {"profile": ["http://hl7.org/fhir/us/qicore/StructureDefinition/qicore-patient"]},
                "name": [{
                    "given": ["2EncsSecondReferredPCP"],
                    "family": "NUMERPassX2"
                }],
                "id": "42d7a924-fba7-4820-9ca9-f12a588b4ad3",
                "birthDate": "1976-12-31",
                "resourceType": "Patient"
            },
            "fullUrl": "https://madie.cms.gov/Patient/42d7a924-fba7-4820-9ca9-f12a588b4ad3"
        },
        {
            "request": {
                "method": "PUT",
                "url": "Encounter/3941cd76-6811-499a-8db9-6bc7a080e713"
            },
            "resource": {
                "period": {
                    "start": "2026-01-01T08:00:00.000+00:00",
                    "end": "2026-01-01T08:45:00.000+00:00"
                },
                "meta": {"profile": ["http://hl7.org/fhir/us/qicore/StructureDefinition/qicore-encounter"]},
                "subject": {"reference": "Patient/42d7a924-fba7-4820-9ca9-f12a588b4ad3"},
                "id": "3941cd76-6811-499a-8db9-6bc7a080e713",
                "type": [{"coding": [{
                    "system": "http://snomed.info/sct",
                    "code": "103705002",
                    "userSelected": true,
                    "display": "Patient status observation (procedure)",
                    "version": "2022-03"
                }]}],
                "class": {
                    "system": "http://terminology.hl7.org/CodeSystem/v3-ActCode",
                    "code": "AMB",
                    "display": "ambulatory"
                },
                "resourceType": "Encounter",
                "status": "finished"
            },
            "fullUrl": "https://madie.cms.gov/Encounter/3941cd76-6811-499a-8db9-6bc7a080e713"
        },
        {
            "request": {
                "method": "PUT",
                "url": "ServiceRequest/23dba6d7-d56f-4c35-a741-4a1e84f05409"
            },
            "resource": {
                "code": {"coding": [{
                    "system": "http://snomed.info/sct",
                    "code": "183617005",
                    "userSelected": true,
                    "display": "Follow-up 1 day (finding)",
                    "version": "2022-03"
                }]},
                "authoredOn": "2026-01-01T08:40:00.000+00:00",
                "meta": {"profile": ["http://hl7.org/fhir/us/qicore/StructureDefinition/qicore-servicerequest"]},
                "subject": {"reference": "Patient/42d7a924-fba7-4820-9ca9-f12a588b4ad3"},
                "id": "23dba6d7-d56f-4c35-a741-4a1e84f05409",
                "intent": "order",
                "resourceType": "ServiceRequest",
                "status": "active"
            },
            "fullUrl": "https://madie.cms.gov/ServiceRequest/23dba6d7-d56f-4c35-a741-4a1e84f05409"
        },
        {
            "request": {
                "method": "PUT",
                "url": "Encounter/772aa5b7-81d1-434f-b681-52fcb83c6e64"
            },
            "resource": {
                "period": {
                    "start": "2026-12-31T10:00:00.000+00:00",
                    "end": "2026-12-31T10:45:00.000+00:00"
                },
                "meta": {"profile": ["http://hl7.org/fhir/us/qicore/StructureDefinition/qicore-encounter"]},
                "subject": {"reference": "Patient/42d7a924-fba7-4820-9ca9-f12a588b4ad3"},
                "id": "772aa5b7-81d1-434f-b681-52fcb83c6e64",
                "type": [{"coding": [{
                    "system": "http://snomed.info/sct",
                    "code": "103705002",
                    "userSelected": true,
                    "display": "Patient status observation (procedure)",
                    "version": "2022-03"
                }]}],
                "class": {
                    "system": "http://terminology.hl7.org/CodeSystem/v3-ActCode",
                    "code": "AMB",
                    "display": "ambulatory"
                },
                "resourceType": "Encounter",
                "status": "finished"
            },
            "fullUrl": "https://madie.cms.gov/Encounter/772aa5b7-81d1-434f-b681-52fcb83c6e64"
        },
        {
            "request": {
                "method": "PUT",
                "url": "ServiceRequest/f402dfa9-93fb-4d0b-8670-9efb0e019871"
            },
            "resource": {
                "code": {"coding": [{
                    "system": "http://snomed.info/sct",
                    "code": "20093000",
                    "userSelected": true,
                    "display": "Alcohol rehabilitation and detoxification (regime/therapy)",
                    "version": "2022-03"
                }]},
                "authoredOn": "2026-01-01T08:30:00.000+00:00",
                "meta": {"profile": ["http://hl7.org/fhir/us/qicore/StructureDefinition/qicore-servicerequest"]},
                "subject": {"reference": "Patient/42d7a924-fba7-4820-9ca9-f12a588b4ad3"},
                "id": "f402dfa9-93fb-4d0b-8670-9efb0e019871",
                "intent": "order",
                "resourceType": "ServiceRequest",
                "status": "active"
            },
            "fullUrl": "https://madie.cms.gov/ServiceRequest/f402dfa9-93fb-4d0b-8670-9efb0e019871"
        },
        {
            "request": {
                "method": "PUT",
                "url": "ServiceRequest/e9713810-0ce0-4d60-ade2-38424a5e6793"
            },
            "resource": {
                "code": {"coding": [{
                    "system": "http://snomed.info/sct",
                    "code": "134403003",
                    "userSelected": true,
                    "display": "Urgent referral (procedure)",
                    "version": "2022-03"
                }]},
                "authoredOn": "2026-12-31T10:20:00.000+00:00",
                "meta": {"profile": ["http://hl7.org/fhir/us/qicore/StructureDefinition/qicore-servicerequest"]},
                "subject": {"reference": "Patient/42d7a924-fba7-4820-9ca9-f12a588b4ad3"},
                "id": "e9713810-0ce0-4d60-ade2-38424a5e6793",
                "reasonCode": [{"coding": [{
                    "system": "http://hl7.org/fhir/sid/icd-10-cm",
                    "code": "R03.0",
                    "userSelected": true,
                    "display": "Elevated blood-pressure reading, without diagnosis of hypertension"
                }]}],
                "intent": "order",
                "resourceType": "ServiceRequest",
                "status": "completed"
            },
            "fullUrl": "https://madie.cms.gov/ServiceRequest/e9713810-0ce0-4d60-ade2-38424a5e6793"
        },
        {
            "request": {
                "method": "PUT",
                "url": "Observation/c7813f1c-6907-4935-9f79-612193b98170"
            },
            "resource": {
                "component": [
                    {
                        "code": {"coding": [{
                            "system": "http://loinc.org",
                            "code": "8480-6",
                            "display": "Systolic blood pressure"
                        }]},
                        "valueQuantity": {
                            "unit": "mmHg",
                            "system": "http://unitsofmeasure.org",
                            "code": "mm[Hg]",
                            "value": 130
                        }
                    },
                    {
                        "code": {"coding": [{
                            "system": "http://loinc.org",
                            "code": "8462-4",
                            "display": "Diastolic blood pressure"
                        }]},
                        "valueQuantity": {
                            "unit": "mmHg",
                            "system": "http://unitsofmeasure.org",
                            "code": "mm[Hg]",
                            "value": 80
                        }
                    }
                ],
                "code": {"coding": [{
                    "system": "http://loinc.org",
                    "code": "85354-9",
                    "display": "Blood pressure panel"
                }]},
                "effectiveDateTime": "2026-01-01T08:01:00.000+00:00",
                "meta": {"profile": ["http://hl7.org/fhir/us/core/StructureDefinition/us-core-blood-pressure"]},
                "subject": {"reference": "Patient/42d7a924-fba7-4820-9ca9-f12a588b4ad3"},
                "id": "c7813f1c-6907-4935-9f79-612193b98170",
                "category": [{
                    "coding": [{
                        "system": "http://terminology.hl7.org/CodeSystem/observation-category",
                        "code": "vital-signs",
                        "display": "Vital Signs"
                    }],
                    "text": "Vital Signs"
                }],
                "resourceType": "Observation",
                "status": "final"
            },
            "fullUrl": "https://madie.cms.gov/Observation/c7813f1c-6907-4935-9f79-612193b98170"
        },
        {
            "request": {
                "method": "PUT",
                "url": "Observation/1efb33d7-6097-4cde-858a-589cbd7598ad"
            },
            "resource": {
                "component": [
                    {
                        "code": {"coding": [{
                            "system": "http://loinc.org",
                            "code": "8480-6",
                            "display": "Systolic blood pressure"
                        }]},
                        "valueQuantity": {
                            "unit": "mmHg",
                            "system": "http://unitsofmeasure.org",
                            "code": "mm[Hg]",
                            "value": 139
                        }
                    },
                    {
                        "code": {"coding": [{
                            "system": "http://loinc.org",
                            "code": "8462-4",
                            "display": "Diastolic blood pressure"
                        }]},
                        "valueQuantity": {
                            "unit": "mmHg",
                            "system": "http://unitsofmeasure.org",
                            "code": "mm[Hg]",
                            "value": 79
                        }
                    }
                ],
                "code": {"coding": [{
                    "system": "http://loinc.org",
                    "code": "85354-9",
                    "display": "Blood pressure panel"
                }]},
                "effectiveDateTime": "2026-12-31T10:01:00.000+00:00",
                "meta": {"profile": ["http://hl7.org/fhir/us/core/StructureDefinition/us-core-blood-pressure"]},
                "subject": {"reference": "Patient/42d7a924-fba7-4820-9ca9-f12a588b4ad3"},
                "id": "1efb33d7-6097-4cde-858a-589cbd7598ad",
                "category": [{
                    "coding": [{
                        "system": "http://terminology.hl7.org/CodeSystem/observation-category",
                        "code": "vital-signs",
                        "display": "Vital Signs"
                    }],
                    "text": "Vital Signs"
                }],
                "resourceType": "Observation",
                "status": "final"
            },
            "fullUrl": "https://madie.cms.gov/Observation/1efb33d7-6097-4cde-858a-589cbd7598ad"
        },
        {
            "request": {
                "method": "PUT",
                "url": "Coverage/7ff41024-b151-4cfb-bf53-94025fa733b8"
            },
            "resource": {
                "payor": [{"reference": "Organization/725e5a6f-744a-4fbf-82d0-fc4ab6553c43"}],
                "beneficiary": {"reference": "Patient/42d7a924-fba7-4820-9ca9-f12a588b4ad3"},
                "meta": {"profile": ["http://hl7.org/fhir/us/qicore/StructureDefinition/qicore-coverage"]},
                "id": "7ff41024-b151-4cfb-bf53-94025fa733b8",
                "resourceType": "Coverage",
                "status": "active"
            },
            "fullUrl": "https://madie.cms.gov/Coverage/7ff41024-b151-4cfb-bf53-94025fa733b8"
        },
        {
            "request": {
                "method": "PUT",
                "url": "Organization/725e5a6f-744a-4fbf-82d0-fc4ab6553c43"
            },
            "resource": {
                "identifier": [{
                    "system": "urn:oid:2.16.840.1.113883.4.4",
                    "use": "temp",
                    "value": "21-3259825"
                }],
                "address": [{
                    "country": "USA",
                    "city": "Dallas",
                    "use": "billing",
                    "line": ["P.O. Box 660044"],
                    "postalCode": "75266-0044",
                    "state": "TX",
                    "type": "postal"
                }],
                "meta": {"profile": ["http://hl7.org/fhir/us/qicore/StructureDefinition/qicore-organization"]},
                "name": "Blue Cross Blue Shield of Texas",
                "active": true,
                "telecom": [{
                    "system": "phone",
                    "value": "(+1) 972-766-6900"
                }],
                "id": "725e5a6f-744a-4fbf-82d0-fc4ab6553c43",
                "type": [{"coding": [{
                    "system": "http://terminology.hl7.org/CodeSystem/organization-type",
                    "code": "pay",
                    "display": "Payer"
                }]}],
                "resourceType": "Organization"
            },
            "fullUrl": "https://madie.cms.gov/Organization/725e5a6f-744a-4fbf-82d0-fc4ab6553c43"
        },
        {
            "request": {
                "method": "PUT",
                "url": "MeasureReport/46104925-5ed0-4561-9eac-daf51ad7fb6e"
            },
            "resource": {
                "contained": [{
                    "parameter": [{
                        "valueString": "42d7a924-fba7-4820-9ca9-f12a588b4ad3",
                        "name": "subject"
                    }],
                    "id": "8eedbe5e-370c-4709-9d2c-3d54906844fe-parameters",
                    "resourceType": "Parameters"
                }],
                "extension": [
                    {
                        "valueReference": {"reference": "#8eedbe5e-370c-4709-9d2c-3d54906844fe-parameters"},
                        "url": "http://hl7.org/fhir/StructureDefinition/cqf-inputParameters"
                    },
                    {
                        "valueMarkdown": "Age 18+, 1st enc 01/01 0800-0845 during MP,  BP 130/80, alcohol detox, \n2nd enc 12/31 1000-1045 during MP, BP139/79,  urgent referral",
                        "url": "http://hl7.org/fhir/us/cqfmeasures/StructureDefinition/cqfm-testCaseDescription"
                    }
                ],
                "period": {
                    "start": "2026-01-01",
                    "end": "2026-12-31"
                },
                "measure": "https://madie.cms.gov/Measure/CMS22FHIRPCSBPScreeningFollowUp",
                "meta": {"profile": ["http://hl7.org/fhir/us/cqfmeasures/StructureDefinition/test-case-cqfm"]},
                "modifierExtension": [{
                    "valueBoolean": true,
                    "url": "http://hl7.org/fhir/us/cqfmeasures/StructureDefinition/cqfm-isTestCase"
                }],
                "id": "46104925-5ed0-4561-9eac-daf51ad7fb6e",
                "evaluatedResource": [
                    {"reference": "Patient/42d7a924-fba7-4820-9ca9-f12a588b4ad3"},
                    {"reference": "Encounter/3941cd76-6811-499a-8db9-6bc7a080e713"},
                    {"reference": "ServiceRequest/23dba6d7-d56f-4c35-a741-4a1e84f05409"},
                    {"reference": "Encounter/772aa5b7-81d1-434f-b681-52fcb83c6e64"},
                    {"reference": "ServiceRequest/f402dfa9-93fb-4d0b-8670-9efb0e019871"},
                    {"reference": "ServiceRequest/e9713810-0ce0-4d60-ade2-38424a5e6793"},
                    {"reference": "Observation/c7813f1c-6907-4935-9f79-612193b98170"},
                    {"reference": "Observation/1efb33d7-6097-4cde-858a-589cbd7598ad"},
                    {"reference": "Coverage/7ff41024-b151-4cfb-bf53-94025fa733b8"},
                    {"reference": "Organization/725e5a6f-744a-4fbf-82d0-fc4ab6553c43"}
                ],
                "type": "individual",
                "resourceType": "MeasureReport",
                "status": "complete",
                "group": [{
                    "id": "Group_1",
                    "measureScore": {"value": 0},
                    "population": [
                        {
                            "code": {"coding": [{
                                "system": "http://terminology.hl7.org/CodeSystem/measure-population",
                                "code": "initial-population",
                                "display": "Initial Population"
                            }]},
                            "count": 2,
                            "id": "InitialPopulation_1"
                        },
                        {
                            "code": {"coding": [{
                                "system": "http://terminology.hl7.org/CodeSystem/measure-population",
                                "code": "denominator",
                                "display": "Denominator"
                            }]},
                            "count": 2,
                            "id": "Denominator_1"
                        },
                        {
                            "code": {"coding": [{
                                "system": "http://terminology.hl7.org/CodeSystem/measure-population",
                                "code": "denominator-exclusion",
                                "display": "Denominator Exclusion"
                            }]},
                            "count": 0,
                            "id": "DenominatorExclusion_1"
                        },
                        {
                            "code": {"coding": [{
                                "system": "http://terminology.hl7.org/CodeSystem/measure-population",
                                "code": "numerator",
                                "display": "Numerator"
                            }]},
                            "count": 2,
                            "id": "Numerator_1"
                        },
                        {
                            "code": {"coding": [{
                                "system": "http://terminology.hl7.org/CodeSystem/measure-population",
                                "code": "denominator-exception",
                                "display": "Denominator Exception"
                            }]},
                            "count": 0,
                            "id": "DenominatorException_1"
                        }
                    ]
                }]
            },
            "fullUrl": "https://madie.cms.gov/MeasureReport/46104925-5ed0-4561-9eac-daf51ad7fb6e"
        }
    ],
    "id": "62d96413f0347d1abcae6c0b",
    "type": "transaction",
    "resourceType": "Bundle"
}