{"resourceType":"Bundle","id":"tests-683be14a-90bc-41bd-a96b-6a1297f5f42e-bundle","type":"transaction","entry":[{"fullUrl":"Observation/a42f8da6-c678-4406-9e04-f0ae0e42dc1e","resource":{"resourceType":"Observation","id":"a42f8da6-c678-4406-9e04-f0ae0e42dc1e","meta":{"profile":["http://hl7.org/fhir/us/qicore/StructureDefinition/qicore-observation-lab"]},"status":"final","category":[{"coding":[{"system":"http://terminology.hl7.org/CodeSystem/observation-category","code":"laboratory","display":"Laboratory"}],"text":"Laboratory"}],"code":{"coding":[{"system":"http://loinc.org","version":"2.76","code":"21232-4","display":"Creatinine [Mass/volume] in Arterial blood"}],"text":"Creatinine [Mass/volume] in Arterial blood"},"subject":{"reference":"Patient/683be14a-90bc-41bd-a96b-6a1297f5f42e"},"encounter":{"reference":"Encounter/884314e9-3bec-4039-8412-d6aaafc24ab1"},"effectiveDateTime":"2026-04-11T08:00:00.000+00:00","valueQuantity":{"value":1,"unit":"mg/dlL","system":"http://unitsofmeasure.org","code":"mg/dl"}},"request":{"method":"PUT","url":"Observation/a42f8da6-c678-4406-9e04-f0ae0e42dc1e"}},{"fullUrl":"Observation/2bd0493f-2e7d-4381-a55f-ac0670336899","resource":{"resourceType":"Observation","id":"2bd0493f-2e7d-4381-a55f-ac0670336899","meta":{"profile":["http://hl7.org/fhir/us/qicore/StructureDefinition/qicore-observation-lab"]},"status":"final","category":[{"coding":[{"system":"http://terminology.hl7.org/CodeSystem/observation-category","code":"laboratory","display":"Laboratory"}],"text":"Laboratory"}],"code":{"coding":[{"system":"http://loinc.org","version":"2.76","code":"21232-4","display":"Creatinine [Mass/volume] in Arterial blood"}],"text":"Creatinine [Mass/volume] in Arterial blood"},"subject":{"reference":"Patient/683be14a-90bc-41bd-a96b-6a1297f5f42e"},"encounter":{"reference":"Encounter/884314e9-3bec-4039-8412-d6aaafc24ab1"},"effectiveDateTime":"2026-04-11T09:00:00.000+00:00","valueQuantity":{"value":0.8,"unit":"mg/dl","system":"http://unitsofmeasure.org","code":"mg/dl"}},"request":{"method":"PUT","url":"Observation/2bd0493f-2e7d-4381-a55f-ac0670336899"}},{"fullUrl":"Bundle/tests-RiskVarPassFirstFirstCreatinine-bundle","resource":{"resourceType":"Bundle","id":"tests-RiskVarPassFirstFirstCreatinine-bundle","type":"transaction","entry":[{"fullUrl":"https://madie.cms.gov/Encounter/884314e9-3bec-4039-8412-d6aaafc24ab1","resource":{"resourceType":"Encounter","id":"884314e9-3bec-4039-8412-d6aaafc24ab1","meta":{"profile":["http://hl7.org/fhir/us/qicore/StructureDefinition/qicore-encounter"]},"status":"finished","class":{"system":"http://terminology.hl7.org/CodeSystem/v3-ActCode","code":"IMP","display":"inpatient encounter"},"type":[{"coding":[{"system":"http://snomed.info/sct","code":"112689000","display":"Hospital admission, elective, with complete pre-admission work-up"}],"text":"Hospital admission, elective, with complete pre-admission work-up"}],"priority":{"coding":[{"system":"http://snomed.info/sct","code":"103390000"}]},"subject":{"reference":"Patient/683be14a-90bc-41bd-a96b-6a1297f5f42e"},"period":{"start":"2026-04-10T08:00:00.000+00:00","end":"2026-04-14T08:15:00.000+00:00"},"diagnosis":[{"condition":{"reference":"Procedure/967e440e-8766-4705-924b-00b4a61b0458"},"rank":1}]},"request":{"method":"PUT","url":"Encounter/884314e9-3bec-4039-8412-d6aaafc24ab1"}},{"fullUrl":"https://madie.cms.gov/Patient/683be14a-90bc-41bd-a96b-6a1297f5f42e","resource":{"resourceType":"Patient","id":"683be14a-90bc-41bd-a96b-6a1297f5f42e","meta":{"profile":["http://hl7.org/fhir/us/qicore/StructureDefinition/qicore-patient"]},"extension":[{"url":"http://hl7.org/fhir/us/core/StructureDefinition/us-core-race","extension":[{"url":"ombCategory","valueCoding":{"system":"urn:oid:2.16.840.1.113883.6.238","code":"2054-5","display":"Black or African American","userSelected":true}},{"url":"text","valueString":"Black or African American"}]},{"url":"http://hl7.org/fhir/us/core/StructureDefinition/us-core-ethnicity","extension":[{"url":"ombCategory","valueCoding":{"system":"urn:oid:2.16.840.1.113883.6.238","code":"2186-5","display":"Not Hispanic or Latino","userSelected":true}},{"url":"text","valueString":"Not Hispanic or Latino"}]}],"identifier":[{"type":{"coding":[{"system":"http://terminology.hl7.org/CodeSystem/v2-0203","code":"MR"}]},"system":"https://bonnie-fhir.healthit.gov/","value":"61152a3b98086b7a79cbd7c1"}],"active":true,"name":[{"use":"usual","family":"DENOMPass","given":["RiskVariableASAClass"]}],"gender":"female","birthDate":"1966-07-12"},"request":{"method":"PUT","url":"Patient/683be14a-90bc-41bd-a96b-6a1297f5f42e"}},{"fullUrl":"https://madie.cms.gov/Observation/2bd0493f-2e7d-4381-a55f-ac0670336899","resource":{"resourceType":"Observation","id":"2bd0493f-2e7d-4381-a55f-ac0670336899","meta":{"profile":["http://hl7.org/fhir/us/qicore/StructureDefinition/qicore-observation-lab"]},"status":"final","category":[{"coding":[{"system":"http://terminology.hl7.org/CodeSystem/observation-category","code":"laboratory","display":"Laboratory"}],"text":"Laboratory"}],"code":{"coding":[{"system":"http://loinc.org","version":"2.76","code":"21232-4","display":"Creatinine [Mass/volume] in Arterial blood"}],"text":"Creatinine [Mass/volume] in Arterial blood"},"subject":{"reference":"Patient/683be14a-90bc-41bd-a96b-6a1297f5f42e"},"encounter":{"reference":"Encounter/884314e9-3bec-4039-8412-d6aaafc24ab1"},"effectiveDateTime":"2026-04-11T09:00:00.000+00:00","valueQuantity":{"value":0.8,"unit":"mg/dl","system":"http://unitsofmeasure.org","code":"mg/dl"}},"request":{"method":"PUT","url":"Observation/2bd0493f-2e7d-4381-a55f-ac0670336899"}},{"fullUrl":"https://madie.cms.gov/Observation/a42f8da6-c678-4406-9e04-f0ae0e42dc1e","resource":{"resourceType":"Observation","id":"a42f8da6-c678-4406-9e04-f0ae0e42dc1e","meta":{"profile":["http://hl7.org/fhir/us/qicore/StructureDefinition/qicore-observation-lab"]},"status":"final","category":[{"coding":[{"system":"http://terminology.hl7.org/CodeSystem/observation-category","code":"laboratory","display":"Laboratory"}],"text":"Laboratory"}],"code":{"coding":[{"system":"http://loinc.org","version":"2.76","code":"21232-4","display":"Creatinine [Mass/volume] in Arterial blood"}],"text":"Creatinine [Mass/volume] in Arterial blood"},"subject":{"reference":"Patient/683be14a-90bc-41bd-a96b-6a1297f5f42e"},"encounter":{"reference":"Encounter/884314e9-3bec-4039-8412-d6aaafc24ab1"},"effectiveDateTime":"2026-04-11T08:00:00.000+00:00","valueQuantity":{"value":1,"unit":"mg/dlL","system":"http://unitsofmeasure.org","code":"mg/dl"}},"request":{"method":"PUT","url":"Observation/a42f8da6-c678-4406-9e04-f0ae0e42dc1e"}},{"fullUrl":"https://madie.cms.gov/Procedure/ab9f3085-d280-4943-b545-4d87f1ddf278","resource":{"resourceType":"Procedure","id":"ab9f3085-d280-4943-b545-4d87f1ddf278","meta":{"profile":["http://hl7.org/fhir/us/qicore/StructureDefinition/qicore-procedure"]},"extension":[{"url":"http://hl7.org/fhir/us/qicore/StructureDefinition/qicore-recorded","valueDateTime":"2026-04-11T10:30:00.000+00:00"}],"status":"completed","category":{"coding":[{"system":"http://snomed.info/sct","code":"18286008","display":"General or neuraxial anesthesia"}]},"code":{"coding":[{"system":"http://snomed.info/sct","code":"112943005","display":"Epidural injection of anesthetic substance, diagnostic, caudal, continuous"}]},"subject":{"reference":"Patient/683be14a-90bc-41bd-a96b-6a1297f5f42e"},"performedPeriod":{"start":"2026-04-11T08:00:00.000+00:00","end":"2026-04-11T10:15:00.000+00:00"}},"request":{"method":"PUT","url":"Procedure/ab9f3085-d280-4943-b545-4d87f1ddf278"}},{"fullUrl":"https://madie.cms.gov/MeasureReport/27a0f0fa-bebc-4999-8c49-c8086ffcfe54","resource":{"resourceType":"MeasureReport","id":"27a0f0fa-bebc-4999-8c49-c8086ffcfe54","meta":{"profile":["http://hl7.org/fhir/us/cqfmeasures/StructureDefinition/test-case-cqfm"]},"contained":[{"resourceType":"Parameters","id":"b7d35b6a-e9be-4fa2-b657-edd20c0272c0-parameters","parameter":[{"name":"subject","valueString":"683be14a-90bc-41bd-a96b-6a1297f5f42e"}]}],"extension":[{"url":"http://hl7.org/fhir/StructureDefinition/cqf-inputParameters","valueReference":{"reference":"#b7d35b6a-e9be-4fa2-b657-edd20c0272c0-parameters"}},{"url":"http://hl7.org/fhir/us/cqfmeasures/StructureDefinition/cqfm-testCaseDescription","valueMarkdown":"DENOMPass Satisfies First Creatinine risk variable"}],"modifierExtension":[{"url":"http://hl7.org/fhir/us/cqfmeasures/StructureDefinition/cqfm-isTestCase","valueBoolean":true}],"status":"complete","type":"individual","measure":"https://madie.cms.gov/Measure/CMS1218FHIRHHRF","period":{"start":"2026-01-01","end":"2026-12-31"},"group":[{"id":"Group_1","population":[{"id":"InitialPopulation_1","code":{"coding":[{"system":"http://terminology.hl7.org/CodeSystem/measure-population","code":"initial-population","display":"Initial Population"}]},"count":1},{"id":"Denominator_1","code":{"coding":[{"system":"http://terminology.hl7.org/CodeSystem/measure-population","code":"denominator","display":"Denominator"}]},"count":1},{"id":"DenominatorExclusion_1","code":{"coding":[{"system":"http://terminology.hl7.org/CodeSystem/measure-population","code":"denominator-exclusion","display":"Denominator Exclusion"}]},"count":0},{"id":"Numerator_1","code":{"coding":[{"system":"http://terminology.hl7.org/CodeSystem/measure-population","code":"numerator","display":"Numerator"}]},"count":0}],"measureScore":{"value":0.0}}],"evaluatedResource":[{"reference":"Encounter/884314e9-3bec-4039-8412-d6aaafc24ab1"},{"reference":"Patient/683be14a-90bc-41bd-a96b-6a1297f5f42e"},{"reference":"Observation/2bd0493f-2e7d-4381-a55f-ac0670336899"},{"reference":"Observation/a42f8da6-c678-4406-9e04-f0ae0e42dc1e"},{"reference":"Procedure/ab9f3085-d280-4943-b545-4d87f1ddf278"}]},"request":{"method":"PUT","url":"MeasureReport/27a0f0fa-bebc-4999-8c49-c8086ffcfe54"}}]},"request":{"method":"PUT","url":"Bundle/tests-RiskVarPassFirstFirstCreatinine-bundle"}},{"fullUrl":"Patient/683be14a-90bc-41bd-a96b-6a1297f5f42e","resource":{"resourceType":"Patient","id":"683be14a-90bc-41bd-a96b-6a1297f5f42e","meta":{"profile":["http://hl7.org/fhir/us/qicore/StructureDefinition/qicore-patient"]},"extension":[{"url":"http://hl7.org/fhir/us/core/StructureDefinition/us-core-race","extension":[{"url":"ombCategory","valueCoding":{"system":"urn:oid:2.16.840.1.113883.6.238","code":"2054-5","display":"Black or African American","userSelected":true}},{"url":"text","valueString":"Black or African American"}]},{"url":"http://hl7.org/fhir/us/core/StructureDefinition/us-core-ethnicity","extension":[{"url":"ombCategory","valueCoding":{"system":"urn:oid:2.16.840.1.113883.6.238","code":"2186-5","display":"Not Hispanic or Latino","userSelected":true}},{"url":"text","valueString":"Not Hispanic or Latino"}]}],"identifier":[{"type":{"coding":[{"system":"http://terminology.hl7.org/CodeSystem/v2-0203","code":"MR"}]},"system":"https://bonnie-fhir.healthit.gov/","value":"61152a3b98086b7a79cbd7c1"}],"active":true,"name":[{"use":"usual","family":"DENOMPass","given":["RiskVariableASAClass"]}],"gender":"female","birthDate":"1966-07-12"},"request":{"method":"PUT","url":"Patient/683be14a-90bc-41bd-a96b-6a1297f5f42e"}},{"fullUrl":"Procedure/ab9f3085-d280-4943-b545-4d87f1ddf278","resource":{"resourceType":"Procedure","id":"ab9f3085-d280-4943-b545-4d87f1ddf278","meta":{"profile":["http://hl7.org/fhir/us/qicore/StructureDefinition/qicore-procedure"]},"extension":[{"url":"http://hl7.org/fhir/us/qicore/StructureDefinition/qicore-recorded","valueDateTime":"2026-04-11T10:30:00.000+00:00"}],"status":"completed","category":{"coding":[{"system":"http://snomed.info/sct","code":"18286008","display":"General or neuraxial anesthesia"}]},"code":{"coding":[{"system":"http://snomed.info/sct","code":"112943005","display":"Epidural injection of anesthetic substance, diagnostic, caudal, continuous"}]},"subject":{"reference":"Patient/683be14a-90bc-41bd-a96b-6a1297f5f42e"},"performedPeriod":{"start":"2026-04-11T08:00:00.000+00:00","end":"2026-04-11T10:15:00.000+00:00"}},"request":{"method":"PUT","url":"Procedure/ab9f3085-d280-4943-b545-4d87f1ddf278"}},{"fullUrl":"Encounter/884314e9-3bec-4039-8412-d6aaafc24ab1","resource":{"resourceType":"Encounter","id":"884314e9-3bec-4039-8412-d6aaafc24ab1","meta":{"profile":["http://hl7.org/fhir/us/qicore/StructureDefinition/qicore-encounter"]},"status":"finished","class":{"system":"http://terminology.hl7.org/CodeSystem/v3-ActCode","code":"IMP","display":"inpatient encounter"},"type":[{"coding":[{"system":"http://snomed.info/sct","code":"112689000","display":"Hospital admission, elective, with complete pre-admission work-up"}],"text":"Hospital admission, elective, with complete pre-admission work-up"}],"priority":{"coding":[{"system":"http://snomed.info/sct","code":"103390000"}]},"subject":{"reference":"Patient/683be14a-90bc-41bd-a96b-6a1297f5f42e"},"period":{"start":"2026-04-10T08:00:00.000+00:00","end":"2026-04-14T08:15:00.000+00:00"},"diagnosis":[{"condition":{"reference":"Procedure/967e440e-8766-4705-924b-00b4a61b0458"},"rank":1}]},"request":{"method":"PUT","url":"Encounter/884314e9-3bec-4039-8412-d6aaafc24ab1"}},{"fullUrl":"MeasureReport/27a0f0fa-bebc-4999-8c49-c8086ffcfe54","resource":{"resourceType":"MeasureReport","id":"27a0f0fa-bebc-4999-8c49-c8086ffcfe54","meta":{"profile":["http://hl7.org/fhir/us/cqfmeasures/StructureDefinition/test-case-cqfm"]},"contained":[{"resourceType":"Parameters","id":"b7d35b6a-e9be-4fa2-b657-edd20c0272c0-parameters","parameter":[{"name":"subject","valueString":"683be14a-90bc-41bd-a96b-6a1297f5f42e"}]}],"extension":[{"url":"http://hl7.org/fhir/StructureDefinition/cqf-inputParameters","valueReference":{"reference":"#b7d35b6a-e9be-4fa2-b657-edd20c0272c0-parameters"}},{"url":"http://hl7.org/fhir/us/cqfmeasures/StructureDefinition/cqfm-testCaseDescription","valueMarkdown":"DENOMPass Satisfies First Creatinine risk variable"}],"modifierExtension":[{"url":"http://hl7.org/fhir/us/cqfmeasures/StructureDefinition/cqfm-isTestCase","valueBoolean":true}],"status":"complete","type":"individual","measure":"https://madie.cms.gov/Measure/CMS1218FHIRHHRF","period":{"start":"2026-01-01","end":"2026-12-31"},"group":[{"id":"Group_1","population":[{"id":"InitialPopulation_1","code":{"coding":[{"system":"http://terminology.hl7.org/CodeSystem/measure-population","code":"initial-population","display":"Initial Population"}]},"count":1},{"id":"Denominator_1","code":{"coding":[{"system":"http://terminology.hl7.org/CodeSystem/measure-population","code":"denominator","display":"Denominator"}]},"count":1},{"id":"DenominatorExclusion_1","code":{"coding":[{"system":"http://terminology.hl7.org/CodeSystem/measure-population","code":"denominator-exclusion","display":"Denominator Exclusion"}]},"count":0},{"id":"Numerator_1","code":{"coding":[{"system":"http://terminology.hl7.org/CodeSystem/measure-population","code":"numerator","display":"Numerator"}]},"count":0}],"measureScore":{"value":0.0}}],"evaluatedResource":[{"reference":"Encounter/884314e9-3bec-4039-8412-d6aaafc24ab1"},{"reference":"Patient/683be14a-90bc-41bd-a96b-6a1297f5f42e"},{"reference":"Observation/2bd0493f-2e7d-4381-a55f-ac0670336899"},{"reference":"Observation/a42f8da6-c678-4406-9e04-f0ae0e42dc1e"},{"reference":"Procedure/ab9f3085-d280-4943-b545-4d87f1ddf278"}]},"request":{"method":"PUT","url":"MeasureReport/27a0f0fa-bebc-4999-8c49-c8086ffcfe54"}}]}