{"resourceType":"Bundle","id":"tests-077e122d-ed4d-4cf0-b665-1bf87710171d-bundle","type":"transaction","entry":[{"fullUrl":"MeasureReport/0e9a9a35-06ce-4005-8c3d-6e4068748d0b","resource":{"resourceType":"MeasureReport","id":"0e9a9a35-06ce-4005-8c3d-6e4068748d0b","meta":{"profile":["http://hl7.org/fhir/us/cqfmeasures/StructureDefinition/test-case-cqfm"]},"contained":[{"resourceType":"Parameters","id":"5e16b773-fa36-48ba-806b-a6a831dd1f30-parameters","parameter":[{"name":"subject","valueString":"077e122d-ed4d-4cf0-b665-1bf87710171d"}]}],"extension":[{"url":"http://hl7.org/fhir/StructureDefinition/cqf-inputParameters","valueReference":{"reference":"#5e16b773-fa36-48ba-806b-a6a831dd1f30-parameters"}},{"url":"http://hl7.org/fhir/us/cqfmeasures/StructureDefinition/cqfm-testCaseDescription","valueMarkdown":"Elective hospitalization with procedure (general anesthesia) within first 3 days of encounter. Has ED visit which ends > 1 hour before start of IP encounter. IPP/Denom pass."}],"modifierExtension":[{"url":"http://hl7.org/fhir/us/cqfmeasures/StructureDefinition/cqfm-isTestCase","valueBoolean":true}],"status":"complete","type":"individual","measure":"https://madie.cms.gov/Measure/CMS1218FHIRHHRF","period":{"start":"2026-01-01","end":"2026-12-31"},"group":[{"id":"Group_1","population":[{"id":"InitialPopulation_1","code":{"coding":[{"system":"http://terminology.hl7.org/CodeSystem/measure-population","code":"initial-population","display":"Initial Population"}]},"count":1},{"id":"Denominator_1","code":{"coding":[{"system":"http://terminology.hl7.org/CodeSystem/measure-population","code":"denominator","display":"Denominator"}]},"count":1},{"id":"DenominatorExclusion_1","code":{"coding":[{"system":"http://terminology.hl7.org/CodeSystem/measure-population","code":"denominator-exclusion","display":"Denominator Exclusion"}]},"count":0},{"id":"Numerator_1","code":{"coding":[{"system":"http://terminology.hl7.org/CodeSystem/measure-population","code":"numerator","display":"Numerator"}]},"count":0}],"measureScore":{"value":0.0}}],"evaluatedResource":[{"reference":"Procedure/cb0207bc-62e9-41c2-ac64-2c5348016ddf"},{"reference":"Encounter/bb62d6b8-65bd-48b4-bd38-31b1eb38c178"},{"reference":"Encounter/7d82ddfd-c787-4a3a-b432-2802e645b2c1"},{"reference":"Patient/077e122d-ed4d-4cf0-b665-1bf87710171d"}]},"request":{"method":"PUT","url":"MeasureReport/0e9a9a35-06ce-4005-8c3d-6e4068748d0b"}},{"fullUrl":"Bundle/tests-077e122d-ed4d-4cf0-b665-1bf87710171d-bundle","resource":{"resourceType":"Bundle","id":"tests-077e122d-ed4d-4cf0-b665-1bf87710171d-bundle","type":"transaction","entry":[{"fullUrl":"https://madie.cms.gov/Procedure/cb0207bc-62e9-41c2-ac64-2c5348016ddf","resource":{"resourceType":"Procedure","id":"cb0207bc-62e9-41c2-ac64-2c5348016ddf","meta":{"profile":["http://hl7.org/fhir/us/qicore/StructureDefinition/qicore-procedure"]},"extension":[{"url":"http://hl7.org/fhir/us/qicore/StructureDefinition/qicore-recorded","valueDateTime":"2026-04-11T10:30:00.000+00:00"}],"status":"completed","category":{"coding":[{"system":"http://snomed.info/sct","code":"18286008","display":"General or neuraxial anesthesia"}]},"code":{"coding":[{"system":"http://snomed.info/sct","code":"112943005","display":"Epidural injection of anesthetic substance, diagnostic, caudal, continuous"}]},"subject":{"reference":"Patient/077e122d-ed4d-4cf0-b665-1bf87710171d"},"performedPeriod":{"start":"2026-04-11T08:00:00.000+00:00","end":"2026-04-11T10:15:00.000+00:00"}},"request":{"method":"PUT","url":"Procedure/cb0207bc-62e9-41c2-ac64-2c5348016ddf"}},{"fullUrl":"https://madie.cms.gov/Encounter/bb62d6b8-65bd-48b4-bd38-31b1eb38c178","resource":{"resourceType":"Encounter","id":"bb62d6b8-65bd-48b4-bd38-31b1eb38c178","meta":{"profile":["http://hl7.org/fhir/us/qicore/StructureDefinition/qicore-encounter"]},"status":"finished","class":{"system":"http://terminology.hl7.org/CodeSystem/v3-ActCode","code":"IMP","display":"inpatient encounter"},"type":[{"coding":[{"system":"http://snomed.info/sct","code":"4525004","display":"Emergency department patient visit"}],"text":"Emergency department patient visit"}],"subject":{"reference":"Patient/077e122d-ed4d-4cf0-b665-1bf87710171d"},"period":{"start":"2026-04-09T08:00:00.000+00:00","end":"2026-04-10T06:59:00.000+00:00"},"diagnosis":[{"condition":{"reference":"Procedure/cb0207bc-62e9-41c2-ac64-2c5348016ddf"},"rank":1}]},"request":{"method":"PUT","url":"Encounter/bb62d6b8-65bd-48b4-bd38-31b1eb38c178"}},{"fullUrl":"https://madie.cms.gov/Encounter/7d82ddfd-c787-4a3a-b432-2802e645b2c1","resource":{"resourceType":"Encounter","id":"7d82ddfd-c787-4a3a-b432-2802e645b2c1","meta":{"profile":["http://hl7.org/fhir/us/qicore/StructureDefinition/qicore-encounter"]},"status":"finished","class":{"system":"http://terminology.hl7.org/CodeSystem/v3-ActCode","code":"IMP","display":"inpatient encounter"},"type":[{"coding":[{"system":"http://snomed.info/sct","code":"112689000","display":"Hospital admission, elective, with complete pre-admission work-up"}],"text":"Hospital admission, elective, with complete pre-admission work-up"}],"priority":{"coding":[{"system":"http://snomed.info/sct","code":"103390000"}]},"subject":{"reference":"Patient/077e122d-ed4d-4cf0-b665-1bf87710171d"},"period":{"start":"2026-04-10T08:00:00.000+00:00","end":"2026-04-14T08:15:00.000+00:00"},"diagnosis":[{"condition":{"reference":"Procedure/cb0207bc-62e9-41c2-ac64-2c5348016ddf"},"rank":1}]},"request":{"method":"PUT","url":"Encounter/7d82ddfd-c787-4a3a-b432-2802e645b2c1"}},{"fullUrl":"https://madie.cms.gov/Patient/077e122d-ed4d-4cf0-b665-1bf87710171d","resource":{"resourceType":"Patient","id":"077e122d-ed4d-4cf0-b665-1bf87710171d","meta":{"profile":["http://hl7.org/fhir/us/qicore/StructureDefinition/qicore-patient"]},"extension":[{"url":"http://hl7.org/fhir/us/core/StructureDefinition/us-core-race","extension":[{"url":"ombCategory","valueCoding":{"system":"urn:oid:2.16.840.1.113883.6.238","code":"2106-3","display":"White"}},{"url":"detailed","valueCoding":{"system":"urn:oid:2.16.840.1.113883.6.238","code":"1586-7","display":"Shoshone"}},{"url":"text","valueString":"White"}]},{"url":"http://hl7.org/fhir/us/core/StructureDefinition/us-core-ethnicity","extension":[{"url":"ombCategory","valueCoding":{"system":"urn:oid:2.16.840.1.113883.6.238","code":"2135-2","display":"Hispanic or Latino"}},{"url":"detailed","valueCoding":{"system":"urn:oid:2.16.840.1.113883.6.238","code":"1586-7","display":"Shoshone"}},{"url":"text","valueString":"Hispanic or Latino"}]},{"url":"http://hl7.org/fhir/us/core/StructureDefinition/us-core-sex","valueCode":"248153007"}],"identifier":[{"type":{"coding":[{"system":"http://terminology.hl7.org/CodeSystem/v2-0203","code":"MR"}]},"system":"https://bonnie-fhir.healthit.gov/","value":"61152a3b98086b7a79cbd7c1"}],"active":true,"name":[{"use":"usual","family":"DENOMPass","given":["EncWithEDVisitGTOneHrPrior"]}],"gender":"female","birthDate":"1966-07-12"},"request":{"method":"PUT","url":"Patient/077e122d-ed4d-4cf0-b665-1bf87710171d"}},{"fullUrl":"https://madie.cms.gov/MeasureReport/0e9a9a35-06ce-4005-8c3d-6e4068748d0b","resource":{"resourceType":"MeasureReport","id":"0e9a9a35-06ce-4005-8c3d-6e4068748d0b","meta":{"profile":["http://hl7.org/fhir/us/cqfmeasures/StructureDefinition/test-case-cqfm"]},"contained":[{"resourceType":"Parameters","id":"5e16b773-fa36-48ba-806b-a6a831dd1f30-parameters","parameter":[{"name":"subject","valueString":"077e122d-ed4d-4cf0-b665-1bf87710171d"}]}],"extension":[{"url":"http://hl7.org/fhir/StructureDefinition/cqf-inputParameters","valueReference":{"reference":"#5e16b773-fa36-48ba-806b-a6a831dd1f30-parameters"}},{"url":"http://hl7.org/fhir/us/cqfmeasures/StructureDefinition/cqfm-testCaseDescription","valueMarkdown":"Elective hospitalization with procedure (general anesthesia) within first 3 days of encounter. Has ED visit which ends > 1 hour before start of IP encounter. IPP/Denom pass."}],"modifierExtension":[{"url":"http://hl7.org/fhir/us/cqfmeasures/StructureDefinition/cqfm-isTestCase","valueBoolean":true}],"status":"complete","type":"individual","measure":"https://madie.cms.gov/Measure/CMS1218FHIRHHRF","period":{"start":"2026-01-01","end":"2026-12-31"},"group":[{"id":"Group_1","population":[{"id":"InitialPopulation_1","code":{"coding":[{"system":"http://terminology.hl7.org/CodeSystem/measure-population","code":"initial-population","display":"Initial Population"}]},"count":1},{"id":"Denominator_1","code":{"coding":[{"system":"http://terminology.hl7.org/CodeSystem/measure-population","code":"denominator","display":"Denominator"}]},"count":1},{"id":"DenominatorExclusion_1","code":{"coding":[{"system":"http://terminology.hl7.org/CodeSystem/measure-population","code":"denominator-exclusion","display":"Denominator Exclusion"}]},"count":0},{"id":"Numerator_1","code":{"coding":[{"system":"http://terminology.hl7.org/CodeSystem/measure-population","code":"numerator","display":"Numerator"}]},"count":0}],"measureScore":{"value":0.0}}],"evaluatedResource":[{"reference":"Procedure/cb0207bc-62e9-41c2-ac64-2c5348016ddf"},{"reference":"Encounter/bb62d6b8-65bd-48b4-bd38-31b1eb38c178"},{"reference":"Encounter/7d82ddfd-c787-4a3a-b432-2802e645b2c1"},{"reference":"Patient/077e122d-ed4d-4cf0-b665-1bf87710171d"}]},"request":{"method":"PUT","url":"MeasureReport/0e9a9a35-06ce-4005-8c3d-6e4068748d0b"}}]},"request":{"method":"PUT","url":"Bundle/tests-077e122d-ed4d-4cf0-b665-1bf87710171d-bundle"}},{"fullUrl":"Encounter/7d82ddfd-c787-4a3a-b432-2802e645b2c1","resource":{"resourceType":"Encounter","id":"7d82ddfd-c787-4a3a-b432-2802e645b2c1","meta":{"profile":["http://hl7.org/fhir/us/qicore/StructureDefinition/qicore-encounter"]},"status":"finished","class":{"system":"http://terminology.hl7.org/CodeSystem/v3-ActCode","code":"IMP","display":"inpatient encounter"},"type":[{"coding":[{"system":"http://snomed.info/sct","code":"112689000","display":"Hospital admission, elective, with complete pre-admission work-up"}],"text":"Hospital admission, elective, with complete pre-admission work-up"}],"priority":{"coding":[{"system":"http://snomed.info/sct","code":"103390000"}]},"subject":{"reference":"Patient/077e122d-ed4d-4cf0-b665-1bf87710171d"},"period":{"start":"2026-04-10T08:00:00.000+00:00","end":"2026-04-14T08:15:00.000+00:00"},"diagnosis":[{"condition":{"reference":"Procedure/cb0207bc-62e9-41c2-ac64-2c5348016ddf"},"rank":1}]},"request":{"method":"PUT","url":"Encounter/7d82ddfd-c787-4a3a-b432-2802e645b2c1"}},{"fullUrl":"Patient/077e122d-ed4d-4cf0-b665-1bf87710171d","resource":{"resourceType":"Patient","id":"077e122d-ed4d-4cf0-b665-1bf87710171d","meta":{"profile":["http://hl7.org/fhir/us/qicore/StructureDefinition/qicore-patient"]},"extension":[{"url":"http://hl7.org/fhir/us/core/StructureDefinition/us-core-race","extension":[{"url":"ombCategory","valueCoding":{"system":"urn:oid:2.16.840.1.113883.6.238","code":"2106-3","display":"White"}},{"url":"detailed","valueCoding":{"system":"urn:oid:2.16.840.1.113883.6.238","code":"1586-7","display":"Shoshone"}},{"url":"text","valueString":"White"}]},{"url":"http://hl7.org/fhir/us/core/StructureDefinition/us-core-ethnicity","extension":[{"url":"ombCategory","valueCoding":{"system":"urn:oid:2.16.840.1.113883.6.238","code":"2135-2","display":"Hispanic or Latino"}},{"url":"detailed","valueCoding":{"system":"urn:oid:2.16.840.1.113883.6.238","code":"1586-7","display":"Shoshone"}},{"url":"text","valueString":"Hispanic or Latino"}]},{"url":"http://hl7.org/fhir/us/core/StructureDefinition/us-core-sex","valueCode":"248153007"}],"identifier":[{"type":{"coding":[{"system":"http://terminology.hl7.org/CodeSystem/v2-0203","code":"MR"}]},"system":"https://bonnie-fhir.healthit.gov/","value":"61152a3b98086b7a79cbd7c1"}],"active":true,"name":[{"use":"usual","family":"DENOMPass","given":["EncWithEDVisitGTOneHrPrior"]}],"gender":"female","birthDate":"1966-07-12"},"request":{"method":"PUT","url":"Patient/077e122d-ed4d-4cf0-b665-1bf87710171d"}},{"fullUrl":"Encounter/bb62d6b8-65bd-48b4-bd38-31b1eb38c178","resource":{"resourceType":"Encounter","id":"bb62d6b8-65bd-48b4-bd38-31b1eb38c178","meta":{"profile":["http://hl7.org/fhir/us/qicore/StructureDefinition/qicore-encounter"]},"status":"finished","class":{"system":"http://terminology.hl7.org/CodeSystem/v3-ActCode","code":"IMP","display":"inpatient encounter"},"type":[{"coding":[{"system":"http://snomed.info/sct","code":"4525004","display":"Emergency department patient visit"}],"text":"Emergency department patient visit"}],"subject":{"reference":"Patient/077e122d-ed4d-4cf0-b665-1bf87710171d"},"period":{"start":"2026-04-09T08:00:00.000+00:00","end":"2026-04-10T06:59:00.000+00:00"},"diagnosis":[{"condition":{"reference":"Procedure/cb0207bc-62e9-41c2-ac64-2c5348016ddf"},"rank":1}]},"request":{"method":"PUT","url":"Encounter/bb62d6b8-65bd-48b4-bd38-31b1eb38c178"}},{"fullUrl":"Procedure/cb0207bc-62e9-41c2-ac64-2c5348016ddf","resource":{"resourceType":"Procedure","id":"cb0207bc-62e9-41c2-ac64-2c5348016ddf","meta":{"profile":["http://hl7.org/fhir/us/qicore/StructureDefinition/qicore-procedure"]},"extension":[{"url":"http://hl7.org/fhir/us/qicore/StructureDefinition/qicore-recorded","valueDateTime":"2026-04-11T10:30:00.000+00:00"}],"status":"completed","category":{"coding":[{"system":"http://snomed.info/sct","code":"18286008","display":"General or neuraxial anesthesia"}]},"code":{"coding":[{"system":"http://snomed.info/sct","code":"112943005","display":"Epidural injection of anesthetic substance, diagnostic, caudal, continuous"}]},"subject":{"reference":"Patient/077e122d-ed4d-4cf0-b665-1bf87710171d"},"performedPeriod":{"start":"2026-04-11T08:00:00.000+00:00","end":"2026-04-11T10:15:00.000+00:00"}},"request":{"method":"PUT","url":"Procedure/cb0207bc-62e9-41c2-ac64-2c5348016ddf"}}]}