{"resourceType":"Bundle","id":"tests-a82b589d-d741-4bc8-941c-9546a2b787e8-bundle","type":"transaction","entry":[{"fullUrl":"Encounter/46495d5d-8fd4-492a-91de-3031d862aa55","resource":{"resourceType":"Encounter","id":"46495d5d-8fd4-492a-91de-3031d862aa55","meta":{"profile":["http://hl7.org/fhir/us/qicore/StructureDefinition/qicore-encounter"]},"status":"finished","class":{"system":"http://terminology.hl7.org/CodeSystem/v3-ActCode","code":"EMER","display":"emergency"},"type":[{"coding":[{"system":"http://snomed.info/sct","code":"4525004"}]}],"subject":{"reference":"Patient/a82b589d-d741-4bc8-941c-9546a2b787e8"},"period":{"start":"2026-04-09T08:00:00.000+00:00","end":"2026-04-10T08:00:00.000+00:00"}},"request":{"method":"PUT","url":"Encounter/46495d5d-8fd4-492a-91de-3031d862aa55"}},{"fullUrl":"Bundle/tests-a82b589d-d741-4bc8-941c-9546a2b787e8-bundle","resource":{"resourceType":"Bundle","id":"tests-a82b589d-d741-4bc8-941c-9546a2b787e8-bundle","type":"transaction","entry":[{"fullUrl":"https://madie.cms.gov/Encounter/485bd839-c85e-4a0b-b2ab-10db07fc98b4","resource":{"resourceType":"Encounter","id":"485bd839-c85e-4a0b-b2ab-10db07fc98b4","meta":{"profile":["http://hl7.org/fhir/us/qicore/StructureDefinition/qicore-encounter"]},"status":"finished","class":{"system":"http://terminology.hl7.org/CodeSystem/v3-ActCode","code":"IMP","display":"inpatient encounter"},"type":[{"coding":[{"system":"http://snomed.info/sct","code":"112689000"}]}],"priority":{"coding":[{"system":"http://snomed.info/sct","code":"103390000"}]},"subject":{"reference":"Patient/a82b589d-d741-4bc8-941c-9546a2b787e8"},"period":{"start":"2026-04-10T08:00:00.000+00:00","end":"2026-04-14T08:15:00.000+00:00"},"diagnosis":[{"condition":{"reference":"Procedure/1c1312b4-bbca-442a-9c1f-8b390d8fe5de"}}]},"request":{"method":"PUT","url":"Encounter/485bd839-c85e-4a0b-b2ab-10db07fc98b4"}},{"fullUrl":"https://madie.cms.gov/Patient/a82b589d-d741-4bc8-941c-9546a2b787e8","resource":{"resourceType":"Patient","id":"a82b589d-d741-4bc8-941c-9546a2b787e8","meta":{"profile":["http://hl7.org/fhir/us/qicore/StructureDefinition/qicore-patient"]},"extension":[{"url":"http://hl7.org/fhir/us/core/StructureDefinition/us-core-race","extension":[{"url":"ombCategory","valueCoding":{"system":"urn:oid:2.16.840.1.113883.6.238","code":"2028-9","display":"Asian","userSelected":true}},{"url":"text","valueString":"Asian"}]},{"url":"http://hl7.org/fhir/us/core/StructureDefinition/us-core-ethnicity","extension":[{"url":"ombCategory","valueCoding":{"system":"urn:oid:2.16.840.1.113883.6.238","code":"2186-5","display":"Not Hispanic or Latino","userSelected":true}},{"url":"text","valueString":"Not Hispanic or Latino"}]}],"identifier":[{"type":{"coding":[{"system":"http://terminology.hl7.org/CodeSystem/v2-0203","code":"MR"}]},"system":"https://bonnie-fhir.healthit.gov/","value":"61152a3b98086b7a79cbd7c1"}],"active":true,"name":[{"use":"usual","family":"IPPFail","given":["ElecEncWithEDVisitEndDTSameAsIPStartDT"]}],"gender":"female","birthDate":"1966-04-09"},"request":{"method":"PUT","url":"Patient/a82b589d-d741-4bc8-941c-9546a2b787e8"}},{"fullUrl":"https://madie.cms.gov/Encounter/46495d5d-8fd4-492a-91de-3031d862aa55","resource":{"resourceType":"Encounter","id":"46495d5d-8fd4-492a-91de-3031d862aa55","meta":{"profile":["http://hl7.org/fhir/us/qicore/StructureDefinition/qicore-encounter"]},"status":"finished","class":{"system":"http://terminology.hl7.org/CodeSystem/v3-ActCode","code":"EMER","display":"emergency"},"type":[{"coding":[{"system":"http://snomed.info/sct","code":"4525004"}]}],"subject":{"reference":"Patient/a82b589d-d741-4bc8-941c-9546a2b787e8"},"period":{"start":"2026-04-09T08:00:00.000+00:00","end":"2026-04-10T08:00:00.000+00:00"}},"request":{"method":"PUT","url":"Encounter/46495d5d-8fd4-492a-91de-3031d862aa55"}},{"fullUrl":"https://madie.cms.gov/Procedure/1c1312b4-bbca-442a-9c1f-8b390d8fe5de","resource":{"resourceType":"Procedure","id":"1c1312b4-bbca-442a-9c1f-8b390d8fe5de","meta":{"profile":["http://hl7.org/fhir/us/qicore/StructureDefinition/qicore-procedure"]},"extension":[{"url":"http://hl7.org/fhir/us/qicore/StructureDefinition/qicore-recorded","valueDateTime":"2026-04-11T10:30:00.000+00:00"}],"status":"completed","category":{"coding":[{"system":"http://snomed.info/sct","code":"18286008","display":"General or neuraxial anesthesia"}]},"code":{"coding":[{"system":"http://snomed.info/sct","code":"112943005","display":"Epidural injection of anesthetic substance, diagnostic, caudal, continuous"}]},"subject":{"reference":"Patient/a82b589d-d741-4bc8-941c-9546a2b787e8"},"performedPeriod":{"start":"2026-04-11T08:00:00.000+00:00","end":"2026-04-11T10:15:00.000+00:00"}},"request":{"method":"PUT","url":"Procedure/1c1312b4-bbca-442a-9c1f-8b390d8fe5de"}},{"fullUrl":"https://madie.cms.gov/MeasureReport/de031315-b991-43fe-8a6a-b9ef05461127","resource":{"resourceType":"MeasureReport","id":"de031315-b991-43fe-8a6a-b9ef05461127","meta":{"profile":["http://hl7.org/fhir/us/cqfmeasures/StructureDefinition/test-case-cqfm"]},"contained":[{"resourceType":"Parameters","id":"e00cb722-70de-409d-b20e-b09ea1eba9db-parameters","parameter":[{"name":"subject","valueString":"a82b589d-d741-4bc8-941c-9546a2b787e8"}]}],"extension":[{"url":"http://hl7.org/fhir/StructureDefinition/cqf-inputParameters","valueReference":{"reference":"#e00cb722-70de-409d-b20e-b09ea1eba9db-parameters"}},{"url":"http://hl7.org/fhir/us/cqfmeasures/StructureDefinition/cqfm-testCaseDescription","valueMarkdown":"Hospitalization (has 'elective' class) with procedure (general anesthesia) within first 3 days of encounter. ED visit ends same time as start of IP visit so Fails IPP. "}],"modifierExtension":[{"url":"http://hl7.org/fhir/us/cqfmeasures/StructureDefinition/cqfm-isTestCase","valueBoolean":true}],"status":"complete","type":"individual","measure":"https://madie.cms.gov/Measure/CMS1218FHIRHHRF","period":{"start":"2026-01-01","end":"2026-12-31"},"group":[{"id":"Group_1","population":[{"id":"InitialPopulation_1","code":{"coding":[{"system":"http://terminology.hl7.org/CodeSystem/measure-population","code":"initial-population","display":"Initial Population"}]},"count":0},{"id":"Denominator_1","code":{"coding":[{"system":"http://terminology.hl7.org/CodeSystem/measure-population","code":"denominator","display":"Denominator"}]},"count":0},{"id":"DenominatorExclusion_1","code":{"coding":[{"system":"http://terminology.hl7.org/CodeSystem/measure-population","code":"denominator-exclusion","display":"Denominator Exclusion"}]},"count":0},{"id":"Numerator_1","code":{"coding":[{"system":"http://terminology.hl7.org/CodeSystem/measure-population","code":"numerator","display":"Numerator"}]},"count":0}],"measureScore":{"value":0.0}}],"evaluatedResource":[{"reference":"Encounter/485bd839-c85e-4a0b-b2ab-10db07fc98b4"},{"reference":"Patient/a82b589d-d741-4bc8-941c-9546a2b787e8"},{"reference":"Encounter/46495d5d-8fd4-492a-91de-3031d862aa55"},{"reference":"Procedure/1c1312b4-bbca-442a-9c1f-8b390d8fe5de"}]},"request":{"method":"PUT","url":"MeasureReport/de031315-b991-43fe-8a6a-b9ef05461127"}}]},"request":{"method":"PUT","url":"Bundle/tests-a82b589d-d741-4bc8-941c-9546a2b787e8-bundle"}},{"fullUrl":"Patient/a82b589d-d741-4bc8-941c-9546a2b787e8","resource":{"resourceType":"Patient","id":"a82b589d-d741-4bc8-941c-9546a2b787e8","meta":{"profile":["http://hl7.org/fhir/us/qicore/StructureDefinition/qicore-patient"]},"extension":[{"url":"http://hl7.org/fhir/us/core/StructureDefinition/us-core-race","extension":[{"url":"ombCategory","valueCoding":{"system":"urn:oid:2.16.840.1.113883.6.238","code":"2028-9","display":"Asian","userSelected":true}},{"url":"text","valueString":"Asian"}]},{"url":"http://hl7.org/fhir/us/core/StructureDefinition/us-core-ethnicity","extension":[{"url":"ombCategory","valueCoding":{"system":"urn:oid:2.16.840.1.113883.6.238","code":"2186-5","display":"Not Hispanic or Latino","userSelected":true}},{"url":"text","valueString":"Not Hispanic or Latino"}]}],"identifier":[{"type":{"coding":[{"system":"http://terminology.hl7.org/CodeSystem/v2-0203","code":"MR"}]},"system":"https://bonnie-fhir.healthit.gov/","value":"61152a3b98086b7a79cbd7c1"}],"active":true,"name":[{"use":"usual","family":"IPPFail","given":["ElecEncWithEDVisitEndDTSameAsIPStartDT"]}],"gender":"female","birthDate":"1966-04-09"},"request":{"method":"PUT","url":"Patient/a82b589d-d741-4bc8-941c-9546a2b787e8"}},{"fullUrl":"Procedure/1c1312b4-bbca-442a-9c1f-8b390d8fe5de","resource":{"resourceType":"Procedure","id":"1c1312b4-bbca-442a-9c1f-8b390d8fe5de","meta":{"profile":["http://hl7.org/fhir/us/qicore/StructureDefinition/qicore-procedure"]},"extension":[{"url":"http://hl7.org/fhir/us/qicore/StructureDefinition/qicore-recorded","valueDateTime":"2026-04-11T10:30:00.000+00:00"}],"status":"completed","category":{"coding":[{"system":"http://snomed.info/sct","code":"18286008","display":"General or neuraxial anesthesia"}]},"code":{"coding":[{"system":"http://snomed.info/sct","code":"112943005","display":"Epidural injection of anesthetic substance, diagnostic, caudal, continuous"}]},"subject":{"reference":"Patient/a82b589d-d741-4bc8-941c-9546a2b787e8"},"performedPeriod":{"start":"2026-04-11T08:00:00.000+00:00","end":"2026-04-11T10:15:00.000+00:00"}},"request":{"method":"PUT","url":"Procedure/1c1312b4-bbca-442a-9c1f-8b390d8fe5de"}},{"fullUrl":"MeasureReport/de031315-b991-43fe-8a6a-b9ef05461127","resource":{"resourceType":"MeasureReport","id":"de031315-b991-43fe-8a6a-b9ef05461127","meta":{"profile":["http://hl7.org/fhir/us/cqfmeasures/StructureDefinition/test-case-cqfm"]},"contained":[{"resourceType":"Parameters","id":"e00cb722-70de-409d-b20e-b09ea1eba9db-parameters","parameter":[{"name":"subject","valueString":"a82b589d-d741-4bc8-941c-9546a2b787e8"}]}],"extension":[{"url":"http://hl7.org/fhir/StructureDefinition/cqf-inputParameters","valueReference":{"reference":"#e00cb722-70de-409d-b20e-b09ea1eba9db-parameters"}},{"url":"http://hl7.org/fhir/us/cqfmeasures/StructureDefinition/cqfm-testCaseDescription","valueMarkdown":"Hospitalization (has 'elective' class) with procedure (general anesthesia) within first 3 days of encounter. ED visit ends same time as start of IP visit so Fails IPP. "}],"modifierExtension":[{"url":"http://hl7.org/fhir/us/cqfmeasures/StructureDefinition/cqfm-isTestCase","valueBoolean":true}],"status":"complete","type":"individual","measure":"https://madie.cms.gov/Measure/CMS1218FHIRHHRF","period":{"start":"2026-01-01","end":"2026-12-31"},"group":[{"id":"Group_1","population":[{"id":"InitialPopulation_1","code":{"coding":[{"system":"http://terminology.hl7.org/CodeSystem/measure-population","code":"initial-population","display":"Initial Population"}]},"count":0},{"id":"Denominator_1","code":{"coding":[{"system":"http://terminology.hl7.org/CodeSystem/measure-population","code":"denominator","display":"Denominator"}]},"count":0},{"id":"DenominatorExclusion_1","code":{"coding":[{"system":"http://terminology.hl7.org/CodeSystem/measure-population","code":"denominator-exclusion","display":"Denominator Exclusion"}]},"count":0},{"id":"Numerator_1","code":{"coding":[{"system":"http://terminology.hl7.org/CodeSystem/measure-population","code":"numerator","display":"Numerator"}]},"count":0}],"measureScore":{"value":0.0}}],"evaluatedResource":[{"reference":"Encounter/485bd839-c85e-4a0b-b2ab-10db07fc98b4"},{"reference":"Patient/a82b589d-d741-4bc8-941c-9546a2b787e8"},{"reference":"Encounter/46495d5d-8fd4-492a-91de-3031d862aa55"},{"reference":"Procedure/1c1312b4-bbca-442a-9c1f-8b390d8fe5de"}]},"request":{"method":"PUT","url":"MeasureReport/de031315-b991-43fe-8a6a-b9ef05461127"}},{"fullUrl":"Encounter/485bd839-c85e-4a0b-b2ab-10db07fc98b4","resource":{"resourceType":"Encounter","id":"485bd839-c85e-4a0b-b2ab-10db07fc98b4","meta":{"profile":["http://hl7.org/fhir/us/qicore/StructureDefinition/qicore-encounter"]},"status":"finished","class":{"system":"http://terminology.hl7.org/CodeSystem/v3-ActCode","code":"IMP","display":"inpatient encounter"},"type":[{"coding":[{"system":"http://snomed.info/sct","code":"112689000"}]}],"priority":{"coding":[{"system":"http://snomed.info/sct","code":"103390000"}]},"subject":{"reference":"Patient/a82b589d-d741-4bc8-941c-9546a2b787e8"},"period":{"start":"2026-04-10T08:00:00.000+00:00","end":"2026-04-14T08:15:00.000+00:00"},"diagnosis":[{"condition":{"reference":"Procedure/1c1312b4-bbca-442a-9c1f-8b390d8fe5de"}}]},"request":{"method":"PUT","url":"Encounter/485bd839-c85e-4a0b-b2ab-10db07fc98b4"}}]}