{"resourceType":"Bundle","id":"tests-23191b54-f639-47a2-88ad-dc7fabaec98a-bundle","type":"transaction","entry":[{"fullUrl":"MeasureReport/70e60d76-f77c-4f24-8836-d091ac026d87","resource":{"resourceType":"MeasureReport","id":"70e60d76-f77c-4f24-8836-d091ac026d87","meta":{"profile":["http://hl7.org/fhir/us/cqfmeasures/StructureDefinition/test-case-cqfm"]},"contained":[{"resourceType":"Parameters","id":"d3fc7304-46ef-49c9-a150-b1fd0c4ddb40-parameters","parameter":[{"name":"subject","valueString":"23191b54-f639-47a2-88ad-dc7fabaec98a"}]}],"extension":[{"url":"http://hl7.org/fhir/StructureDefinition/cqf-inputParameters","valueReference":{"reference":"#d3fc7304-46ef-49c9-a150-b1fd0c4ddb40-parameters"}},{"url":"http://hl7.org/fhir/us/cqfmeasures/StructureDefinition/cqfm-testCaseDescription","valueMarkdown":"2 encounters. Enc1: O2 after procedure Enc2: MV after end of procedure  Fails numerator because enc1 has no MV, and enc2 has no O2"}],"modifierExtension":[{"url":"http://hl7.org/fhir/us/cqfmeasures/StructureDefinition/cqfm-isTestCase","valueBoolean":true}],"status":"complete","type":"individual","measure":"https://madie.cms.gov/Measure/CMS1218FHIRHHRF","period":{"start":"2026-01-01","end":"2026-12-31"},"group":[{"id":"Group_1","population":[{"id":"InitialPopulation_1","code":{"coding":[{"system":"http://terminology.hl7.org/CodeSystem/measure-population","code":"initial-population","display":"Initial Population"}]},"count":2},{"id":"Denominator_1","code":{"coding":[{"system":"http://terminology.hl7.org/CodeSystem/measure-population","code":"denominator","display":"Denominator"}]},"count":2},{"id":"DenominatorExclusion_1","code":{"coding":[{"system":"http://terminology.hl7.org/CodeSystem/measure-population","code":"denominator-exclusion","display":"Denominator Exclusion"}]},"count":0},{"id":"Numerator_1","code":{"coding":[{"system":"http://terminology.hl7.org/CodeSystem/measure-population","code":"numerator","display":"Numerator"}]},"count":0}],"measureScore":{"value":0.0}}],"evaluatedResource":[{"reference":"Encounter/5bbcebea-8797-4215-89eb-9d5676302902"},{"reference":"Procedure/8746e118-3528-4891-8990-7a1d80fced5c"},{"reference":"Procedure/012bd184-d441-4762-8dff-2af41ba76e8f"},{"reference":"Procedure/e5fd07ec-7544-427c-94fe-b96f50909b1f"},{"reference":"Encounter/8557ebf3-06db-4f45-92cf-df4a20e99102"},{"reference":"Procedure/e3eeb581-567e-4c43-8e43-20d1eb827134"},{"reference":"Patient/23191b54-f639-47a2-88ad-dc7fabaec98a"}]},"request":{"method":"PUT","url":"MeasureReport/70e60d76-f77c-4f24-8836-d091ac026d87"}},{"fullUrl":"Encounter/5bbcebea-8797-4215-89eb-9d5676302902","resource":{"resourceType":"Encounter","id":"5bbcebea-8797-4215-89eb-9d5676302902","meta":{"profile":["http://hl7.org/fhir/us/qicore/StructureDefinition/qicore-encounter"]},"status":"finished","class":{"system":"http://terminology.hl7.org/CodeSystem/v3-ActCode","code":"IMP","display":"inpatient encounter"},"type":[{"coding":[{"system":"http://snomed.info/sct","code":"112689000","display":"Hospital admission, elective, with complete pre-admission work-up"}],"text":"Hospital admission, elective, with complete pre-admission work-up"}],"priority":{"coding":[{"system":"http://snomed.info/sct","code":"103390000"}]},"subject":{"reference":"Patient/23191b54-f639-47a2-88ad-dc7fabaec98a"},"period":{"start":"2026-05-14T11:00:00.000+00:00","end":"2026-05-20T08:15:00.000+00:00"}},"request":{"method":"PUT","url":"Encounter/5bbcebea-8797-4215-89eb-9d5676302902"}},{"fullUrl":"Procedure/e5fd07ec-7544-427c-94fe-b96f50909b1f","resource":{"resourceType":"Procedure","id":"e5fd07ec-7544-427c-94fe-b96f50909b1f","meta":{"profile":["http://hl7.org/fhir/us/qicore/StructureDefinition/qicore-procedure"]},"extension":[{"url":"http://hl7.org/fhir/us/qicore/StructureDefinition/qicore-recorded","valueDateTime":"2026-05-15T10:20:00.000+00:00"}],"status":"completed","category":{"coding":[{"system":"http://snomed.info/sct","code":"18286008","display":"General or neuraxial anesthesia"}]},"code":{"coding":[{"system":"http://snomed.info/sct","code":"112943005","display":"Epidural injection of anesthetic substance, diagnostic, caudal, continuous"}]},"subject":{"reference":"Patient/23191b54-f639-47a2-88ad-dc7fabaec98a"},"performedPeriod":{"start":"2026-05-05T09:00:00.000+00:00","end":"2026-05-05T10:15:00.000+00:00"}},"request":{"method":"PUT","url":"Procedure/e5fd07ec-7544-427c-94fe-b96f50909b1f"}},{"fullUrl":"Procedure/012bd184-d441-4762-8dff-2af41ba76e8f","resource":{"resourceType":"Procedure","id":"012bd184-d441-4762-8dff-2af41ba76e8f","meta":{"profile":["http://hl7.org/fhir/us/qicore/StructureDefinition/qicore-procedure"]},"extension":[{"url":"http://hl7.org/fhir/us/qicore/StructureDefinition/qicore-recorded","valueDateTime":"2026-05-15T12:20:00.000+00:00"}],"status":"completed","category":{"coding":[{"system":"http://snomed.info/sct","code":"18286008","display":"General or neuraxial anesthesia"}]},"code":{"coding":[{"system":"http://snomed.info/sct","code":"112943005","display":"Epidural injection of anesthetic substance, diagnostic, caudal, continuous"}]},"subject":{"reference":"Patient/23191b54-f639-47a2-88ad-dc7fabaec98a"},"performedPeriod":{"start":"2026-05-15T11:00:00.000+00:00","end":"2026-05-15T12:15:00.000+00:00"}},"request":{"method":"PUT","url":"Procedure/012bd184-d441-4762-8dff-2af41ba76e8f"}},{"fullUrl":"Patient/23191b54-f639-47a2-88ad-dc7fabaec98a","resource":{"resourceType":"Patient","id":"23191b54-f639-47a2-88ad-dc7fabaec98a","meta":{"profile":["http://hl7.org/fhir/us/qicore/StructureDefinition/qicore-patient"]},"extension":[{"url":"http://hl7.org/fhir/us/core/StructureDefinition/us-core-race","extension":[{"url":"ombCategory","valueCoding":{"system":"urn:oid:2.16.840.1.113883.6.238","code":"2054-5","display":"Black or African American","userSelected":true}},{"url":"text","valueString":"Black or African American"}]},{"url":"http://hl7.org/fhir/us/core/StructureDefinition/us-core-ethnicity","extension":[{"url":"ombCategory","valueCoding":{"system":"urn:oid:2.16.840.1.113883.6.238","code":"2186-5","display":"Not Hispanic or Latino","userSelected":true}},{"url":"text","valueString":"Not Hispanic or Latino"}]}],"identifier":[{"type":{"coding":[{"system":"http://terminology.hl7.org/CodeSystem/v2-0203","code":"MR"}]},"system":"https://bonnie-fhir.healthit.gov/","value":"61152a3b98086b7a79cbd7c1"}],"active":true,"name":[{"use":"usual","family":"NUMERPass","given":["Num2TwoEncO2DurEnc1andMVDDurEnc2"]}],"gender":"female","birthDate":"1966-07-12"},"request":{"method":"PUT","url":"Patient/23191b54-f639-47a2-88ad-dc7fabaec98a"}},{"fullUrl":"Encounter/8557ebf3-06db-4f45-92cf-df4a20e99102","resource":{"resourceType":"Encounter","id":"8557ebf3-06db-4f45-92cf-df4a20e99102","meta":{"profile":["http://hl7.org/fhir/us/qicore/StructureDefinition/qicore-encounter"]},"status":"finished","class":{"system":"http://terminology.hl7.org/CodeSystem/v3-ActCode","code":"IMP","display":"inpatient encounter"},"type":[{"coding":[{"system":"http://snomed.info/sct","code":"112689000","display":"Hospital admission, elective, with complete pre-admission work-up"}],"text":"Hospital admission, elective, with complete pre-admission work-up"}],"priority":{"coding":[{"system":"http://snomed.info/sct","code":"103390000"}]},"subject":{"reference":"Patient/23191b54-f639-47a2-88ad-dc7fabaec98a"},"period":{"start":"2026-05-04T11:00:00.000+00:00","end":"2026-05-13T08:15:00.000+00:00"}},"request":{"method":"PUT","url":"Encounter/8557ebf3-06db-4f45-92cf-df4a20e99102"}},{"fullUrl":"Procedure/e3eeb581-567e-4c43-8e43-20d1eb827134","resource":{"resourceType":"Procedure","id":"e3eeb581-567e-4c43-8e43-20d1eb827134","meta":{"profile":["http://hl7.org/fhir/us/qicore/StructureDefinition/qicore-procedure"]},"extension":[{"url":"http://hl7.org/fhir/us/qicore/StructureDefinition/qicore-recorded","valueDateTime":"2026-05-15T13:20:30.000+00:00"}],"status":"completed","code":{"coding":[{"system":"http://snomed.info/sct","code":"1258985005","display":"Invasive Mechanical Ventilation"}],"text":"Invasive Mechanical Ventilation"},"subject":{"reference":"Patient/23191b54-f639-47a2-88ad-dc7fabaec98a"},"performedPeriod":{"start":"2026-05-15T13:04:00.000+00:00","end":"2026-05-15T13:19:00.000+00:00"}},"request":{"method":"PUT","url":"Procedure/e3eeb581-567e-4c43-8e43-20d1eb827134"}},{"fullUrl":"Procedure/8746e118-3528-4891-8990-7a1d80fced5c","resource":{"resourceType":"Procedure","id":"8746e118-3528-4891-8990-7a1d80fced5c","meta":{"profile":["http://hl7.org/fhir/us/qicore/StructureDefinition/qicore-procedure"]},"extension":[{"url":"http://hl7.org/fhir/us/qicore/StructureDefinition/qicore-recorded","valueDateTime":"2026-05-06T08:15:30.000+00:00"}],"status":"completed","code":{"coding":[{"system":"http://snomed.info/sct","version":"2023-09","code":"304577004","display":"Humidified oxygen therapy (procedure)"}],"text":"Humidified oxygen therapy (procedure)"},"subject":{"reference":"Patient/23191b54-f639-47a2-88ad-dc7fabaec98a"},"performedDateTime":"2026-05-06T08:10:00.000+00:00"},"request":{"method":"PUT","url":"Procedure/8746e118-3528-4891-8990-7a1d80fced5c"}},{"fullUrl":"Bundle/tests-23191b54-f639-47a2-88ad-dc7fabaec98a-bundle","resource":{"resourceType":"Bundle","id":"tests-23191b54-f639-47a2-88ad-dc7fabaec98a-bundle","type":"transaction","entry":[{"fullUrl":"https://madie.cms.gov/Encounter/5bbcebea-8797-4215-89eb-9d5676302902","resource":{"resourceType":"Encounter","id":"5bbcebea-8797-4215-89eb-9d5676302902","meta":{"profile":["http://hl7.org/fhir/us/qicore/StructureDefinition/qicore-encounter"]},"status":"finished","class":{"system":"http://terminology.hl7.org/CodeSystem/v3-ActCode","code":"IMP","display":"inpatient encounter"},"type":[{"coding":[{"system":"http://snomed.info/sct","code":"112689000","display":"Hospital admission, elective, with complete pre-admission work-up"}],"text":"Hospital admission, elective, with complete pre-admission work-up"}],"priority":{"coding":[{"system":"http://snomed.info/sct","code":"103390000"}]},"subject":{"reference":"Patient/23191b54-f639-47a2-88ad-dc7fabaec98a"},"period":{"start":"2026-05-14T11:00:00.000+00:00","end":"2026-05-20T08:15:00.000+00:00"}},"request":{"method":"PUT","url":"Encounter/5bbcebea-8797-4215-89eb-9d5676302902"}},{"fullUrl":"https://madie.cms.gov/Procedure/8746e118-3528-4891-8990-7a1d80fced5c","resource":{"resourceType":"Procedure","id":"8746e118-3528-4891-8990-7a1d80fced5c","meta":{"profile":["http://hl7.org/fhir/us/qicore/StructureDefinition/qicore-procedure"]},"extension":[{"url":"http://hl7.org/fhir/us/qicore/StructureDefinition/qicore-recorded","valueDateTime":"2026-05-06T08:15:30.000+00:00"}],"status":"completed","code":{"coding":[{"system":"http://snomed.info/sct","version":"2023-09","code":"304577004","display":"Humidified oxygen therapy (procedure)"}],"text":"Humidified oxygen therapy (procedure)"},"subject":{"reference":"Patient/23191b54-f639-47a2-88ad-dc7fabaec98a"},"performedDateTime":"2026-05-06T08:10:00.000+00:00"},"request":{"method":"PUT","url":"Procedure/8746e118-3528-4891-8990-7a1d80fced5c"}},{"fullUrl":"https://madie.cms.gov/Procedure/012bd184-d441-4762-8dff-2af41ba76e8f","resource":{"resourceType":"Procedure","id":"012bd184-d441-4762-8dff-2af41ba76e8f","meta":{"profile":["http://hl7.org/fhir/us/qicore/StructureDefinition/qicore-procedure"]},"extension":[{"url":"http://hl7.org/fhir/us/qicore/StructureDefinition/qicore-recorded","valueDateTime":"2026-05-15T12:20:00.000+00:00"}],"status":"completed","category":{"coding":[{"system":"http://snomed.info/sct","code":"18286008","display":"General or neuraxial anesthesia"}]},"code":{"coding":[{"system":"http://snomed.info/sct","code":"112943005","display":"Epidural injection of anesthetic substance, diagnostic, caudal, continuous"}]},"subject":{"reference":"Patient/23191b54-f639-47a2-88ad-dc7fabaec98a"},"performedPeriod":{"start":"2026-05-15T11:00:00.000+00:00","end":"2026-05-15T12:15:00.000+00:00"}},"request":{"method":"PUT","url":"Procedure/012bd184-d441-4762-8dff-2af41ba76e8f"}},{"fullUrl":"https://madie.cms.gov/Procedure/e5fd07ec-7544-427c-94fe-b96f50909b1f","resource":{"resourceType":"Procedure","id":"e5fd07ec-7544-427c-94fe-b96f50909b1f","meta":{"profile":["http://hl7.org/fhir/us/qicore/StructureDefinition/qicore-procedure"]},"extension":[{"url":"http://hl7.org/fhir/us/qicore/StructureDefinition/qicore-recorded","valueDateTime":"2026-05-15T10:20:00.000+00:00"}],"status":"completed","category":{"coding":[{"system":"http://snomed.info/sct","code":"18286008","display":"General or neuraxial anesthesia"}]},"code":{"coding":[{"system":"http://snomed.info/sct","code":"112943005","display":"Epidural injection of anesthetic substance, diagnostic, caudal, continuous"}]},"subject":{"reference":"Patient/23191b54-f639-47a2-88ad-dc7fabaec98a"},"performedPeriod":{"start":"2026-05-05T09:00:00.000+00:00","end":"2026-05-05T10:15:00.000+00:00"}},"request":{"method":"PUT","url":"Procedure/e5fd07ec-7544-427c-94fe-b96f50909b1f"}},{"fullUrl":"https://madie.cms.gov/Encounter/8557ebf3-06db-4f45-92cf-df4a20e99102","resource":{"resourceType":"Encounter","id":"8557ebf3-06db-4f45-92cf-df4a20e99102","meta":{"profile":["http://hl7.org/fhir/us/qicore/StructureDefinition/qicore-encounter"]},"status":"finished","class":{"system":"http://terminology.hl7.org/CodeSystem/v3-ActCode","code":"IMP","display":"inpatient encounter"},"type":[{"coding":[{"system":"http://snomed.info/sct","code":"112689000","display":"Hospital admission, elective, with complete pre-admission work-up"}],"text":"Hospital admission, elective, with complete pre-admission work-up"}],"priority":{"coding":[{"system":"http://snomed.info/sct","code":"103390000"}]},"subject":{"reference":"Patient/23191b54-f639-47a2-88ad-dc7fabaec98a"},"period":{"start":"2026-05-04T11:00:00.000+00:00","end":"2026-05-13T08:15:00.000+00:00"}},"request":{"method":"PUT","url":"Encounter/8557ebf3-06db-4f45-92cf-df4a20e99102"}},{"fullUrl":"https://madie.cms.gov/Procedure/e3eeb581-567e-4c43-8e43-20d1eb827134","resource":{"resourceType":"Procedure","id":"e3eeb581-567e-4c43-8e43-20d1eb827134","meta":{"profile":["http://hl7.org/fhir/us/qicore/StructureDefinition/qicore-procedure"]},"extension":[{"url":"http://hl7.org/fhir/us/qicore/StructureDefinition/qicore-recorded","valueDateTime":"2026-05-15T13:20:30.000+00:00"}],"status":"completed","code":{"coding":[{"system":"http://snomed.info/sct","code":"1258985005","display":"Invasive Mechanical Ventilation"}],"text":"Invasive Mechanical Ventilation"},"subject":{"reference":"Patient/23191b54-f639-47a2-88ad-dc7fabaec98a"},"performedPeriod":{"start":"2026-05-15T13:04:00.000+00:00","end":"2026-05-15T13:19:00.000+00:00"}},"request":{"method":"PUT","url":"Procedure/e3eeb581-567e-4c43-8e43-20d1eb827134"}},{"fullUrl":"https://madie.cms.gov/Patient/23191b54-f639-47a2-88ad-dc7fabaec98a","resource":{"resourceType":"Patient","id":"23191b54-f639-47a2-88ad-dc7fabaec98a","meta":{"profile":["http://hl7.org/fhir/us/qicore/StructureDefinition/qicore-patient"]},"extension":[{"url":"http://hl7.org/fhir/us/core/StructureDefinition/us-core-race","extension":[{"url":"ombCategory","valueCoding":{"system":"urn:oid:2.16.840.1.113883.6.238","code":"2054-5","display":"Black or African American","userSelected":true}},{"url":"text","valueString":"Black or African American"}]},{"url":"http://hl7.org/fhir/us/core/StructureDefinition/us-core-ethnicity","extension":[{"url":"ombCategory","valueCoding":{"system":"urn:oid:2.16.840.1.113883.6.238","code":"2186-5","display":"Not Hispanic or Latino","userSelected":true}},{"url":"text","valueString":"Not Hispanic or Latino"}]}],"identifier":[{"type":{"coding":[{"system":"http://terminology.hl7.org/CodeSystem/v2-0203","code":"MR"}]},"system":"https://bonnie-fhir.healthit.gov/","value":"61152a3b98086b7a79cbd7c1"}],"active":true,"name":[{"use":"usual","family":"NUMERPass","given":["Num2TwoEncO2DurEnc1andMVDDurEnc2"]}],"gender":"female","birthDate":"1966-07-12"},"request":{"method":"PUT","url":"Patient/23191b54-f639-47a2-88ad-dc7fabaec98a"}},{"fullUrl":"https://madie.cms.gov/MeasureReport/70e60d76-f77c-4f24-8836-d091ac026d87","resource":{"resourceType":"MeasureReport","id":"70e60d76-f77c-4f24-8836-d091ac026d87","meta":{"profile":["http://hl7.org/fhir/us/cqfmeasures/StructureDefinition/test-case-cqfm"]},"contained":[{"resourceType":"Parameters","id":"d3fc7304-46ef-49c9-a150-b1fd0c4ddb40-parameters","parameter":[{"name":"subject","valueString":"23191b54-f639-47a2-88ad-dc7fabaec98a"}]}],"extension":[{"url":"http://hl7.org/fhir/StructureDefinition/cqf-inputParameters","valueReference":{"reference":"#d3fc7304-46ef-49c9-a150-b1fd0c4ddb40-parameters"}},{"url":"http://hl7.org/fhir/us/cqfmeasures/StructureDefinition/cqfm-testCaseDescription","valueMarkdown":"2 encounters. Enc1: O2 after procedure Enc2: MV after end of procedure  Fails numerator because enc1 has no MV, and enc2 has no O2"}],"modifierExtension":[{"url":"http://hl7.org/fhir/us/cqfmeasures/StructureDefinition/cqfm-isTestCase","valueBoolean":true}],"status":"complete","type":"individual","measure":"https://madie.cms.gov/Measure/CMS1218FHIRHHRF","period":{"start":"2026-01-01","end":"2026-12-31"},"group":[{"id":"Group_1","population":[{"id":"InitialPopulation_1","code":{"coding":[{"system":"http://terminology.hl7.org/CodeSystem/measure-population","code":"initial-population","display":"Initial Population"}]},"count":2},{"id":"Denominator_1","code":{"coding":[{"system":"http://terminology.hl7.org/CodeSystem/measure-population","code":"denominator","display":"Denominator"}]},"count":2},{"id":"DenominatorExclusion_1","code":{"coding":[{"system":"http://terminology.hl7.org/CodeSystem/measure-population","code":"denominator-exclusion","display":"Denominator Exclusion"}]},"count":0},{"id":"Numerator_1","code":{"coding":[{"system":"http://terminology.hl7.org/CodeSystem/measure-population","code":"numerator","display":"Numerator"}]},"count":0}],"measureScore":{"value":0.0}}],"evaluatedResource":[{"reference":"Encounter/5bbcebea-8797-4215-89eb-9d5676302902"},{"reference":"Procedure/8746e118-3528-4891-8990-7a1d80fced5c"},{"reference":"Procedure/012bd184-d441-4762-8dff-2af41ba76e8f"},{"reference":"Procedure/e5fd07ec-7544-427c-94fe-b96f50909b1f"},{"reference":"Encounter/8557ebf3-06db-4f45-92cf-df4a20e99102"},{"reference":"Procedure/e3eeb581-567e-4c43-8e43-20d1eb827134"},{"reference":"Patient/23191b54-f639-47a2-88ad-dc7fabaec98a"}]},"request":{"method":"PUT","url":"MeasureReport/70e60d76-f77c-4f24-8836-d091ac026d87"}}]},"request":{"method":"PUT","url":"Bundle/tests-23191b54-f639-47a2-88ad-dc7fabaec98a-bundle"}}]}