{"resourceType":"Bundle","id":"tests-171804b8-0f80-498e-92ea-7812b704013d-bundle","type":"transaction","entry":[{"fullUrl":"Bundle/tests-171804b8-0f80-498e-92ea-7812b704013d-bundle","resource":{"resourceType":"Bundle","id":"tests-171804b8-0f80-498e-92ea-7812b704013d-bundle","type":"transaction","entry":[{"fullUrl":"https://madie.cms.gov/Procedure/cf44d78c-8070-4dbb-ba52-6b62c8e10908","resource":{"resourceType":"Procedure","id":"cf44d78c-8070-4dbb-ba52-6b62c8e10908","meta":{"profile":["http://hl7.org/fhir/us/qicore/StructureDefinition/qicore-procedure"]},"extension":[{"url":"http://hl7.org/fhir/us/qicore/StructureDefinition/qicore-recorded","valueDateTime":"2026-04-11T08:10:00.000+00:00"}],"status":"completed","category":{"coding":[{"system":"http://snomed.info/sct","code":"18286008","display":"General or neuraxial anesthesia"}]},"code":{"coding":[{"system":"http://snomed.info/sct","code":"112943005","display":"Epidural injection of anesthetic substance, diagnostic, caudal, continuous"}]},"subject":{"reference":"Patient/171804b8-0f80-498e-92ea-7812b704013d"},"performedPeriod":{"start":"2026-04-11T08:00:00.000+00:00","end":"2026-04-11T10:15:00.000+00:00"}},"request":{"method":"PUT","url":"Procedure/cf44d78c-8070-4dbb-ba52-6b62c8e10908"}},{"fullUrl":"https://madie.cms.gov/Encounter/38ba42db-1c4c-4b9d-a609-bb2d3b79eea8","resource":{"resourceType":"Encounter","id":"38ba42db-1c4c-4b9d-a609-bb2d3b79eea8","meta":{"profile":["http://hl7.org/fhir/us/qicore/StructureDefinition/qicore-encounter"]},"status":"finished","class":{"system":"http://terminology.hl7.org/CodeSystem/v3-ActCode","code":"IMP","display":"inpatient encounter"},"type":[{"coding":[{"system":"http://snomed.info/sct","code":"112689000","display":"Hospital admission, elective, with complete pre-admission work-up"}],"text":"Hospital admission, elective, with complete pre-admission work-up"}],"priority":{"coding":[{"system":"http://snomed.info/sct","code":"103390000"}]},"subject":{"reference":"Patient/171804b8-0f80-498e-92ea-7812b704013d"},"period":{"start":"2026-04-10T08:00:00.000+00:00","end":"2026-04-18T08:15:00.000+00:00"}},"request":{"method":"PUT","url":"Encounter/38ba42db-1c4c-4b9d-a609-bb2d3b79eea8"}},{"fullUrl":"https://madie.cms.gov/Procedure/7027e789-d994-4b2f-a9a8-f6dac8a1f428","resource":{"resourceType":"Procedure","id":"7027e789-d994-4b2f-a9a8-f6dac8a1f428","meta":{"profile":["http://hl7.org/fhir/us/qicore/StructureDefinition/qicore-procedure"]},"extension":[{"url":"http://hl7.org/fhir/us/qicore/StructureDefinition/qicore-recorded","valueDateTime":"2026-04-11T07:10:30.000+00:00"}],"status":"completed","code":{"coding":[{"system":"http://snomed.info/sct","code":"243141005","display":"Mechanically assisted spontaneous ventilation"}],"text":"Mechanically assisted spontaneous ventilation"},"subject":{"reference":"Patient/171804b8-0f80-498e-92ea-7812b704013d"},"performedPeriod":{"start":"2026-04-13T11:00:00.000+00:00","end":"2026-04-13T14:15:00.000+00:00"}},"request":{"method":"PUT","url":"Procedure/7027e789-d994-4b2f-a9a8-f6dac8a1f428"}},{"fullUrl":"https://madie.cms.gov/Patient/171804b8-0f80-498e-92ea-7812b704013d","resource":{"resourceType":"Patient","id":"171804b8-0f80-498e-92ea-7812b704013d","meta":{"profile":["http://hl7.org/fhir/us/qicore/StructureDefinition/qicore-patient"]},"extension":[{"url":"http://hl7.org/fhir/us/core/StructureDefinition/us-core-race","extension":[{"url":"ombCategory","valueCoding":{"system":"urn:oid:2.16.840.1.113883.6.238","code":"2054-5","display":"Black or African American","userSelected":true}},{"url":"text","valueString":"Black or African American"}]},{"url":"http://hl7.org/fhir/us/core/StructureDefinition/us-core-ethnicity","extension":[{"url":"ombCategory","valueCoding":{"system":"urn:oid:2.16.840.1.113883.6.238","code":"2186-5","display":"Not Hispanic or Latino","userSelected":true}},{"url":"text","valueString":"Not Hispanic or Latino"}]}],"identifier":[{"type":{"coding":[{"system":"http://terminology.hl7.org/CodeSystem/v2-0203","code":"MR"}]},"system":"https://bonnie-fhir.healthit.gov/","value":"61152a3b98086b7a79cbd7c1"}],"active":true,"name":[{"use":"usual","family":"NUMERPass","given":["Num4MVduringIntervalNoInterruptionTime"]}],"gender":"female","birthDate":"1966-07-12"},"request":{"method":"PUT","url":"Patient/171804b8-0f80-498e-92ea-7812b704013d"}},{"fullUrl":"https://madie.cms.gov/MeasureReport/32e536a7-8e27-4eba-9d01-cf9d1fa0b785","resource":{"resourceType":"MeasureReport","id":"32e536a7-8e27-4eba-9d01-cf9d1fa0b785","meta":{"profile":["http://hl7.org/fhir/us/cqfmeasures/StructureDefinition/test-case-cqfm"]},"contained":[{"resourceType":"Parameters","id":"3e7bb519-a45f-427d-9dd2-a18226de34a3-parameters","parameter":[{"name":"subject","valueString":"171804b8-0f80-498e-92ea-7812b704013d"}]}],"extension":[{"url":"http://hl7.org/fhir/StructureDefinition/cqf-inputParameters","valueReference":{"reference":"#3e7bb519-a45f-427d-9dd2-a18226de34a3-parameters"}},{"url":"http://hl7.org/fhir/us/cqfmeasures/StructureDefinition/cqfm-testCaseDescription","valueMarkdown":"Elective hospitalization with procedure, MV documented during interval end of proc + 48 hrs and end of proc + 72 hrs, no interruption. Meets Num"}],"modifierExtension":[{"url":"http://hl7.org/fhir/us/cqfmeasures/StructureDefinition/cqfm-isTestCase","valueBoolean":true}],"status":"complete","type":"individual","measure":"https://madie.cms.gov/Measure/CMS1218FHIRHHRF","period":{"start":"2026-01-01","end":"2026-12-31"},"group":[{"id":"Group_1","population":[{"id":"InitialPopulation_1","code":{"coding":[{"system":"http://terminology.hl7.org/CodeSystem/measure-population","code":"initial-population","display":"Initial Population"}]},"count":1},{"id":"Denominator_1","code":{"coding":[{"system":"http://terminology.hl7.org/CodeSystem/measure-population","code":"denominator","display":"Denominator"}]},"count":1},{"id":"DenominatorExclusion_1","code":{"coding":[{"system":"http://terminology.hl7.org/CodeSystem/measure-population","code":"denominator-exclusion","display":"Denominator Exclusion"}]},"count":0},{"id":"Numerator_1","code":{"coding":[{"system":"http://terminology.hl7.org/CodeSystem/measure-population","code":"numerator","display":"Numerator"}]},"count":1}],"measureScore":{"value":0.0}}],"evaluatedResource":[{"reference":"Procedure/cf44d78c-8070-4dbb-ba52-6b62c8e10908"},{"reference":"Encounter/38ba42db-1c4c-4b9d-a609-bb2d3b79eea8"},{"reference":"Procedure/7027e789-d994-4b2f-a9a8-f6dac8a1f428"},{"reference":"Patient/171804b8-0f80-498e-92ea-7812b704013d"}]},"request":{"method":"PUT","url":"MeasureReport/32e536a7-8e27-4eba-9d01-cf9d1fa0b785"}}]},"request":{"method":"PUT","url":"Bundle/tests-171804b8-0f80-498e-92ea-7812b704013d-bundle"}},{"fullUrl":"Encounter/38ba42db-1c4c-4b9d-a609-bb2d3b79eea8","resource":{"resourceType":"Encounter","id":"38ba42db-1c4c-4b9d-a609-bb2d3b79eea8","meta":{"profile":["http://hl7.org/fhir/us/qicore/StructureDefinition/qicore-encounter"]},"status":"finished","class":{"system":"http://terminology.hl7.org/CodeSystem/v3-ActCode","code":"IMP","display":"inpatient encounter"},"type":[{"coding":[{"system":"http://snomed.info/sct","code":"112689000","display":"Hospital admission, elective, with complete pre-admission work-up"}],"text":"Hospital admission, elective, with complete pre-admission work-up"}],"priority":{"coding":[{"system":"http://snomed.info/sct","code":"103390000"}]},"subject":{"reference":"Patient/171804b8-0f80-498e-92ea-7812b704013d"},"period":{"start":"2026-04-10T08:00:00.000+00:00","end":"2026-04-18T08:15:00.000+00:00"}},"request":{"method":"PUT","url":"Encounter/38ba42db-1c4c-4b9d-a609-bb2d3b79eea8"}},{"fullUrl":"MeasureReport/32e536a7-8e27-4eba-9d01-cf9d1fa0b785","resource":{"resourceType":"MeasureReport","id":"32e536a7-8e27-4eba-9d01-cf9d1fa0b785","meta":{"profile":["http://hl7.org/fhir/us/cqfmeasures/StructureDefinition/test-case-cqfm"]},"contained":[{"resourceType":"Parameters","id":"3e7bb519-a45f-427d-9dd2-a18226de34a3-parameters","parameter":[{"name":"subject","valueString":"171804b8-0f80-498e-92ea-7812b704013d"}]}],"extension":[{"url":"http://hl7.org/fhir/StructureDefinition/cqf-inputParameters","valueReference":{"reference":"#3e7bb519-a45f-427d-9dd2-a18226de34a3-parameters"}},{"url":"http://hl7.org/fhir/us/cqfmeasures/StructureDefinition/cqfm-testCaseDescription","valueMarkdown":"Elective hospitalization with procedure, MV documented during interval end of proc + 48 hrs and end of proc + 72 hrs, no interruption. Meets Num"}],"modifierExtension":[{"url":"http://hl7.org/fhir/us/cqfmeasures/StructureDefinition/cqfm-isTestCase","valueBoolean":true}],"status":"complete","type":"individual","measure":"https://madie.cms.gov/Measure/CMS1218FHIRHHRF","period":{"start":"2026-01-01","end":"2026-12-31"},"group":[{"id":"Group_1","population":[{"id":"InitialPopulation_1","code":{"coding":[{"system":"http://terminology.hl7.org/CodeSystem/measure-population","code":"initial-population","display":"Initial Population"}]},"count":1},{"id":"Denominator_1","code":{"coding":[{"system":"http://terminology.hl7.org/CodeSystem/measure-population","code":"denominator","display":"Denominator"}]},"count":1},{"id":"DenominatorExclusion_1","code":{"coding":[{"system":"http://terminology.hl7.org/CodeSystem/measure-population","code":"denominator-exclusion","display":"Denominator Exclusion"}]},"count":0},{"id":"Numerator_1","code":{"coding":[{"system":"http://terminology.hl7.org/CodeSystem/measure-population","code":"numerator","display":"Numerator"}]},"count":1}],"measureScore":{"value":0.0}}],"evaluatedResource":[{"reference":"Procedure/cf44d78c-8070-4dbb-ba52-6b62c8e10908"},{"reference":"Encounter/38ba42db-1c4c-4b9d-a609-bb2d3b79eea8"},{"reference":"Procedure/7027e789-d994-4b2f-a9a8-f6dac8a1f428"},{"reference":"Patient/171804b8-0f80-498e-92ea-7812b704013d"}]},"request":{"method":"PUT","url":"MeasureReport/32e536a7-8e27-4eba-9d01-cf9d1fa0b785"}},{"fullUrl":"Patient/171804b8-0f80-498e-92ea-7812b704013d","resource":{"resourceType":"Patient","id":"171804b8-0f80-498e-92ea-7812b704013d","meta":{"profile":["http://hl7.org/fhir/us/qicore/StructureDefinition/qicore-patient"]},"extension":[{"url":"http://hl7.org/fhir/us/core/StructureDefinition/us-core-race","extension":[{"url":"ombCategory","valueCoding":{"system":"urn:oid:2.16.840.1.113883.6.238","code":"2054-5","display":"Black or African American","userSelected":true}},{"url":"text","valueString":"Black or African American"}]},{"url":"http://hl7.org/fhir/us/core/StructureDefinition/us-core-ethnicity","extension":[{"url":"ombCategory","valueCoding":{"system":"urn:oid:2.16.840.1.113883.6.238","code":"2186-5","display":"Not Hispanic or Latino","userSelected":true}},{"url":"text","valueString":"Not Hispanic or Latino"}]}],"identifier":[{"type":{"coding":[{"system":"http://terminology.hl7.org/CodeSystem/v2-0203","code":"MR"}]},"system":"https://bonnie-fhir.healthit.gov/","value":"61152a3b98086b7a79cbd7c1"}],"active":true,"name":[{"use":"usual","family":"NUMERPass","given":["Num4MVduringIntervalNoInterruptionTime"]}],"gender":"female","birthDate":"1966-07-12"},"request":{"method":"PUT","url":"Patient/171804b8-0f80-498e-92ea-7812b704013d"}},{"fullUrl":"Procedure/7027e789-d994-4b2f-a9a8-f6dac8a1f428","resource":{"resourceType":"Procedure","id":"7027e789-d994-4b2f-a9a8-f6dac8a1f428","meta":{"profile":["http://hl7.org/fhir/us/qicore/StructureDefinition/qicore-procedure"]},"extension":[{"url":"http://hl7.org/fhir/us/qicore/StructureDefinition/qicore-recorded","valueDateTime":"2026-04-11T07:10:30.000+00:00"}],"status":"completed","code":{"coding":[{"system":"http://snomed.info/sct","code":"243141005","display":"Mechanically assisted spontaneous ventilation"}],"text":"Mechanically assisted spontaneous ventilation"},"subject":{"reference":"Patient/171804b8-0f80-498e-92ea-7812b704013d"},"performedPeriod":{"start":"2026-04-13T11:00:00.000+00:00","end":"2026-04-13T14:15:00.000+00:00"}},"request":{"method":"PUT","url":"Procedure/7027e789-d994-4b2f-a9a8-f6dac8a1f428"}},{"fullUrl":"Procedure/cf44d78c-8070-4dbb-ba52-6b62c8e10908","resource":{"resourceType":"Procedure","id":"cf44d78c-8070-4dbb-ba52-6b62c8e10908","meta":{"profile":["http://hl7.org/fhir/us/qicore/StructureDefinition/qicore-procedure"]},"extension":[{"url":"http://hl7.org/fhir/us/qicore/StructureDefinition/qicore-recorded","valueDateTime":"2026-04-11T08:10:00.000+00:00"}],"status":"completed","category":{"coding":[{"system":"http://snomed.info/sct","code":"18286008","display":"General or neuraxial anesthesia"}]},"code":{"coding":[{"system":"http://snomed.info/sct","code":"112943005","display":"Epidural injection of anesthetic substance, diagnostic, caudal, continuous"}]},"subject":{"reference":"Patient/171804b8-0f80-498e-92ea-7812b704013d"},"performedPeriod":{"start":"2026-04-11T08:00:00.000+00:00","end":"2026-04-11T10:15:00.000+00:00"}},"request":{"method":"PUT","url":"Procedure/cf44d78c-8070-4dbb-ba52-6b62c8e10908"}}]}