{"resourceType":"Bundle","id":"tests-1939f5b2-658c-4f27-a62c-2368b76f4ac8-bundle","type":"transaction","entry":[{"fullUrl":"Observation/16adc840-82a6-4fbc-80bc-61011e99dae3","resource":{"resourceType":"Observation","id":"16adc840-82a6-4fbc-80bc-61011e99dae3","meta":{"profile":["http://hl7.org/fhir/us/qicore/StructureDefinition/qicore-observation-lab"]},"status":"final","category":[{"coding":[{"system":"http://terminology.hl7.org/CodeSystem/observation-category","code":"laboratory","display":"Laboratory"}],"text":"Laboratory"}],"code":{"coding":[{"system":"http://loinc.org","code":"1751-7","display":"Albumin [Mass/volume] in Serum or Plasma"}],"text":"Albumin [Mass/volume] in Serum or Plasma"},"subject":{"reference":"Patient/1939f5b2-658c-4f27-a62c-2368b76f4ac8"},"encounter":{"reference":"Encounter/363a292f-8b5f-4403-b867-15ec040096aa"},"effectiveDateTime":"2026-04-11T10:00:00.000+00:00","valueQuantity":{"value":2,"unit":"g/dl","system":"http://unitsofmeasure.org","code":"g/dl"}},"request":{"method":"PUT","url":"Observation/16adc840-82a6-4fbc-80bc-61011e99dae3"}},{"fullUrl":"Observation/223212ec-f67a-4183-90ae-87643385b38c","resource":{"resourceType":"Observation","id":"223212ec-f67a-4183-90ae-87643385b38c","meta":{"profile":["http://hl7.org/fhir/us/qicore/StructureDefinition/qicore-observation-lab"]},"status":"final","category":[{"coding":[{"system":"http://terminology.hl7.org/CodeSystem/observation-category","code":"laboratory","display":"Laboratory"}],"text":"Laboratory"}],"code":{"coding":[{"system":"http://loinc.org","code":"1751-7","display":"Albumin [Mass/volume] in Serum or Plasma"}],"text":"Albumin [Mass/volume] in Serum or Plasma"},"subject":{"reference":"Patient/1939f5b2-658c-4f27-a62c-2368b76f4ac8"},"encounter":{"reference":"Encounter/363a292f-8b5f-4403-b867-15ec040096aa"},"effectiveDateTime":"2026-04-11T08:00:00.000+00:00","valueQuantity":{"value":1,"unit":"g/dl","system":"http://unitsofmeasure.org","code":"g/dl"}},"request":{"method":"PUT","url":"Observation/223212ec-f67a-4183-90ae-87643385b38c"}},{"fullUrl":"Procedure/6095f6f2-7f9d-4ab1-9c91-d13da360dab7","resource":{"resourceType":"Procedure","id":"6095f6f2-7f9d-4ab1-9c91-d13da360dab7","meta":{"profile":["http://hl7.org/fhir/us/qicore/StructureDefinition/qicore-procedure"]},"extension":[{"url":"http://hl7.org/fhir/us/qicore/StructureDefinition/qicore-recorded","valueDateTime":"2026-04-11T10:30:00.000+00:00"}],"status":"completed","category":{"coding":[{"system":"http://snomed.info/sct","code":"18286008","display":"General or neuraxial anesthesia"}]},"code":{"coding":[{"system":"http://snomed.info/sct","code":"112943005","display":"Epidural injection of anesthetic substance, diagnostic, caudal, continuous"}]},"subject":{"reference":"Patient/1939f5b2-658c-4f27-a62c-2368b76f4ac8"},"performedPeriod":{"start":"2026-04-11T08:00:00.000+00:00","end":"2026-04-11T10:15:00.000+00:00"}},"request":{"method":"PUT","url":"Procedure/6095f6f2-7f9d-4ab1-9c91-d13da360dab7"}},{"fullUrl":"Bundle/tests-1939f5b2-658c-4f27-a62c-2368b76f4ac8-bundle","resource":{"resourceType":"Bundle","id":"tests-1939f5b2-658c-4f27-a62c-2368b76f4ac8-bundle","type":"transaction","entry":[{"fullUrl":"https://madie.cms.gov/Procedure/6095f6f2-7f9d-4ab1-9c91-d13da360dab7","resource":{"resourceType":"Procedure","id":"6095f6f2-7f9d-4ab1-9c91-d13da360dab7","meta":{"profile":["http://hl7.org/fhir/us/qicore/StructureDefinition/qicore-procedure"]},"extension":[{"url":"http://hl7.org/fhir/us/qicore/StructureDefinition/qicore-recorded","valueDateTime":"2026-04-11T10:30:00.000+00:00"}],"status":"completed","category":{"coding":[{"system":"http://snomed.info/sct","code":"18286008","display":"General or neuraxial anesthesia"}]},"code":{"coding":[{"system":"http://snomed.info/sct","code":"112943005","display":"Epidural injection of anesthetic substance, diagnostic, caudal, continuous"}]},"subject":{"reference":"Patient/1939f5b2-658c-4f27-a62c-2368b76f4ac8"},"performedPeriod":{"start":"2026-04-11T08:00:00.000+00:00","end":"2026-04-11T10:15:00.000+00:00"}},"request":{"method":"PUT","url":"Procedure/6095f6f2-7f9d-4ab1-9c91-d13da360dab7"}},{"fullUrl":"https://madie.cms.gov/Observation/16adc840-82a6-4fbc-80bc-61011e99dae3","resource":{"resourceType":"Observation","id":"16adc840-82a6-4fbc-80bc-61011e99dae3","meta":{"profile":["http://hl7.org/fhir/us/qicore/StructureDefinition/qicore-observation-lab"]},"status":"final","category":[{"coding":[{"system":"http://terminology.hl7.org/CodeSystem/observation-category","code":"laboratory","display":"Laboratory"}],"text":"Laboratory"}],"code":{"coding":[{"system":"http://loinc.org","code":"1751-7","display":"Albumin [Mass/volume] in Serum or Plasma"}],"text":"Albumin [Mass/volume] in Serum or Plasma"},"subject":{"reference":"Patient/1939f5b2-658c-4f27-a62c-2368b76f4ac8"},"encounter":{"reference":"Encounter/363a292f-8b5f-4403-b867-15ec040096aa"},"effectiveDateTime":"2026-04-11T10:00:00.000+00:00","valueQuantity":{"value":2,"unit":"g/dl","system":"http://unitsofmeasure.org","code":"g/dl"}},"request":{"method":"PUT","url":"Observation/16adc840-82a6-4fbc-80bc-61011e99dae3"}},{"fullUrl":"https://madie.cms.gov/Patient/1939f5b2-658c-4f27-a62c-2368b76f4ac8","resource":{"resourceType":"Patient","id":"1939f5b2-658c-4f27-a62c-2368b76f4ac8","meta":{"profile":["http://hl7.org/fhir/us/qicore/StructureDefinition/qicore-patient"]},"extension":[{"url":"http://hl7.org/fhir/us/core/StructureDefinition/us-core-race","extension":[{"url":"ombCategory","valueCoding":{"system":"urn:oid:2.16.840.1.113883.6.238","code":"2054-5","display":"Black or African American","userSelected":true}},{"url":"text","valueString":"Black or African American"}]},{"url":"http://hl7.org/fhir/us/core/StructureDefinition/us-core-ethnicity","extension":[{"url":"ombCategory","valueCoding":{"system":"urn:oid:2.16.840.1.113883.6.238","code":"2186-5","display":"Not Hispanic or Latino","userSelected":true}},{"url":"text","valueString":"Not Hispanic or Latino"}]}],"identifier":[{"type":{"coding":[{"system":"http://terminology.hl7.org/CodeSystem/v2-0203","code":"MR"}]},"system":"https://bonnie-fhir.healthit.gov/","value":"61152a3b98086b7a79cbd7c1"}],"active":true,"name":[{"use":"usual","family":"DENOMPass","given":["RiskVariableFirstAlbuminGDLunit"]}],"gender":"female","birthDate":"1966-07-12"},"request":{"method":"PUT","url":"Patient/1939f5b2-658c-4f27-a62c-2368b76f4ac8"}},{"fullUrl":"https://madie.cms.gov/Encounter/363a292f-8b5f-4403-b867-15ec040096aa","resource":{"resourceType":"Encounter","id":"363a292f-8b5f-4403-b867-15ec040096aa","meta":{"profile":["http://hl7.org/fhir/us/qicore/StructureDefinition/qicore-encounter"]},"status":"finished","class":{"system":"http://terminology.hl7.org/CodeSystem/v3-ActCode","code":"IMP","display":"inpatient encounter"},"type":[{"coding":[{"system":"http://snomed.info/sct","code":"112689000","display":"Hospital admission, elective, with complete pre-admission work-up"}],"text":"Hospital admission, elective, with complete pre-admission work-up"}],"priority":{"coding":[{"system":"http://snomed.info/sct","code":"103390000"}]},"subject":{"reference":"Patient/1939f5b2-658c-4f27-a62c-2368b76f4ac8"},"period":{"start":"2026-04-10T08:00:00.000+00:00","end":"2026-04-14T08:15:00.000+00:00"},"diagnosis":[{"condition":{"reference":"Procedure/6095f6f2-7f9d-4ab1-9c91-d13da360dab7"},"rank":1}]},"request":{"method":"PUT","url":"Encounter/363a292f-8b5f-4403-b867-15ec040096aa"}},{"fullUrl":"https://madie.cms.gov/Observation/223212ec-f67a-4183-90ae-87643385b38c","resource":{"resourceType":"Observation","id":"223212ec-f67a-4183-90ae-87643385b38c","meta":{"profile":["http://hl7.org/fhir/us/qicore/StructureDefinition/qicore-observation-lab"]},"status":"final","category":[{"coding":[{"system":"http://terminology.hl7.org/CodeSystem/observation-category","code":"laboratory","display":"Laboratory"}],"text":"Laboratory"}],"code":{"coding":[{"system":"http://loinc.org","code":"1751-7","display":"Albumin [Mass/volume] in Serum or Plasma"}],"text":"Albumin [Mass/volume] in Serum or Plasma"},"subject":{"reference":"Patient/1939f5b2-658c-4f27-a62c-2368b76f4ac8"},"encounter":{"reference":"Encounter/363a292f-8b5f-4403-b867-15ec040096aa"},"effectiveDateTime":"2026-04-11T08:00:00.000+00:00","valueQuantity":{"value":1,"unit":"g/dl","system":"http://unitsofmeasure.org","code":"g/dl"}},"request":{"method":"PUT","url":"Observation/223212ec-f67a-4183-90ae-87643385b38c"}},{"fullUrl":"https://madie.cms.gov/MeasureReport/c3947b92-73c6-4eb4-abc8-cc21e0ebef96","resource":{"resourceType":"MeasureReport","id":"c3947b92-73c6-4eb4-abc8-cc21e0ebef96","meta":{"profile":["http://hl7.org/fhir/us/cqfmeasures/StructureDefinition/test-case-cqfm"]},"contained":[{"resourceType":"Parameters","id":"295dc4ad-e156-4e3d-b3c7-97394fecb7fd-parameters","parameter":[{"name":"subject","valueString":"1939f5b2-658c-4f27-a62c-2368b76f4ac8"}]}],"extension":[{"url":"http://hl7.org/fhir/StructureDefinition/cqf-inputParameters","valueReference":{"reference":"#295dc4ad-e156-4e3d-b3c7-97394fecb7fd-parameters"}},{"url":"http://hl7.org/fhir/us/cqfmeasures/StructureDefinition/cqfm-testCaseDescription","valueMarkdown":"Encounter with 2 albumins during encounter. RV returns first, not second value. First value = 1. Second value = 2. Test for RV first albumin using unit g/dL passes. "}],"modifierExtension":[{"url":"http://hl7.org/fhir/us/cqfmeasures/StructureDefinition/cqfm-isTestCase","valueBoolean":true}],"status":"complete","type":"individual","measure":"https://madie.cms.gov/Measure/CMS1218FHIRHHRF","period":{"start":"2026-01-01","end":"2026-12-31"},"group":[{"id":"Group_1","population":[{"id":"InitialPopulation_1","code":{"coding":[{"system":"http://terminology.hl7.org/CodeSystem/measure-population","code":"initial-population","display":"Initial Population"}]},"count":1},{"id":"Denominator_1","code":{"coding":[{"system":"http://terminology.hl7.org/CodeSystem/measure-population","code":"denominator","display":"Denominator"}]},"count":1},{"id":"DenominatorExclusion_1","code":{"coding":[{"system":"http://terminology.hl7.org/CodeSystem/measure-population","code":"denominator-exclusion","display":"Denominator Exclusion"}]},"count":0},{"id":"Numerator_1","code":{"coding":[{"system":"http://terminology.hl7.org/CodeSystem/measure-population","code":"numerator","display":"Numerator"}]},"count":0}],"measureScore":{"value":0.0}}],"evaluatedResource":[{"reference":"Procedure/6095f6f2-7f9d-4ab1-9c91-d13da360dab7"},{"reference":"Observation/16adc840-82a6-4fbc-80bc-61011e99dae3"},{"reference":"Patient/1939f5b2-658c-4f27-a62c-2368b76f4ac8"},{"reference":"Encounter/363a292f-8b5f-4403-b867-15ec040096aa"},{"reference":"Observation/223212ec-f67a-4183-90ae-87643385b38c"}]},"request":{"method":"PUT","url":"MeasureReport/c3947b92-73c6-4eb4-abc8-cc21e0ebef96"}}]},"request":{"method":"PUT","url":"Bundle/tests-1939f5b2-658c-4f27-a62c-2368b76f4ac8-bundle"}},{"fullUrl":"Encounter/363a292f-8b5f-4403-b867-15ec040096aa","resource":{"resourceType":"Encounter","id":"363a292f-8b5f-4403-b867-15ec040096aa","meta":{"profile":["http://hl7.org/fhir/us/qicore/StructureDefinition/qicore-encounter"]},"status":"finished","class":{"system":"http://terminology.hl7.org/CodeSystem/v3-ActCode","code":"IMP","display":"inpatient encounter"},"type":[{"coding":[{"system":"http://snomed.info/sct","code":"112689000","display":"Hospital admission, elective, with complete pre-admission work-up"}],"text":"Hospital admission, elective, with complete pre-admission work-up"}],"priority":{"coding":[{"system":"http://snomed.info/sct","code":"103390000"}]},"subject":{"reference":"Patient/1939f5b2-658c-4f27-a62c-2368b76f4ac8"},"period":{"start":"2026-04-10T08:00:00.000+00:00","end":"2026-04-14T08:15:00.000+00:00"},"diagnosis":[{"condition":{"reference":"Procedure/6095f6f2-7f9d-4ab1-9c91-d13da360dab7"},"rank":1}]},"request":{"method":"PUT","url":"Encounter/363a292f-8b5f-4403-b867-15ec040096aa"}},{"fullUrl":"MeasureReport/c3947b92-73c6-4eb4-abc8-cc21e0ebef96","resource":{"resourceType":"MeasureReport","id":"c3947b92-73c6-4eb4-abc8-cc21e0ebef96","meta":{"profile":["http://hl7.org/fhir/us/cqfmeasures/StructureDefinition/test-case-cqfm"]},"contained":[{"resourceType":"Parameters","id":"295dc4ad-e156-4e3d-b3c7-97394fecb7fd-parameters","parameter":[{"name":"subject","valueString":"1939f5b2-658c-4f27-a62c-2368b76f4ac8"}]}],"extension":[{"url":"http://hl7.org/fhir/StructureDefinition/cqf-inputParameters","valueReference":{"reference":"#295dc4ad-e156-4e3d-b3c7-97394fecb7fd-parameters"}},{"url":"http://hl7.org/fhir/us/cqfmeasures/StructureDefinition/cqfm-testCaseDescription","valueMarkdown":"Encounter with 2 albumins during encounter. RV returns first, not second value. First value = 1. Second value = 2. Test for RV first albumin using unit g/dL passes. "}],"modifierExtension":[{"url":"http://hl7.org/fhir/us/cqfmeasures/StructureDefinition/cqfm-isTestCase","valueBoolean":true}],"status":"complete","type":"individual","measure":"https://madie.cms.gov/Measure/CMS1218FHIRHHRF","period":{"start":"2026-01-01","end":"2026-12-31"},"group":[{"id":"Group_1","population":[{"id":"InitialPopulation_1","code":{"coding":[{"system":"http://terminology.hl7.org/CodeSystem/measure-population","code":"initial-population","display":"Initial Population"}]},"count":1},{"id":"Denominator_1","code":{"coding":[{"system":"http://terminology.hl7.org/CodeSystem/measure-population","code":"denominator","display":"Denominator"}]},"count":1},{"id":"DenominatorExclusion_1","code":{"coding":[{"system":"http://terminology.hl7.org/CodeSystem/measure-population","code":"denominator-exclusion","display":"Denominator Exclusion"}]},"count":0},{"id":"Numerator_1","code":{"coding":[{"system":"http://terminology.hl7.org/CodeSystem/measure-population","code":"numerator","display":"Numerator"}]},"count":0}],"measureScore":{"value":0.0}}],"evaluatedResource":[{"reference":"Procedure/6095f6f2-7f9d-4ab1-9c91-d13da360dab7"},{"reference":"Observation/16adc840-82a6-4fbc-80bc-61011e99dae3"},{"reference":"Patient/1939f5b2-658c-4f27-a62c-2368b76f4ac8"},{"reference":"Encounter/363a292f-8b5f-4403-b867-15ec040096aa"},{"reference":"Observation/223212ec-f67a-4183-90ae-87643385b38c"}]},"request":{"method":"PUT","url":"MeasureReport/c3947b92-73c6-4eb4-abc8-cc21e0ebef96"}},{"fullUrl":"Patient/1939f5b2-658c-4f27-a62c-2368b76f4ac8","resource":{"resourceType":"Patient","id":"1939f5b2-658c-4f27-a62c-2368b76f4ac8","meta":{"profile":["http://hl7.org/fhir/us/qicore/StructureDefinition/qicore-patient"]},"extension":[{"url":"http://hl7.org/fhir/us/core/StructureDefinition/us-core-race","extension":[{"url":"ombCategory","valueCoding":{"system":"urn:oid:2.16.840.1.113883.6.238","code":"2054-5","display":"Black or African American","userSelected":true}},{"url":"text","valueString":"Black or African American"}]},{"url":"http://hl7.org/fhir/us/core/StructureDefinition/us-core-ethnicity","extension":[{"url":"ombCategory","valueCoding":{"system":"urn:oid:2.16.840.1.113883.6.238","code":"2186-5","display":"Not Hispanic or Latino","userSelected":true}},{"url":"text","valueString":"Not Hispanic or Latino"}]}],"identifier":[{"type":{"coding":[{"system":"http://terminology.hl7.org/CodeSystem/v2-0203","code":"MR"}]},"system":"https://bonnie-fhir.healthit.gov/","value":"61152a3b98086b7a79cbd7c1"}],"active":true,"name":[{"use":"usual","family":"DENOMPass","given":["RiskVariableFirstAlbuminGDLunit"]}],"gender":"female","birthDate":"1966-07-12"},"request":{"method":"PUT","url":"Patient/1939f5b2-658c-4f27-a62c-2368b76f4ac8"}}]}