{"resourceType":"Bundle","id":"tests-8c1d0b6e-067f-4a0b-b4c5-adec7b2aeeef-bundle","type":"transaction","entry":[{"fullUrl":"Observation/47f4f2a8-99d9-4298-b0c6-9434244aef42","resource":{"resourceType":"Observation","id":"47f4f2a8-99d9-4298-b0c6-9434244aef42","meta":{"profile":["http://hl7.org/fhir/us/qicore/StructureDefinition/qicore-observation-lab"]},"status":"final","category":[{"coding":[{"system":"http://terminology.hl7.org/CodeSystem/observation-category","code":"laboratory","display":"Laboratory"}],"text":"Laboratory"}],"code":{"coding":[{"system":"http://loinc.org","code":"13056-7","display":"Platelets [#/volume] in Plasma by Automated count"}],"text":"Hemoglobin Lab Test"},"subject":{"reference":"Patient/8c1d0b6e-067f-4a0b-b4c5-adec7b2aeeef"},"encounter":{"reference":"Encounter/e4111782-b4c0-4f66-ae16-4021903cdd5b"},"effectiveDateTime":"2026-04-12T08:00:00.000+00:00","valueQuantity":{"value":1200,"unit":"/mm3","system":"http://unitsofmeasure.org","code":"/mm3"}},"request":{"method":"PUT","url":"Observation/47f4f2a8-99d9-4298-b0c6-9434244aef42"}},{"fullUrl":"Procedure/e719bbfa-d15a-406c-a5db-b2205c81a849","resource":{"resourceType":"Procedure","id":"e719bbfa-d15a-406c-a5db-b2205c81a849","meta":{"profile":["http://hl7.org/fhir/us/qicore/StructureDefinition/qicore-procedure"]},"extension":[{"url":"http://hl7.org/fhir/us/qicore/StructureDefinition/qicore-recorded","valueDateTime":"2026-04-11T10:30:00.000+00:00"}],"status":"completed","category":{"coding":[{"system":"http://snomed.info/sct","code":"18286008","display":"General or neuraxial anesthesia"}]},"code":{"coding":[{"system":"http://snomed.info/sct","code":"112943005","display":"Epidural injection of anesthetic substance, diagnostic, caudal, continuous"}]},"subject":{"reference":"Patient/8c1d0b6e-067f-4a0b-b4c5-adec7b2aeeef"},"performedPeriod":{"start":"2026-04-11T08:00:00.000+00:00","end":"2026-04-11T10:15:00.000+00:00"}},"request":{"method":"PUT","url":"Procedure/e719bbfa-d15a-406c-a5db-b2205c81a849"}},{"fullUrl":"Bundle/tests-8c1d0b6e-067f-4a0b-b4c5-adec7b2aeeef-bundle","resource":{"resourceType":"Bundle","id":"tests-8c1d0b6e-067f-4a0b-b4c5-adec7b2aeeef-bundle","type":"transaction","entry":[{"fullUrl":"https://madie.cms.gov/Encounter/e4111782-b4c0-4f66-ae16-4021903cdd5b","resource":{"resourceType":"Encounter","id":"e4111782-b4c0-4f66-ae16-4021903cdd5b","meta":{"profile":["http://hl7.org/fhir/us/qicore/StructureDefinition/qicore-encounter"]},"status":"finished","class":{"system":"http://terminology.hl7.org/CodeSystem/v3-ActCode","code":"IMP","display":"inpatient encounter"},"type":[{"coding":[{"system":"http://snomed.info/sct","code":"112689000","display":"Hospital admission, elective, with complete pre-admission work-up"}],"text":"Hospital admission, elective, with complete pre-admission work-up"}],"priority":{"coding":[{"system":"http://snomed.info/sct","code":"103390000"}]},"subject":{"reference":"Patient/8c1d0b6e-067f-4a0b-b4c5-adec7b2aeeef"},"period":{"start":"2026-04-10T08:00:00.000+00:00","end":"2026-04-14T08:15:00.000+00:00"},"diagnosis":[{"condition":{"reference":"Procedure/e719bbfa-d15a-406c-a5db-b2205c81a849"},"rank":1}]},"request":{"method":"PUT","url":"Encounter/e4111782-b4c0-4f66-ae16-4021903cdd5b"}},{"fullUrl":"https://madie.cms.gov/Observation/47f4f2a8-99d9-4298-b0c6-9434244aef42","resource":{"resourceType":"Observation","id":"47f4f2a8-99d9-4298-b0c6-9434244aef42","meta":{"profile":["http://hl7.org/fhir/us/qicore/StructureDefinition/qicore-observation-lab"]},"status":"final","category":[{"coding":[{"system":"http://terminology.hl7.org/CodeSystem/observation-category","code":"laboratory","display":"Laboratory"}],"text":"Laboratory"}],"code":{"coding":[{"system":"http://loinc.org","code":"13056-7","display":"Platelets [#/volume] in Plasma by Automated count"}],"text":"Hemoglobin Lab Test"},"subject":{"reference":"Patient/8c1d0b6e-067f-4a0b-b4c5-adec7b2aeeef"},"encounter":{"reference":"Encounter/e4111782-b4c0-4f66-ae16-4021903cdd5b"},"effectiveDateTime":"2026-04-12T08:00:00.000+00:00","valueQuantity":{"value":1200,"unit":"/mm3","system":"http://unitsofmeasure.org","code":"/mm3"}},"request":{"method":"PUT","url":"Observation/47f4f2a8-99d9-4298-b0c6-9434244aef42"}},{"fullUrl":"https://madie.cms.gov/Patient/8c1d0b6e-067f-4a0b-b4c5-adec7b2aeeef","resource":{"resourceType":"Patient","id":"8c1d0b6e-067f-4a0b-b4c5-adec7b2aeeef","meta":{"profile":["http://hl7.org/fhir/us/qicore/StructureDefinition/qicore-patient"]},"extension":[{"url":"http://hl7.org/fhir/us/core/StructureDefinition/us-core-race","extension":[{"url":"ombCategory","valueCoding":{"system":"urn:oid:2.16.840.1.113883.6.238","code":"2054-5","display":"Black or African American","userSelected":true}},{"url":"text","valueString":"Black or African American"}]},{"url":"http://hl7.org/fhir/us/core/StructureDefinition/us-core-ethnicity","extension":[{"url":"ombCategory","valueCoding":{"system":"urn:oid:2.16.840.1.113883.6.238","code":"2186-5","display":"Not Hispanic or Latino","userSelected":true}},{"url":"text","valueString":"Not Hispanic or Latino"}]}],"identifier":[{"type":{"coding":[{"system":"http://terminology.hl7.org/CodeSystem/v2-0203","code":"MR"}]},"system":"https://bonnie-fhir.healthit.gov/","value":"61152a3b98086b7a79cbd7c1"}],"active":true,"name":[{"use":"usual","family":"DENOMPass","given":["RiskVariableFirstPlateletmm3Units"]}],"gender":"female","birthDate":"1966-07-12"},"request":{"method":"PUT","url":"Patient/8c1d0b6e-067f-4a0b-b4c5-adec7b2aeeef"}},{"fullUrl":"https://madie.cms.gov/Procedure/e719bbfa-d15a-406c-a5db-b2205c81a849","resource":{"resourceType":"Procedure","id":"e719bbfa-d15a-406c-a5db-b2205c81a849","meta":{"profile":["http://hl7.org/fhir/us/qicore/StructureDefinition/qicore-procedure"]},"extension":[{"url":"http://hl7.org/fhir/us/qicore/StructureDefinition/qicore-recorded","valueDateTime":"2026-04-11T10:30:00.000+00:00"}],"status":"completed","category":{"coding":[{"system":"http://snomed.info/sct","code":"18286008","display":"General or neuraxial anesthesia"}]},"code":{"coding":[{"system":"http://snomed.info/sct","code":"112943005","display":"Epidural injection of anesthetic substance, diagnostic, caudal, continuous"}]},"subject":{"reference":"Patient/8c1d0b6e-067f-4a0b-b4c5-adec7b2aeeef"},"performedPeriod":{"start":"2026-04-11T08:00:00.000+00:00","end":"2026-04-11T10:15:00.000+00:00"}},"request":{"method":"PUT","url":"Procedure/e719bbfa-d15a-406c-a5db-b2205c81a849"}},{"fullUrl":"https://madie.cms.gov/Observation/204c0be0-fb76-4206-ae3e-7259540a7235","resource":{"resourceType":"Observation","id":"204c0be0-fb76-4206-ae3e-7259540a7235","meta":{"profile":["http://hl7.org/fhir/us/qicore/StructureDefinition/qicore-observation-lab"]},"status":"final","category":[{"coding":[{"system":"http://terminology.hl7.org/CodeSystem/observation-category","code":"laboratory","display":"Laboratory"}],"text":"Laboratory"}],"code":{"coding":[{"system":"http://loinc.org","code":"13056-7","display":"Platelets [#/volume] in Plasma by Automated count"}],"text":"Platelets [#/volume] in Plasma by Automated count"},"subject":{"reference":"Patient/8c1d0b6e-067f-4a0b-b4c5-adec7b2aeeef"},"encounter":{"reference":"Encounter/e4111782-b4c0-4f66-ae16-4021903cdd5b"},"effectiveDateTime":"2026-04-11T08:00:00.000+00:00","valueQuantity":{"value":1000,"unit":"/mm3","system":"http://unitsofmeasure.org","code":"/mm3"}},"request":{"method":"PUT","url":"Observation/204c0be0-fb76-4206-ae3e-7259540a7235"}},{"fullUrl":"https://madie.cms.gov/MeasureReport/b0999a53-2c10-4b58-91a6-f14483cba2e8","resource":{"resourceType":"MeasureReport","id":"b0999a53-2c10-4b58-91a6-f14483cba2e8","meta":{"profile":["http://hl7.org/fhir/us/cqfmeasures/StructureDefinition/test-case-cqfm"]},"contained":[{"resourceType":"Parameters","id":"cfbe1c74-bb8f-43fc-9af6-34ba14ab6b0b-parameters","parameter":[{"name":"subject","valueString":"8c1d0b6e-067f-4a0b-b4c5-adec7b2aeeef"}]}],"extension":[{"url":"http://hl7.org/fhir/StructureDefinition/cqf-inputParameters","valueReference":{"reference":"#cfbe1c74-bb8f-43fc-9af6-34ba14ab6b0b-parameters"}},{"url":"http://hl7.org/fhir/us/cqfmeasures/StructureDefinition/cqfm-testCaseDescription","valueMarkdown":"  Elective hospitalization with procedure (general anesthesia) within first 3 days of encounter. Meets IPP/Denom. RV test includes 2 platelet values; RV displays the first (10000 10*9/L) not the second (12000 10*9/L), as expected. \n"}],"modifierExtension":[{"url":"http://hl7.org/fhir/us/cqfmeasures/StructureDefinition/cqfm-isTestCase","valueBoolean":true}],"status":"complete","type":"individual","measure":"https://madie.cms.gov/Measure/CMS1218FHIRHHRF","period":{"start":"2026-01-01","end":"2026-12-31"},"group":[{"id":"Group_1","population":[{"id":"InitialPopulation_1","code":{"coding":[{"system":"http://terminology.hl7.org/CodeSystem/measure-population","code":"initial-population","display":"Initial Population"}]},"count":1},{"id":"Denominator_1","code":{"coding":[{"system":"http://terminology.hl7.org/CodeSystem/measure-population","code":"denominator","display":"Denominator"}]},"count":1},{"id":"DenominatorExclusion_1","code":{"coding":[{"system":"http://terminology.hl7.org/CodeSystem/measure-population","code":"denominator-exclusion","display":"Denominator Exclusion"}]},"count":0},{"id":"Numerator_1","code":{"coding":[{"system":"http://terminology.hl7.org/CodeSystem/measure-population","code":"numerator","display":"Numerator"}]},"count":0}],"measureScore":{"value":0.0}}],"evaluatedResource":[{"reference":"Encounter/e4111782-b4c0-4f66-ae16-4021903cdd5b"},{"reference":"Observation/47f4f2a8-99d9-4298-b0c6-9434244aef42"},{"reference":"Patient/8c1d0b6e-067f-4a0b-b4c5-adec7b2aeeef"},{"reference":"Procedure/e719bbfa-d15a-406c-a5db-b2205c81a849"},{"reference":"Observation/204c0be0-fb76-4206-ae3e-7259540a7235"}]},"request":{"method":"PUT","url":"MeasureReport/b0999a53-2c10-4b58-91a6-f14483cba2e8"}}]},"request":{"method":"PUT","url":"Bundle/tests-8c1d0b6e-067f-4a0b-b4c5-adec7b2aeeef-bundle"}},{"fullUrl":"MeasureReport/b0999a53-2c10-4b58-91a6-f14483cba2e8","resource":{"resourceType":"MeasureReport","id":"b0999a53-2c10-4b58-91a6-f14483cba2e8","meta":{"profile":["http://hl7.org/fhir/us/cqfmeasures/StructureDefinition/test-case-cqfm"]},"contained":[{"resourceType":"Parameters","id":"cfbe1c74-bb8f-43fc-9af6-34ba14ab6b0b-parameters","parameter":[{"name":"subject","valueString":"8c1d0b6e-067f-4a0b-b4c5-adec7b2aeeef"}]}],"extension":[{"url":"http://hl7.org/fhir/StructureDefinition/cqf-inputParameters","valueReference":{"reference":"#cfbe1c74-bb8f-43fc-9af6-34ba14ab6b0b-parameters"}},{"url":"http://hl7.org/fhir/us/cqfmeasures/StructureDefinition/cqfm-testCaseDescription","valueMarkdown":"  Elective hospitalization with procedure (general anesthesia) within first 3 days of encounter. Meets IPP/Denom. RV test includes 2 platelet values; RV displays the first (10000 10*9/L) not the second (12000 10*9/L), as expected. \n"}],"modifierExtension":[{"url":"http://hl7.org/fhir/us/cqfmeasures/StructureDefinition/cqfm-isTestCase","valueBoolean":true}],"status":"complete","type":"individual","measure":"https://madie.cms.gov/Measure/CMS1218FHIRHHRF","period":{"start":"2026-01-01","end":"2026-12-31"},"group":[{"id":"Group_1","population":[{"id":"InitialPopulation_1","code":{"coding":[{"system":"http://terminology.hl7.org/CodeSystem/measure-population","code":"initial-population","display":"Initial Population"}]},"count":1},{"id":"Denominator_1","code":{"coding":[{"system":"http://terminology.hl7.org/CodeSystem/measure-population","code":"denominator","display":"Denominator"}]},"count":1},{"id":"DenominatorExclusion_1","code":{"coding":[{"system":"http://terminology.hl7.org/CodeSystem/measure-population","code":"denominator-exclusion","display":"Denominator Exclusion"}]},"count":0},{"id":"Numerator_1","code":{"coding":[{"system":"http://terminology.hl7.org/CodeSystem/measure-population","code":"numerator","display":"Numerator"}]},"count":0}],"measureScore":{"value":0.0}}],"evaluatedResource":[{"reference":"Encounter/e4111782-b4c0-4f66-ae16-4021903cdd5b"},{"reference":"Observation/47f4f2a8-99d9-4298-b0c6-9434244aef42"},{"reference":"Patient/8c1d0b6e-067f-4a0b-b4c5-adec7b2aeeef"},{"reference":"Procedure/e719bbfa-d15a-406c-a5db-b2205c81a849"},{"reference":"Observation/204c0be0-fb76-4206-ae3e-7259540a7235"}]},"request":{"method":"PUT","url":"MeasureReport/b0999a53-2c10-4b58-91a6-f14483cba2e8"}},{"fullUrl":"Observation/204c0be0-fb76-4206-ae3e-7259540a7235","resource":{"resourceType":"Observation","id":"204c0be0-fb76-4206-ae3e-7259540a7235","meta":{"profile":["http://hl7.org/fhir/us/qicore/StructureDefinition/qicore-observation-lab"]},"status":"final","category":[{"coding":[{"system":"http://terminology.hl7.org/CodeSystem/observation-category","code":"laboratory","display":"Laboratory"}],"text":"Laboratory"}],"code":{"coding":[{"system":"http://loinc.org","code":"13056-7","display":"Platelets [#/volume] in Plasma by Automated count"}],"text":"Platelets [#/volume] in Plasma by Automated count"},"subject":{"reference":"Patient/8c1d0b6e-067f-4a0b-b4c5-adec7b2aeeef"},"encounter":{"reference":"Encounter/e4111782-b4c0-4f66-ae16-4021903cdd5b"},"effectiveDateTime":"2026-04-11T08:00:00.000+00:00","valueQuantity":{"value":1000,"unit":"/mm3","system":"http://unitsofmeasure.org","code":"/mm3"}},"request":{"method":"PUT","url":"Observation/204c0be0-fb76-4206-ae3e-7259540a7235"}},{"fullUrl":"Encounter/e4111782-b4c0-4f66-ae16-4021903cdd5b","resource":{"resourceType":"Encounter","id":"e4111782-b4c0-4f66-ae16-4021903cdd5b","meta":{"profile":["http://hl7.org/fhir/us/qicore/StructureDefinition/qicore-encounter"]},"status":"finished","class":{"system":"http://terminology.hl7.org/CodeSystem/v3-ActCode","code":"IMP","display":"inpatient encounter"},"type":[{"coding":[{"system":"http://snomed.info/sct","code":"112689000","display":"Hospital admission, elective, with complete pre-admission work-up"}],"text":"Hospital admission, elective, with complete pre-admission work-up"}],"priority":{"coding":[{"system":"http://snomed.info/sct","code":"103390000"}]},"subject":{"reference":"Patient/8c1d0b6e-067f-4a0b-b4c5-adec7b2aeeef"},"period":{"start":"2026-04-10T08:00:00.000+00:00","end":"2026-04-14T08:15:00.000+00:00"},"diagnosis":[{"condition":{"reference":"Procedure/e719bbfa-d15a-406c-a5db-b2205c81a849"},"rank":1}]},"request":{"method":"PUT","url":"Encounter/e4111782-b4c0-4f66-ae16-4021903cdd5b"}},{"fullUrl":"Patient/8c1d0b6e-067f-4a0b-b4c5-adec7b2aeeef","resource":{"resourceType":"Patient","id":"8c1d0b6e-067f-4a0b-b4c5-adec7b2aeeef","meta":{"profile":["http://hl7.org/fhir/us/qicore/StructureDefinition/qicore-patient"]},"extension":[{"url":"http://hl7.org/fhir/us/core/StructureDefinition/us-core-race","extension":[{"url":"ombCategory","valueCoding":{"system":"urn:oid:2.16.840.1.113883.6.238","code":"2054-5","display":"Black or African American","userSelected":true}},{"url":"text","valueString":"Black or African American"}]},{"url":"http://hl7.org/fhir/us/core/StructureDefinition/us-core-ethnicity","extension":[{"url":"ombCategory","valueCoding":{"system":"urn:oid:2.16.840.1.113883.6.238","code":"2186-5","display":"Not Hispanic or Latino","userSelected":true}},{"url":"text","valueString":"Not Hispanic or Latino"}]}],"identifier":[{"type":{"coding":[{"system":"http://terminology.hl7.org/CodeSystem/v2-0203","code":"MR"}]},"system":"https://bonnie-fhir.healthit.gov/","value":"61152a3b98086b7a79cbd7c1"}],"active":true,"name":[{"use":"usual","family":"DENOMPass","given":["RiskVariableFirstPlateletmm3Units"]}],"gender":"female","birthDate":"1966-07-12"},"request":{"method":"PUT","url":"Patient/8c1d0b6e-067f-4a0b-b4c5-adec7b2aeeef"}}]}