{"resourceType":"Bundle","id":"tests-223bc449-fc6b-4636-b392-3613761ee5c8-bundle","type":"transaction","entry":[{"fullUrl":"MeasureReport/779c636c-a003-40ab-aa21-704a9d94d619","resource":{"resourceType":"MeasureReport","id":"779c636c-a003-40ab-aa21-704a9d94d619","meta":{"profile":["http://hl7.org/fhir/us/cqfmeasures/StructureDefinition/test-case-cqfm"]},"contained":[{"resourceType":"Parameters","id":"056aa739-fb14-4f35-a2cf-b9f7a6a198f0-parameters","parameter":[{"name":"subject","valueString":"223bc449-fc6b-4636-b392-3613761ee5c8"}]}],"extension":[{"url":"http://hl7.org/fhir/StructureDefinition/cqf-inputParameters","valueReference":{"reference":"#056aa739-fb14-4f35-a2cf-b9f7a6a198f0-parameters"}},{"url":"http://hl7.org/fhir/us/cqfmeasures/StructureDefinition/cqfm-testCaseDescription","valueMarkdown":"Elective hospitalization with procedure, MV relevant DT > 48 hours after end of first and second OR w/no interruptions. Meets Numerator. "}],"modifierExtension":[{"url":"http://hl7.org/fhir/us/cqfmeasures/StructureDefinition/cqfm-isTestCase","valueBoolean":true}],"status":"complete","type":"individual","measure":"https://madie.cms.gov/Measure/CMS1218FHIRHHRF","period":{"start":"2026-01-01","end":"2026-12-31"},"group":[{"id":"Group_1","population":[{"id":"InitialPopulation_1","code":{"coding":[{"system":"http://terminology.hl7.org/CodeSystem/measure-population","code":"initial-population","display":"Initial Population"}]},"count":1},{"id":"Denominator_1","code":{"coding":[{"system":"http://terminology.hl7.org/CodeSystem/measure-population","code":"denominator","display":"Denominator"}]},"count":1},{"id":"DenominatorExclusion_1","code":{"coding":[{"system":"http://terminology.hl7.org/CodeSystem/measure-population","code":"denominator-exclusion","display":"Denominator Exclusion"}]},"count":0},{"id":"Numerator_1","code":{"coding":[{"system":"http://terminology.hl7.org/CodeSystem/measure-population","code":"numerator","display":"Numerator"}]},"count":1}],"measureScore":{"value":0.0}}],"evaluatedResource":[{"reference":"Encounter/60c09116-a009-4249-be9b-bd917e0fb36e"},{"reference":"Procedure/62f1e3c2-bb4b-4a8a-8658-bd91d57e5ecc"},{"reference":"Procedure/90aa60dc-2b7e-4fbe-9ec2-afdb3e07246e"},{"reference":"Patient/223bc449-fc6b-4636-b392-3613761ee5c8"},{"reference":"Procedure/26995790-c0f9-41a4-bf57-72afc13c9dea"},{"reference":"Procedure/ba592799-88fb-4e09-9044-79468199b362"}]},"request":{"method":"PUT","url":"MeasureReport/779c636c-a003-40ab-aa21-704a9d94d619"}},{"fullUrl":"Procedure/ba592799-88fb-4e09-9044-79468199b362","resource":{"resourceType":"Procedure","id":"ba592799-88fb-4e09-9044-79468199b362","meta":{"profile":["http://hl7.org/fhir/us/qicore/StructureDefinition/qicore-procedure"]},"extension":[{"url":"http://hl7.org/fhir/us/qicore/StructureDefinition/qicore-recorded","valueDateTime":"2026-04-17T10:10:30.000+00:00"}],"status":"completed","code":{"coding":[{"system":"http://snomed.info/sct","code":"243141005","display":"Mechanically assisted spontaneous ventilation"}],"text":"Mechanically assisted spontaneous ventilation"},"subject":{"reference":"Patient/223bc449-fc6b-4636-b392-3613761ee5c8"},"performedDateTime":"2026-04-17T10:00:00.000+00:00"},"request":{"method":"PUT","url":"Procedure/ba592799-88fb-4e09-9044-79468199b362"}},{"fullUrl":"Procedure/26995790-c0f9-41a4-bf57-72afc13c9dea","resource":{"resourceType":"Procedure","id":"26995790-c0f9-41a4-bf57-72afc13c9dea","meta":{"profile":["http://hl7.org/fhir/us/qicore/StructureDefinition/qicore-procedure"]},"extension":[{"url":"http://hl7.org/fhir/us/qicore/StructureDefinition/qicore-recorded","valueDateTime":"2026-04-15T08:10:00.000+00:00"}],"status":"completed","category":{"coding":[{"system":"http://snomed.info/sct","code":"18286008","display":"General or neuraxial anesthesia"}]},"code":{"coding":[{"system":"http://snomed.info/sct","code":"112943005","display":"Epidural injection of anesthetic substance, diagnostic, caudal, continuous"}]},"subject":{"reference":"Patient/223bc449-fc6b-4636-b392-3613761ee5c8"},"performedPeriod":{"start":"2026-04-15T08:00:00.000+00:00","end":"2026-04-15T09:15:00.000+00:00"}},"request":{"method":"PUT","url":"Procedure/26995790-c0f9-41a4-bf57-72afc13c9dea"}},{"fullUrl":"Procedure/62f1e3c2-bb4b-4a8a-8658-bd91d57e5ecc","resource":{"resourceType":"Procedure","id":"62f1e3c2-bb4b-4a8a-8658-bd91d57e5ecc","meta":{"profile":["http://hl7.org/fhir/us/qicore/StructureDefinition/qicore-procedure"]},"extension":[{"url":"http://hl7.org/fhir/us/qicore/StructureDefinition/qicore-recorded","valueDateTime":"2026-04-13T11:10:30.000+00:00"}],"status":"completed","code":{"coding":[{"system":"http://snomed.info/sct","code":"243141005","display":"Mechanically assisted spontaneous ventilation"}],"text":"Mechanically assisted spontaneous ventilation"},"subject":{"reference":"Patient/223bc449-fc6b-4636-b392-3613761ee5c8"},"performedDateTime":"2026-04-13T11:00:00.000+00:00"},"request":{"method":"PUT","url":"Procedure/62f1e3c2-bb4b-4a8a-8658-bd91d57e5ecc"}},{"fullUrl":"Encounter/60c09116-a009-4249-be9b-bd917e0fb36e","resource":{"resourceType":"Encounter","id":"60c09116-a009-4249-be9b-bd917e0fb36e","meta":{"profile":["http://hl7.org/fhir/us/qicore/StructureDefinition/qicore-encounter"]},"status":"finished","class":{"system":"http://terminology.hl7.org/CodeSystem/v3-ActCode","code":"IMP","display":"inpatient encounter"},"type":[{"coding":[{"system":"http://snomed.info/sct","code":"112689000","display":"Hospital admission, elective, with complete pre-admission work-up"}],"text":"Hospital admission, elective, with complete pre-admission work-up"}],"priority":{"coding":[{"system":"http://snomed.info/sct","code":"103390000"}]},"subject":{"reference":"Patient/223bc449-fc6b-4636-b392-3613761ee5c8"},"period":{"start":"2026-04-10T08:00:00.000+00:00","end":"2026-04-18T08:15:00.000+00:00"},"diagnosis":[{"condition":{"reference":"Procedure/b1d962c8-0d32-4391-bf69-066ece144575"},"rank":1}]},"request":{"method":"PUT","url":"Encounter/60c09116-a009-4249-be9b-bd917e0fb36e"}},{"fullUrl":"Bundle/tests-223bc449-fc6b-4636-b392-3613761ee5c8-bundle","resource":{"resourceType":"Bundle","id":"tests-223bc449-fc6b-4636-b392-3613761ee5c8-bundle","type":"transaction","entry":[{"fullUrl":"https://madie.cms.gov/Encounter/60c09116-a009-4249-be9b-bd917e0fb36e","resource":{"resourceType":"Encounter","id":"60c09116-a009-4249-be9b-bd917e0fb36e","meta":{"profile":["http://hl7.org/fhir/us/qicore/StructureDefinition/qicore-encounter"]},"status":"finished","class":{"system":"http://terminology.hl7.org/CodeSystem/v3-ActCode","code":"IMP","display":"inpatient encounter"},"type":[{"coding":[{"system":"http://snomed.info/sct","code":"112689000","display":"Hospital admission, elective, with complete pre-admission work-up"}],"text":"Hospital admission, elective, with complete pre-admission work-up"}],"priority":{"coding":[{"system":"http://snomed.info/sct","code":"103390000"}]},"subject":{"reference":"Patient/223bc449-fc6b-4636-b392-3613761ee5c8"},"period":{"start":"2026-04-10T08:00:00.000+00:00","end":"2026-04-18T08:15:00.000+00:00"},"diagnosis":[{"condition":{"reference":"Procedure/b1d962c8-0d32-4391-bf69-066ece144575"},"rank":1}]},"request":{"method":"PUT","url":"Encounter/60c09116-a009-4249-be9b-bd917e0fb36e"}},{"fullUrl":"https://madie.cms.gov/Procedure/62f1e3c2-bb4b-4a8a-8658-bd91d57e5ecc","resource":{"resourceType":"Procedure","id":"62f1e3c2-bb4b-4a8a-8658-bd91d57e5ecc","meta":{"profile":["http://hl7.org/fhir/us/qicore/StructureDefinition/qicore-procedure"]},"extension":[{"url":"http://hl7.org/fhir/us/qicore/StructureDefinition/qicore-recorded","valueDateTime":"2026-04-13T11:10:30.000+00:00"}],"status":"completed","code":{"coding":[{"system":"http://snomed.info/sct","code":"243141005","display":"Mechanically assisted spontaneous ventilation"}],"text":"Mechanically assisted spontaneous ventilation"},"subject":{"reference":"Patient/223bc449-fc6b-4636-b392-3613761ee5c8"},"performedDateTime":"2026-04-13T11:00:00.000+00:00"},"request":{"method":"PUT","url":"Procedure/62f1e3c2-bb4b-4a8a-8658-bd91d57e5ecc"}},{"fullUrl":"https://madie.cms.gov/Procedure/90aa60dc-2b7e-4fbe-9ec2-afdb3e07246e","resource":{"resourceType":"Procedure","id":"90aa60dc-2b7e-4fbe-9ec2-afdb3e07246e","meta":{"profile":["http://hl7.org/fhir/us/qicore/StructureDefinition/qicore-procedure"]},"extension":[{"url":"http://hl7.org/fhir/us/qicore/StructureDefinition/qicore-recorded","valueDateTime":"2026-04-11T08:10:00.000+00:00"}],"status":"completed","category":{"coding":[{"system":"http://snomed.info/sct","code":"18286008","display":"General or neuraxial anesthesia"}]},"code":{"coding":[{"system":"http://snomed.info/sct","code":"112943005","display":"Epidural injection of anesthetic substance, diagnostic, caudal, continuous"}]},"subject":{"reference":"Patient/223bc449-fc6b-4636-b392-3613761ee5c8"},"performedPeriod":{"start":"2026-04-11T08:00:00.000+00:00","end":"2026-04-11T10:15:00.000+00:00"}},"request":{"method":"PUT","url":"Procedure/90aa60dc-2b7e-4fbe-9ec2-afdb3e07246e"}},{"fullUrl":"https://madie.cms.gov/Patient/223bc449-fc6b-4636-b392-3613761ee5c8","resource":{"resourceType":"Patient","id":"223bc449-fc6b-4636-b392-3613761ee5c8","meta":{"profile":["http://hl7.org/fhir/us/qicore/StructureDefinition/qicore-patient"]},"extension":[{"url":"http://hl7.org/fhir/us/core/StructureDefinition/us-core-race","extension":[{"url":"ombCategory","valueCoding":{"system":"urn:oid:2.16.840.1.113883.6.238","code":"2054-5","display":"Black or African American","userSelected":true}},{"url":"text","valueString":"Black or African American"}]},{"url":"http://hl7.org/fhir/us/core/StructureDefinition/us-core-ethnicity","extension":[{"url":"ombCategory","valueCoding":{"system":"urn:oid:2.16.840.1.113883.6.238","code":"2186-5","display":"Not Hispanic or Latino","userSelected":true}},{"url":"text","valueString":"Not Hispanic or Latino"}]}],"identifier":[{"type":{"coding":[{"system":"http://terminology.hl7.org/CodeSystem/v2-0203","code":"MR"}]},"system":"https://bonnie-fhir.healthit.gov/","value":"61152a3b98086b7a79cbd7c1"}],"active":true,"name":[{"use":"usual","family":"NUMERPass","given":["Num4-2MVGT48HrsAfterORNoInterruptions"]}],"gender":"female","birthDate":"1966-07-12"},"request":{"method":"PUT","url":"Patient/223bc449-fc6b-4636-b392-3613761ee5c8"}},{"fullUrl":"https://madie.cms.gov/Procedure/26995790-c0f9-41a4-bf57-72afc13c9dea","resource":{"resourceType":"Procedure","id":"26995790-c0f9-41a4-bf57-72afc13c9dea","meta":{"profile":["http://hl7.org/fhir/us/qicore/StructureDefinition/qicore-procedure"]},"extension":[{"url":"http://hl7.org/fhir/us/qicore/StructureDefinition/qicore-recorded","valueDateTime":"2026-04-15T08:10:00.000+00:00"}],"status":"completed","category":{"coding":[{"system":"http://snomed.info/sct","code":"18286008","display":"General or neuraxial anesthesia"}]},"code":{"coding":[{"system":"http://snomed.info/sct","code":"112943005","display":"Epidural injection of anesthetic substance, diagnostic, caudal, continuous"}]},"subject":{"reference":"Patient/223bc449-fc6b-4636-b392-3613761ee5c8"},"performedPeriod":{"start":"2026-04-15T08:00:00.000+00:00","end":"2026-04-15T09:15:00.000+00:00"}},"request":{"method":"PUT","url":"Procedure/26995790-c0f9-41a4-bf57-72afc13c9dea"}},{"fullUrl":"https://madie.cms.gov/Procedure/ba592799-88fb-4e09-9044-79468199b362","resource":{"resourceType":"Procedure","id":"ba592799-88fb-4e09-9044-79468199b362","meta":{"profile":["http://hl7.org/fhir/us/qicore/StructureDefinition/qicore-procedure"]},"extension":[{"url":"http://hl7.org/fhir/us/qicore/StructureDefinition/qicore-recorded","valueDateTime":"2026-04-17T10:10:30.000+00:00"}],"status":"completed","code":{"coding":[{"system":"http://snomed.info/sct","code":"243141005","display":"Mechanically assisted spontaneous ventilation"}],"text":"Mechanically assisted spontaneous ventilation"},"subject":{"reference":"Patient/223bc449-fc6b-4636-b392-3613761ee5c8"},"performedDateTime":"2026-04-17T10:00:00.000+00:00"},"request":{"method":"PUT","url":"Procedure/ba592799-88fb-4e09-9044-79468199b362"}},{"fullUrl":"https://madie.cms.gov/MeasureReport/779c636c-a003-40ab-aa21-704a9d94d619","resource":{"resourceType":"MeasureReport","id":"779c636c-a003-40ab-aa21-704a9d94d619","meta":{"profile":["http://hl7.org/fhir/us/cqfmeasures/StructureDefinition/test-case-cqfm"]},"contained":[{"resourceType":"Parameters","id":"056aa739-fb14-4f35-a2cf-b9f7a6a198f0-parameters","parameter":[{"name":"subject","valueString":"223bc449-fc6b-4636-b392-3613761ee5c8"}]}],"extension":[{"url":"http://hl7.org/fhir/StructureDefinition/cqf-inputParameters","valueReference":{"reference":"#056aa739-fb14-4f35-a2cf-b9f7a6a198f0-parameters"}},{"url":"http://hl7.org/fhir/us/cqfmeasures/StructureDefinition/cqfm-testCaseDescription","valueMarkdown":"Elective hospitalization with procedure, MV relevant DT > 48 hours after end of first and second OR w/no interruptions. Meets Numerator. "}],"modifierExtension":[{"url":"http://hl7.org/fhir/us/cqfmeasures/StructureDefinition/cqfm-isTestCase","valueBoolean":true}],"status":"complete","type":"individual","measure":"https://madie.cms.gov/Measure/CMS1218FHIRHHRF","period":{"start":"2026-01-01","end":"2026-12-31"},"group":[{"id":"Group_1","population":[{"id":"InitialPopulation_1","code":{"coding":[{"system":"http://terminology.hl7.org/CodeSystem/measure-population","code":"initial-population","display":"Initial Population"}]},"count":1},{"id":"Denominator_1","code":{"coding":[{"system":"http://terminology.hl7.org/CodeSystem/measure-population","code":"denominator","display":"Denominator"}]},"count":1},{"id":"DenominatorExclusion_1","code":{"coding":[{"system":"http://terminology.hl7.org/CodeSystem/measure-population","code":"denominator-exclusion","display":"Denominator Exclusion"}]},"count":0},{"id":"Numerator_1","code":{"coding":[{"system":"http://terminology.hl7.org/CodeSystem/measure-population","code":"numerator","display":"Numerator"}]},"count":1}],"measureScore":{"value":0.0}}],"evaluatedResource":[{"reference":"Encounter/60c09116-a009-4249-be9b-bd917e0fb36e"},{"reference":"Procedure/62f1e3c2-bb4b-4a8a-8658-bd91d57e5ecc"},{"reference":"Procedure/90aa60dc-2b7e-4fbe-9ec2-afdb3e07246e"},{"reference":"Patient/223bc449-fc6b-4636-b392-3613761ee5c8"},{"reference":"Procedure/26995790-c0f9-41a4-bf57-72afc13c9dea"},{"reference":"Procedure/ba592799-88fb-4e09-9044-79468199b362"}]},"request":{"method":"PUT","url":"MeasureReport/779c636c-a003-40ab-aa21-704a9d94d619"}}]},"request":{"method":"PUT","url":"Bundle/tests-223bc449-fc6b-4636-b392-3613761ee5c8-bundle"}},{"fullUrl":"Patient/223bc449-fc6b-4636-b392-3613761ee5c8","resource":{"resourceType":"Patient","id":"223bc449-fc6b-4636-b392-3613761ee5c8","meta":{"profile":["http://hl7.org/fhir/us/qicore/StructureDefinition/qicore-patient"]},"extension":[{"url":"http://hl7.org/fhir/us/core/StructureDefinition/us-core-race","extension":[{"url":"ombCategory","valueCoding":{"system":"urn:oid:2.16.840.1.113883.6.238","code":"2054-5","display":"Black or African American","userSelected":true}},{"url":"text","valueString":"Black or African American"}]},{"url":"http://hl7.org/fhir/us/core/StructureDefinition/us-core-ethnicity","extension":[{"url":"ombCategory","valueCoding":{"system":"urn:oid:2.16.840.1.113883.6.238","code":"2186-5","display":"Not Hispanic or Latino","userSelected":true}},{"url":"text","valueString":"Not Hispanic or Latino"}]}],"identifier":[{"type":{"coding":[{"system":"http://terminology.hl7.org/CodeSystem/v2-0203","code":"MR"}]},"system":"https://bonnie-fhir.healthit.gov/","value":"61152a3b98086b7a79cbd7c1"}],"active":true,"name":[{"use":"usual","family":"NUMERPass","given":["Num4-2MVGT48HrsAfterORNoInterruptions"]}],"gender":"female","birthDate":"1966-07-12"},"request":{"method":"PUT","url":"Patient/223bc449-fc6b-4636-b392-3613761ee5c8"}},{"fullUrl":"Procedure/90aa60dc-2b7e-4fbe-9ec2-afdb3e07246e","resource":{"resourceType":"Procedure","id":"90aa60dc-2b7e-4fbe-9ec2-afdb3e07246e","meta":{"profile":["http://hl7.org/fhir/us/qicore/StructureDefinition/qicore-procedure"]},"extension":[{"url":"http://hl7.org/fhir/us/qicore/StructureDefinition/qicore-recorded","valueDateTime":"2026-04-11T08:10:00.000+00:00"}],"status":"completed","category":{"coding":[{"system":"http://snomed.info/sct","code":"18286008","display":"General or neuraxial anesthesia"}]},"code":{"coding":[{"system":"http://snomed.info/sct","code":"112943005","display":"Epidural injection of anesthetic substance, diagnostic, caudal, continuous"}]},"subject":{"reference":"Patient/223bc449-fc6b-4636-b392-3613761ee5c8"},"performedPeriod":{"start":"2026-04-11T08:00:00.000+00:00","end":"2026-04-11T10:15:00.000+00:00"}},"request":{"method":"PUT","url":"Procedure/90aa60dc-2b7e-4fbe-9ec2-afdb3e07246e"}}]}