{"resourceType":"Bundle","id":"tests-b203d4af-3937-4fb3-a7c0-6014d18f433d-bundle","type":"transaction","entry":[{"fullUrl":"Bundle/tests-b203d4af-3937-4fb3-a7c0-6014d18f433d-bundle","resource":{"resourceType":"Bundle","id":"tests-b203d4af-3937-4fb3-a7c0-6014d18f433d-bundle","type":"transaction","entry":[{"fullUrl":"https://madie.cms.gov/Procedure/dee05ead-b465-477b-91ae-df19bb4faabb","resource":{"resourceType":"Procedure","id":"dee05ead-b465-477b-91ae-df19bb4faabb","meta":{"profile":["http://hl7.org/fhir/us/qicore/StructureDefinition/qicore-procedure"]},"extension":[{"url":"http://hl7.org/fhir/us/qicore/StructureDefinition/qicore-recorded","valueDateTime":"2026-04-11T10:30:00.000+00:00"}],"status":"completed","category":{"coding":[{"system":"http://snomed.info/sct","code":"18286008","display":"General or neuraxial anesthesia"}]},"code":{"coding":[{"system":"http://snomed.info/sct","code":"112943005","display":"Epidural injection of anesthetic substance, diagnostic, caudal, continuous"}]},"subject":{"reference":"Patient/b203d4af-3937-4fb3-a7c0-6014d18f433d"},"performedPeriod":{"start":"2026-04-11T08:00:00.000+00:00","end":"2026-04-11T10:15:00.000+00:00"}},"request":{"method":"PUT","url":"Procedure/dee05ead-b465-477b-91ae-df19bb4faabb"}},{"fullUrl":"https://madie.cms.gov/Procedure/d441c4dd-502c-4815-acd7-d91d231f8584","resource":{"resourceType":"Procedure","id":"d441c4dd-502c-4815-acd7-d91d231f8584","meta":{"profile":["http://hl7.org/fhir/us/qicore/StructureDefinition/qicore-procedure"]},"extension":[{"url":"http://hl7.org/fhir/us/qicore/StructureDefinition/qicore-recorded","valueDateTime":"2026-04-21T12:00:00.000+00:00"}],"status":"completed","code":{"coding":[{"system":"http://snomed.info/sct","code":"271280005","display":"Removal of endotracheal tube (procedure)"}],"text":"Removal of endotracheal tube (procedure)"},"subject":{"reference":"Patient/b203d4af-3937-4fb3-a7c0-6014d18f433d"},"performedPeriod":{"start":"2026-04-21T11:30:00.000+00:00","end":"2026-04-21T11:45:00.000+00:00"}},"request":{"method":"PUT","url":"Procedure/d441c4dd-502c-4815-acd7-d91d231f8584"}},{"fullUrl":"https://madie.cms.gov/Procedure/cdb23dda-b38b-4e70-8567-42b52c18ce1a","resource":{"resourceType":"Procedure","id":"cdb23dda-b38b-4e70-8567-42b52c18ce1a","meta":{"profile":["http://hl7.org/fhir/us/qicore/StructureDefinition/qicore-procedure"]},"extension":[{"url":"http://hl7.org/fhir/us/qicore/StructureDefinition/qicore-recorded","valueDateTime":"2026-04-11T10:10:00.000+00:00"}],"status":"completed","code":{"coding":[{"system":"http://www.cms.gov/Medicare/Coding/ICD10","code":"0BW10FZ","display":"Revision of Tracheostomy Device in Trachea, Open Approach"}],"text":"Revision of Tracheostomy Device in Trachea, Open Approach"},"subject":{"reference":"Patient/b203d4af-3937-4fb3-a7c0-6014d18f433d"},"performedDateTime":"2026-04-11T09:00:00.000+00:00"},"request":{"method":"PUT","url":"Procedure/cdb23dda-b38b-4e70-8567-42b52c18ce1a"}},{"fullUrl":"https://madie.cms.gov/Procedure/caf6bbf8-e2e2-467d-af0b-9cd8f538e37c","resource":{"resourceType":"Procedure","id":"caf6bbf8-e2e2-467d-af0b-9cd8f538e37c","meta":{"profile":["http://hl7.org/fhir/us/qicore/StructureDefinition/qicore-procedure"]},"extension":[{"url":"http://hl7.org/fhir/us/qicore/StructureDefinition/qicore-recorded","valueDateTime":"2026-04-11T10:30:00.000+00:00"}],"status":"completed","category":{"coding":[{"system":"http://snomed.info/sct","code":"18286008","display":"General or neuraxial anesthesia"}]},"code":{"coding":[{"system":"http://snomed.info/sct","code":"112943005","display":"Epidural injection of anesthetic substance, diagnostic, caudal, continuous"}]},"subject":{"reference":"Patient/b203d4af-3937-4fb3-a7c0-6014d18f433d"},"performedPeriod":{"start":"2026-04-19T08:00:00.000+00:00","end":"2026-04-19T11:15:00.000+00:00"}},"request":{"method":"PUT","url":"Procedure/caf6bbf8-e2e2-467d-af0b-9cd8f538e37c"}},{"fullUrl":"https://madie.cms.gov/Patient/b203d4af-3937-4fb3-a7c0-6014d18f433d","resource":{"resourceType":"Patient","id":"b203d4af-3937-4fb3-a7c0-6014d18f433d","meta":{"profile":["http://hl7.org/fhir/us/qicore/StructureDefinition/qicore-patient"]},"extension":[{"url":"http://hl7.org/fhir/us/core/StructureDefinition/us-core-race","extension":[{"url":"ombCategory","valueCoding":{"system":"urn:oid:2.16.840.1.113883.6.238","code":"1002-5","display":"American Indian or Alaska Native","userSelected":true}},{"url":"text","valueString":"American Indian or Alaska Native"}]},{"url":"http://hl7.org/fhir/us/core/StructureDefinition/us-core-ethnicity","extension":[{"url":"ombCategory","valueCoding":{"system":"urn:oid:2.16.840.1.113883.6.238","code":"2186-5","display":"Not Hispanic or Latino","userSelected":true}},{"url":"text","valueString":"Not Hispanic or Latino"}]}],"identifier":[{"type":{"coding":[{"system":"http://terminology.hl7.org/CodeSystem/v2-0203","code":"MR"}]},"system":"https://bonnie-fhir.healthit.gov/","value":"61152a3b98086b7a79cbd7c1"}],"active":true,"name":[{"use":"usual","family":"DENEXFail","given":["2Enc1stDenex2ndNumer"]}],"gender":"male","birthDate":"1966-07-12"},"request":{"method":"PUT","url":"Patient/b203d4af-3937-4fb3-a7c0-6014d18f433d"}},{"fullUrl":"https://madie.cms.gov/Encounter/e1f7a4b4-7b10-4f33-8819-0f315cb2d04e","resource":{"resourceType":"Encounter","id":"e1f7a4b4-7b10-4f33-8819-0f315cb2d04e","meta":{"profile":["http://hl7.org/fhir/us/qicore/StructureDefinition/qicore-encounter"]},"status":"finished","class":{"system":"http://terminology.hl7.org/CodeSystem/v3-ActCode","code":"IMP","display":"inpatient encounter"},"type":[{"coding":[{"system":"http://snomed.info/sct","code":"112689000","display":"Hospital admission, elective, with complete pre-admission work-up"}],"text":"Hospital admission, elective, with complete pre-admission work-up"}],"priority":{"coding":[{"system":"http://snomed.info/sct","code":"103390000"}]},"subject":{"reference":"Patient/b203d4af-3937-4fb3-a7c0-6014d18f433d"},"period":{"start":"2026-04-10T08:00:00.000+00:00","end":"2026-04-14T08:15:00.000+00:00"},"diagnosis":[{"condition":{"reference":"Procedure/dee05ead-b465-477b-91ae-df19bb4faabb"},"rank":1}]},"request":{"method":"PUT","url":"Encounter/e1f7a4b4-7b10-4f33-8819-0f315cb2d04e"}},{"fullUrl":"https://madie.cms.gov/Encounter/b2b6ecaf-92af-4bda-b83a-e8ca10fdf252","resource":{"resourceType":"Encounter","id":"b2b6ecaf-92af-4bda-b83a-e8ca10fdf252","meta":{"profile":["http://hl7.org/fhir/us/qicore/StructureDefinition/qicore-encounter"]},"status":"finished","class":{"system":"http://terminology.hl7.org/CodeSystem/v3-ActCode","code":"IMP","display":"inpatient encounter"},"type":[{"coding":[{"system":"http://snomed.info/sct","code":"112689000","display":"Hospital admission, elective, with complete pre-admission work-up"}],"text":"Hospital admission, elective, with complete pre-admission work-up"}],"priority":{"coding":[{"system":"http://snomed.info/sct","code":"103390000"}]},"subject":{"reference":"Patient/b203d4af-3937-4fb3-a7c0-6014d18f433d"},"period":{"start":"2026-04-18T08:00:00.000+00:00","end":"2026-04-23T08:15:00.000+00:00"},"diagnosis":[{"condition":{"reference":"Procedure/a7fea444-5119-4b7b-b1de-03f336fe567e"},"rank":1}]},"request":{"method":"PUT","url":"Encounter/b2b6ecaf-92af-4bda-b83a-e8ca10fdf252"}},{"fullUrl":"https://madie.cms.gov/MeasureReport/26d8377b-0bac-43a9-925a-81317ca7f732","resource":{"resourceType":"MeasureReport","id":"26d8377b-0bac-43a9-925a-81317ca7f732","meta":{"profile":["http://hl7.org/fhir/us/cqfmeasures/StructureDefinition/test-case-cqfm"]},"contained":[{"resourceType":"Parameters","id":"b39b7ca6-af7a-4b69-b7a3-f7c48b45e806-parameters","parameter":[{"name":"subject","valueString":"b203d4af-3937-4fb3-a7c0-6014d18f433d"}]}],"extension":[{"url":"http://hl7.org/fhir/StructureDefinition/cqf-inputParameters","valueReference":{"reference":"#b39b7ca6-af7a-4b69-b7a3-f7c48b45e806-parameters"}},{"url":"http://hl7.org/fhir/us/cqfmeasures/StructureDefinition/cqfm-testCaseDescription","valueMarkdown":"Enc 1: Elective hosp with trach proc during anesthesia period. No other proc occurs. Meets exclusion.\nEnc 2: Intubated during first proc, extubated >48 hrs after end of first proc. Meets Num 3.  Denex from 1st enc does not impact 2nd encounter.\n"}],"modifierExtension":[{"url":"http://hl7.org/fhir/us/cqfmeasures/StructureDefinition/cqfm-isTestCase","valueBoolean":true}],"status":"complete","type":"individual","measure":"https://madie.cms.gov/Measure/CMS1218FHIRHHRF","period":{"start":"2026-01-01","end":"2026-12-31"},"group":[{"id":"Group_1","population":[{"id":"InitialPopulation_1","code":{"coding":[{"system":"http://terminology.hl7.org/CodeSystem/measure-population","code":"initial-population","display":"Initial Population"}]},"count":2},{"id":"Denominator_1","code":{"coding":[{"system":"http://terminology.hl7.org/CodeSystem/measure-population","code":"denominator","display":"Denominator"}]},"count":2},{"id":"DenominatorExclusion_1","code":{"coding":[{"system":"http://terminology.hl7.org/CodeSystem/measure-population","code":"denominator-exclusion","display":"Denominator Exclusion"}]},"count":1},{"id":"Numerator_1","code":{"coding":[{"system":"http://terminology.hl7.org/CodeSystem/measure-population","code":"numerator","display":"Numerator"}]},"count":1}],"measureScore":{"value":0.0}}],"evaluatedResource":[{"reference":"Procedure/dee05ead-b465-477b-91ae-df19bb4faabb"},{"reference":"Procedure/d441c4dd-502c-4815-acd7-d91d231f8584"},{"reference":"Procedure/cdb23dda-b38b-4e70-8567-42b52c18ce1a"},{"reference":"Procedure/caf6bbf8-e2e2-467d-af0b-9cd8f538e37c"},{"reference":"Patient/b203d4af-3937-4fb3-a7c0-6014d18f433d"},{"reference":"Encounter/e1f7a4b4-7b10-4f33-8819-0f315cb2d04e"},{"reference":"Encounter/b2b6ecaf-92af-4bda-b83a-e8ca10fdf252"}]},"request":{"method":"PUT","url":"MeasureReport/26d8377b-0bac-43a9-925a-81317ca7f732"}}]},"request":{"method":"PUT","url":"Bundle/tests-b203d4af-3937-4fb3-a7c0-6014d18f433d-bundle"}},{"fullUrl":"Procedure/dee05ead-b465-477b-91ae-df19bb4faabb","resource":{"resourceType":"Procedure","id":"dee05ead-b465-477b-91ae-df19bb4faabb","meta":{"profile":["http://hl7.org/fhir/us/qicore/StructureDefinition/qicore-procedure"]},"extension":[{"url":"http://hl7.org/fhir/us/qicore/StructureDefinition/qicore-recorded","valueDateTime":"2026-04-11T10:30:00.000+00:00"}],"status":"completed","category":{"coding":[{"system":"http://snomed.info/sct","code":"18286008","display":"General or neuraxial anesthesia"}]},"code":{"coding":[{"system":"http://snomed.info/sct","code":"112943005","display":"Epidural injection of anesthetic substance, diagnostic, caudal, continuous"}]},"subject":{"reference":"Patient/b203d4af-3937-4fb3-a7c0-6014d18f433d"},"performedPeriod":{"start":"2026-04-11T08:00:00.000+00:00","end":"2026-04-11T10:15:00.000+00:00"}},"request":{"method":"PUT","url":"Procedure/dee05ead-b465-477b-91ae-df19bb4faabb"}},{"fullUrl":"Procedure/d441c4dd-502c-4815-acd7-d91d231f8584","resource":{"resourceType":"Procedure","id":"d441c4dd-502c-4815-acd7-d91d231f8584","meta":{"profile":["http://hl7.org/fhir/us/qicore/StructureDefinition/qicore-procedure"]},"extension":[{"url":"http://hl7.org/fhir/us/qicore/StructureDefinition/qicore-recorded","valueDateTime":"2026-04-21T12:00:00.000+00:00"}],"status":"completed","code":{"coding":[{"system":"http://snomed.info/sct","code":"271280005","display":"Removal of endotracheal tube (procedure)"}],"text":"Removal of endotracheal tube (procedure)"},"subject":{"reference":"Patient/b203d4af-3937-4fb3-a7c0-6014d18f433d"},"performedPeriod":{"start":"2026-04-21T11:30:00.000+00:00","end":"2026-04-21T11:45:00.000+00:00"}},"request":{"method":"PUT","url":"Procedure/d441c4dd-502c-4815-acd7-d91d231f8584"}},{"fullUrl":"Procedure/caf6bbf8-e2e2-467d-af0b-9cd8f538e37c","resource":{"resourceType":"Procedure","id":"caf6bbf8-e2e2-467d-af0b-9cd8f538e37c","meta":{"profile":["http://hl7.org/fhir/us/qicore/StructureDefinition/qicore-procedure"]},"extension":[{"url":"http://hl7.org/fhir/us/qicore/StructureDefinition/qicore-recorded","valueDateTime":"2026-04-11T10:30:00.000+00:00"}],"status":"completed","category":{"coding":[{"system":"http://snomed.info/sct","code":"18286008","display":"General or neuraxial anesthesia"}]},"code":{"coding":[{"system":"http://snomed.info/sct","code":"112943005","display":"Epidural injection of anesthetic substance, diagnostic, caudal, continuous"}]},"subject":{"reference":"Patient/b203d4af-3937-4fb3-a7c0-6014d18f433d"},"performedPeriod":{"start":"2026-04-19T08:00:00.000+00:00","end":"2026-04-19T11:15:00.000+00:00"}},"request":{"method":"PUT","url":"Procedure/caf6bbf8-e2e2-467d-af0b-9cd8f538e37c"}},{"fullUrl":"MeasureReport/26d8377b-0bac-43a9-925a-81317ca7f732","resource":{"resourceType":"MeasureReport","id":"26d8377b-0bac-43a9-925a-81317ca7f732","meta":{"profile":["http://hl7.org/fhir/us/cqfmeasures/StructureDefinition/test-case-cqfm"]},"contained":[{"resourceType":"Parameters","id":"b39b7ca6-af7a-4b69-b7a3-f7c48b45e806-parameters","parameter":[{"name":"subject","valueString":"b203d4af-3937-4fb3-a7c0-6014d18f433d"}]}],"extension":[{"url":"http://hl7.org/fhir/StructureDefinition/cqf-inputParameters","valueReference":{"reference":"#b39b7ca6-af7a-4b69-b7a3-f7c48b45e806-parameters"}},{"url":"http://hl7.org/fhir/us/cqfmeasures/StructureDefinition/cqfm-testCaseDescription","valueMarkdown":"Enc 1: Elective hosp with trach proc during anesthesia period. No other proc occurs. Meets exclusion.\nEnc 2: Intubated during first proc, extubated >48 hrs after end of first proc. Meets Num 3.  Denex from 1st enc does not impact 2nd encounter.\n"}],"modifierExtension":[{"url":"http://hl7.org/fhir/us/cqfmeasures/StructureDefinition/cqfm-isTestCase","valueBoolean":true}],"status":"complete","type":"individual","measure":"https://madie.cms.gov/Measure/CMS1218FHIRHHRF","period":{"start":"2026-01-01","end":"2026-12-31"},"group":[{"id":"Group_1","population":[{"id":"InitialPopulation_1","code":{"coding":[{"system":"http://terminology.hl7.org/CodeSystem/measure-population","code":"initial-population","display":"Initial Population"}]},"count":2},{"id":"Denominator_1","code":{"coding":[{"system":"http://terminology.hl7.org/CodeSystem/measure-population","code":"denominator","display":"Denominator"}]},"count":2},{"id":"DenominatorExclusion_1","code":{"coding":[{"system":"http://terminology.hl7.org/CodeSystem/measure-population","code":"denominator-exclusion","display":"Denominator Exclusion"}]},"count":1},{"id":"Numerator_1","code":{"coding":[{"system":"http://terminology.hl7.org/CodeSystem/measure-population","code":"numerator","display":"Numerator"}]},"count":1}],"measureScore":{"value":0.0}}],"evaluatedResource":[{"reference":"Procedure/dee05ead-b465-477b-91ae-df19bb4faabb"},{"reference":"Procedure/d441c4dd-502c-4815-acd7-d91d231f8584"},{"reference":"Procedure/cdb23dda-b38b-4e70-8567-42b52c18ce1a"},{"reference":"Procedure/caf6bbf8-e2e2-467d-af0b-9cd8f538e37c"},{"reference":"Patient/b203d4af-3937-4fb3-a7c0-6014d18f433d"},{"reference":"Encounter/e1f7a4b4-7b10-4f33-8819-0f315cb2d04e"},{"reference":"Encounter/b2b6ecaf-92af-4bda-b83a-e8ca10fdf252"}]},"request":{"method":"PUT","url":"MeasureReport/26d8377b-0bac-43a9-925a-81317ca7f732"}},{"fullUrl":"Procedure/cdb23dda-b38b-4e70-8567-42b52c18ce1a","resource":{"resourceType":"Procedure","id":"cdb23dda-b38b-4e70-8567-42b52c18ce1a","meta":{"profile":["http://hl7.org/fhir/us/qicore/StructureDefinition/qicore-procedure"]},"extension":[{"url":"http://hl7.org/fhir/us/qicore/StructureDefinition/qicore-recorded","valueDateTime":"2026-04-11T10:10:00.000+00:00"}],"status":"completed","code":{"coding":[{"system":"http://www.cms.gov/Medicare/Coding/ICD10","code":"0BW10FZ","display":"Revision of Tracheostomy Device in Trachea, Open Approach"}],"text":"Revision of Tracheostomy Device in Trachea, Open Approach"},"subject":{"reference":"Patient/b203d4af-3937-4fb3-a7c0-6014d18f433d"},"performedDateTime":"2026-04-11T09:00:00.000+00:00"},"request":{"method":"PUT","url":"Procedure/cdb23dda-b38b-4e70-8567-42b52c18ce1a"}},{"fullUrl":"Patient/b203d4af-3937-4fb3-a7c0-6014d18f433d","resource":{"resourceType":"Patient","id":"b203d4af-3937-4fb3-a7c0-6014d18f433d","meta":{"profile":["http://hl7.org/fhir/us/qicore/StructureDefinition/qicore-patient"]},"extension":[{"url":"http://hl7.org/fhir/us/core/StructureDefinition/us-core-race","extension":[{"url":"ombCategory","valueCoding":{"system":"urn:oid:2.16.840.1.113883.6.238","code":"1002-5","display":"American Indian or Alaska Native","userSelected":true}},{"url":"text","valueString":"American Indian or Alaska Native"}]},{"url":"http://hl7.org/fhir/us/core/StructureDefinition/us-core-ethnicity","extension":[{"url":"ombCategory","valueCoding":{"system":"urn:oid:2.16.840.1.113883.6.238","code":"2186-5","display":"Not Hispanic or Latino","userSelected":true}},{"url":"text","valueString":"Not Hispanic or Latino"}]}],"identifier":[{"type":{"coding":[{"system":"http://terminology.hl7.org/CodeSystem/v2-0203","code":"MR"}]},"system":"https://bonnie-fhir.healthit.gov/","value":"61152a3b98086b7a79cbd7c1"}],"active":true,"name":[{"use":"usual","family":"DENEXFail","given":["2Enc1stDenex2ndNumer"]}],"gender":"male","birthDate":"1966-07-12"},"request":{"method":"PUT","url":"Patient/b203d4af-3937-4fb3-a7c0-6014d18f433d"}},{"fullUrl":"Encounter/e1f7a4b4-7b10-4f33-8819-0f315cb2d04e","resource":{"resourceType":"Encounter","id":"e1f7a4b4-7b10-4f33-8819-0f315cb2d04e","meta":{"profile":["http://hl7.org/fhir/us/qicore/StructureDefinition/qicore-encounter"]},"status":"finished","class":{"system":"http://terminology.hl7.org/CodeSystem/v3-ActCode","code":"IMP","display":"inpatient encounter"},"type":[{"coding":[{"system":"http://snomed.info/sct","code":"112689000","display":"Hospital admission, elective, with complete pre-admission work-up"}],"text":"Hospital admission, elective, with complete pre-admission work-up"}],"priority":{"coding":[{"system":"http://snomed.info/sct","code":"103390000"}]},"subject":{"reference":"Patient/b203d4af-3937-4fb3-a7c0-6014d18f433d"},"period":{"start":"2026-04-10T08:00:00.000+00:00","end":"2026-04-14T08:15:00.000+00:00"},"diagnosis":[{"condition":{"reference":"Procedure/dee05ead-b465-477b-91ae-df19bb4faabb"},"rank":1}]},"request":{"method":"PUT","url":"Encounter/e1f7a4b4-7b10-4f33-8819-0f315cb2d04e"}},{"fullUrl":"Encounter/b2b6ecaf-92af-4bda-b83a-e8ca10fdf252","resource":{"resourceType":"Encounter","id":"b2b6ecaf-92af-4bda-b83a-e8ca10fdf252","meta":{"profile":["http://hl7.org/fhir/us/qicore/StructureDefinition/qicore-encounter"]},"status":"finished","class":{"system":"http://terminology.hl7.org/CodeSystem/v3-ActCode","code":"IMP","display":"inpatient encounter"},"type":[{"coding":[{"system":"http://snomed.info/sct","code":"112689000","display":"Hospital admission, elective, with complete pre-admission work-up"}],"text":"Hospital admission, elective, with complete pre-admission work-up"}],"priority":{"coding":[{"system":"http://snomed.info/sct","code":"103390000"}]},"subject":{"reference":"Patient/b203d4af-3937-4fb3-a7c0-6014d18f433d"},"period":{"start":"2026-04-18T08:00:00.000+00:00","end":"2026-04-23T08:15:00.000+00:00"},"diagnosis":[{"condition":{"reference":"Procedure/a7fea444-5119-4b7b-b1de-03f336fe567e"},"rank":1}]},"request":{"method":"PUT","url":"Encounter/b2b6ecaf-92af-4bda-b83a-e8ca10fdf252"}}]}