{"resourceType":"Bundle","id":"tests-055e466e-dd71-4a1f-b3d4-bc54ecf95721-bundle","type":"transaction","entry":[{"fullUrl":"Encounter/32b0a899-0d1c-4cfb-a56b-637f24561fdf","resource":{"resourceType":"Encounter","id":"32b0a899-0d1c-4cfb-a56b-637f24561fdf","meta":{"profile":["http://hl7.org/fhir/us/qicore/StructureDefinition/qicore-encounter"]},"status":"finished","class":{"system":"http://terminology.hl7.org/CodeSystem/v3-ActCode","code":"IMP","display":"inpatient encounter"},"type":[{"coding":[{"system":"http://snomed.info/sct","code":"112689000"}]}],"priority":{"coding":[{"system":"http://snomed.info/sct","version":"2023-09","code":"15584006","display":"Hospital admission, elective, with partial pre-admission work-up (procedure)"}]},"subject":{"reference":"Patient/055e466e-dd71-4a1f-b3d4-bc54ecf95721"},"period":{"start":"2026-04-10T08:00:00.000+00:00","end":"2026-04-14T10:15:00.000+00:00"}},"request":{"method":"PUT","url":"Encounter/32b0a899-0d1c-4cfb-a56b-637f24561fdf"}},{"fullUrl":"MeasureReport/45b61389-cb17-49b5-bb87-1ac9f3b1f918","resource":{"resourceType":"MeasureReport","id":"45b61389-cb17-49b5-bb87-1ac9f3b1f918","meta":{"profile":["http://hl7.org/fhir/us/cqfmeasures/StructureDefinition/test-case-cqfm"]},"contained":[{"resourceType":"Parameters","id":"9f61e072-b73d-425f-ad67-1d3e54458390-parameters","parameter":[{"name":"subject","valueString":"055e466e-dd71-4a1f-b3d4-bc54ecf95721"}]}],"extension":[{"url":"http://hl7.org/fhir/StructureDefinition/cqf-inputParameters","valueReference":{"reference":"#9f61e072-b73d-425f-ad67-1d3e54458390-parameters"}},{"url":"http://hl7.org/fhir/us/cqfmeasures/StructureDefinition/cqfm-testCaseDescription","valueMarkdown":"Non-elective IP (no class of 'elective') within first 3 days of encounter. But has ED visit ends same time as start of IP visit so Fails IPP. "}],"modifierExtension":[{"url":"http://hl7.org/fhir/us/cqfmeasures/StructureDefinition/cqfm-isTestCase","valueBoolean":true}],"status":"complete","type":"individual","measure":"https://madie.cms.gov/Measure/CMS1218FHIRHHRF","period":{"start":"2026-01-01","end":"2026-12-31"},"group":[{"id":"Group_1","population":[{"id":"InitialPopulation_1","code":{"coding":[{"system":"http://terminology.hl7.org/CodeSystem/measure-population","code":"initial-population","display":"Initial Population"}]},"count":0},{"id":"Denominator_1","code":{"coding":[{"system":"http://terminology.hl7.org/CodeSystem/measure-population","code":"denominator","display":"Denominator"}]},"count":0},{"id":"DenominatorExclusion_1","code":{"coding":[{"system":"http://terminology.hl7.org/CodeSystem/measure-population","code":"denominator-exclusion","display":"Denominator Exclusion"}]},"count":0},{"id":"Numerator_1","code":{"coding":[{"system":"http://terminology.hl7.org/CodeSystem/measure-population","code":"numerator","display":"Numerator"}]},"count":0}],"measureScore":{"value":0.0}}],"evaluatedResource":[{"reference":"Encounter/adad064f-edcd-4245-884a-bc2e07f1fdb8"},{"reference":"Procedure/20ca479b-c706-4367-902b-ef93d54be8bd"},{"reference":"Encounter/32b0a899-0d1c-4cfb-a56b-637f24561fdf"},{"reference":"Patient/055e466e-dd71-4a1f-b3d4-bc54ecf95721"}]},"request":{"method":"PUT","url":"MeasureReport/45b61389-cb17-49b5-bb87-1ac9f3b1f918"}},{"fullUrl":"Encounter/adad064f-edcd-4245-884a-bc2e07f1fdb8","resource":{"resourceType":"Encounter","id":"adad064f-edcd-4245-884a-bc2e07f1fdb8","meta":{"profile":["http://hl7.org/fhir/us/qicore/StructureDefinition/qicore-encounter"]},"status":"finished","class":{"system":"http://terminology.hl7.org/CodeSystem/v3-ActCode","code":"EMER","display":"emergency"},"type":[{"coding":[{"system":"http://snomed.info/sct","code":"4525004"}]}],"subject":{"reference":"Patient/055e466e-dd71-4a1f-b3d4-bc54ecf95721"},"period":{"start":"2026-04-09T08:00:00.000+00:00","end":"2026-04-10T08:00:00.000+00:00"}},"request":{"method":"PUT","url":"Encounter/adad064f-edcd-4245-884a-bc2e07f1fdb8"}},{"fullUrl":"Procedure/20ca479b-c706-4367-902b-ef93d54be8bd","resource":{"resourceType":"Procedure","id":"20ca479b-c706-4367-902b-ef93d54be8bd","meta":{"profile":["http://hl7.org/fhir/us/qicore/StructureDefinition/qicore-procedure"]},"extension":[{"url":"http://hl7.org/fhir/us/qicore/StructureDefinition/qicore-recorded","valueDateTime":"2026-04-11T10:30:00.000+00:00"}],"status":"completed","category":{"coding":[{"system":"http://snomed.info/sct","code":"18286008","display":"General or neuraxial anesthesia"}]},"code":{"coding":[{"system":"http://snomed.info/sct","code":"112943005","display":"Epidural injection of anesthetic substance, diagnostic, caudal, continuous"}]},"subject":{"reference":"Patient/055e466e-dd71-4a1f-b3d4-bc54ecf95721"},"performedPeriod":{"start":"2026-04-11T08:00:00.000+00:00","end":"2026-04-11T10:15:00.000+00:00"}},"request":{"method":"PUT","url":"Procedure/20ca479b-c706-4367-902b-ef93d54be8bd"}},{"fullUrl":"Bundle/tests-055e466e-dd71-4a1f-b3d4-bc54ecf95721-bundle","resource":{"resourceType":"Bundle","id":"tests-055e466e-dd71-4a1f-b3d4-bc54ecf95721-bundle","type":"transaction","entry":[{"fullUrl":"https://madie.cms.gov/Encounter/adad064f-edcd-4245-884a-bc2e07f1fdb8","resource":{"resourceType":"Encounter","id":"adad064f-edcd-4245-884a-bc2e07f1fdb8","meta":{"profile":["http://hl7.org/fhir/us/qicore/StructureDefinition/qicore-encounter"]},"status":"finished","class":{"system":"http://terminology.hl7.org/CodeSystem/v3-ActCode","code":"EMER","display":"emergency"},"type":[{"coding":[{"system":"http://snomed.info/sct","code":"4525004"}]}],"subject":{"reference":"Patient/055e466e-dd71-4a1f-b3d4-bc54ecf95721"},"period":{"start":"2026-04-09T08:00:00.000+00:00","end":"2026-04-10T08:00:00.000+00:00"}},"request":{"method":"PUT","url":"Encounter/adad064f-edcd-4245-884a-bc2e07f1fdb8"}},{"fullUrl":"https://madie.cms.gov/Procedure/20ca479b-c706-4367-902b-ef93d54be8bd","resource":{"resourceType":"Procedure","id":"20ca479b-c706-4367-902b-ef93d54be8bd","meta":{"profile":["http://hl7.org/fhir/us/qicore/StructureDefinition/qicore-procedure"]},"extension":[{"url":"http://hl7.org/fhir/us/qicore/StructureDefinition/qicore-recorded","valueDateTime":"2026-04-11T10:30:00.000+00:00"}],"status":"completed","category":{"coding":[{"system":"http://snomed.info/sct","code":"18286008","display":"General or neuraxial anesthesia"}]},"code":{"coding":[{"system":"http://snomed.info/sct","code":"112943005","display":"Epidural injection of anesthetic substance, diagnostic, caudal, continuous"}]},"subject":{"reference":"Patient/055e466e-dd71-4a1f-b3d4-bc54ecf95721"},"performedPeriod":{"start":"2026-04-11T08:00:00.000+00:00","end":"2026-04-11T10:15:00.000+00:00"}},"request":{"method":"PUT","url":"Procedure/20ca479b-c706-4367-902b-ef93d54be8bd"}},{"fullUrl":"https://madie.cms.gov/Encounter/32b0a899-0d1c-4cfb-a56b-637f24561fdf","resource":{"resourceType":"Encounter","id":"32b0a899-0d1c-4cfb-a56b-637f24561fdf","meta":{"profile":["http://hl7.org/fhir/us/qicore/StructureDefinition/qicore-encounter"]},"status":"finished","class":{"system":"http://terminology.hl7.org/CodeSystem/v3-ActCode","code":"IMP","display":"inpatient encounter"},"type":[{"coding":[{"system":"http://snomed.info/sct","code":"112689000"}]}],"priority":{"coding":[{"system":"http://snomed.info/sct","version":"2023-09","code":"15584006","display":"Hospital admission, elective, with partial pre-admission work-up (procedure)"}]},"subject":{"reference":"Patient/055e466e-dd71-4a1f-b3d4-bc54ecf95721"},"period":{"start":"2026-04-10T08:00:00.000+00:00","end":"2026-04-14T10:15:00.000+00:00"}},"request":{"method":"PUT","url":"Encounter/32b0a899-0d1c-4cfb-a56b-637f24561fdf"}},{"fullUrl":"https://madie.cms.gov/Patient/055e466e-dd71-4a1f-b3d4-bc54ecf95721","resource":{"resourceType":"Patient","id":"055e466e-dd71-4a1f-b3d4-bc54ecf95721","meta":{"profile":["http://hl7.org/fhir/us/qicore/StructureDefinition/qicore-patient"]},"extension":[{"url":"http://hl7.org/fhir/us/core/StructureDefinition/us-core-race","extension":[{"url":"ombCategory","valueCoding":{"system":"urn:oid:2.16.840.1.113883.6.238","code":"2028-9","display":"Asian","userSelected":true}},{"url":"text","valueString":"Asian"}]},{"url":"http://hl7.org/fhir/us/core/StructureDefinition/us-core-ethnicity","extension":[{"url":"ombCategory","valueCoding":{"system":"urn:oid:2.16.840.1.113883.6.238","code":"2186-5","display":"Not Hispanic or Latino","userSelected":true}},{"url":"text","valueString":"Not Hispanic or Latino"}]}],"identifier":[{"type":{"coding":[{"system":"http://terminology.hl7.org/CodeSystem/v2-0203","code":"MR"}]},"system":"https://bonnie-fhir.healthit.gov/","value":"61152a3b98086b7a79cbd7c1"}],"active":true,"name":[{"use":"usual","family":"IPPFail","given":["NonElecEncWithEDVisitEndDTSameAsIPStartDT"]}],"gender":"female","birthDate":"1966-04-09"},"request":{"method":"PUT","url":"Patient/055e466e-dd71-4a1f-b3d4-bc54ecf95721"}},{"fullUrl":"https://madie.cms.gov/MeasureReport/45b61389-cb17-49b5-bb87-1ac9f3b1f918","resource":{"resourceType":"MeasureReport","id":"45b61389-cb17-49b5-bb87-1ac9f3b1f918","meta":{"profile":["http://hl7.org/fhir/us/cqfmeasures/StructureDefinition/test-case-cqfm"]},"contained":[{"resourceType":"Parameters","id":"9f61e072-b73d-425f-ad67-1d3e54458390-parameters","parameter":[{"name":"subject","valueString":"055e466e-dd71-4a1f-b3d4-bc54ecf95721"}]}],"extension":[{"url":"http://hl7.org/fhir/StructureDefinition/cqf-inputParameters","valueReference":{"reference":"#9f61e072-b73d-425f-ad67-1d3e54458390-parameters"}},{"url":"http://hl7.org/fhir/us/cqfmeasures/StructureDefinition/cqfm-testCaseDescription","valueMarkdown":"Non-elective IP (no class of 'elective') within first 3 days of encounter. But has ED visit ends same time as start of IP visit so Fails IPP. "}],"modifierExtension":[{"url":"http://hl7.org/fhir/us/cqfmeasures/StructureDefinition/cqfm-isTestCase","valueBoolean":true}],"status":"complete","type":"individual","measure":"https://madie.cms.gov/Measure/CMS1218FHIRHHRF","period":{"start":"2026-01-01","end":"2026-12-31"},"group":[{"id":"Group_1","population":[{"id":"InitialPopulation_1","code":{"coding":[{"system":"http://terminology.hl7.org/CodeSystem/measure-population","code":"initial-population","display":"Initial Population"}]},"count":0},{"id":"Denominator_1","code":{"coding":[{"system":"http://terminology.hl7.org/CodeSystem/measure-population","code":"denominator","display":"Denominator"}]},"count":0},{"id":"DenominatorExclusion_1","code":{"coding":[{"system":"http://terminology.hl7.org/CodeSystem/measure-population","code":"denominator-exclusion","display":"Denominator Exclusion"}]},"count":0},{"id":"Numerator_1","code":{"coding":[{"system":"http://terminology.hl7.org/CodeSystem/measure-population","code":"numerator","display":"Numerator"}]},"count":0}],"measureScore":{"value":0.0}}],"evaluatedResource":[{"reference":"Encounter/adad064f-edcd-4245-884a-bc2e07f1fdb8"},{"reference":"Procedure/20ca479b-c706-4367-902b-ef93d54be8bd"},{"reference":"Encounter/32b0a899-0d1c-4cfb-a56b-637f24561fdf"},{"reference":"Patient/055e466e-dd71-4a1f-b3d4-bc54ecf95721"}]},"request":{"method":"PUT","url":"MeasureReport/45b61389-cb17-49b5-bb87-1ac9f3b1f918"}}]},"request":{"method":"PUT","url":"Bundle/tests-055e466e-dd71-4a1f-b3d4-bc54ecf95721-bundle"}},{"fullUrl":"Patient/055e466e-dd71-4a1f-b3d4-bc54ecf95721","resource":{"resourceType":"Patient","id":"055e466e-dd71-4a1f-b3d4-bc54ecf95721","meta":{"profile":["http://hl7.org/fhir/us/qicore/StructureDefinition/qicore-patient"]},"extension":[{"url":"http://hl7.org/fhir/us/core/StructureDefinition/us-core-race","extension":[{"url":"ombCategory","valueCoding":{"system":"urn:oid:2.16.840.1.113883.6.238","code":"2028-9","display":"Asian","userSelected":true}},{"url":"text","valueString":"Asian"}]},{"url":"http://hl7.org/fhir/us/core/StructureDefinition/us-core-ethnicity","extension":[{"url":"ombCategory","valueCoding":{"system":"urn:oid:2.16.840.1.113883.6.238","code":"2186-5","display":"Not Hispanic or Latino","userSelected":true}},{"url":"text","valueString":"Not Hispanic or Latino"}]}],"identifier":[{"type":{"coding":[{"system":"http://terminology.hl7.org/CodeSystem/v2-0203","code":"MR"}]},"system":"https://bonnie-fhir.healthit.gov/","value":"61152a3b98086b7a79cbd7c1"}],"active":true,"name":[{"use":"usual","family":"IPPFail","given":["NonElecEncWithEDVisitEndDTSameAsIPStartDT"]}],"gender":"female","birthDate":"1966-04-09"},"request":{"method":"PUT","url":"Patient/055e466e-dd71-4a1f-b3d4-bc54ecf95721"}}]}