{"resourceType":"Bundle","id":"tests-80b68f78-88e0-4fc7-b622-f82bc133ddc9-bundle","type":"transaction","entry":[{"fullUrl":"Patient/80b68f78-88e0-4fc7-b622-f82bc133ddc9","resource":{"resourceType":"Patient","id":"80b68f78-88e0-4fc7-b622-f82bc133ddc9","meta":{"profile":["http://hl7.org/fhir/us/qicore/StructureDefinition/qicore-patient"]},"extension":[{"url":"http://hl7.org/fhir/us/core/StructureDefinition/us-core-race","extension":[{"url":"ombCategory","valueCoding":{"system":"urn:oid:2.16.840.1.113883.6.238","code":"2054-5","display":"Black or African American","userSelected":true}},{"url":"text","valueString":"Black or African American"}]},{"url":"http://hl7.org/fhir/us/core/StructureDefinition/us-core-ethnicity","extension":[{"url":"ombCategory","valueCoding":{"system":"urn:oid:2.16.840.1.113883.6.238","code":"2186-5","display":"Not Hispanic or Latino","userSelected":true}},{"url":"text","valueString":"Not Hispanic or Latino"}]}],"identifier":[{"type":{"coding":[{"system":"http://terminology.hl7.org/CodeSystem/v2-0203","code":"MR"}]},"system":"https://bonnie-fhir.healthit.gov/","value":"61152a3b98086b7a79cbd7c1"}],"active":true,"name":[{"use":"usual","family":"DENOMPass","given":["IPElectiveEncWithProcedure"]}],"gender":"female","birthDate":"1966-07-12"},"request":{"method":"PUT","url":"Patient/80b68f78-88e0-4fc7-b622-f82bc133ddc9"}},{"fullUrl":"Encounter/8e49375b-bf86-4593-8d1f-5d0fac2f551d","resource":{"resourceType":"Encounter","id":"8e49375b-bf86-4593-8d1f-5d0fac2f551d","meta":{"profile":["http://hl7.org/fhir/us/qicore/StructureDefinition/qicore-encounter"]},"status":"finished","class":{"system":"http://terminology.hl7.org/CodeSystem/v3-ActCode","code":"IMP","display":"inpatient encounter"},"type":[{"coding":[{"system":"http://snomed.info/sct","code":"112689000","display":"Hospital admission, elective, with complete pre-admission work-up"}],"text":"Hospital admission, elective, with complete pre-admission work-up"}],"priority":{"coding":[{"system":"http://snomed.info/sct","code":"103390000"}]},"subject":{"reference":"Patient/80b68f78-88e0-4fc7-b622-f82bc133ddc9"},"period":{"start":"2026-04-10T08:00:00.000+00:00","end":"2026-04-14T08:15:00.000+00:00"},"diagnosis":[{"condition":{"reference":"Procedure/9c8340f5-32d2-4d82-9b17-826cb812678a"},"rank":1}]},"request":{"method":"PUT","url":"Encounter/8e49375b-bf86-4593-8d1f-5d0fac2f551d"}},{"fullUrl":"Bundle/tests-80b68f78-88e0-4fc7-b622-f82bc133ddc9-bundle","resource":{"resourceType":"Bundle","id":"tests-80b68f78-88e0-4fc7-b622-f82bc133ddc9-bundle","type":"transaction","entry":[{"fullUrl":"https://madie.cms.gov/Encounter/8e49375b-bf86-4593-8d1f-5d0fac2f551d","resource":{"resourceType":"Encounter","id":"8e49375b-bf86-4593-8d1f-5d0fac2f551d","meta":{"profile":["http://hl7.org/fhir/us/qicore/StructureDefinition/qicore-encounter"]},"status":"finished","class":{"system":"http://terminology.hl7.org/CodeSystem/v3-ActCode","code":"IMP","display":"inpatient encounter"},"type":[{"coding":[{"system":"http://snomed.info/sct","code":"112689000","display":"Hospital admission, elective, with complete pre-admission work-up"}],"text":"Hospital admission, elective, with complete pre-admission work-up"}],"priority":{"coding":[{"system":"http://snomed.info/sct","code":"103390000"}]},"subject":{"reference":"Patient/80b68f78-88e0-4fc7-b622-f82bc133ddc9"},"period":{"start":"2026-04-10T08:00:00.000+00:00","end":"2026-04-14T08:15:00.000+00:00"},"diagnosis":[{"condition":{"reference":"Procedure/9c8340f5-32d2-4d82-9b17-826cb812678a"},"rank":1}]},"request":{"method":"PUT","url":"Encounter/8e49375b-bf86-4593-8d1f-5d0fac2f551d"}},{"fullUrl":"https://madie.cms.gov/Procedure/9c8340f5-32d2-4d82-9b17-826cb812678a","resource":{"resourceType":"Procedure","id":"9c8340f5-32d2-4d82-9b17-826cb812678a","meta":{"profile":["http://hl7.org/fhir/us/qicore/StructureDefinition/qicore-procedure"]},"extension":[{"url":"http://hl7.org/fhir/us/qicore/StructureDefinition/qicore-recorded","valueDateTime":"2026-04-11T10:30:00.000+00:00"}],"status":"completed","category":{"coding":[{"system":"http://snomed.info/sct","code":"18286008","display":"General or neuraxial anesthesia"}]},"code":{"coding":[{"system":"http://snomed.info/sct","code":"112943005","display":"Epidural injection of anesthetic substance, diagnostic, caudal, continuous"}]},"subject":{"reference":"Patient/80b68f78-88e0-4fc7-b622-f82bc133ddc9"},"performedPeriod":{"start":"2026-04-11T08:00:00.000+00:00","end":"2026-04-11T10:15:00.000+00:00"}},"request":{"method":"PUT","url":"Procedure/9c8340f5-32d2-4d82-9b17-826cb812678a"}},{"fullUrl":"https://madie.cms.gov/Patient/80b68f78-88e0-4fc7-b622-f82bc133ddc9","resource":{"resourceType":"Patient","id":"80b68f78-88e0-4fc7-b622-f82bc133ddc9","meta":{"profile":["http://hl7.org/fhir/us/qicore/StructureDefinition/qicore-patient"]},"extension":[{"url":"http://hl7.org/fhir/us/core/StructureDefinition/us-core-race","extension":[{"url":"ombCategory","valueCoding":{"system":"urn:oid:2.16.840.1.113883.6.238","code":"2054-5","display":"Black or African American","userSelected":true}},{"url":"text","valueString":"Black or African American"}]},{"url":"http://hl7.org/fhir/us/core/StructureDefinition/us-core-ethnicity","extension":[{"url":"ombCategory","valueCoding":{"system":"urn:oid:2.16.840.1.113883.6.238","code":"2186-5","display":"Not Hispanic or Latino","userSelected":true}},{"url":"text","valueString":"Not Hispanic or Latino"}]}],"identifier":[{"type":{"coding":[{"system":"http://terminology.hl7.org/CodeSystem/v2-0203","code":"MR"}]},"system":"https://bonnie-fhir.healthit.gov/","value":"61152a3b98086b7a79cbd7c1"}],"active":true,"name":[{"use":"usual","family":"DENOMPass","given":["IPElectiveEncWithProcedure"]}],"gender":"female","birthDate":"1966-07-12"},"request":{"method":"PUT","url":"Patient/80b68f78-88e0-4fc7-b622-f82bc133ddc9"}},{"fullUrl":"https://madie.cms.gov/MeasureReport/f2caa94c-d2d7-490b-858e-ce5e867ede16","resource":{"resourceType":"MeasureReport","id":"f2caa94c-d2d7-490b-858e-ce5e867ede16","meta":{"profile":["http://hl7.org/fhir/us/cqfmeasures/StructureDefinition/test-case-cqfm"]},"contained":[{"resourceType":"Parameters","id":"c84845c9-491a-4c22-9f43-3bb4659c5a9a-parameters","parameter":[{"name":"subject","valueString":"80b68f78-88e0-4fc7-b622-f82bc133ddc9"}]}],"extension":[{"url":"http://hl7.org/fhir/StructureDefinition/cqf-inputParameters","valueReference":{"reference":"#c84845c9-491a-4c22-9f43-3bb4659c5a9a-parameters"}},{"url":"http://hl7.org/fhir/us/cqfmeasures/StructureDefinition/cqfm-testCaseDescription","valueMarkdown":"Elective hospitalization (Encounter Performed w/Class attribute = 'elective') with procedure (general anesthesia) within first 3 days of encounter. IPP/Denom pass."}],"modifierExtension":[{"url":"http://hl7.org/fhir/us/cqfmeasures/StructureDefinition/cqfm-isTestCase","valueBoolean":true}],"status":"complete","type":"individual","measure":"https://madie.cms.gov/Measure/CMS1218FHIRHHRF","period":{"start":"2026-01-01","end":"2026-12-31"},"group":[{"id":"Group_1","population":[{"id":"InitialPopulation_1","code":{"coding":[{"system":"http://terminology.hl7.org/CodeSystem/measure-population","code":"initial-population","display":"Initial Population"}]},"count":1},{"id":"Denominator_1","code":{"coding":[{"system":"http://terminology.hl7.org/CodeSystem/measure-population","code":"denominator","display":"Denominator"}]},"count":1},{"id":"DenominatorExclusion_1","code":{"coding":[{"system":"http://terminology.hl7.org/CodeSystem/measure-population","code":"denominator-exclusion","display":"Denominator Exclusion"}]},"count":0},{"id":"Numerator_1","code":{"coding":[{"system":"http://terminology.hl7.org/CodeSystem/measure-population","code":"numerator","display":"Numerator"}]},"count":0}],"measureScore":{"value":0.0}}],"evaluatedResource":[{"reference":"Encounter/8e49375b-bf86-4593-8d1f-5d0fac2f551d"},{"reference":"Procedure/9c8340f5-32d2-4d82-9b17-826cb812678a"},{"reference":"Patient/80b68f78-88e0-4fc7-b622-f82bc133ddc9"}]},"request":{"method":"PUT","url":"MeasureReport/f2caa94c-d2d7-490b-858e-ce5e867ede16"}}]},"request":{"method":"PUT","url":"Bundle/tests-80b68f78-88e0-4fc7-b622-f82bc133ddc9-bundle"}},{"fullUrl":"MeasureReport/f2caa94c-d2d7-490b-858e-ce5e867ede16","resource":{"resourceType":"MeasureReport","id":"f2caa94c-d2d7-490b-858e-ce5e867ede16","meta":{"profile":["http://hl7.org/fhir/us/cqfmeasures/StructureDefinition/test-case-cqfm"]},"contained":[{"resourceType":"Parameters","id":"c84845c9-491a-4c22-9f43-3bb4659c5a9a-parameters","parameter":[{"name":"subject","valueString":"80b68f78-88e0-4fc7-b622-f82bc133ddc9"}]}],"extension":[{"url":"http://hl7.org/fhir/StructureDefinition/cqf-inputParameters","valueReference":{"reference":"#c84845c9-491a-4c22-9f43-3bb4659c5a9a-parameters"}},{"url":"http://hl7.org/fhir/us/cqfmeasures/StructureDefinition/cqfm-testCaseDescription","valueMarkdown":"Elective hospitalization (Encounter Performed w/Class attribute = 'elective') with procedure (general anesthesia) within first 3 days of encounter. IPP/Denom pass."}],"modifierExtension":[{"url":"http://hl7.org/fhir/us/cqfmeasures/StructureDefinition/cqfm-isTestCase","valueBoolean":true}],"status":"complete","type":"individual","measure":"https://madie.cms.gov/Measure/CMS1218FHIRHHRF","period":{"start":"2026-01-01","end":"2026-12-31"},"group":[{"id":"Group_1","population":[{"id":"InitialPopulation_1","code":{"coding":[{"system":"http://terminology.hl7.org/CodeSystem/measure-population","code":"initial-population","display":"Initial Population"}]},"count":1},{"id":"Denominator_1","code":{"coding":[{"system":"http://terminology.hl7.org/CodeSystem/measure-population","code":"denominator","display":"Denominator"}]},"count":1},{"id":"DenominatorExclusion_1","code":{"coding":[{"system":"http://terminology.hl7.org/CodeSystem/measure-population","code":"denominator-exclusion","display":"Denominator Exclusion"}]},"count":0},{"id":"Numerator_1","code":{"coding":[{"system":"http://terminology.hl7.org/CodeSystem/measure-population","code":"numerator","display":"Numerator"}]},"count":0}],"measureScore":{"value":0.0}}],"evaluatedResource":[{"reference":"Encounter/8e49375b-bf86-4593-8d1f-5d0fac2f551d"},{"reference":"Procedure/9c8340f5-32d2-4d82-9b17-826cb812678a"},{"reference":"Patient/80b68f78-88e0-4fc7-b622-f82bc133ddc9"}]},"request":{"method":"PUT","url":"MeasureReport/f2caa94c-d2d7-490b-858e-ce5e867ede16"}},{"fullUrl":"Procedure/9c8340f5-32d2-4d82-9b17-826cb812678a","resource":{"resourceType":"Procedure","id":"9c8340f5-32d2-4d82-9b17-826cb812678a","meta":{"profile":["http://hl7.org/fhir/us/qicore/StructureDefinition/qicore-procedure"]},"extension":[{"url":"http://hl7.org/fhir/us/qicore/StructureDefinition/qicore-recorded","valueDateTime":"2026-04-11T10:30:00.000+00:00"}],"status":"completed","category":{"coding":[{"system":"http://snomed.info/sct","code":"18286008","display":"General or neuraxial anesthesia"}]},"code":{"coding":[{"system":"http://snomed.info/sct","code":"112943005","display":"Epidural injection of anesthetic substance, diagnostic, caudal, continuous"}]},"subject":{"reference":"Patient/80b68f78-88e0-4fc7-b622-f82bc133ddc9"},"performedPeriod":{"start":"2026-04-11T08:00:00.000+00:00","end":"2026-04-11T10:15:00.000+00:00"}},"request":{"method":"PUT","url":"Procedure/9c8340f5-32d2-4d82-9b17-826cb812678a"}}]}