{"resourceType":"Bundle","id":"tests-0b924188-db4b-45ff-a79d-761f6fd85c89-bundle","type":"transaction","entry":[{"fullUrl":"Encounter/69e13f3b-90c4-4796-9909-d96c14228d20","resource":{"resourceType":"Encounter","id":"69e13f3b-90c4-4796-9909-d96c14228d20","meta":{"profile":["http://hl7.org/fhir/us/qicore/StructureDefinition/qicore-encounter"]},"status":"finished","class":{"system":"http://terminology.hl7.org/CodeSystem/v3-ActCode","code":"IMP","display":"inpatient encounter"},"type":[{"coding":[{"system":"http://snomed.info/sct","code":"112689000","display":"Hospital admission, elective, with complete pre-admission work-up"}],"text":"Hospital admission, elective, with complete pre-admission work-up"}],"priority":{"coding":[{"system":"http://snomed.info/sct","code":"103390000"}]},"subject":{"reference":"Patient/0b924188-db4b-45ff-a79d-761f6fd85c89"},"period":{"start":"2026-04-10T08:00:00.000+00:00","end":"2026-04-14T08:15:00.000+00:00"}},"request":{"method":"PUT","url":"Encounter/69e13f3b-90c4-4796-9909-d96c14228d20"}},{"fullUrl":"Procedure/03d7a765-3dbf-4a4c-b5b6-a3042d60205c","resource":{"resourceType":"Procedure","id":"03d7a765-3dbf-4a4c-b5b6-a3042d60205c","meta":{"profile":["http://hl7.org/fhir/us/qicore/StructureDefinition/qicore-procedure"]},"extension":[{"url":"http://hl7.org/fhir/us/qicore/StructureDefinition/qicore-recorded","valueDateTime":"2026-04-11T10:20:00.000+00:00"}],"status":"completed","category":{"coding":[{"system":"http://snomed.info/sct","code":"18286008","display":"General or neuraxial anesthesia"}]},"code":{"coding":[{"system":"http://snomed.info/sct","code":"112943005","display":"Epidural injection of anesthetic substance, diagnostic, caudal, continuous"}]},"subject":{"reference":"Patient/0b924188-db4b-45ff-a79d-761f6fd85c89"},"performedPeriod":{"start":"2026-04-11T08:00:00.000+00:00","end":"2026-04-11T10:15:00.000+00:00"}},"request":{"method":"PUT","url":"Procedure/03d7a765-3dbf-4a4c-b5b6-a3042d60205c"}},{"fullUrl":"Bundle/tests-0b924188-db4b-45ff-a79d-761f6fd85c89-bundle","resource":{"resourceType":"Bundle","id":"tests-0b924188-db4b-45ff-a79d-761f6fd85c89-bundle","type":"transaction","entry":[{"fullUrl":"https://madie.cms.gov/Encounter/69e13f3b-90c4-4796-9909-d96c14228d20","resource":{"resourceType":"Encounter","id":"69e13f3b-90c4-4796-9909-d96c14228d20","meta":{"profile":["http://hl7.org/fhir/us/qicore/StructureDefinition/qicore-encounter"]},"status":"finished","class":{"system":"http://terminology.hl7.org/CodeSystem/v3-ActCode","code":"IMP","display":"inpatient encounter"},"type":[{"coding":[{"system":"http://snomed.info/sct","code":"112689000","display":"Hospital admission, elective, with complete pre-admission work-up"}],"text":"Hospital admission, elective, with complete pre-admission work-up"}],"priority":{"coding":[{"system":"http://snomed.info/sct","code":"103390000"}]},"subject":{"reference":"Patient/0b924188-db4b-45ff-a79d-761f6fd85c89"},"period":{"start":"2026-04-10T08:00:00.000+00:00","end":"2026-04-14T08:15:00.000+00:00"}},"request":{"method":"PUT","url":"Encounter/69e13f3b-90c4-4796-9909-d96c14228d20"}},{"fullUrl":"https://madie.cms.gov/Procedure/03d7a765-3dbf-4a4c-b5b6-a3042d60205c","resource":{"resourceType":"Procedure","id":"03d7a765-3dbf-4a4c-b5b6-a3042d60205c","meta":{"profile":["http://hl7.org/fhir/us/qicore/StructureDefinition/qicore-procedure"]},"extension":[{"url":"http://hl7.org/fhir/us/qicore/StructureDefinition/qicore-recorded","valueDateTime":"2026-04-11T10:20:00.000+00:00"}],"status":"completed","category":{"coding":[{"system":"http://snomed.info/sct","code":"18286008","display":"General or neuraxial anesthesia"}]},"code":{"coding":[{"system":"http://snomed.info/sct","code":"112943005","display":"Epidural injection of anesthetic substance, diagnostic, caudal, continuous"}]},"subject":{"reference":"Patient/0b924188-db4b-45ff-a79d-761f6fd85c89"},"performedPeriod":{"start":"2026-04-11T08:00:00.000+00:00","end":"2026-04-11T10:15:00.000+00:00"}},"request":{"method":"PUT","url":"Procedure/03d7a765-3dbf-4a4c-b5b6-a3042d60205c"}},{"fullUrl":"https://madie.cms.gov/Procedure/4d2f2804-632c-4809-9977-38d8effebaa9","resource":{"resourceType":"Procedure","id":"4d2f2804-632c-4809-9977-38d8effebaa9","meta":{"profile":["http://hl7.org/fhir/us/qicore/StructureDefinition/qicore-procedure"]},"extension":[{"url":"http://hl7.org/fhir/us/qicore/StructureDefinition/qicore-recorded","valueDateTime":"2026-04-12T07:20:00.000+00:00"}],"status":"completed","category":{"coding":[{"system":"http://snomed.info/sct","code":"18286008","display":"General or neuraxial anesthesia"}]},"code":{"coding":[{"system":"http://snomed.info/sct","code":"112943005","display":"Epidural injection of anesthetic substance, diagnostic, caudal, continuous"}]},"subject":{"reference":"Patient/0b924188-db4b-45ff-a79d-761f6fd85c89"},"performedPeriod":{"start":"2026-04-12T07:00:00.000+00:00","end":"2026-04-12T07:15:00.000+00:00"}},"request":{"method":"PUT","url":"Procedure/4d2f2804-632c-4809-9977-38d8effebaa9"}},{"fullUrl":"https://madie.cms.gov/Patient/0b924188-db4b-45ff-a79d-761f6fd85c89","resource":{"resourceType":"Patient","id":"0b924188-db4b-45ff-a79d-761f6fd85c89","meta":{"profile":["http://hl7.org/fhir/us/qicore/StructureDefinition/qicore-patient"]},"extension":[{"url":"http://hl7.org/fhir/us/core/StructureDefinition/us-core-race","extension":[{"url":"ombCategory","valueCoding":{"system":"urn:oid:2.16.840.1.113883.6.238","code":"2054-5","display":"Black or African American","userSelected":true}},{"url":"text","valueString":"Black or African American"}]},{"url":"http://hl7.org/fhir/us/core/StructureDefinition/us-core-ethnicity","extension":[{"url":"ombCategory","valueCoding":{"system":"urn:oid:2.16.840.1.113883.6.238","code":"2186-5","display":"Not Hispanic or Latino","userSelected":true}},{"url":"text","valueString":"Not Hispanic or Latino"}]}],"identifier":[{"type":{"coding":[{"system":"http://terminology.hl7.org/CodeSystem/v2-0203","code":"MR"}]},"system":"https://bonnie-fhir.healthit.gov/","value":"61152a3b98086b7a79cbd7c1"}],"active":true,"name":[{"use":"usual","family":"NUMER1Pass","given":["IntubAft2Proc"]}],"gender":"female","birthDate":"1966-07-12"},"request":{"method":"PUT","url":"Patient/0b924188-db4b-45ff-a79d-761f6fd85c89"}},{"fullUrl":"https://madie.cms.gov/Procedure/72357f02-8783-432e-9751-92529ed787bf","resource":{"resourceType":"Procedure","id":"72357f02-8783-432e-9751-92529ed787bf","meta":{"profile":["http://hl7.org/fhir/us/qicore/StructureDefinition/qicore-procedure"]},"extension":[{"url":"http://hl7.org/fhir/us/qicore/StructureDefinition/qicore-recorded","valueDateTime":"2026-04-13T08:10:00.000+00:00"}],"status":"completed","code":{"coding":[{"system":"http://www.cms.gov/Medicare/Coding/ICD10","code":"0BH13EZ","display":"Insertion of Endotracheal Airway into Trachea, Percutaneous Approach"}],"text":"Insertion of Endotracheal Airway into Trachea, Percutaneous Approach"},"subject":{"reference":"Patient/0b924188-db4b-45ff-a79d-761f6fd85c89"},"performedPeriod":{"start":"2026-04-12T07:16:00.000+00:00","end":"2026-04-13T07:15:00.000+00:00"}},"request":{"method":"PUT","url":"Procedure/72357f02-8783-432e-9751-92529ed787bf"}},{"fullUrl":"https://madie.cms.gov/MeasureReport/d9ad6a42-6548-43ff-8ea2-279ff7cf0502","resource":{"resourceType":"MeasureReport","id":"d9ad6a42-6548-43ff-8ea2-279ff7cf0502","meta":{"profile":["http://hl7.org/fhir/us/cqfmeasures/StructureDefinition/test-case-cqfm"]},"contained":[{"resourceType":"Parameters","id":"ba54e4c6-9654-4969-8aad-874e5d797a43-parameters","parameter":[{"name":"subject","valueString":"0b924188-db4b-45ff-a79d-761f6fd85c89"}]}],"extension":[{"url":"http://hl7.org/fhir/StructureDefinition/cqf-inputParameters","valueReference":{"reference":"#ba54e4c6-9654-4969-8aad-874e5d797a43-parameters"}},{"url":"http://hl7.org/fhir/us/cqfmeasures/StructureDefinition/cqfm-testCaseDescription","valueMarkdown":"Intubation after 2nd procedure"}],"modifierExtension":[{"url":"http://hl7.org/fhir/us/cqfmeasures/StructureDefinition/cqfm-isTestCase","valueBoolean":true}],"status":"complete","type":"individual","measure":"https://madie.cms.gov/Measure/CMS1218FHIRHHRF","period":{"start":"2026-01-01","end":"2026-12-31"},"group":[{"id":"Group_1","population":[{"id":"InitialPopulation_1","code":{"coding":[{"system":"http://terminology.hl7.org/CodeSystem/measure-population","code":"initial-population","display":"Initial Population"}]},"count":1},{"id":"Denominator_1","code":{"coding":[{"system":"http://terminology.hl7.org/CodeSystem/measure-population","code":"denominator","display":"Denominator"}]},"count":1},{"id":"DenominatorExclusion_1","code":{"coding":[{"system":"http://terminology.hl7.org/CodeSystem/measure-population","code":"denominator-exclusion","display":"Denominator Exclusion"}]},"count":0},{"id":"Numerator_1","code":{"coding":[{"system":"http://terminology.hl7.org/CodeSystem/measure-population","code":"numerator","display":"Numerator"}]},"count":1}],"measureScore":{"value":0.0}}],"evaluatedResource":[{"reference":"Encounter/69e13f3b-90c4-4796-9909-d96c14228d20"},{"reference":"Procedure/03d7a765-3dbf-4a4c-b5b6-a3042d60205c"},{"reference":"Procedure/4d2f2804-632c-4809-9977-38d8effebaa9"},{"reference":"Patient/0b924188-db4b-45ff-a79d-761f6fd85c89"},{"reference":"Procedure/72357f02-8783-432e-9751-92529ed787bf"}]},"request":{"method":"PUT","url":"MeasureReport/d9ad6a42-6548-43ff-8ea2-279ff7cf0502"}}]},"request":{"method":"PUT","url":"Bundle/tests-0b924188-db4b-45ff-a79d-761f6fd85c89-bundle"}},{"fullUrl":"MeasureReport/d9ad6a42-6548-43ff-8ea2-279ff7cf0502","resource":{"resourceType":"MeasureReport","id":"d9ad6a42-6548-43ff-8ea2-279ff7cf0502","meta":{"profile":["http://hl7.org/fhir/us/cqfmeasures/StructureDefinition/test-case-cqfm"]},"contained":[{"resourceType":"Parameters","id":"ba54e4c6-9654-4969-8aad-874e5d797a43-parameters","parameter":[{"name":"subject","valueString":"0b924188-db4b-45ff-a79d-761f6fd85c89"}]}],"extension":[{"url":"http://hl7.org/fhir/StructureDefinition/cqf-inputParameters","valueReference":{"reference":"#ba54e4c6-9654-4969-8aad-874e5d797a43-parameters"}},{"url":"http://hl7.org/fhir/us/cqfmeasures/StructureDefinition/cqfm-testCaseDescription","valueMarkdown":"Intubation after 2nd procedure"}],"modifierExtension":[{"url":"http://hl7.org/fhir/us/cqfmeasures/StructureDefinition/cqfm-isTestCase","valueBoolean":true}],"status":"complete","type":"individual","measure":"https://madie.cms.gov/Measure/CMS1218FHIRHHRF","period":{"start":"2026-01-01","end":"2026-12-31"},"group":[{"id":"Group_1","population":[{"id":"InitialPopulation_1","code":{"coding":[{"system":"http://terminology.hl7.org/CodeSystem/measure-population","code":"initial-population","display":"Initial Population"}]},"count":1},{"id":"Denominator_1","code":{"coding":[{"system":"http://terminology.hl7.org/CodeSystem/measure-population","code":"denominator","display":"Denominator"}]},"count":1},{"id":"DenominatorExclusion_1","code":{"coding":[{"system":"http://terminology.hl7.org/CodeSystem/measure-population","code":"denominator-exclusion","display":"Denominator Exclusion"}]},"count":0},{"id":"Numerator_1","code":{"coding":[{"system":"http://terminology.hl7.org/CodeSystem/measure-population","code":"numerator","display":"Numerator"}]},"count":1}],"measureScore":{"value":0.0}}],"evaluatedResource":[{"reference":"Encounter/69e13f3b-90c4-4796-9909-d96c14228d20"},{"reference":"Procedure/03d7a765-3dbf-4a4c-b5b6-a3042d60205c"},{"reference":"Procedure/4d2f2804-632c-4809-9977-38d8effebaa9"},{"reference":"Patient/0b924188-db4b-45ff-a79d-761f6fd85c89"},{"reference":"Procedure/72357f02-8783-432e-9751-92529ed787bf"}]},"request":{"method":"PUT","url":"MeasureReport/d9ad6a42-6548-43ff-8ea2-279ff7cf0502"}},{"fullUrl":"Patient/0b924188-db4b-45ff-a79d-761f6fd85c89","resource":{"resourceType":"Patient","id":"0b924188-db4b-45ff-a79d-761f6fd85c89","meta":{"profile":["http://hl7.org/fhir/us/qicore/StructureDefinition/qicore-patient"]},"extension":[{"url":"http://hl7.org/fhir/us/core/StructureDefinition/us-core-race","extension":[{"url":"ombCategory","valueCoding":{"system":"urn:oid:2.16.840.1.113883.6.238","code":"2054-5","display":"Black or African American","userSelected":true}},{"url":"text","valueString":"Black or African American"}]},{"url":"http://hl7.org/fhir/us/core/StructureDefinition/us-core-ethnicity","extension":[{"url":"ombCategory","valueCoding":{"system":"urn:oid:2.16.840.1.113883.6.238","code":"2186-5","display":"Not Hispanic or Latino","userSelected":true}},{"url":"text","valueString":"Not Hispanic or Latino"}]}],"identifier":[{"type":{"coding":[{"system":"http://terminology.hl7.org/CodeSystem/v2-0203","code":"MR"}]},"system":"https://bonnie-fhir.healthit.gov/","value":"61152a3b98086b7a79cbd7c1"}],"active":true,"name":[{"use":"usual","family":"NUMER1Pass","given":["IntubAft2Proc"]}],"gender":"female","birthDate":"1966-07-12"},"request":{"method":"PUT","url":"Patient/0b924188-db4b-45ff-a79d-761f6fd85c89"}},{"fullUrl":"Procedure/72357f02-8783-432e-9751-92529ed787bf","resource":{"resourceType":"Procedure","id":"72357f02-8783-432e-9751-92529ed787bf","meta":{"profile":["http://hl7.org/fhir/us/qicore/StructureDefinition/qicore-procedure"]},"extension":[{"url":"http://hl7.org/fhir/us/qicore/StructureDefinition/qicore-recorded","valueDateTime":"2026-04-13T08:10:00.000+00:00"}],"status":"completed","code":{"coding":[{"system":"http://www.cms.gov/Medicare/Coding/ICD10","code":"0BH13EZ","display":"Insertion of Endotracheal Airway into Trachea, Percutaneous Approach"}],"text":"Insertion of Endotracheal Airway into Trachea, Percutaneous Approach"},"subject":{"reference":"Patient/0b924188-db4b-45ff-a79d-761f6fd85c89"},"performedPeriod":{"start":"2026-04-12T07:16:00.000+00:00","end":"2026-04-13T07:15:00.000+00:00"}},"request":{"method":"PUT","url":"Procedure/72357f02-8783-432e-9751-92529ed787bf"}},{"fullUrl":"Procedure/4d2f2804-632c-4809-9977-38d8effebaa9","resource":{"resourceType":"Procedure","id":"4d2f2804-632c-4809-9977-38d8effebaa9","meta":{"profile":["http://hl7.org/fhir/us/qicore/StructureDefinition/qicore-procedure"]},"extension":[{"url":"http://hl7.org/fhir/us/qicore/StructureDefinition/qicore-recorded","valueDateTime":"2026-04-12T07:20:00.000+00:00"}],"status":"completed","category":{"coding":[{"system":"http://snomed.info/sct","code":"18286008","display":"General or neuraxial anesthesia"}]},"code":{"coding":[{"system":"http://snomed.info/sct","code":"112943005","display":"Epidural injection of anesthetic substance, diagnostic, caudal, continuous"}]},"subject":{"reference":"Patient/0b924188-db4b-45ff-a79d-761f6fd85c89"},"performedPeriod":{"start":"2026-04-12T07:00:00.000+00:00","end":"2026-04-12T07:15:00.000+00:00"}},"request":{"method":"PUT","url":"Procedure/4d2f2804-632c-4809-9977-38d8effebaa9"}}]}