{"resourceType":"Bundle","id":"tests-2bfea766-6c3c-487a-8c3e-8cab9966603f-bundle","type":"transaction","entry":[{"fullUrl":"Encounter/8d55b814-73cd-4539-814c-47821b832832","resource":{"resourceType":"Encounter","id":"8d55b814-73cd-4539-814c-47821b832832","meta":{"profile":["http://hl7.org/fhir/us/qicore/StructureDefinition/qicore-encounter"]},"status":"finished","class":{"system":"http://terminology.hl7.org/CodeSystem/v3-ActCode","code":"IMP","display":"inpatient encounter"},"type":[{"coding":[{"system":"http://snomed.info/sct","code":"112689000","display":"Hospital admission, elective, with complete pre-admission work-up"}],"text":"Hospital admission, elective, with complete pre-admission work-up"}],"priority":{"coding":[{"system":"http://snomed.info/sct","code":"103390000"}]},"subject":{"reference":"Patient/2bfea766-6c3c-487a-8c3e-8cab9966603f"},"period":{"start":"2026-04-10T08:00:00.000+00:00","end":"2026-04-14T08:15:00.000+00:00"},"diagnosis":[{"condition":{"reference":"Procedure/967e440e-8766-4705-924b-00b4a61b0458"},"rank":1}]},"request":{"method":"PUT","url":"Encounter/8d55b814-73cd-4539-814c-47821b832832"}},{"fullUrl":"MeasureReport/471bb7c9-b446-46f6-adf3-a0af8ba18d94","resource":{"resourceType":"MeasureReport","id":"471bb7c9-b446-46f6-adf3-a0af8ba18d94","meta":{"profile":["http://hl7.org/fhir/us/cqfmeasures/StructureDefinition/test-case-cqfm"]},"contained":[{"resourceType":"Parameters","id":"bcfee220-3209-400b-8294-716d2e1ac036-parameters","parameter":[{"name":"subject","valueString":"2bfea766-6c3c-487a-8c3e-8cab9966603f"}]}],"extension":[{"url":"http://hl7.org/fhir/StructureDefinition/cqf-inputParameters","valueReference":{"reference":"#bcfee220-3209-400b-8294-716d2e1ac036-parameters"}},{"url":"http://hl7.org/fhir/us/cqfmeasures/StructureDefinition/cqfm-testCaseDescription","valueMarkdown":"DENOMPass. Satisfies First Bicarbonate risk variable"}],"modifierExtension":[{"url":"http://hl7.org/fhir/us/cqfmeasures/StructureDefinition/cqfm-isTestCase","valueBoolean":true}],"status":"complete","type":"individual","measure":"https://madie.cms.gov/Measure/CMS1218FHIRHHRF","period":{"start":"2026-01-01","end":"2026-12-31"},"group":[{"id":"Group_1","population":[{"id":"InitialPopulation_1","code":{"coding":[{"system":"http://terminology.hl7.org/CodeSystem/measure-population","code":"initial-population","display":"Initial Population"}]},"count":1},{"id":"Denominator_1","code":{"coding":[{"system":"http://terminology.hl7.org/CodeSystem/measure-population","code":"denominator","display":"Denominator"}]},"count":1},{"id":"DenominatorExclusion_1","code":{"coding":[{"system":"http://terminology.hl7.org/CodeSystem/measure-population","code":"denominator-exclusion","display":"Denominator Exclusion"}]},"count":0},{"id":"Numerator_1","code":{"coding":[{"system":"http://terminology.hl7.org/CodeSystem/measure-population","code":"numerator","display":"Numerator"}]},"count":0}],"measureScore":{"value":0.0}}],"evaluatedResource":[{"reference":"Encounter/8d55b814-73cd-4539-814c-47821b832832"},{"reference":"Observation/27da0392-df82-44a8-989a-e47b448ff12a"},{"reference":"Observation/0a30dbfe-846a-483f-8e05-10a951ca737e"},{"reference":"Patient/2bfea766-6c3c-487a-8c3e-8cab9966603f"},{"reference":"Procedure/550ced04-826f-4749-ad5b-99c5ed2c2868"}]},"request":{"method":"PUT","url":"MeasureReport/471bb7c9-b446-46f6-adf3-a0af8ba18d94"}},{"fullUrl":"Observation/0a30dbfe-846a-483f-8e05-10a951ca737e","resource":{"resourceType":"Observation","id":"0a30dbfe-846a-483f-8e05-10a951ca737e","meta":{"profile":["http://hl7.org/fhir/us/qicore/StructureDefinition/qicore-observation-lab"]},"status":"final","category":[{"coding":[{"system":"http://terminology.hl7.org/CodeSystem/observation-category","code":"laboratory","display":"Laboratory"}],"text":"Laboratory"}],"code":{"coding":[{"system":"http://loinc.org","code":"14627-4","display":"Bicarbonate [Moles/volume] in Venous blood"}]},"subject":{"reference":"Patient/2bfea766-6c3c-487a-8c3e-8cab9966603f"},"encounter":{"reference":"Encounter/8d55b814-73cd-4539-814c-47821b832832"},"effectiveDateTime":"2026-04-11T09:00:00.000+00:00","valueQuantity":{"value":30.1,"unit":"mmol/L","system":"http://unitsofmeasure.org","code":"mmol/L"}},"request":{"method":"PUT","url":"Observation/0a30dbfe-846a-483f-8e05-10a951ca737e"}},{"fullUrl":"Bundle/tests-RiskVarPassFirstBicarbonate-bundle","resource":{"resourceType":"Bundle","id":"tests-RiskVarPassFirstBicarbonate-bundle","type":"transaction","entry":[{"fullUrl":"https://madie.cms.gov/Encounter/8d55b814-73cd-4539-814c-47821b832832","resource":{"resourceType":"Encounter","id":"8d55b814-73cd-4539-814c-47821b832832","meta":{"profile":["http://hl7.org/fhir/us/qicore/StructureDefinition/qicore-encounter"]},"status":"finished","class":{"system":"http://terminology.hl7.org/CodeSystem/v3-ActCode","code":"IMP","display":"inpatient encounter"},"type":[{"coding":[{"system":"http://snomed.info/sct","code":"112689000","display":"Hospital admission, elective, with complete pre-admission work-up"}],"text":"Hospital admission, elective, with complete pre-admission work-up"}],"priority":{"coding":[{"system":"http://snomed.info/sct","code":"103390000"}]},"subject":{"reference":"Patient/2bfea766-6c3c-487a-8c3e-8cab9966603f"},"period":{"start":"2026-04-10T08:00:00.000+00:00","end":"2026-04-14T08:15:00.000+00:00"},"diagnosis":[{"condition":{"reference":"Procedure/967e440e-8766-4705-924b-00b4a61b0458"},"rank":1}]},"request":{"method":"PUT","url":"Encounter/8d55b814-73cd-4539-814c-47821b832832"}},{"fullUrl":"https://madie.cms.gov/Observation/27da0392-df82-44a8-989a-e47b448ff12a","resource":{"resourceType":"Observation","id":"27da0392-df82-44a8-989a-e47b448ff12a","meta":{"profile":["http://hl7.org/fhir/us/qicore/StructureDefinition/qicore-observation-lab"]},"status":"final","category":[{"coding":[{"system":"http://terminology.hl7.org/CodeSystem/observation-category","code":"laboratory","display":"Laboratory"}],"text":"Laboratory"}],"code":{"coding":[{"system":"http://loinc.org","code":"14627-4","display":"Bicarbonate [Moles/volume] in Venous blood"}]},"subject":{"reference":"Patient/2bfea766-6c3c-487a-8c3e-8cab9966603f"},"encounter":{"reference":"Encounter/8d55b814-73cd-4539-814c-47821b832832"},"effectiveDateTime":"2026-04-11T08:00:00.000+00:00","valueQuantity":{"value":28.3,"unit":"mmol/L","system":"http://unitsofmeasure.org","code":"mmol/L"}},"request":{"method":"PUT","url":"Observation/27da0392-df82-44a8-989a-e47b448ff12a"}},{"fullUrl":"https://madie.cms.gov/Observation/0a30dbfe-846a-483f-8e05-10a951ca737e","resource":{"resourceType":"Observation","id":"0a30dbfe-846a-483f-8e05-10a951ca737e","meta":{"profile":["http://hl7.org/fhir/us/qicore/StructureDefinition/qicore-observation-lab"]},"status":"final","category":[{"coding":[{"system":"http://terminology.hl7.org/CodeSystem/observation-category","code":"laboratory","display":"Laboratory"}],"text":"Laboratory"}],"code":{"coding":[{"system":"http://loinc.org","code":"14627-4","display":"Bicarbonate [Moles/volume] in Venous blood"}]},"subject":{"reference":"Patient/2bfea766-6c3c-487a-8c3e-8cab9966603f"},"encounter":{"reference":"Encounter/8d55b814-73cd-4539-814c-47821b832832"},"effectiveDateTime":"2026-04-11T09:00:00.000+00:00","valueQuantity":{"value":30.1,"unit":"mmol/L","system":"http://unitsofmeasure.org","code":"mmol/L"}},"request":{"method":"PUT","url":"Observation/0a30dbfe-846a-483f-8e05-10a951ca737e"}},{"fullUrl":"https://madie.cms.gov/Patient/2bfea766-6c3c-487a-8c3e-8cab9966603f","resource":{"resourceType":"Patient","id":"2bfea766-6c3c-487a-8c3e-8cab9966603f","meta":{"profile":["http://hl7.org/fhir/us/qicore/StructureDefinition/qicore-patient"]},"extension":[{"url":"http://hl7.org/fhir/us/core/StructureDefinition/us-core-race","extension":[{"url":"ombCategory","valueCoding":{"system":"urn:oid:2.16.840.1.113883.6.238","code":"2054-5","display":"Black or African American","userSelected":true}},{"url":"text","valueString":"Black or African American"}]},{"url":"http://hl7.org/fhir/us/core/StructureDefinition/us-core-ethnicity","extension":[{"url":"ombCategory","valueCoding":{"system":"urn:oid:2.16.840.1.113883.6.238","code":"2186-5","display":"Not Hispanic or Latino","userSelected":true}},{"url":"text","valueString":"Not Hispanic or Latino"}]}],"identifier":[{"type":{"coding":[{"system":"http://terminology.hl7.org/CodeSystem/v2-0203","code":"MR"}]},"system":"https://bonnie-fhir.healthit.gov/","value":"61152a3b98086b7a79cbd7c1"}],"active":true,"name":[{"use":"usual","family":"DENOMPass","given":["RiskVariableASAClass"]}],"gender":"female","birthDate":"1966-07-12"},"request":{"method":"PUT","url":"Patient/2bfea766-6c3c-487a-8c3e-8cab9966603f"}},{"fullUrl":"https://madie.cms.gov/Procedure/550ced04-826f-4749-ad5b-99c5ed2c2868","resource":{"resourceType":"Procedure","id":"550ced04-826f-4749-ad5b-99c5ed2c2868","meta":{"profile":["http://hl7.org/fhir/us/qicore/StructureDefinition/qicore-procedure"]},"extension":[{"url":"http://hl7.org/fhir/us/qicore/StructureDefinition/qicore-recorded","valueDateTime":"2026-04-11T10:30:00.000+00:00"}],"status":"completed","category":{"coding":[{"system":"http://snomed.info/sct","code":"18286008","display":"General or neuraxial anesthesia"}]},"code":{"coding":[{"system":"http://snomed.info/sct","code":"112943005","display":"Epidural injection of anesthetic substance, diagnostic, caudal, continuous"}]},"subject":{"reference":"Patient/2bfea766-6c3c-487a-8c3e-8cab9966603f"},"performedPeriod":{"start":"2026-04-11T08:00:00.000+00:00","end":"2026-04-11T10:15:00.000+00:00"}},"request":{"method":"PUT","url":"Procedure/550ced04-826f-4749-ad5b-99c5ed2c2868"}},{"fullUrl":"https://madie.cms.gov/MeasureReport/471bb7c9-b446-46f6-adf3-a0af8ba18d94","resource":{"resourceType":"MeasureReport","id":"471bb7c9-b446-46f6-adf3-a0af8ba18d94","meta":{"profile":["http://hl7.org/fhir/us/cqfmeasures/StructureDefinition/test-case-cqfm"]},"contained":[{"resourceType":"Parameters","id":"bcfee220-3209-400b-8294-716d2e1ac036-parameters","parameter":[{"name":"subject","valueString":"2bfea766-6c3c-487a-8c3e-8cab9966603f"}]}],"extension":[{"url":"http://hl7.org/fhir/StructureDefinition/cqf-inputParameters","valueReference":{"reference":"#bcfee220-3209-400b-8294-716d2e1ac036-parameters"}},{"url":"http://hl7.org/fhir/us/cqfmeasures/StructureDefinition/cqfm-testCaseDescription","valueMarkdown":"DENOMPass. Satisfies First Bicarbonate risk variable"}],"modifierExtension":[{"url":"http://hl7.org/fhir/us/cqfmeasures/StructureDefinition/cqfm-isTestCase","valueBoolean":true}],"status":"complete","type":"individual","measure":"https://madie.cms.gov/Measure/CMS1218FHIRHHRF","period":{"start":"2026-01-01","end":"2026-12-31"},"group":[{"id":"Group_1","population":[{"id":"InitialPopulation_1","code":{"coding":[{"system":"http://terminology.hl7.org/CodeSystem/measure-population","code":"initial-population","display":"Initial Population"}]},"count":1},{"id":"Denominator_1","code":{"coding":[{"system":"http://terminology.hl7.org/CodeSystem/measure-population","code":"denominator","display":"Denominator"}]},"count":1},{"id":"DenominatorExclusion_1","code":{"coding":[{"system":"http://terminology.hl7.org/CodeSystem/measure-population","code":"denominator-exclusion","display":"Denominator Exclusion"}]},"count":0},{"id":"Numerator_1","code":{"coding":[{"system":"http://terminology.hl7.org/CodeSystem/measure-population","code":"numerator","display":"Numerator"}]},"count":0}],"measureScore":{"value":0.0}}],"evaluatedResource":[{"reference":"Encounter/8d55b814-73cd-4539-814c-47821b832832"},{"reference":"Observation/27da0392-df82-44a8-989a-e47b448ff12a"},{"reference":"Observation/0a30dbfe-846a-483f-8e05-10a951ca737e"},{"reference":"Patient/2bfea766-6c3c-487a-8c3e-8cab9966603f"},{"reference":"Procedure/550ced04-826f-4749-ad5b-99c5ed2c2868"}]},"request":{"method":"PUT","url":"MeasureReport/471bb7c9-b446-46f6-adf3-a0af8ba18d94"}}]},"request":{"method":"PUT","url":"Bundle/tests-RiskVarPassFirstBicarbonate-bundle"}},{"fullUrl":"Procedure/550ced04-826f-4749-ad5b-99c5ed2c2868","resource":{"resourceType":"Procedure","id":"550ced04-826f-4749-ad5b-99c5ed2c2868","meta":{"profile":["http://hl7.org/fhir/us/qicore/StructureDefinition/qicore-procedure"]},"extension":[{"url":"http://hl7.org/fhir/us/qicore/StructureDefinition/qicore-recorded","valueDateTime":"2026-04-11T10:30:00.000+00:00"}],"status":"completed","category":{"coding":[{"system":"http://snomed.info/sct","code":"18286008","display":"General or neuraxial anesthesia"}]},"code":{"coding":[{"system":"http://snomed.info/sct","code":"112943005","display":"Epidural injection of anesthetic substance, diagnostic, caudal, continuous"}]},"subject":{"reference":"Patient/2bfea766-6c3c-487a-8c3e-8cab9966603f"},"performedPeriod":{"start":"2026-04-11T08:00:00.000+00:00","end":"2026-04-11T10:15:00.000+00:00"}},"request":{"method":"PUT","url":"Procedure/550ced04-826f-4749-ad5b-99c5ed2c2868"}},{"fullUrl":"Patient/2bfea766-6c3c-487a-8c3e-8cab9966603f","resource":{"resourceType":"Patient","id":"2bfea766-6c3c-487a-8c3e-8cab9966603f","meta":{"profile":["http://hl7.org/fhir/us/qicore/StructureDefinition/qicore-patient"]},"extension":[{"url":"http://hl7.org/fhir/us/core/StructureDefinition/us-core-race","extension":[{"url":"ombCategory","valueCoding":{"system":"urn:oid:2.16.840.1.113883.6.238","code":"2054-5","display":"Black or African American","userSelected":true}},{"url":"text","valueString":"Black or African American"}]},{"url":"http://hl7.org/fhir/us/core/StructureDefinition/us-core-ethnicity","extension":[{"url":"ombCategory","valueCoding":{"system":"urn:oid:2.16.840.1.113883.6.238","code":"2186-5","display":"Not Hispanic or Latino","userSelected":true}},{"url":"text","valueString":"Not Hispanic or Latino"}]}],"identifier":[{"type":{"coding":[{"system":"http://terminology.hl7.org/CodeSystem/v2-0203","code":"MR"}]},"system":"https://bonnie-fhir.healthit.gov/","value":"61152a3b98086b7a79cbd7c1"}],"active":true,"name":[{"use":"usual","family":"DENOMPass","given":["RiskVariableASAClass"]}],"gender":"female","birthDate":"1966-07-12"},"request":{"method":"PUT","url":"Patient/2bfea766-6c3c-487a-8c3e-8cab9966603f"}},{"fullUrl":"Observation/27da0392-df82-44a8-989a-e47b448ff12a","resource":{"resourceType":"Observation","id":"27da0392-df82-44a8-989a-e47b448ff12a","meta":{"profile":["http://hl7.org/fhir/us/qicore/StructureDefinition/qicore-observation-lab"]},"status":"final","category":[{"coding":[{"system":"http://terminology.hl7.org/CodeSystem/observation-category","code":"laboratory","display":"Laboratory"}],"text":"Laboratory"}],"code":{"coding":[{"system":"http://loinc.org","code":"14627-4","display":"Bicarbonate [Moles/volume] in Venous blood"}]},"subject":{"reference":"Patient/2bfea766-6c3c-487a-8c3e-8cab9966603f"},"encounter":{"reference":"Encounter/8d55b814-73cd-4539-814c-47821b832832"},"effectiveDateTime":"2026-04-11T08:00:00.000+00:00","valueQuantity":{"value":28.3,"unit":"mmol/L","system":"http://unitsofmeasure.org","code":"mmol/L"}},"request":{"method":"PUT","url":"Observation/27da0392-df82-44a8-989a-e47b448ff12a"}}]}