{"resourceType":"Bundle","id":"tests-8415bf7d-2920-4ec3-9774-7a6f4272397e-bundle","type":"transaction","entry":[{"fullUrl":"Procedure/5641c359-17a3-457e-8ee8-ade12095fa2c","resource":{"resourceType":"Procedure","id":"5641c359-17a3-457e-8ee8-ade12095fa2c","meta":{"profile":["http://hl7.org/fhir/us/qicore/StructureDefinition/qicore-procedure"]},"extension":[{"url":"http://hl7.org/fhir/us/qicore/StructureDefinition/qicore-recorded","valueDateTime":"2026-04-13T10:20:00.000+00:00"}],"status":"completed","code":{"coding":[{"system":"http://www.cms.gov/Medicare/Coding/ICD10","code":"0BH13EZ","display":"Insertion of Endotracheal Airway into Trachea, Percutaneous Approach"}],"text":"Insertion of Endotracheal Airway into Trachea, Percutaneous Approach"},"subject":{"reference":"Patient/8415bf7d-2920-4ec3-9774-7a6f4272397e"},"performedPeriod":{"start":"2026-04-13T08:00:00.000+00:00","end":"2026-04-13T10:15:00.000+00:00"}},"request":{"method":"PUT","url":"Procedure/5641c359-17a3-457e-8ee8-ade12095fa2c"}},{"fullUrl":"Procedure/dfbcb23d-342f-4397-98a6-8161d6095cbc","resource":{"resourceType":"Procedure","id":"dfbcb23d-342f-4397-98a6-8161d6095cbc","meta":{"profile":["http://hl7.org/fhir/us/qicore/StructureDefinition/qicore-procedure"]},"extension":[{"url":"http://hl7.org/fhir/us/qicore/StructureDefinition/qicore-recorded","valueDateTime":"2026-04-12T09:20:00.000+00:00"}],"status":"completed","code":{"coding":[{"system":"http://www.cms.gov/Medicare/Coding/ICD10","code":"0BH13EZ","display":"Insertion of Endotracheal Airway into Trachea, Percutaneous Approach"}],"text":"Insertion of Endotracheal Airway into Trachea, Percutaneous Approach"},"subject":{"reference":"Patient/8415bf7d-2920-4ec3-9774-7a6f4272397e"},"performedDateTime":"2026-04-12T09:16:00.000+00:00"},"request":{"method":"PUT","url":"Procedure/dfbcb23d-342f-4397-98a6-8161d6095cbc"}},{"fullUrl":"Bundle/tests-8415bf7d-2920-4ec3-9774-7a6f4272397e-bundle","resource":{"resourceType":"Bundle","id":"tests-8415bf7d-2920-4ec3-9774-7a6f4272397e-bundle","type":"transaction","entry":[{"fullUrl":"https://madie.cms.gov/Procedure/5641c359-17a3-457e-8ee8-ade12095fa2c","resource":{"resourceType":"Procedure","id":"5641c359-17a3-457e-8ee8-ade12095fa2c","meta":{"profile":["http://hl7.org/fhir/us/qicore/StructureDefinition/qicore-procedure"]},"extension":[{"url":"http://hl7.org/fhir/us/qicore/StructureDefinition/qicore-recorded","valueDateTime":"2026-04-13T10:20:00.000+00:00"}],"status":"completed","code":{"coding":[{"system":"http://www.cms.gov/Medicare/Coding/ICD10","code":"0BH13EZ","display":"Insertion of Endotracheal Airway into Trachea, Percutaneous Approach"}],"text":"Insertion of Endotracheal Airway into Trachea, Percutaneous Approach"},"subject":{"reference":"Patient/8415bf7d-2920-4ec3-9774-7a6f4272397e"},"performedPeriod":{"start":"2026-04-13T08:00:00.000+00:00","end":"2026-04-13T10:15:00.000+00:00"}},"request":{"method":"PUT","url":"Procedure/5641c359-17a3-457e-8ee8-ade12095fa2c"}},{"fullUrl":"https://madie.cms.gov/Procedure/6a24b6e9-6026-4fea-8112-feb1d68ecb87","resource":{"resourceType":"Procedure","id":"6a24b6e9-6026-4fea-8112-feb1d68ecb87","meta":{"profile":["http://hl7.org/fhir/us/qicore/StructureDefinition/qicore-procedure"]},"extension":[{"url":"http://hl7.org/fhir/us/qicore/StructureDefinition/qicore-recorded","valueDateTime":"2026-04-13T10:20:00.000+00:00"}],"status":"completed","code":{"coding":[{"system":"http://www.cms.gov/Medicare/Coding/ICD10","code":"0BH13EZ","display":"Insertion of Endotracheal Airway into Trachea, Percutaneous Approach"}],"text":"Insertion of Endotracheal Airway into Trachea, Percutaneous Approach"},"subject":{"reference":"Patient/8415bf7d-2920-4ec3-9774-7a6f4272397e"},"performedPeriod":{"start":"2026-04-13T08:00:00.000+00:00","end":"2026-04-13T10:15:00.000+00:00"}},"request":{"method":"PUT","url":"Procedure/6a24b6e9-6026-4fea-8112-feb1d68ecb87"}},{"fullUrl":"https://madie.cms.gov/Procedure/dfbcb23d-342f-4397-98a6-8161d6095cbc","resource":{"resourceType":"Procedure","id":"dfbcb23d-342f-4397-98a6-8161d6095cbc","meta":{"profile":["http://hl7.org/fhir/us/qicore/StructureDefinition/qicore-procedure"]},"extension":[{"url":"http://hl7.org/fhir/us/qicore/StructureDefinition/qicore-recorded","valueDateTime":"2026-04-12T09:20:00.000+00:00"}],"status":"completed","code":{"coding":[{"system":"http://www.cms.gov/Medicare/Coding/ICD10","code":"0BH13EZ","display":"Insertion of Endotracheal Airway into Trachea, Percutaneous Approach"}],"text":"Insertion of Endotracheal Airway into Trachea, Percutaneous Approach"},"subject":{"reference":"Patient/8415bf7d-2920-4ec3-9774-7a6f4272397e"},"performedDateTime":"2026-04-12T09:16:00.000+00:00"},"request":{"method":"PUT","url":"Procedure/dfbcb23d-342f-4397-98a6-8161d6095cbc"}},{"fullUrl":"https://madie.cms.gov/Patient/8415bf7d-2920-4ec3-9774-7a6f4272397e","resource":{"resourceType":"Patient","id":"8415bf7d-2920-4ec3-9774-7a6f4272397e","meta":{"profile":["http://hl7.org/fhir/us/qicore/StructureDefinition/qicore-patient"]},"extension":[{"url":"http://hl7.org/fhir/us/core/StructureDefinition/us-core-race","extension":[{"url":"ombCategory","valueCoding":{"system":"urn:oid:2.16.840.1.113883.6.238","code":"2054-5","display":"Black or African American","userSelected":true}},{"url":"text","valueString":"Black or African American"}]},{"url":"http://hl7.org/fhir/us/core/StructureDefinition/us-core-ethnicity","extension":[{"url":"ombCategory","valueCoding":{"system":"urn:oid:2.16.840.1.113883.6.238","code":"2186-5","display":"Not Hispanic or Latino","userSelected":true}},{"url":"text","valueString":"Not Hispanic or Latino"}]}],"identifier":[{"type":{"coding":[{"system":"http://terminology.hl7.org/CodeSystem/v2-0203","code":"MR"}]},"system":"https://bonnie-fhir.healthit.gov/","value":"61152a3b98086b7a79cbd7c1"}],"active":true,"name":[{"use":"usual","family":"NUMER1Pass","given":["3Intubations2DuringProc1OutsideOfProc"]}],"gender":"female","birthDate":"1966-07-12"},"request":{"method":"PUT","url":"Patient/8415bf7d-2920-4ec3-9774-7a6f4272397e"}},{"fullUrl":"https://madie.cms.gov/Encounter/b307d68b-e25a-46b2-bf37-3eda2fa9a190","resource":{"resourceType":"Encounter","id":"b307d68b-e25a-46b2-bf37-3eda2fa9a190","meta":{"profile":["http://hl7.org/fhir/us/qicore/StructureDefinition/qicore-encounter"]},"status":"finished","class":{"system":"http://terminology.hl7.org/CodeSystem/v3-ActCode","code":"IMP","display":"inpatient encounter"},"type":[{"coding":[{"system":"http://snomed.info/sct","code":"112689000","display":"Hospital admission, elective, with complete pre-admission work-up"}],"text":"Hospital admission, elective, with complete pre-admission work-up"}],"priority":{"coding":[{"system":"http://snomed.info/sct","code":"103390000"}]},"subject":{"reference":"Patient/8415bf7d-2920-4ec3-9774-7a6f4272397e"},"period":{"start":"2026-04-10T08:00:00.000+00:00","end":"2026-04-17T08:15:00.000+00:00"}},"request":{"method":"PUT","url":"Encounter/b307d68b-e25a-46b2-bf37-3eda2fa9a190"}},{"fullUrl":"https://madie.cms.gov/Procedure/89d21b4c-d461-41ca-85a2-9d7f74705a45","resource":{"resourceType":"Procedure","id":"89d21b4c-d461-41ca-85a2-9d7f74705a45","meta":{"profile":["http://hl7.org/fhir/us/qicore/StructureDefinition/qicore-procedure"]},"extension":[{"url":"http://hl7.org/fhir/us/qicore/StructureDefinition/qicore-recorded","valueDateTime":"2026-04-12T10:30:00.000+00:00"}],"status":"completed","category":{"coding":[{"system":"http://snomed.info/sct","code":"18286008","display":"General or neuraxial anesthesia"}]},"code":{"coding":[{"system":"http://snomed.info/sct","code":"112943005","display":"Epidural injection of anesthetic substance, diagnostic, caudal, continuous"}]},"subject":{"reference":"Patient/8415bf7d-2920-4ec3-9774-7a6f4272397e"},"performedPeriod":{"start":"2026-04-12T08:00:00.000+00:00","end":"2026-04-12T10:15:00.000+00:00"}},"request":{"method":"PUT","url":"Procedure/89d21b4c-d461-41ca-85a2-9d7f74705a45"}},{"fullUrl":"https://madie.cms.gov/Procedure/122892c8-05de-4136-886f-b14e90891c5a","resource":{"resourceType":"Procedure","id":"122892c8-05de-4136-886f-b14e90891c5a","meta":{"profile":["http://hl7.org/fhir/us/qicore/StructureDefinition/qicore-procedure"]},"extension":[{"url":"http://hl7.org/fhir/us/qicore/StructureDefinition/qicore-recorded","valueDateTime":"2026-04-11T10:20:00.000+00:00"}],"status":"completed","category":{"coding":[{"system":"http://snomed.info/sct","code":"18286008","display":"General or neuraxial anesthesia"}]},"code":{"coding":[{"system":"http://snomed.info/sct","code":"112943005","display":"Epidural injection of anesthetic substance, diagnostic, caudal, continuous"}]},"subject":{"reference":"Patient/8415bf7d-2920-4ec3-9774-7a6f4272397e"},"performedPeriod":{"start":"2026-04-11T08:00:00.000+00:00","end":"2026-04-11T10:15:00.000+00:00"}},"request":{"method":"PUT","url":"Procedure/122892c8-05de-4136-886f-b14e90891c5a"}},{"fullUrl":"https://madie.cms.gov/MeasureReport/1d17d6cb-a00e-44e3-83e4-7815c441fa2f","resource":{"resourceType":"MeasureReport","id":"1d17d6cb-a00e-44e3-83e4-7815c441fa2f","meta":{"profile":["http://hl7.org/fhir/us/cqfmeasures/StructureDefinition/test-case-cqfm"]},"contained":[{"resourceType":"Parameters","id":"841d94be-b461-4018-8648-82e6911e14c5-parameters","parameter":[{"name":"subject","valueString":"8415bf7d-2920-4ec3-9774-7a6f4272397e"}]}],"extension":[{"url":"http://hl7.org/fhir/StructureDefinition/cqf-inputParameters","valueReference":{"reference":"#841d94be-b461-4018-8648-82e6911e14c5-parameters"}},{"url":"http://hl7.org/fhir/us/cqfmeasures/StructureDefinition/cqfm-testCaseDescription","valueMarkdown":"Elective hospitalization with 3 procs. 1st intubation during 2nd general anesthesia period so (fails Num 1 criteria) but has 2nd intubation later, outside of proc. Meets Numerator. \nHas a later procedure, with intubation during. Numerator still meets"}],"modifierExtension":[{"url":"http://hl7.org/fhir/us/cqfmeasures/StructureDefinition/cqfm-isTestCase","valueBoolean":true}],"status":"complete","type":"individual","measure":"https://madie.cms.gov/Measure/CMS1218FHIRHHRF","period":{"start":"2026-01-01","end":"2026-12-31"},"group":[{"id":"Group_1","population":[{"id":"InitialPopulation_1","code":{"coding":[{"system":"http://terminology.hl7.org/CodeSystem/measure-population","code":"initial-population","display":"Initial Population"}]},"count":1},{"id":"Denominator_1","code":{"coding":[{"system":"http://terminology.hl7.org/CodeSystem/measure-population","code":"denominator","display":"Denominator"}]},"count":1},{"id":"DenominatorExclusion_1","code":{"coding":[{"system":"http://terminology.hl7.org/CodeSystem/measure-population","code":"denominator-exclusion","display":"Denominator Exclusion"}]},"count":0},{"id":"Numerator_1","code":{"coding":[{"system":"http://terminology.hl7.org/CodeSystem/measure-population","code":"numerator","display":"Numerator"}]},"count":1}],"measureScore":{"value":0.0}}],"evaluatedResource":[{"reference":"Procedure/5641c359-17a3-457e-8ee8-ade12095fa2c"},{"reference":"Procedure/6a24b6e9-6026-4fea-8112-feb1d68ecb87"},{"reference":"Procedure/dfbcb23d-342f-4397-98a6-8161d6095cbc"},{"reference":"Patient/8415bf7d-2920-4ec3-9774-7a6f4272397e"},{"reference":"Encounter/b307d68b-e25a-46b2-bf37-3eda2fa9a190"},{"reference":"Procedure/89d21b4c-d461-41ca-85a2-9d7f74705a45"},{"reference":"Procedure/122892c8-05de-4136-886f-b14e90891c5a"}]},"request":{"method":"PUT","url":"MeasureReport/1d17d6cb-a00e-44e3-83e4-7815c441fa2f"}}]},"request":{"method":"PUT","url":"Bundle/tests-8415bf7d-2920-4ec3-9774-7a6f4272397e-bundle"}},{"fullUrl":"Patient/8415bf7d-2920-4ec3-9774-7a6f4272397e","resource":{"resourceType":"Patient","id":"8415bf7d-2920-4ec3-9774-7a6f4272397e","meta":{"profile":["http://hl7.org/fhir/us/qicore/StructureDefinition/qicore-patient"]},"extension":[{"url":"http://hl7.org/fhir/us/core/StructureDefinition/us-core-race","extension":[{"url":"ombCategory","valueCoding":{"system":"urn:oid:2.16.840.1.113883.6.238","code":"2054-5","display":"Black or African American","userSelected":true}},{"url":"text","valueString":"Black or African American"}]},{"url":"http://hl7.org/fhir/us/core/StructureDefinition/us-core-ethnicity","extension":[{"url":"ombCategory","valueCoding":{"system":"urn:oid:2.16.840.1.113883.6.238","code":"2186-5","display":"Not Hispanic or Latino","userSelected":true}},{"url":"text","valueString":"Not Hispanic or Latino"}]}],"identifier":[{"type":{"coding":[{"system":"http://terminology.hl7.org/CodeSystem/v2-0203","code":"MR"}]},"system":"https://bonnie-fhir.healthit.gov/","value":"61152a3b98086b7a79cbd7c1"}],"active":true,"name":[{"use":"usual","family":"NUMER1Pass","given":["3Intubations2DuringProc1OutsideOfProc"]}],"gender":"female","birthDate":"1966-07-12"},"request":{"method":"PUT","url":"Patient/8415bf7d-2920-4ec3-9774-7a6f4272397e"}},{"fullUrl":"Procedure/89d21b4c-d461-41ca-85a2-9d7f74705a45","resource":{"resourceType":"Procedure","id":"89d21b4c-d461-41ca-85a2-9d7f74705a45","meta":{"profile":["http://hl7.org/fhir/us/qicore/StructureDefinition/qicore-procedure"]},"extension":[{"url":"http://hl7.org/fhir/us/qicore/StructureDefinition/qicore-recorded","valueDateTime":"2026-04-12T10:30:00.000+00:00"}],"status":"completed","category":{"coding":[{"system":"http://snomed.info/sct","code":"18286008","display":"General or neuraxial anesthesia"}]},"code":{"coding":[{"system":"http://snomed.info/sct","code":"112943005","display":"Epidural injection of anesthetic substance, diagnostic, caudal, continuous"}]},"subject":{"reference":"Patient/8415bf7d-2920-4ec3-9774-7a6f4272397e"},"performedPeriod":{"start":"2026-04-12T08:00:00.000+00:00","end":"2026-04-12T10:15:00.000+00:00"}},"request":{"method":"PUT","url":"Procedure/89d21b4c-d461-41ca-85a2-9d7f74705a45"}},{"fullUrl":"Procedure/6a24b6e9-6026-4fea-8112-feb1d68ecb87","resource":{"resourceType":"Procedure","id":"6a24b6e9-6026-4fea-8112-feb1d68ecb87","meta":{"profile":["http://hl7.org/fhir/us/qicore/StructureDefinition/qicore-procedure"]},"extension":[{"url":"http://hl7.org/fhir/us/qicore/StructureDefinition/qicore-recorded","valueDateTime":"2026-04-13T10:20:00.000+00:00"}],"status":"completed","code":{"coding":[{"system":"http://www.cms.gov/Medicare/Coding/ICD10","code":"0BH13EZ","display":"Insertion of Endotracheal Airway into Trachea, Percutaneous Approach"}],"text":"Insertion of Endotracheal Airway into Trachea, Percutaneous Approach"},"subject":{"reference":"Patient/8415bf7d-2920-4ec3-9774-7a6f4272397e"},"performedPeriod":{"start":"2026-04-13T08:00:00.000+00:00","end":"2026-04-13T10:15:00.000+00:00"}},"request":{"method":"PUT","url":"Procedure/6a24b6e9-6026-4fea-8112-feb1d68ecb87"}},{"fullUrl":"Procedure/122892c8-05de-4136-886f-b14e90891c5a","resource":{"resourceType":"Procedure","id":"122892c8-05de-4136-886f-b14e90891c5a","meta":{"profile":["http://hl7.org/fhir/us/qicore/StructureDefinition/qicore-procedure"]},"extension":[{"url":"http://hl7.org/fhir/us/qicore/StructureDefinition/qicore-recorded","valueDateTime":"2026-04-11T10:20:00.000+00:00"}],"status":"completed","category":{"coding":[{"system":"http://snomed.info/sct","code":"18286008","display":"General or neuraxial anesthesia"}]},"code":{"coding":[{"system":"http://snomed.info/sct","code":"112943005","display":"Epidural injection of anesthetic substance, diagnostic, caudal, continuous"}]},"subject":{"reference":"Patient/8415bf7d-2920-4ec3-9774-7a6f4272397e"},"performedPeriod":{"start":"2026-04-11T08:00:00.000+00:00","end":"2026-04-11T10:15:00.000+00:00"}},"request":{"method":"PUT","url":"Procedure/122892c8-05de-4136-886f-b14e90891c5a"}},{"fullUrl":"Encounter/b307d68b-e25a-46b2-bf37-3eda2fa9a190","resource":{"resourceType":"Encounter","id":"b307d68b-e25a-46b2-bf37-3eda2fa9a190","meta":{"profile":["http://hl7.org/fhir/us/qicore/StructureDefinition/qicore-encounter"]},"status":"finished","class":{"system":"http://terminology.hl7.org/CodeSystem/v3-ActCode","code":"IMP","display":"inpatient encounter"},"type":[{"coding":[{"system":"http://snomed.info/sct","code":"112689000","display":"Hospital admission, elective, with complete pre-admission work-up"}],"text":"Hospital admission, elective, with complete pre-admission work-up"}],"priority":{"coding":[{"system":"http://snomed.info/sct","code":"103390000"}]},"subject":{"reference":"Patient/8415bf7d-2920-4ec3-9774-7a6f4272397e"},"period":{"start":"2026-04-10T08:00:00.000+00:00","end":"2026-04-17T08:15:00.000+00:00"}},"request":{"method":"PUT","url":"Encounter/b307d68b-e25a-46b2-bf37-3eda2fa9a190"}},{"fullUrl":"MeasureReport/1d17d6cb-a00e-44e3-83e4-7815c441fa2f","resource":{"resourceType":"MeasureReport","id":"1d17d6cb-a00e-44e3-83e4-7815c441fa2f","meta":{"profile":["http://hl7.org/fhir/us/cqfmeasures/StructureDefinition/test-case-cqfm"]},"contained":[{"resourceType":"Parameters","id":"841d94be-b461-4018-8648-82e6911e14c5-parameters","parameter":[{"name":"subject","valueString":"8415bf7d-2920-4ec3-9774-7a6f4272397e"}]}],"extension":[{"url":"http://hl7.org/fhir/StructureDefinition/cqf-inputParameters","valueReference":{"reference":"#841d94be-b461-4018-8648-82e6911e14c5-parameters"}},{"url":"http://hl7.org/fhir/us/cqfmeasures/StructureDefinition/cqfm-testCaseDescription","valueMarkdown":"Elective hospitalization with 3 procs. 1st intubation during 2nd general anesthesia period so (fails Num 1 criteria) but has 2nd intubation later, outside of proc. Meets Numerator. \nHas a later procedure, with intubation during. Numerator still meets"}],"modifierExtension":[{"url":"http://hl7.org/fhir/us/cqfmeasures/StructureDefinition/cqfm-isTestCase","valueBoolean":true}],"status":"complete","type":"individual","measure":"https://madie.cms.gov/Measure/CMS1218FHIRHHRF","period":{"start":"2026-01-01","end":"2026-12-31"},"group":[{"id":"Group_1","population":[{"id":"InitialPopulation_1","code":{"coding":[{"system":"http://terminology.hl7.org/CodeSystem/measure-population","code":"initial-population","display":"Initial Population"}]},"count":1},{"id":"Denominator_1","code":{"coding":[{"system":"http://terminology.hl7.org/CodeSystem/measure-population","code":"denominator","display":"Denominator"}]},"count":1},{"id":"DenominatorExclusion_1","code":{"coding":[{"system":"http://terminology.hl7.org/CodeSystem/measure-population","code":"denominator-exclusion","display":"Denominator Exclusion"}]},"count":0},{"id":"Numerator_1","code":{"coding":[{"system":"http://terminology.hl7.org/CodeSystem/measure-population","code":"numerator","display":"Numerator"}]},"count":1}],"measureScore":{"value":0.0}}],"evaluatedResource":[{"reference":"Procedure/5641c359-17a3-457e-8ee8-ade12095fa2c"},{"reference":"Procedure/6a24b6e9-6026-4fea-8112-feb1d68ecb87"},{"reference":"Procedure/dfbcb23d-342f-4397-98a6-8161d6095cbc"},{"reference":"Patient/8415bf7d-2920-4ec3-9774-7a6f4272397e"},{"reference":"Encounter/b307d68b-e25a-46b2-bf37-3eda2fa9a190"},{"reference":"Procedure/89d21b4c-d461-41ca-85a2-9d7f74705a45"},{"reference":"Procedure/122892c8-05de-4136-886f-b14e90891c5a"}]},"request":{"method":"PUT","url":"MeasureReport/1d17d6cb-a00e-44e3-83e4-7815c441fa2f"}}]}