{"resourceType":"Bundle","id":"tests-ae2f56d6-c3ee-4ed4-a425-365e532dafa8-bundle","type":"transaction","entry":[{"fullUrl":"Encounter/623e000c-99df-4c95-b145-d20fa130fb52","resource":{"resourceType":"Encounter","id":"623e000c-99df-4c95-b145-d20fa130fb52","meta":{"profile":["http://hl7.org/fhir/us/qicore/StructureDefinition/qicore-encounter"]},"status":"finished","class":{"system":"http://terminology.hl7.org/CodeSystem/v3-ActCode","code":"IMP","display":"inpatient encounter"},"type":[{"coding":[{"system":"http://snomed.info/sct","code":"112689000","display":"Hospital admission, elective, with complete pre-admission work-up"}],"text":"Hospital admission, elective, with complete pre-admission work-up"}],"priority":{"coding":[{"system":"http://snomed.info/sct","code":"103390000"}]},"subject":{"reference":"Patient/ae2f56d6-c3ee-4ed4-a425-365e532dafa8"},"period":{"start":"2026-04-10T08:00:00.000+00:00","end":"2026-04-14T08:15:00.000+00:00"},"diagnosis":[{"condition":{"reference":"Procedure/a854c7f7-3510-42b7-b132-2bafbe8686b0"},"rank":1}]},"request":{"method":"PUT","url":"Encounter/623e000c-99df-4c95-b145-d20fa130fb52"}},{"fullUrl":"Bundle/tests-ae2f56d6-c3ee-4ed4-a425-365e532dafa8-bundle","resource":{"resourceType":"Bundle","id":"tests-ae2f56d6-c3ee-4ed4-a425-365e532dafa8-bundle","type":"transaction","entry":[{"fullUrl":"https://madie.cms.gov/Encounter/623e000c-99df-4c95-b145-d20fa130fb52","resource":{"resourceType":"Encounter","id":"623e000c-99df-4c95-b145-d20fa130fb52","meta":{"profile":["http://hl7.org/fhir/us/qicore/StructureDefinition/qicore-encounter"]},"status":"finished","class":{"system":"http://terminology.hl7.org/CodeSystem/v3-ActCode","code":"IMP","display":"inpatient encounter"},"type":[{"coding":[{"system":"http://snomed.info/sct","code":"112689000","display":"Hospital admission, elective, with complete pre-admission work-up"}],"text":"Hospital admission, elective, with complete pre-admission work-up"}],"priority":{"coding":[{"system":"http://snomed.info/sct","code":"103390000"}]},"subject":{"reference":"Patient/ae2f56d6-c3ee-4ed4-a425-365e532dafa8"},"period":{"start":"2026-04-10T08:00:00.000+00:00","end":"2026-04-14T08:15:00.000+00:00"},"diagnosis":[{"condition":{"reference":"Procedure/a854c7f7-3510-42b7-b132-2bafbe8686b0"},"rank":1}]},"request":{"method":"PUT","url":"Encounter/623e000c-99df-4c95-b145-d20fa130fb52"}},{"fullUrl":"https://madie.cms.gov/Observation/99820fe6-765e-4940-82fd-9856ce173c05","resource":{"resourceType":"Observation","id":"99820fe6-765e-4940-82fd-9856ce173c05","meta":{"profile":["http://hl7.org/fhir/us/qicore/StructureDefinition/qicore-observation-lab"]},"status":"final","category":[{"coding":[{"system":"http://terminology.hl7.org/CodeSystem/observation-category","code":"laboratory","display":"Laboratory"}],"text":"Laboratory"}],"code":{"coding":[{"system":"http://loinc.org","code":"2744-1","display":"pH of Arterial blood"}],"text":"pH of Arterial blood"},"subject":{"reference":"Patient/ae2f56d6-c3ee-4ed4-a425-365e532dafa8"},"encounter":{"reference":"Encounter/623e000c-99df-4c95-b145-d20fa130fb52"},"effectiveDateTime":"2026-04-11T07:59:00.000+00:00","valueQuantity":{"value":7.29,"unit":"pH","system":"http://unitsofmeasure.org","code":"[pH]"}},"request":{"method":"PUT","url":"Observation/99820fe6-765e-4940-82fd-9856ce173c05"}},{"fullUrl":"https://madie.cms.gov/Procedure/97eb007a-fc52-44a1-8650-d4328a16b725","resource":{"resourceType":"Procedure","id":"97eb007a-fc52-44a1-8650-d4328a16b725","meta":{"profile":["http://hl7.org/fhir/us/qicore/StructureDefinition/qicore-procedure"]},"extension":[{"url":"http://hl7.org/fhir/us/qicore/StructureDefinition/qicore-recorded","valueDateTime":"2026-04-11T10:30:00.000+00:00"}],"status":"completed","category":{"coding":[{"system":"http://snomed.info/sct","code":"18286008","display":"General or neuraxial anesthesia"}]},"code":{"coding":[{"system":"http://snomed.info/sct","code":"112943005","display":"Epidural injection of anesthetic substance, diagnostic, caudal, continuous"}]},"subject":{"reference":"Patient/ae2f56d6-c3ee-4ed4-a425-365e532dafa8"},"performedPeriod":{"start":"2026-04-11T08:00:00.000+00:00","end":"2026-04-11T10:15:00.000+00:00"}},"request":{"method":"PUT","url":"Procedure/97eb007a-fc52-44a1-8650-d4328a16b725"}},{"fullUrl":"https://madie.cms.gov/Patient/ae2f56d6-c3ee-4ed4-a425-365e532dafa8","resource":{"resourceType":"Patient","id":"ae2f56d6-c3ee-4ed4-a425-365e532dafa8","meta":{"profile":["http://hl7.org/fhir/us/qicore/StructureDefinition/qicore-patient"]},"extension":[{"url":"http://hl7.org/fhir/us/core/StructureDefinition/us-core-race","extension":[{"url":"ombCategory","valueCoding":{"system":"urn:oid:2.16.840.1.113883.6.238","code":"2054-5","display":"Black or African American","userSelected":true}},{"url":"text","valueString":"Black or African American"}]},{"url":"http://hl7.org/fhir/us/core/StructureDefinition/us-core-ethnicity","extension":[{"url":"ombCategory","valueCoding":{"system":"urn:oid:2.16.840.1.113883.6.238","code":"2186-5","display":"Not Hispanic or Latino","userSelected":true}},{"url":"text","valueString":"Not Hispanic or Latino"}]}],"identifier":[{"type":{"coding":[{"system":"http://terminology.hl7.org/CodeSystem/v2-0203","code":"MR"}]},"system":"https://bonnie-fhir.healthit.gov/","value":"61152a3b98086b7a79cbd7c1"}],"active":true,"name":[{"use":"usual","family":"DENEXPass","given":["PaCO2GT50andpHLT70EQ48HrsOfFirstProc"]}],"gender":"female","birthDate":"1966-07-12"},"request":{"method":"PUT","url":"Patient/ae2f56d6-c3ee-4ed4-a425-365e532dafa8"}},{"fullUrl":"https://madie.cms.gov/Observation/7cb30e80-41bd-49a8-b3d0-756ac57e0b16","resource":{"resourceType":"Observation","id":"7cb30e80-41bd-49a8-b3d0-756ac57e0b16","meta":{"profile":["http://hl7.org/fhir/us/qicore/StructureDefinition/qicore-observation-lab"]},"status":"final","category":[{"coding":[{"system":"http://terminology.hl7.org/CodeSystem/observation-category","code":"laboratory","display":"Laboratory"}],"text":"Laboratory"}],"code":{"coding":[{"system":"http://loinc.org","code":"2019-8","display":"Carbon dioxide [Partial pressure] in Arterial blood"}],"text":"Carbon dioxide [Partial pressure] in Arterial blood"},"subject":{"reference":"Patient/ae2f56d6-c3ee-4ed4-a425-365e532dafa8"},"encounter":{"reference":"Encounter/623e000c-99df-4c95-b145-d20fa130fb52"},"effectiveDateTime":"2026-04-09T08:00:00.000+00:00","valueQuantity":{"value":50.1,"unit":"mmHg","system":"http://unitsofmeasure.org","code":"mm[Hg]"}},"request":{"method":"PUT","url":"Observation/7cb30e80-41bd-49a8-b3d0-756ac57e0b16"}},{"fullUrl":"https://madie.cms.gov/MeasureReport/a05eb86e-d69b-4e4a-9840-ef6488bf07d2","resource":{"resourceType":"MeasureReport","id":"a05eb86e-d69b-4e4a-9840-ef6488bf07d2","meta":{"profile":["http://hl7.org/fhir/us/cqfmeasures/StructureDefinition/test-case-cqfm"]},"contained":[{"resourceType":"Parameters","id":"468aa5bc-f5b0-494e-95fe-3b891b53366a-parameters","parameter":[{"name":"subject","valueString":"ae2f56d6-c3ee-4ed4-a425-365e532dafa8"}]}],"extension":[{"url":"http://hl7.org/fhir/StructureDefinition/cqf-inputParameters","valueReference":{"reference":"#468aa5bc-f5b0-494e-95fe-3b891b53366a-parameters"}},{"url":"http://hl7.org/fhir/us/cqfmeasures/StructureDefinition/cqfm-testCaseDescription","valueMarkdown":"Elective hospitalization with procedure (general anesthesia) within first 3 days of encounter. PaCO2 >50 and pH <7.30 at 48 hours of start of procedure. Meets Denom Exclusion.\n"}],"modifierExtension":[{"url":"http://hl7.org/fhir/us/cqfmeasures/StructureDefinition/cqfm-isTestCase","valueBoolean":true}],"status":"complete","type":"individual","measure":"https://madie.cms.gov/Measure/CMS1218FHIRHHRF","period":{"start":"2026-01-01","end":"2026-12-31"},"group":[{"id":"Group_1","population":[{"id":"InitialPopulation_1","code":{"coding":[{"system":"http://terminology.hl7.org/CodeSystem/measure-population","code":"initial-population","display":"Initial Population"}]},"count":1},{"id":"Denominator_1","code":{"coding":[{"system":"http://terminology.hl7.org/CodeSystem/measure-population","code":"denominator","display":"Denominator"}]},"count":1},{"id":"DenominatorExclusion_1","code":{"coding":[{"system":"http://terminology.hl7.org/CodeSystem/measure-population","code":"denominator-exclusion","display":"Denominator Exclusion"}]},"count":1},{"id":"Numerator_1","code":{"coding":[{"system":"http://terminology.hl7.org/CodeSystem/measure-population","code":"numerator","display":"Numerator"}]},"count":0}],"measureScore":{"value":0.0}}],"evaluatedResource":[{"reference":"Encounter/623e000c-99df-4c95-b145-d20fa130fb52"},{"reference":"Observation/99820fe6-765e-4940-82fd-9856ce173c05"},{"reference":"Procedure/97eb007a-fc52-44a1-8650-d4328a16b725"},{"reference":"Patient/ae2f56d6-c3ee-4ed4-a425-365e532dafa8"},{"reference":"Observation/7cb30e80-41bd-49a8-b3d0-756ac57e0b16"}]},"request":{"method":"PUT","url":"MeasureReport/a05eb86e-d69b-4e4a-9840-ef6488bf07d2"}}]},"request":{"method":"PUT","url":"Bundle/tests-ae2f56d6-c3ee-4ed4-a425-365e532dafa8-bundle"}},{"fullUrl":"Observation/99820fe6-765e-4940-82fd-9856ce173c05","resource":{"resourceType":"Observation","id":"99820fe6-765e-4940-82fd-9856ce173c05","meta":{"profile":["http://hl7.org/fhir/us/qicore/StructureDefinition/qicore-observation-lab"]},"status":"final","category":[{"coding":[{"system":"http://terminology.hl7.org/CodeSystem/observation-category","code":"laboratory","display":"Laboratory"}],"text":"Laboratory"}],"code":{"coding":[{"system":"http://loinc.org","code":"2744-1","display":"pH of Arterial blood"}],"text":"pH of Arterial blood"},"subject":{"reference":"Patient/ae2f56d6-c3ee-4ed4-a425-365e532dafa8"},"encounter":{"reference":"Encounter/623e000c-99df-4c95-b145-d20fa130fb52"},"effectiveDateTime":"2026-04-11T07:59:00.000+00:00","valueQuantity":{"value":7.29,"unit":"pH","system":"http://unitsofmeasure.org","code":"[pH]"}},"request":{"method":"PUT","url":"Observation/99820fe6-765e-4940-82fd-9856ce173c05"}},{"fullUrl":"Procedure/97eb007a-fc52-44a1-8650-d4328a16b725","resource":{"resourceType":"Procedure","id":"97eb007a-fc52-44a1-8650-d4328a16b725","meta":{"profile":["http://hl7.org/fhir/us/qicore/StructureDefinition/qicore-procedure"]},"extension":[{"url":"http://hl7.org/fhir/us/qicore/StructureDefinition/qicore-recorded","valueDateTime":"2026-04-11T10:30:00.000+00:00"}],"status":"completed","category":{"coding":[{"system":"http://snomed.info/sct","code":"18286008","display":"General or neuraxial anesthesia"}]},"code":{"coding":[{"system":"http://snomed.info/sct","code":"112943005","display":"Epidural injection of anesthetic substance, diagnostic, caudal, continuous"}]},"subject":{"reference":"Patient/ae2f56d6-c3ee-4ed4-a425-365e532dafa8"},"performedPeriod":{"start":"2026-04-11T08:00:00.000+00:00","end":"2026-04-11T10:15:00.000+00:00"}},"request":{"method":"PUT","url":"Procedure/97eb007a-fc52-44a1-8650-d4328a16b725"}},{"fullUrl":"MeasureReport/a05eb86e-d69b-4e4a-9840-ef6488bf07d2","resource":{"resourceType":"MeasureReport","id":"a05eb86e-d69b-4e4a-9840-ef6488bf07d2","meta":{"profile":["http://hl7.org/fhir/us/cqfmeasures/StructureDefinition/test-case-cqfm"]},"contained":[{"resourceType":"Parameters","id":"468aa5bc-f5b0-494e-95fe-3b891b53366a-parameters","parameter":[{"name":"subject","valueString":"ae2f56d6-c3ee-4ed4-a425-365e532dafa8"}]}],"extension":[{"url":"http://hl7.org/fhir/StructureDefinition/cqf-inputParameters","valueReference":{"reference":"#468aa5bc-f5b0-494e-95fe-3b891b53366a-parameters"}},{"url":"http://hl7.org/fhir/us/cqfmeasures/StructureDefinition/cqfm-testCaseDescription","valueMarkdown":"Elective hospitalization with procedure (general anesthesia) within first 3 days of encounter. PaCO2 >50 and pH <7.30 at 48 hours of start of procedure. Meets Denom Exclusion.\n"}],"modifierExtension":[{"url":"http://hl7.org/fhir/us/cqfmeasures/StructureDefinition/cqfm-isTestCase","valueBoolean":true}],"status":"complete","type":"individual","measure":"https://madie.cms.gov/Measure/CMS1218FHIRHHRF","period":{"start":"2026-01-01","end":"2026-12-31"},"group":[{"id":"Group_1","population":[{"id":"InitialPopulation_1","code":{"coding":[{"system":"http://terminology.hl7.org/CodeSystem/measure-population","code":"initial-population","display":"Initial Population"}]},"count":1},{"id":"Denominator_1","code":{"coding":[{"system":"http://terminology.hl7.org/CodeSystem/measure-population","code":"denominator","display":"Denominator"}]},"count":1},{"id":"DenominatorExclusion_1","code":{"coding":[{"system":"http://terminology.hl7.org/CodeSystem/measure-population","code":"denominator-exclusion","display":"Denominator Exclusion"}]},"count":1},{"id":"Numerator_1","code":{"coding":[{"system":"http://terminology.hl7.org/CodeSystem/measure-population","code":"numerator","display":"Numerator"}]},"count":0}],"measureScore":{"value":0.0}}],"evaluatedResource":[{"reference":"Encounter/623e000c-99df-4c95-b145-d20fa130fb52"},{"reference":"Observation/99820fe6-765e-4940-82fd-9856ce173c05"},{"reference":"Procedure/97eb007a-fc52-44a1-8650-d4328a16b725"},{"reference":"Patient/ae2f56d6-c3ee-4ed4-a425-365e532dafa8"},{"reference":"Observation/7cb30e80-41bd-49a8-b3d0-756ac57e0b16"}]},"request":{"method":"PUT","url":"MeasureReport/a05eb86e-d69b-4e4a-9840-ef6488bf07d2"}},{"fullUrl":"Patient/ae2f56d6-c3ee-4ed4-a425-365e532dafa8","resource":{"resourceType":"Patient","id":"ae2f56d6-c3ee-4ed4-a425-365e532dafa8","meta":{"profile":["http://hl7.org/fhir/us/qicore/StructureDefinition/qicore-patient"]},"extension":[{"url":"http://hl7.org/fhir/us/core/StructureDefinition/us-core-race","extension":[{"url":"ombCategory","valueCoding":{"system":"urn:oid:2.16.840.1.113883.6.238","code":"2054-5","display":"Black or African American","userSelected":true}},{"url":"text","valueString":"Black or African American"}]},{"url":"http://hl7.org/fhir/us/core/StructureDefinition/us-core-ethnicity","extension":[{"url":"ombCategory","valueCoding":{"system":"urn:oid:2.16.840.1.113883.6.238","code":"2186-5","display":"Not Hispanic or Latino","userSelected":true}},{"url":"text","valueString":"Not Hispanic or Latino"}]}],"identifier":[{"type":{"coding":[{"system":"http://terminology.hl7.org/CodeSystem/v2-0203","code":"MR"}]},"system":"https://bonnie-fhir.healthit.gov/","value":"61152a3b98086b7a79cbd7c1"}],"active":true,"name":[{"use":"usual","family":"DENEXPass","given":["PaCO2GT50andpHLT70EQ48HrsOfFirstProc"]}],"gender":"female","birthDate":"1966-07-12"},"request":{"method":"PUT","url":"Patient/ae2f56d6-c3ee-4ed4-a425-365e532dafa8"}},{"fullUrl":"Observation/7cb30e80-41bd-49a8-b3d0-756ac57e0b16","resource":{"resourceType":"Observation","id":"7cb30e80-41bd-49a8-b3d0-756ac57e0b16","meta":{"profile":["http://hl7.org/fhir/us/qicore/StructureDefinition/qicore-observation-lab"]},"status":"final","category":[{"coding":[{"system":"http://terminology.hl7.org/CodeSystem/observation-category","code":"laboratory","display":"Laboratory"}],"text":"Laboratory"}],"code":{"coding":[{"system":"http://loinc.org","code":"2019-8","display":"Carbon dioxide [Partial pressure] in Arterial blood"}],"text":"Carbon dioxide [Partial pressure] in Arterial blood"},"subject":{"reference":"Patient/ae2f56d6-c3ee-4ed4-a425-365e532dafa8"},"encounter":{"reference":"Encounter/623e000c-99df-4c95-b145-d20fa130fb52"},"effectiveDateTime":"2026-04-09T08:00:00.000+00:00","valueQuantity":{"value":50.1,"unit":"mmHg","system":"http://unitsofmeasure.org","code":"mm[Hg]"}},"request":{"method":"PUT","url":"Observation/7cb30e80-41bd-49a8-b3d0-756ac57e0b16"}}]}