{"resourceType":"Bundle","id":"tests-0770c85b-6b0c-46cc-a5e7-9c3db8ba6063-bundle","type":"transaction","entry":[{"fullUrl":"MeasureReport/9b0badff-891f-43e8-a597-92b75e35d374","resource":{"resourceType":"MeasureReport","id":"9b0badff-891f-43e8-a597-92b75e35d374","meta":{"profile":["http://hl7.org/fhir/us/cqfmeasures/StructureDefinition/test-case-cqfm"]},"contained":[{"resourceType":"Parameters","id":"e2e1ecc8-8309-4970-abe5-f7ac361ece8a-parameters","parameter":[{"name":"subject","valueString":"0770c85b-6b0c-46cc-a5e7-9c3db8ba6063"}]}],"extension":[{"url":"http://hl7.org/fhir/StructureDefinition/cqf-inputParameters","valueReference":{"reference":"#e2e1ecc8-8309-4970-abe5-f7ac361ece8a-parameters"}},{"url":"http://hl7.org/fhir/us/cqfmeasures/StructureDefinition/cqfm-testCaseDescription","valueMarkdown":"Elective hospitalization with procedure (general anesthesia) within first 3 days of encounter. But has encounter diagnosis of neuromuscular disorder via reasonReference so meets denom exclusion. \n"}],"modifierExtension":[{"url":"http://hl7.org/fhir/us/cqfmeasures/StructureDefinition/cqfm-isTestCase","valueBoolean":true}],"status":"complete","type":"individual","measure":"https://madie.cms.gov/Measure/CMS1218FHIRHHRF","period":{"start":"2026-01-01","end":"2026-12-31"},"group":[{"id":"Group_1","population":[{"id":"InitialPopulation_1","code":{"coding":[{"system":"http://terminology.hl7.org/CodeSystem/measure-population","code":"initial-population","display":"Initial Population"}]},"count":1},{"id":"Denominator_1","code":{"coding":[{"system":"http://terminology.hl7.org/CodeSystem/measure-population","code":"denominator","display":"Denominator"}]},"count":1},{"id":"DenominatorExclusion_1","code":{"coding":[{"system":"http://terminology.hl7.org/CodeSystem/measure-population","code":"denominator-exclusion","display":"Denominator Exclusion"}]},"count":1},{"id":"Numerator_1","code":{"coding":[{"system":"http://terminology.hl7.org/CodeSystem/measure-population","code":"numerator","display":"Numerator"}]},"count":0}],"measureScore":{"value":0.0}}],"evaluatedResource":[{"reference":"Patient/0770c85b-6b0c-46cc-a5e7-9c3db8ba6063"},{"reference":"Encounter/c3b43e67-bbbb-4027-8fec-a8948ce6255c"},{"reference":"Procedure/5c857573-1e88-462b-aa6d-bb02c28d4565"},{"reference":"Condition/e9d229b0-5b38-4130-9bd3-37ef3f581ff0"}]},"request":{"method":"PUT","url":"MeasureReport/9b0badff-891f-43e8-a597-92b75e35d374"}},{"fullUrl":"Encounter/c3b43e67-bbbb-4027-8fec-a8948ce6255c","resource":{"resourceType":"Encounter","id":"c3b43e67-bbbb-4027-8fec-a8948ce6255c","meta":{"profile":["http://hl7.org/fhir/us/qicore/StructureDefinition/qicore-encounter"]},"status":"finished","class":{"system":"http://terminology.hl7.org/CodeSystem/v3-ActCode","code":"IMP","display":"inpatient encounter"},"type":[{"coding":[{"system":"http://snomed.info/sct","code":"112689000","display":"Hospital admission, elective, with complete pre-admission work-up"}],"text":"Hospital admission, elective, with complete pre-admission work-up"}],"priority":{"coding":[{"system":"http://snomed.info/sct","code":"103390000"}]},"subject":{"reference":"Patient/0770c85b-6b0c-46cc-a5e7-9c3db8ba6063"},"period":{"start":"2026-04-10T08:00:00.000+00:00","end":"2026-04-14T08:15:00.000+00:00"},"reasonReference":[{"reference":"Condition/e9d229b0-5b38-4130-9bd3-37ef3f581ff0"}]},"request":{"method":"PUT","url":"Encounter/c3b43e67-bbbb-4027-8fec-a8948ce6255c"}},{"fullUrl":"Bundle/tests-7c224175-f689-4b7e-82ad-22175d5238b7-bundle","resource":{"resourceType":"Bundle","id":"tests-7c224175-f689-4b7e-82ad-22175d5238b7-bundle","type":"transaction","entry":[{"fullUrl":"https://madie.cms.gov/Patient/0770c85b-6b0c-46cc-a5e7-9c3db8ba6063","resource":{"resourceType":"Patient","id":"0770c85b-6b0c-46cc-a5e7-9c3db8ba6063","meta":{"profile":["http://hl7.org/fhir/us/qicore/StructureDefinition/qicore-patient"]},"extension":[{"url":"http://hl7.org/fhir/us/core/StructureDefinition/us-core-race","extension":[{"url":"ombCategory","valueCoding":{"system":"urn:oid:2.16.840.1.113883.6.238","code":"2054-5","display":"Black or African American","userSelected":true}},{"url":"text","valueString":"Black or African American"}]},{"url":"http://hl7.org/fhir/us/core/StructureDefinition/us-core-ethnicity","extension":[{"url":"ombCategory","valueCoding":{"system":"urn:oid:2.16.840.1.113883.6.238","code":"2186-5","display":"Not Hispanic or Latino","userSelected":true}},{"url":"text","valueString":"Not Hispanic or Latino"}]}],"identifier":[{"type":{"coding":[{"system":"http://terminology.hl7.org/CodeSystem/v2-0203","code":"MR"}]},"system":"https://bonnie-fhir.healthit.gov/","value":"61152a3b98086b7a79cbd7c1"}],"active":true,"name":[{"use":"usual","family":"DENEXPass","given":["NeuromuscularDisorder"]}],"gender":"female","birthDate":"1966-07-12"},"request":{"method":"PUT","url":"Patient/0770c85b-6b0c-46cc-a5e7-9c3db8ba6063"}},{"fullUrl":"https://madie.cms.gov/Encounter/c3b43e67-bbbb-4027-8fec-a8948ce6255c","resource":{"resourceType":"Encounter","id":"c3b43e67-bbbb-4027-8fec-a8948ce6255c","meta":{"profile":["http://hl7.org/fhir/us/qicore/StructureDefinition/qicore-encounter"]},"status":"finished","class":{"system":"http://terminology.hl7.org/CodeSystem/v3-ActCode","code":"IMP","display":"inpatient encounter"},"type":[{"coding":[{"system":"http://snomed.info/sct","code":"112689000","display":"Hospital admission, elective, with complete pre-admission work-up"}],"text":"Hospital admission, elective, with complete pre-admission work-up"}],"priority":{"coding":[{"system":"http://snomed.info/sct","code":"103390000"}]},"subject":{"reference":"Patient/0770c85b-6b0c-46cc-a5e7-9c3db8ba6063"},"period":{"start":"2026-04-10T08:00:00.000+00:00","end":"2026-04-14T08:15:00.000+00:00"},"reasonReference":[{"reference":"Condition/e9d229b0-5b38-4130-9bd3-37ef3f581ff0"}]},"request":{"method":"PUT","url":"Encounter/c3b43e67-bbbb-4027-8fec-a8948ce6255c"}},{"fullUrl":"https://madie.cms.gov/Procedure/5c857573-1e88-462b-aa6d-bb02c28d4565","resource":{"resourceType":"Procedure","id":"5c857573-1e88-462b-aa6d-bb02c28d4565","meta":{"profile":["http://hl7.org/fhir/us/qicore/StructureDefinition/qicore-procedure"]},"extension":[{"url":"http://hl7.org/fhir/us/qicore/StructureDefinition/qicore-recorded","valueDateTime":"2026-04-11T10:20:00.000+00:00"}],"status":"completed","category":{"coding":[{"system":"http://snomed.info/sct","code":"18286008","display":"General or neuraxial anesthesia"}]},"code":{"coding":[{"system":"http://snomed.info/sct","code":"112943005","display":"Epidural injection of anesthetic substance, diagnostic, caudal, continuous"}]},"subject":{"reference":"Patient/0770c85b-6b0c-46cc-a5e7-9c3db8ba6063"},"performedPeriod":{"start":"2026-04-11T08:00:00.000+00:00","end":"2026-04-11T10:15:00.000+00:00"}},"request":{"method":"PUT","url":"Procedure/5c857573-1e88-462b-aa6d-bb02c28d4565"}},{"fullUrl":"https://madie.cms.gov/Condition/e9d229b0-5b38-4130-9bd3-37ef3f581ff0","resource":{"resourceType":"Condition","id":"e9d229b0-5b38-4130-9bd3-37ef3f581ff0","meta":{"profile":["http://hl7.org/fhir/us/qicore/StructureDefinition/qicore-condition-encounter-diagnosis"]},"clinicalStatus":{"coding":[{"system":"http://terminology.hl7.org/CodeSystem/condition-clinical","code":"active","display":"Active","userSelected":true}]},"verificationStatus":{"coding":[{"system":"http://terminology.hl7.org/CodeSystem/condition-ver-status","code":"confirmed","display":"Confirmed","userSelected":true}]},"category":[{"coding":[{"system":"http://terminology.hl7.org/CodeSystem/condition-category","code":"encounter-diagnosis","display":"Encounter Diagnosis","userSelected":true}]}],"code":{"coding":[{"system":"http://hl7.org/fhir/sid/icd-10-cm","code":"G61.0","display":"Guillain-Barré syndrome","userSelected":true}]},"subject":{"reference":"Patient/0770c85b-6b0c-46cc-a5e7-9c3db8ba6063"},"onsetPeriod":{"start":"2026-04-10T08:00:00.000+00:00"},"recordedDate":"2026-04-10T08:05:00.000+00:00"},"request":{"method":"PUT","url":"Condition/e9d229b0-5b38-4130-9bd3-37ef3f581ff0"}},{"fullUrl":"https://madie.cms.gov/MeasureReport/9b0badff-891f-43e8-a597-92b75e35d374","resource":{"resourceType":"MeasureReport","id":"9b0badff-891f-43e8-a597-92b75e35d374","meta":{"profile":["http://hl7.org/fhir/us/cqfmeasures/StructureDefinition/test-case-cqfm"]},"contained":[{"resourceType":"Parameters","id":"e2e1ecc8-8309-4970-abe5-f7ac361ece8a-parameters","parameter":[{"name":"subject","valueString":"0770c85b-6b0c-46cc-a5e7-9c3db8ba6063"}]}],"extension":[{"url":"http://hl7.org/fhir/StructureDefinition/cqf-inputParameters","valueReference":{"reference":"#e2e1ecc8-8309-4970-abe5-f7ac361ece8a-parameters"}},{"url":"http://hl7.org/fhir/us/cqfmeasures/StructureDefinition/cqfm-testCaseDescription","valueMarkdown":"Elective hospitalization with procedure (general anesthesia) within first 3 days of encounter. But has encounter diagnosis of neuromuscular disorder via reasonReference so meets denom exclusion. \n"}],"modifierExtension":[{"url":"http://hl7.org/fhir/us/cqfmeasures/StructureDefinition/cqfm-isTestCase","valueBoolean":true}],"status":"complete","type":"individual","measure":"https://madie.cms.gov/Measure/CMS1218FHIRHHRF","period":{"start":"2026-01-01","end":"2026-12-31"},"group":[{"id":"Group_1","population":[{"id":"InitialPopulation_1","code":{"coding":[{"system":"http://terminology.hl7.org/CodeSystem/measure-population","code":"initial-population","display":"Initial Population"}]},"count":1},{"id":"Denominator_1","code":{"coding":[{"system":"http://terminology.hl7.org/CodeSystem/measure-population","code":"denominator","display":"Denominator"}]},"count":1},{"id":"DenominatorExclusion_1","code":{"coding":[{"system":"http://terminology.hl7.org/CodeSystem/measure-population","code":"denominator-exclusion","display":"Denominator Exclusion"}]},"count":1},{"id":"Numerator_1","code":{"coding":[{"system":"http://terminology.hl7.org/CodeSystem/measure-population","code":"numerator","display":"Numerator"}]},"count":0}],"measureScore":{"value":0.0}}],"evaluatedResource":[{"reference":"Patient/0770c85b-6b0c-46cc-a5e7-9c3db8ba6063"},{"reference":"Encounter/c3b43e67-bbbb-4027-8fec-a8948ce6255c"},{"reference":"Procedure/5c857573-1e88-462b-aa6d-bb02c28d4565"},{"reference":"Condition/e9d229b0-5b38-4130-9bd3-37ef3f581ff0"}]},"request":{"method":"PUT","url":"MeasureReport/9b0badff-891f-43e8-a597-92b75e35d374"}}]},"request":{"method":"PUT","url":"Bundle/tests-7c224175-f689-4b7e-82ad-22175d5238b7-bundle"}},{"fullUrl":"Patient/0770c85b-6b0c-46cc-a5e7-9c3db8ba6063","resource":{"resourceType":"Patient","id":"0770c85b-6b0c-46cc-a5e7-9c3db8ba6063","meta":{"profile":["http://hl7.org/fhir/us/qicore/StructureDefinition/qicore-patient"]},"extension":[{"url":"http://hl7.org/fhir/us/core/StructureDefinition/us-core-race","extension":[{"url":"ombCategory","valueCoding":{"system":"urn:oid:2.16.840.1.113883.6.238","code":"2054-5","display":"Black or African American","userSelected":true}},{"url":"text","valueString":"Black or African American"}]},{"url":"http://hl7.org/fhir/us/core/StructureDefinition/us-core-ethnicity","extension":[{"url":"ombCategory","valueCoding":{"system":"urn:oid:2.16.840.1.113883.6.238","code":"2186-5","display":"Not Hispanic or Latino","userSelected":true}},{"url":"text","valueString":"Not Hispanic or Latino"}]}],"identifier":[{"type":{"coding":[{"system":"http://terminology.hl7.org/CodeSystem/v2-0203","code":"MR"}]},"system":"https://bonnie-fhir.healthit.gov/","value":"61152a3b98086b7a79cbd7c1"}],"active":true,"name":[{"use":"usual","family":"DENEXPass","given":["NeuromuscularDisorder"]}],"gender":"female","birthDate":"1966-07-12"},"request":{"method":"PUT","url":"Patient/0770c85b-6b0c-46cc-a5e7-9c3db8ba6063"}},{"fullUrl":"Condition/e9d229b0-5b38-4130-9bd3-37ef3f581ff0","resource":{"resourceType":"Condition","id":"e9d229b0-5b38-4130-9bd3-37ef3f581ff0","meta":{"profile":["http://hl7.org/fhir/us/qicore/StructureDefinition/qicore-condition-encounter-diagnosis"]},"clinicalStatus":{"coding":[{"system":"http://terminology.hl7.org/CodeSystem/condition-clinical","code":"active","display":"Active","userSelected":true}]},"verificationStatus":{"coding":[{"system":"http://terminology.hl7.org/CodeSystem/condition-ver-status","code":"confirmed","display":"Confirmed","userSelected":true}]},"category":[{"coding":[{"system":"http://terminology.hl7.org/CodeSystem/condition-category","code":"encounter-diagnosis","display":"Encounter Diagnosis","userSelected":true}]}],"code":{"coding":[{"system":"http://hl7.org/fhir/sid/icd-10-cm","code":"G61.0","display":"Guillain-Barré syndrome","userSelected":true}]},"subject":{"reference":"Patient/0770c85b-6b0c-46cc-a5e7-9c3db8ba6063"},"onsetPeriod":{"start":"2026-04-10T08:00:00.000+00:00"},"recordedDate":"2026-04-10T08:05:00.000+00:00"},"request":{"method":"PUT","url":"Condition/e9d229b0-5b38-4130-9bd3-37ef3f581ff0"}},{"fullUrl":"Procedure/5c857573-1e88-462b-aa6d-bb02c28d4565","resource":{"resourceType":"Procedure","id":"5c857573-1e88-462b-aa6d-bb02c28d4565","meta":{"profile":["http://hl7.org/fhir/us/qicore/StructureDefinition/qicore-procedure"]},"extension":[{"url":"http://hl7.org/fhir/us/qicore/StructureDefinition/qicore-recorded","valueDateTime":"2026-04-11T10:20:00.000+00:00"}],"status":"completed","category":{"coding":[{"system":"http://snomed.info/sct","code":"18286008","display":"General or neuraxial anesthesia"}]},"code":{"coding":[{"system":"http://snomed.info/sct","code":"112943005","display":"Epidural injection of anesthetic substance, diagnostic, caudal, continuous"}]},"subject":{"reference":"Patient/0770c85b-6b0c-46cc-a5e7-9c3db8ba6063"},"performedPeriod":{"start":"2026-04-11T08:00:00.000+00:00","end":"2026-04-11T10:15:00.000+00:00"}},"request":{"method":"PUT","url":"Procedure/5c857573-1e88-462b-aa6d-bb02c28d4565"}}]}