{"resourceType":"Bundle","id":"tests-0c76341a-34f1-4d1b-9bbe-5915e00a0818-bundle","type":"transaction","entry":[{"fullUrl":"Bundle/tests-RiskVarPassFirstHematocrit-bundle","resource":{"resourceType":"Bundle","id":"tests-RiskVarPassFirstHematocrit-bundle","type":"transaction","entry":[{"fullUrl":"https://madie.cms.gov/Encounter/f236095c-8987-458c-b448-01d0edda8462","resource":{"resourceType":"Encounter","id":"f236095c-8987-458c-b448-01d0edda8462","meta":{"profile":["http://hl7.org/fhir/us/qicore/StructureDefinition/qicore-encounter"]},"status":"finished","class":{"system":"http://terminology.hl7.org/CodeSystem/v3-ActCode","code":"IMP","display":"inpatient encounter"},"type":[{"coding":[{"system":"http://snomed.info/sct","code":"112689000","display":"Hospital admission, elective, with complete pre-admission work-up"}],"text":"Hospital admission, elective, with complete pre-admission work-up"}],"priority":{"coding":[{"system":"http://snomed.info/sct","code":"103390000"}]},"subject":{"reference":"Patient/0c76341a-34f1-4d1b-9bbe-5915e00a0818"},"period":{"start":"2026-04-10T08:00:00.000+00:00","end":"2026-04-14T08:15:00.000+00:00"},"diagnosis":[{"condition":{"reference":"Procedure/967e440e-8766-4705-924b-00b4a61b0458"},"rank":1}]},"request":{"method":"PUT","url":"Encounter/f236095c-8987-458c-b448-01d0edda8462"}},{"fullUrl":"https://madie.cms.gov/Observation/57f50028-5e7d-44af-928c-64ac36add2fe","resource":{"resourceType":"Observation","id":"57f50028-5e7d-44af-928c-64ac36add2fe","meta":{"profile":["http://hl7.org/fhir/us/qicore/StructureDefinition/qicore-observation-lab"]},"status":"final","category":[{"coding":[{"system":"http://terminology.hl7.org/CodeSystem/observation-category","code":"laboratory","display":"Laboratory"}],"text":"Laboratory"}],"code":{"coding":[{"system":"http://loinc.org","version":"2.76","code":"31100-1","display":"Hematocrit [Volume Fraction] of Blood by Impedance"}],"text":"Hematocrit [Volume Fraction] of Blood by Impedance"},"subject":{"reference":"Patient/0c76341a-34f1-4d1b-9bbe-5915e00a0818"},"encounter":{"reference":"Encounter/f236095c-8987-458c-b448-01d0edda8462"},"effectiveDateTime":"2026-04-11T09:00:00.000+00:00"},"request":{"method":"PUT","url":"Observation/57f50028-5e7d-44af-928c-64ac36add2fe"}},{"fullUrl":"https://madie.cms.gov/Observation/32c1522f-1954-413a-a019-cf6a371d1478","resource":{"resourceType":"Observation","id":"32c1522f-1954-413a-a019-cf6a371d1478","meta":{"profile":["http://hl7.org/fhir/us/qicore/StructureDefinition/qicore-observation-lab"]},"status":"final","category":[{"coding":[{"system":"http://terminology.hl7.org/CodeSystem/observation-category","code":"laboratory","display":"Laboratory"}],"text":"Laboratory"}],"code":{"coding":[{"system":"http://loinc.org","version":"2.76","code":"31100-1","display":"Hematocrit [Volume Fraction] of Blood by Impedance"}],"text":"Hematocrit [Volume Fraction] of Blood by Impedance"},"subject":{"reference":"Patient/0c76341a-34f1-4d1b-9bbe-5915e00a0818"},"encounter":{"reference":"Encounter/f236095c-8987-458c-b448-01d0edda8462"},"effectiveDateTime":"2026-04-11T08:00:00.000+00:00","valueQuantity":{"value":41.5,"unit":"l/l","system":"http://unitsofmeasure.org","code":"l/l"}},"request":{"method":"PUT","url":"Observation/32c1522f-1954-413a-a019-cf6a371d1478"}},{"fullUrl":"https://madie.cms.gov/Procedure/71256a45-8c4e-4a81-a95d-b45eddc6a129","resource":{"resourceType":"Procedure","id":"71256a45-8c4e-4a81-a95d-b45eddc6a129","meta":{"profile":["http://hl7.org/fhir/us/qicore/StructureDefinition/qicore-procedure"]},"extension":[{"url":"http://hl7.org/fhir/us/qicore/StructureDefinition/qicore-recorded","valueDateTime":"2026-04-11T10:30:00.000+00:00"}],"status":"completed","category":{"coding":[{"system":"http://snomed.info/sct","code":"18286008","display":"General or neuraxial anesthesia"}]},"code":{"coding":[{"system":"http://snomed.info/sct","code":"112943005","display":"Epidural injection of anesthetic substance, diagnostic, caudal, continuous"}]},"subject":{"reference":"Patient/0c76341a-34f1-4d1b-9bbe-5915e00a0818"},"performedPeriod":{"start":"2026-04-11T08:00:00.000+00:00","end":"2026-04-11T10:15:00.000+00:00"}},"request":{"method":"PUT","url":"Procedure/71256a45-8c4e-4a81-a95d-b45eddc6a129"}},{"fullUrl":"https://madie.cms.gov/Patient/0c76341a-34f1-4d1b-9bbe-5915e00a0818","resource":{"resourceType":"Patient","id":"0c76341a-34f1-4d1b-9bbe-5915e00a0818","meta":{"profile":["http://hl7.org/fhir/us/qicore/StructureDefinition/qicore-patient"]},"extension":[{"url":"http://hl7.org/fhir/us/core/StructureDefinition/us-core-race","extension":[{"url":"ombCategory","valueCoding":{"system":"urn:oid:2.16.840.1.113883.6.238","code":"2054-5","display":"Black or African American","userSelected":true}},{"url":"text","valueString":"Black or African American"}]},{"url":"http://hl7.org/fhir/us/core/StructureDefinition/us-core-ethnicity","extension":[{"url":"ombCategory","valueCoding":{"system":"urn:oid:2.16.840.1.113883.6.238","code":"2186-5","display":"Not Hispanic or Latino","userSelected":true}},{"url":"text","valueString":"Not Hispanic or Latino"}]}],"identifier":[{"type":{"coding":[{"system":"http://terminology.hl7.org/CodeSystem/v2-0203","code":"MR"}]},"system":"https://bonnie-fhir.healthit.gov/","value":"61152a3b98086b7a79cbd7c1"}],"active":true,"name":[{"use":"usual","family":"DENOMPass","given":["RiskVariableASAClass"]}],"gender":"female","birthDate":"1966-07-12"},"request":{"method":"PUT","url":"Patient/0c76341a-34f1-4d1b-9bbe-5915e00a0818"}},{"fullUrl":"https://madie.cms.gov/MeasureReport/0311066b-4213-471e-bef8-0ddc6f151dca","resource":{"resourceType":"MeasureReport","id":"0311066b-4213-471e-bef8-0ddc6f151dca","meta":{"profile":["http://hl7.org/fhir/us/cqfmeasures/StructureDefinition/test-case-cqfm"]},"contained":[{"resourceType":"Parameters","id":"e74b4afd-7a7f-439a-b387-fe4ad476dae8-parameters","parameter":[{"name":"subject","valueString":"0c76341a-34f1-4d1b-9bbe-5915e00a0818"}]}],"extension":[{"url":"http://hl7.org/fhir/StructureDefinition/cqf-inputParameters","valueReference":{"reference":"#e74b4afd-7a7f-439a-b387-fe4ad476dae8-parameters"}},{"url":"http://hl7.org/fhir/us/cqfmeasures/StructureDefinition/cqfm-testCaseDescription","valueMarkdown":"DENOMPass Satisfies First Hematocrit risk variable"}],"modifierExtension":[{"url":"http://hl7.org/fhir/us/cqfmeasures/StructureDefinition/cqfm-isTestCase","valueBoolean":true}],"status":"complete","type":"individual","measure":"https://madie.cms.gov/Measure/CMS1218FHIRHHRF","period":{"start":"2026-01-01","end":"2026-12-31"},"group":[{"id":"Group_1","population":[{"id":"InitialPopulation_1","code":{"coding":[{"system":"http://terminology.hl7.org/CodeSystem/measure-population","code":"initial-population","display":"Initial Population"}]},"count":1},{"id":"Denominator_1","code":{"coding":[{"system":"http://terminology.hl7.org/CodeSystem/measure-population","code":"denominator","display":"Denominator"}]},"count":1},{"id":"DenominatorExclusion_1","code":{"coding":[{"system":"http://terminology.hl7.org/CodeSystem/measure-population","code":"denominator-exclusion","display":"Denominator Exclusion"}]},"count":0},{"id":"Numerator_1","code":{"coding":[{"system":"http://terminology.hl7.org/CodeSystem/measure-population","code":"numerator","display":"Numerator"}]},"count":0}],"measureScore":{"value":0.0}}],"evaluatedResource":[{"reference":"Encounter/f236095c-8987-458c-b448-01d0edda8462"},{"reference":"Observation/57f50028-5e7d-44af-928c-64ac36add2fe"},{"reference":"Observation/32c1522f-1954-413a-a019-cf6a371d1478"},{"reference":"Procedure/71256a45-8c4e-4a81-a95d-b45eddc6a129"},{"reference":"Patient/0c76341a-34f1-4d1b-9bbe-5915e00a0818"}]},"request":{"method":"PUT","url":"MeasureReport/0311066b-4213-471e-bef8-0ddc6f151dca"}}]},"request":{"method":"PUT","url":"Bundle/tests-RiskVarPassFirstHematocrit-bundle"}},{"fullUrl":"Patient/0c76341a-34f1-4d1b-9bbe-5915e00a0818","resource":{"resourceType":"Patient","id":"0c76341a-34f1-4d1b-9bbe-5915e00a0818","meta":{"profile":["http://hl7.org/fhir/us/qicore/StructureDefinition/qicore-patient"]},"extension":[{"url":"http://hl7.org/fhir/us/core/StructureDefinition/us-core-race","extension":[{"url":"ombCategory","valueCoding":{"system":"urn:oid:2.16.840.1.113883.6.238","code":"2054-5","display":"Black or African American","userSelected":true}},{"url":"text","valueString":"Black or African American"}]},{"url":"http://hl7.org/fhir/us/core/StructureDefinition/us-core-ethnicity","extension":[{"url":"ombCategory","valueCoding":{"system":"urn:oid:2.16.840.1.113883.6.238","code":"2186-5","display":"Not Hispanic or Latino","userSelected":true}},{"url":"text","valueString":"Not Hispanic or Latino"}]}],"identifier":[{"type":{"coding":[{"system":"http://terminology.hl7.org/CodeSystem/v2-0203","code":"MR"}]},"system":"https://bonnie-fhir.healthit.gov/","value":"61152a3b98086b7a79cbd7c1"}],"active":true,"name":[{"use":"usual","family":"DENOMPass","given":["RiskVariableASAClass"]}],"gender":"female","birthDate":"1966-07-12"},"request":{"method":"PUT","url":"Patient/0c76341a-34f1-4d1b-9bbe-5915e00a0818"}},{"fullUrl":"MeasureReport/0311066b-4213-471e-bef8-0ddc6f151dca","resource":{"resourceType":"MeasureReport","id":"0311066b-4213-471e-bef8-0ddc6f151dca","meta":{"profile":["http://hl7.org/fhir/us/cqfmeasures/StructureDefinition/test-case-cqfm"]},"contained":[{"resourceType":"Parameters","id":"e74b4afd-7a7f-439a-b387-fe4ad476dae8-parameters","parameter":[{"name":"subject","valueString":"0c76341a-34f1-4d1b-9bbe-5915e00a0818"}]}],"extension":[{"url":"http://hl7.org/fhir/StructureDefinition/cqf-inputParameters","valueReference":{"reference":"#e74b4afd-7a7f-439a-b387-fe4ad476dae8-parameters"}},{"url":"http://hl7.org/fhir/us/cqfmeasures/StructureDefinition/cqfm-testCaseDescription","valueMarkdown":"DENOMPass Satisfies First Hematocrit risk variable"}],"modifierExtension":[{"url":"http://hl7.org/fhir/us/cqfmeasures/StructureDefinition/cqfm-isTestCase","valueBoolean":true}],"status":"complete","type":"individual","measure":"https://madie.cms.gov/Measure/CMS1218FHIRHHRF","period":{"start":"2026-01-01","end":"2026-12-31"},"group":[{"id":"Group_1","population":[{"id":"InitialPopulation_1","code":{"coding":[{"system":"http://terminology.hl7.org/CodeSystem/measure-population","code":"initial-population","display":"Initial Population"}]},"count":1},{"id":"Denominator_1","code":{"coding":[{"system":"http://terminology.hl7.org/CodeSystem/measure-population","code":"denominator","display":"Denominator"}]},"count":1},{"id":"DenominatorExclusion_1","code":{"coding":[{"system":"http://terminology.hl7.org/CodeSystem/measure-population","code":"denominator-exclusion","display":"Denominator Exclusion"}]},"count":0},{"id":"Numerator_1","code":{"coding":[{"system":"http://terminology.hl7.org/CodeSystem/measure-population","code":"numerator","display":"Numerator"}]},"count":0}],"measureScore":{"value":0.0}}],"evaluatedResource":[{"reference":"Encounter/f236095c-8987-458c-b448-01d0edda8462"},{"reference":"Observation/57f50028-5e7d-44af-928c-64ac36add2fe"},{"reference":"Observation/32c1522f-1954-413a-a019-cf6a371d1478"},{"reference":"Procedure/71256a45-8c4e-4a81-a95d-b45eddc6a129"},{"reference":"Patient/0c76341a-34f1-4d1b-9bbe-5915e00a0818"}]},"request":{"method":"PUT","url":"MeasureReport/0311066b-4213-471e-bef8-0ddc6f151dca"}},{"fullUrl":"Procedure/71256a45-8c4e-4a81-a95d-b45eddc6a129","resource":{"resourceType":"Procedure","id":"71256a45-8c4e-4a81-a95d-b45eddc6a129","meta":{"profile":["http://hl7.org/fhir/us/qicore/StructureDefinition/qicore-procedure"]},"extension":[{"url":"http://hl7.org/fhir/us/qicore/StructureDefinition/qicore-recorded","valueDateTime":"2026-04-11T10:30:00.000+00:00"}],"status":"completed","category":{"coding":[{"system":"http://snomed.info/sct","code":"18286008","display":"General or neuraxial anesthesia"}]},"code":{"coding":[{"system":"http://snomed.info/sct","code":"112943005","display":"Epidural injection of anesthetic substance, diagnostic, caudal, continuous"}]},"subject":{"reference":"Patient/0c76341a-34f1-4d1b-9bbe-5915e00a0818"},"performedPeriod":{"start":"2026-04-11T08:00:00.000+00:00","end":"2026-04-11T10:15:00.000+00:00"}},"request":{"method":"PUT","url":"Procedure/71256a45-8c4e-4a81-a95d-b45eddc6a129"}},{"fullUrl":"Observation/57f50028-5e7d-44af-928c-64ac36add2fe","resource":{"resourceType":"Observation","id":"57f50028-5e7d-44af-928c-64ac36add2fe","meta":{"profile":["http://hl7.org/fhir/us/qicore/StructureDefinition/qicore-observation-lab"]},"status":"final","category":[{"coding":[{"system":"http://terminology.hl7.org/CodeSystem/observation-category","code":"laboratory","display":"Laboratory"}],"text":"Laboratory"}],"code":{"coding":[{"system":"http://loinc.org","version":"2.76","code":"31100-1","display":"Hematocrit [Volume Fraction] of Blood by Impedance"}],"text":"Hematocrit [Volume Fraction] of Blood by Impedance"},"subject":{"reference":"Patient/0c76341a-34f1-4d1b-9bbe-5915e00a0818"},"encounter":{"reference":"Encounter/f236095c-8987-458c-b448-01d0edda8462"},"effectiveDateTime":"2026-04-11T09:00:00.000+00:00"},"request":{"method":"PUT","url":"Observation/57f50028-5e7d-44af-928c-64ac36add2fe"}},{"fullUrl":"Encounter/f236095c-8987-458c-b448-01d0edda8462","resource":{"resourceType":"Encounter","id":"f236095c-8987-458c-b448-01d0edda8462","meta":{"profile":["http://hl7.org/fhir/us/qicore/StructureDefinition/qicore-encounter"]},"status":"finished","class":{"system":"http://terminology.hl7.org/CodeSystem/v3-ActCode","code":"IMP","display":"inpatient encounter"},"type":[{"coding":[{"system":"http://snomed.info/sct","code":"112689000","display":"Hospital admission, elective, with complete pre-admission work-up"}],"text":"Hospital admission, elective, with complete pre-admission work-up"}],"priority":{"coding":[{"system":"http://snomed.info/sct","code":"103390000"}]},"subject":{"reference":"Patient/0c76341a-34f1-4d1b-9bbe-5915e00a0818"},"period":{"start":"2026-04-10T08:00:00.000+00:00","end":"2026-04-14T08:15:00.000+00:00"},"diagnosis":[{"condition":{"reference":"Procedure/967e440e-8766-4705-924b-00b4a61b0458"},"rank":1}]},"request":{"method":"PUT","url":"Encounter/f236095c-8987-458c-b448-01d0edda8462"}},{"fullUrl":"Observation/32c1522f-1954-413a-a019-cf6a371d1478","resource":{"resourceType":"Observation","id":"32c1522f-1954-413a-a019-cf6a371d1478","meta":{"profile":["http://hl7.org/fhir/us/qicore/StructureDefinition/qicore-observation-lab"]},"status":"final","category":[{"coding":[{"system":"http://terminology.hl7.org/CodeSystem/observation-category","code":"laboratory","display":"Laboratory"}],"text":"Laboratory"}],"code":{"coding":[{"system":"http://loinc.org","version":"2.76","code":"31100-1","display":"Hematocrit [Volume Fraction] of Blood by Impedance"}],"text":"Hematocrit [Volume Fraction] of Blood by Impedance"},"subject":{"reference":"Patient/0c76341a-34f1-4d1b-9bbe-5915e00a0818"},"encounter":{"reference":"Encounter/f236095c-8987-458c-b448-01d0edda8462"},"effectiveDateTime":"2026-04-11T08:00:00.000+00:00","valueQuantity":{"value":41.5,"unit":"l/l","system":"http://unitsofmeasure.org","code":"l/l"}},"request":{"method":"PUT","url":"Observation/32c1522f-1954-413a-a019-cf6a371d1478"}}]}