{
  "resourceType": "Bundle",
  "id": "6109658e98086b538055b9e4",
  "type": "transaction",
  "entry": [ {
    "fullUrl": "https://madie.cms.gov/Patient/1ea6ee4a-bfb0-44ec-8a94-5f0035c81c9e",
    "resource": {
      "resourceType": "Patient",
      "id": "1ea6ee4a-bfb0-44ec-8a94-5f0035c81c9e",
      "meta": {
        "profile": [ "http://hl7.org/fhir/us/qicore/StructureDefinition/qicore-patient" ]
      },
      "extension": [ {
        "url": "http://hl7.org/fhir/us/core/StructureDefinition/us-core-race",
        "extension": [ {
          "url": "ombCategory",
          "valueCoding": {
            "system": "urn:oid:2.16.840.1.113883.6.238",
            "code": "2106-3",
            "display": "White",
            "userSelected": true
          }
        }, {
          "url": "text",
          "valueString": "White"
        } ]
      }, {
        "url": "http://hl7.org/fhir/us/core/StructureDefinition/us-core-ethnicity",
        "extension": [ {
          "url": "ombCategory",
          "valueCoding": {
            "system": "urn:oid:2.16.840.1.113883.6.238",
            "code": "2186-5",
            "display": "Not Hispanic or Latino",
            "userSelected": true
          }
        }, {
          "url": "text",
          "valueString": "Not Hispanic or Latino"
        } ]
      } ],
      "identifier": [ {
        "type": {
          "coding": [ {
            "system": "http://terminology.hl7.org/CodeSystem/v2-0203",
            "code": "MR"
          } ]
        },
        "system": "https://bonnie-fhir.healthit.gov/",
        "value": "6109658e98086b538055b9e4"
      } ],
      "active": true,
      "name": [ {
        "use": "usual",
        "family": "IPPass",
        "given": [ "CareServInLTRF Enc" ]
      } ],
      "gender": "male",
      "birthDate": "2007-12-31"
    },
    "request": {
      "method": "PUT",
      "url": "Patient/1ea6ee4a-bfb0-44ec-8a94-5f0035c81c9e"
    }
  }, {
    "fullUrl": "https://madie.cms.gov/Encounter/146adddc-2929-4862-82f2-8e975ff4f61f",
    "resource": {
      "resourceType": "Encounter",
      "id": "146adddc-2929-4862-82f2-8e975ff4f61f",
      "meta": {
        "profile": [ "http://hl7.org/fhir/us/qicore/StructureDefinition/qicore-encounter" ]
      },
      "status": "finished",
      "class": {
        "system": "http://terminology.hl7.org/CodeSystem/v3-ActCode",
        "code": "AMB",
        "display": "ambulatory",
        "userSelected": true
      },
      "type": [ {
        "coding": [ {
          "system": "http://snomed.info/sct",
          "code": "37894004"
        }, {
          "system": "http://www.ama-assn.org/go/cpt",
          "code": "99213",
          "userSelected": true
        } ]
      } ],
      "subject": {
        "reference": "Patient/64e76b5f2e9f5b621ea08694"
      },
      "period": {
        "start": "2026-03-05T08:00:00.000+00:00",
        "end": "2026-03-05T08:30:00.000+00:00"
      }
    },
    "request": {
      "method": "PUT",
      "url": "Encounter/146adddc-2929-4862-82f2-8e975ff4f61f"
    }
  }, {
    "fullUrl": "https://madie.cms.gov/Condition/47c4bbe0-4066-4bb1-a5ce-0ee44fb5fae7",
    "resource": {
      "resourceType": "Condition",
      "id": "47c4bbe0-4066-4bb1-a5ce-0ee44fb5fae7",
      "meta": {
        "profile": [ "http://hl7.org/fhir/us/qicore/StructureDefinition/qicore-condition-problems-health-concerns" ]
      },
      "clinicalStatus": {
        "coding": [ {
          "system": "http://terminology.hl7.org/CodeSystem/condition-clinical",
          "code": "active",
          "display": "active",
          "userSelected": true
        } ]
      },
      "category": [ {
        "coding": [ {
          "system": "http://terminology.hl7.org/CodeSystem/condition-category",
          "code": "problem-list-item",
          "display": "problem-list-item",
          "userSelected": true
        } ]
      } ],
      "code": {
        "coding": [ {
          "system": "http://hl7.org/fhir/sid/icd-10-cm",
          "code": "H40.10X0"
        } ]
      },
      "subject": {
        "reference": "Patient/2b101fed-53d1-44c8-b11a-792edd52228d"
      },
      "onsetDateTime": "2025-09-14T08:00:00.000+00:00"
    },
    "request": {
      "method": "PUT",
      "url": "Condition/47c4bbe0-4066-4bb1-a5ce-0ee44fb5fae7"
    }
  }, {
    "fullUrl": "https://madie.cms.gov/MeasureReport/eb59ad5b-1185-425d-a0cf-bdc1991e193a",
    "resource": {
      "resourceType": "MeasureReport",
      "id": "eb59ad5b-1185-425d-a0cf-bdc1991e193a",
      "meta": {
        "profile": [ "http://hl7.org/fhir/us/cqfmeasures/StructureDefinition/test-case-cqfm" ]
      },
      "contained": [ {
        "resourceType": "Parameters",
        "id": "7d07bfc2-0c1a-45dc-871c-225032f8100e-parameters",
        "parameter": [ {
          "name": "subject",
          "valueString": "1ea6ee4a-bfb0-44ec-8a94-5f0035c81c9e"
        } ]
      } ],
      "extension": [ {
        "url": "http://hl7.org/fhir/StructureDefinition/cqf-inputParameters",
        "valueReference": {
          "reference": "#7d07bfc2-0c1a-45dc-871c-225032f8100e-parameters"
        }
      }, {
        "url": "http://hl7.org/fhir/us/cqfmeasures/StructureDefinition/cqfm-testCaseDescription",
        "valueMarkdown": "Patient turns 18 on the day before the start of the MP with Dx starting before MP; Encounter: Care Services in Long Term Residential Facility"
      } ],
      "modifierExtension": [ {
        "url": "http://hl7.org/fhir/us/cqfmeasures/StructureDefinition/cqfm-isTestCase",
        "valueBoolean": true
      } ],
      "status": "complete",
      "type": "individual",
      "measure": "https://madie.cms.gov/Measure/CMS143FHIRPOAGOpticNerveEvaluation",
      "period": {
        "start": "2026-01-01",
        "end": "2026-12-31"
      },
      "group": [ {
        "id": "Group_1",
        "population": [ {
          "id": "InitialPopulation_1",
          "code": {
            "coding": [ {
              "system": "http://terminology.hl7.org/CodeSystem/measure-population",
              "code": "initial-population",
              "display": "Initial Population"
            } ]
          },
          "count": 1
        }, {
          "id": "Denominator_1",
          "code": {
            "coding": [ {
              "system": "http://terminology.hl7.org/CodeSystem/measure-population",
              "code": "denominator",
              "display": "Denominator"
            } ]
          },
          "count": 1
        }, {
          "id": "Numerator_1",
          "code": {
            "coding": [ {
              "system": "http://terminology.hl7.org/CodeSystem/measure-population",
              "code": "numerator",
              "display": "Numerator"
            } ]
          },
          "count": 0
        }, {
          "id": "DenominatorException_1",
          "code": {
            "coding": [ {
              "system": "http://terminology.hl7.org/CodeSystem/measure-population",
              "code": "denominator-exception",
              "display": "Denominator Exception"
            } ]
          },
          "count": 0
        } ],
        "measureScore": {
          "value": 1.0
        }
      } ],
      "evaluatedResource": [ {
        "reference": "Patient/1ea6ee4a-bfb0-44ec-8a94-5f0035c81c9e"
      }, {
        "reference": "Encounter/146adddc-2929-4862-82f2-8e975ff4f61f"
      }, {
        "reference": "Condition/47c4bbe0-4066-4bb1-a5ce-0ee44fb5fae7"
      } ]
    },
    "request": {
      "method": "PUT",
      "url": "MeasureReport/eb59ad5b-1185-425d-a0cf-bdc1991e193a"
    }
  } ]
}