{
  "resourceType": "Bundle",
  "id": "633b3f9e0968f80122503cd4",
  "type": "transaction",
  "entry": [ {
    "fullUrl": "https://madie.cms.gov/Patient/aa12a3d9-20e7-4c0e-b5c1-a4de7eb5f15c",
    "resource": {
      "resourceType": "Patient",
      "id": "aa12a3d9-20e7-4c0e-b5c1-a4de7eb5f15c",
      "meta": {
        "profile": [ "http://hl7.org/fhir/us/qicore/StructureDefinition/qicore-patient" ]
      },
      "text": {
        "status": "generated",
        "div": "<div xmlns=\"http://www.w3.org/1999/xhtml\"><div class=\"hapiHeaderText\">LastAssPrfEstDELRelvTmEQDELRsltDtTime<b>DENOMPASS</b></div><table class=\"hapiPropertyTable\"><tbody><tr><td>Date of birth</td><td><span>01 February 2004</span></td></tr></tbody></table></div>"
      },
      "extension": [ {
        "url": "http://hl7.org/fhir/us/core/StructureDefinition/us-core-race",
        "extension": [ {
          "url": "ombCategory",
          "valueCoding": {
            "system": "urn:oid:2.16.840.1.113883.6.238",
            "code": "1002-5",
            "display": "American Indian or Alaska Native",
            "userSelected": true
          }
        }, {
          "url": "text",
          "valueString": "American Indian or Alaska Native"
        } ]
      }, {
        "url": "http://hl7.org/fhir/us/core/StructureDefinition/us-core-ethnicity",
        "extension": [ {
          "url": "ombCategory",
          "valueCoding": {
            "system": "urn:oid:2.16.840.1.113883.6.238",
            "code": "2135-2",
            "display": "Hispanic or Latino",
            "userSelected": true
          }
        }, {
          "url": "text",
          "valueString": "Hispanic or Latino"
        } ]
      } ],
      "identifier": [ {
        "type": {
          "coding": [ {
            "system": "http://terminology.hl7.org/CodeSystem/v2-0203",
            "code": "MR"
          } ]
        },
        "system": "https://bonnie-fhir.healthit.gov/",
        "value": "633b3f9e0968f80122503cd4"
      } ],
      "active": true,
      "name": [ {
        "use": "usual",
        "family": "DENOMPass",
        "given": [ "LastAssPrfEstDELRelvTmEQDELRsltDtTime" ]
      } ],
      "gender": "female",
      "birthDate": "2005-02-01"
    },
    "request": {
      "method": "PUT",
      "url": "Patient/aa12a3d9-20e7-4c0e-b5c1-a4de7eb5f15c"
    }
  }, {
    "fullUrl": "https://madie.cms.gov/Observation/76bb5022-c2a6-41b9-8cb2-fc8383f95f9c",
    "resource": {
      "resourceType": "Observation",
      "id": "76bb5022-c2a6-41b9-8cb2-fc8383f95f9c",
      "meta": {
        "profile": [ "http://hl7.org/fhir/us/qicore/StructureDefinition/qicore-simple-observation" ]
      },
      "status": "final",
      "category": [ {
        "coding": [ {
          "system": "http://terminology.hl7.org/CodeSystem/observation-category",
          "code": "exam",
          "display": "exam",
          "userSelected": true
        } ]
      } ],
      "code": {
        "coding": [ {
          "system": "http://loinc.org",
          "code": "93857-1"
        } ]
      },
      "subject": {
        "reference": "Patient/aa12a3d9-20e7-4c0e-b5c1-a4de7eb5f15c"
      },
      "effectiveDateTime": "2026-02-01T08:00:00Z",
      "performer": [ {
        "reference": "Organization/example1",
        "display": "Hendricks Country Hospital"
      } ],
      "valueDateTime": "2026-02-01T08:00:00.000+00:00"
    },
    "request": {
      "method": "PUT",
      "url": "Observation/76bb5022-c2a6-41b9-8cb2-fc8383f95f9c"
    }
  }, {
    "fullUrl": "https://madie.cms.gov/Observation/bf66a5d2-f396-4844-8cf9-2801abb1a78c",
    "resource": {
      "resourceType": "Observation",
      "id": "bf66a5d2-f396-4844-8cf9-2801abb1a78c",
      "meta": {
        "profile": [ "http://hl7.org/fhir/us/qicore/StructureDefinition/qicore-simple-observation" ]
      },
      "status": "final",
      "category": [ {
        "coding": [ {
          "system": "http://terminology.hl7.org/CodeSystem/observation-category",
          "code": "exam",
          "display": "exam",
          "userSelected": true
        } ]
      } ],
      "code": {
        "coding": [ {
          "system": "http://loinc.org",
          "code": "11778-8"
        } ]
      },
      "subject": {
        "reference": "Patient/aa12a3d9-20e7-4c0e-b5c1-a4de7eb5f15c"
      },
      "effectiveDateTime": "2026-02-01T08:00:00Z",
      "performer": [ {
        "reference": "Organization/example1",
        "display": "Hendricks Country Hospital"
      } ],
      "valueDateTime": "2026-02-01T08:00:00.000+00:00"
    },
    "request": {
      "method": "PUT",
      "url": "Observation/bf66a5d2-f396-4844-8cf9-2801abb1a78c"
    }
  }, {
    "fullUrl": "https://madie.cms.gov/Encounter/52ef7153-7ef3-4382-87b8-238191160d76",
    "resource": {
      "resourceType": "Encounter",
      "id": "52ef7153-7ef3-4382-87b8-238191160d76",
      "meta": {
        "profile": [ "http://hl7.org/fhir/us/qicore/StructureDefinition/qicore-encounter" ]
      },
      "status": "finished",
      "class": {
        "system": "http://terminology.hl7.org/CodeSystem/v3-ActCode",
        "code": "IMP",
        "display": "inpatient encounter"
      },
      "type": [ {
        "coding": [ {
          "system": "http://snomed.info/sct",
          "code": "183452005"
        } ]
      } ],
      "subject": {
        "reference": "Patient/aa12a3d9-20e7-4c0e-b5c1-a4de7eb5f15c"
      },
      "period": {
        "start": "2026-02-01T08:00:00Z",
        "end": "2026-02-05T08:15:00.000+00:00"
      }
    },
    "request": {
      "method": "PUT",
      "url": "Encounter/52ef7153-7ef3-4382-87b8-238191160d76"
    }
  }, {
    "fullUrl": "https://madie.cms.gov/Procedure/327efbce-2202-4d2f-a687-125dc58d21fa",
    "resource": {
      "resourceType": "Procedure",
      "id": "327efbce-2202-4d2f-a687-125dc58d21fa",
      "meta": {
        "profile": [ "http://hl7.org/fhir/us/qicore/StructureDefinition/qicore-procedure" ]
      },
      "extension": [ {
        "url": "http://hl7.org/fhir/us/qicore/StructureDefinition/qicore-recorded",
        "valueDateTime": "2014-04-05T13:35:00Z"
      } ],
      "status": "completed",
      "code": {
        "coding": [ {
          "system": "http://snomed.info/sct",
          "code": "10745001"
        } ]
      },
      "subject": {
        "reference": "Patient/aa12a3d9-20e7-4c0e-b5c1-a4de7eb5f15c"
      },
      "performedPeriod": {
        "start": "2026-02-01T08:00:00Z",
        "end": "2026-02-05T08:15:00.000+00:00"
      }
    },
    "request": {
      "method": "PUT",
      "url": "Procedure/327efbce-2202-4d2f-a687-125dc58d21fa"
    }
  }, {
    "fullUrl": "https://madie.cms.gov/Coverage/35e27ee5-8712-4af1-b28e-dad2b37b6e28",
    "resource": {
      "resourceType": "Coverage",
      "id": "35e27ee5-8712-4af1-b28e-dad2b37b6e28",
      "meta": {
        "profile": [ "http://hl7.org/fhir/us/qicore/StructureDefinition/qicore-coverage" ]
      },
      "status": "active",
      "subscriberId": "523435",
      "beneficiary": {
        "reference": "Patient/aa12a3d9-20e7-4c0e-b5c1-a4de7eb5f15c"
      },
      "relationship": {
        "coding": [ {
          "system": "http://terminology.hl7.org/CodeSystem/subscriber-relationship",
          "code": "self"
        } ]
      },
      "payor": [ {
        "reference": "Organization/bd9e698f-7fa1-4b8e-b86c-7ffcb9c11d23"
      } ]
    },
    "request": {
      "method": "PUT",
      "url": "Coverage/35e27ee5-8712-4af1-b28e-dad2b37b6e28"
    }
  }, {
    "fullUrl": "https://madie.cms.gov/Organization/bd9e698f-7fa1-4b8e-b86c-7ffcb9c11d23",
    "resource": {
      "resourceType": "Organization",
      "id": "bd9e698f-7fa1-4b8e-b86c-7ffcb9c11d23",
      "meta": {
        "profile": [ "http://hl7.org/fhir/us/qicore/StructureDefinition/qicore-organization" ]
      },
      "identifier": [ {
        "use": "temp",
        "system": "urn:oid:2.16.840.1.113883.4.4",
        "value": "21-3259825"
      } ],
      "active": true,
      "type": [ {
        "coding": [ {
          "system": "http://terminology.hl7.org/CodeSystem/organization-type",
          "code": "pay",
          "display": "Payer"
        } ]
      } ],
      "name": "Blue Cross Blue Shield of Texas",
      "telecom": [ {
        "system": "phone",
        "value": "(+1) 972-766-6900"
      } ],
      "address": [ {
        "use": "billing",
        "type": "postal",
        "line": [ "P.O. Box 660044" ],
        "city": "Dallas",
        "state": "TX",
        "postalCode": "75266-0044",
        "country": "USA"
      } ]
    },
    "request": {
      "method": "PUT",
      "url": "Organization/bd9e698f-7fa1-4b8e-b86c-7ffcb9c11d23"
    }
  }, {
    "fullUrl": "https://madie.cms.gov/Practitioner/ba749495-6296-470d-a22f-dfeff4754fcd",
    "resource": {
      "resourceType": "Practitioner",
      "id": "ba749495-6296-470d-a22f-dfeff4754fcd",
      "meta": {
        "profile": [ "http://hl7.org/fhir/us/qicore/StructureDefinition/qicore-practitioner" ]
      },
      "identifier": [ {
        "system": "http://hl7.org/fhir/sid/us-npi",
        "value": "1234567890"
      } ],
      "name": [ {
        "family": "Evil",
        "prefix": [ "Dr" ]
      } ]
    },
    "request": {
      "method": "PUT",
      "url": "Practitioner/ba749495-6296-470d-a22f-dfeff4754fcd"
    }
  }, {
    "fullUrl": "https://madie.cms.gov/MeasureReport/7c88c1ce-d03f-4957-bdc3-072634bbce79",
    "resource": {
      "resourceType": "MeasureReport",
      "id": "7c88c1ce-d03f-4957-bdc3-072634bbce79",
      "meta": {
        "profile": [ "http://hl7.org/fhir/us/cqfmeasures/StructureDefinition/test-case-cqfm" ]
      },
      "contained": [ {
        "resourceType": "Parameters",
        "id": "94f595d5-e33a-42ce-95b0-abe7bb27c199-parameters",
        "parameter": [ {
          "name": "subject",
          "valueString": "aa12a3d9-20e7-4c0e-b5c1-a4de7eb5f15c"
        } ]
      } ],
      "extension": [ {
        "url": "http://hl7.org/fhir/StructureDefinition/cqf-inputParameters",
        "valueReference": {
          "reference": "#94f595d5-e33a-42ce-95b0-abe7bb27c199-parameters"
        }
      }, {
        "url": "http://hl7.org/fhir/us/cqfmeasures/StructureDefinition/cqfm-testCaseDescription",
        "valueMarkdown": "Last assessment Performed, Estimated Delivery Date, Relevant time, equal to Delivery Result Date/Time\n"
      } ],
      "modifierExtension": [ {
        "url": "http://hl7.org/fhir/us/cqfmeasures/StructureDefinition/cqfm-isTestCase",
        "valueBoolean": true
      } ],
      "status": "complete",
      "type": "individual",
      "measure": "https://madie.cms.gov/Measure/CMS1028FHIRPCSevereOBComps",
      "period": {
        "start": "2026-01-01",
        "end": "2026-12-31"
      },
      "group": [ {
        "id": "Group_1",
        "population": [ {
          "id": "InitialPopulation_1",
          "code": {
            "coding": [ {
              "system": "http://terminology.hl7.org/CodeSystem/measure-population",
              "code": "initial-population",
              "display": "Initial Population"
            } ]
          },
          "count": 1
        }, {
          "id": "Denominator_1",
          "code": {
            "coding": [ {
              "system": "http://terminology.hl7.org/CodeSystem/measure-population",
              "code": "denominator",
              "display": "Denominator"
            } ]
          },
          "count": 1
        }, {
          "id": "Numerator_1",
          "code": {
            "coding": [ {
              "system": "http://terminology.hl7.org/CodeSystem/measure-population",
              "code": "numerator",
              "display": "Numerator"
            } ]
          },
          "count": 0
        }, {
          "id": "NumeratorExclusion_1",
          "code": {
            "coding": [ {
              "system": "http://terminology.hl7.org/CodeSystem/measure-population",
              "code": "numerator-exclusion",
              "display": "Numerator Exclusion"
            } ]
          },
          "count": 0
        } ],
        "measureScore": {
          "value": 0.0
        }
      }, {
        "id": "Group_2",
        "population": [ {
          "id": "InitialPopulation_2",
          "code": {
            "coding": [ {
              "system": "http://terminology.hl7.org/CodeSystem/measure-population",
              "code": "initial-population",
              "display": "Initial Population"
            } ]
          },
          "count": 1
        }, {
          "id": "Denominator_2",
          "code": {
            "coding": [ {
              "system": "http://terminology.hl7.org/CodeSystem/measure-population",
              "code": "denominator",
              "display": "Denominator"
            } ]
          },
          "count": 1
        }, {
          "id": "Numerator_2",
          "code": {
            "coding": [ {
              "system": "http://terminology.hl7.org/CodeSystem/measure-population",
              "code": "numerator",
              "display": "Numerator"
            } ]
          },
          "count": 0
        }, {
          "id": "NumeratorExclusion_2",
          "code": {
            "coding": [ {
              "system": "http://terminology.hl7.org/CodeSystem/measure-population",
              "code": "numerator-exclusion",
              "display": "Numerator Exclusion"
            } ]
          },
          "count": 0
        } ],
        "measureScore": {
          "value": 0.0
        }
      } ],
      "evaluatedResource": [ {
        "reference": "Patient/aa12a3d9-20e7-4c0e-b5c1-a4de7eb5f15c"
      }, {
        "reference": "Observation/76bb5022-c2a6-41b9-8cb2-fc8383f95f9c"
      }, {
        "reference": "Observation/bf66a5d2-f396-4844-8cf9-2801abb1a78c"
      }, {
        "reference": "Encounter/52ef7153-7ef3-4382-87b8-238191160d76"
      }, {
        "reference": "Procedure/327efbce-2202-4d2f-a687-125dc58d21fa"
      }, {
        "reference": "Coverage/35e27ee5-8712-4af1-b28e-dad2b37b6e28"
      }, {
        "reference": "Organization/bd9e698f-7fa1-4b8e-b86c-7ffcb9c11d23"
      }, {
        "reference": "Practitioner/ba749495-6296-470d-a22f-dfeff4754fcd"
      } ]
    },
    "request": {
      "method": "PUT",
      "url": "MeasureReport/7c88c1ce-d03f-4957-bdc3-072634bbce79"
    }
  } ]
}