{"resourceType":"Bundle","id":"tests-d88198e5-7b2d-4f1d-a17e-80c52458c539-bundle","type":"transaction","entry":[{"fullUrl":"https://madie.cms.gov/Patient/d88198e5-7b2d-4f1d-a17e-80c52458c539","resource":{"resourceType":"Patient","id":"d88198e5-7b2d-4f1d-a17e-80c52458c539","meta":{"profile":["http://hl7.org/fhir/us/qicore/StructureDefinition/qicore-patient"]},"text":{"status":"generated","div":"<div xmlns=\"http://www.w3.org/1999/xhtml\"><div class=\"hapiHeaderText\">HIVDxStartsBeforeMP <b>DENEXPASS </b></div><table class=\"hapiPropertyTable\"><tbody><tr><td>Identifier</td><td>2e018364c6429d86aa80f683de5e74e7a50fffb7aca212439727c6b1a84ba85b</td></tr><tr><td>Date of birth</td><td><span>31 July 1992</span></td></tr></tbody></table></div>"},"extension":[{"url":"http://hl7.org/fhir/us/core/StructureDefinition/us-core-race","extension":[{"url":"ombCategory","valueCoding":{"system":"urn:oid:2.16.840.1.113883.6.238","code":"2076-8","display":"Native Hawaiian or Other Pacific Islander","userSelected":true}},{"url":"text","valueString":"Native Hawaiian or Other Pacific Islander"}]},{"url":"http://hl7.org/fhir/us/core/StructureDefinition/us-core-ethnicity","extension":[{"url":"ombCategory","valueCoding":{"system":"urn:oid:2.16.840.1.113883.6.238","code":"2135-2","display":"Hispanic or Latino","userSelected":true}},{"url":"text","valueString":"Hispanic or Latino"}]}],"identifier":[{"type":{"coding":[{"system":"http://terminology.hl7.org/CodeSystem/v2-0203","code":"MR"}]},"system":"https://bonnie-fhir.healthit.gov/","value":"610965b898086b538055c148"}],"active":true,"name":[{"use":"usual","family":"DENEXPass","given":["HIVDxStartsBeforeMP"]}],"gender":"male","birthDate":"1993-07-31"},"request":{"method":"PUT","url":"Patient/d88198e5-7b2d-4f1d-a17e-80c52458c539"}},{"fullUrl":"https://madie.cms.gov/Encounter/519a96df-f896-424f-9882-1637048e99a5","resource":{"resourceType":"Encounter","id":"519a96df-f896-424f-9882-1637048e99a5","meta":{"profile":["http://hl7.org/fhir/us/qicore/StructureDefinition/qicore-encounter"]},"status":"finished","class":{"system":"http://terminology.hl7.org/CodeSystem/v3-ActCode","code":"AMB","display":"ambulatory","userSelected":true},"type":[{"coding":[{"system":"http://www.ama-assn.org/go/cpt","code":"99385"}]}],"subject":{"reference":"Patient/d88198e5-7b2d-4f1d-a17e-80c52458c539"},"period":{"start":"2025-10-24T08:00:00.000+00:00","end":"2025-10-24T08:15:00.000+00:00"}},"request":{"method":"PUT","url":"Encounter/519a96df-f896-424f-9882-1637048e99a5"}},{"fullUrl":"https://madie.cms.gov/Condition/1982215c-3595-41e3-895c-56489e36b1aa","resource":{"resourceType":"Condition","id":"1982215c-3595-41e3-895c-56489e36b1aa","meta":{"profile":["http://hl7.org/fhir/us/qicore/StructureDefinition/qicore-condition"]},"clinicalStatus":{"coding":[{"system":"http://terminology.hl7.org/CodeSystem/condition-clinical","code":"active","display":"active","userSelected":true}]},"category":[{"coding":[{"system":"http://terminology.hl7.org/CodeSystem/condition-category","code":"encounter-diagnosis","display":"Encounter Diagnosis","userSelected":true}]}],"code":{"coding":[{"system":"http://snomed.info/sct","code":"165816005","userSelected":true}]},"subject":{"reference":"Patient/d88198e5-7b2d-4f1d-a17e-80c52458c539"},"onsetDateTime":"2012-03-29T08:00:00.000+00:00"},"request":{"method":"PUT","url":"Condition/1982215c-3595-41e3-895c-56489e36b1aa"}},{"fullUrl":"https://madie.cms.gov/MeasureReport/aad73eb5-5c4c-4318-ad69-37328d88e9d9","resource":{"resourceType":"MeasureReport","id":"aad73eb5-5c4c-4318-ad69-37328d88e9d9","meta":{"profile":["http://hl7.org/fhir/us/cqfmeasures/StructureDefinition/test-case-cqfm"]},"contained":[{"resourceType":"Parameters","id":"ab91bc5f-0c43-4343-9a3b-80a2731b5389-parameters","parameter":[{"name":"subject","valueString":"d88198e5-7b2d-4f1d-a17e-80c52458c539"}]}],"extension":[{"url":"http://hl7.org/fhir/us/cqfmeasures/StructureDefinition/cqfm-inputParameters","valueReference":{"reference":"#ab91bc5f-0c43-4343-9a3b-80a2731b5389-parameters"}},{"url":"http://hl7.org/fhir/us/cqfmeasures/StructureDefinition/cqfm-testCaseDescription","valueMarkdown":"Patient 31 at start of MP, qualifying encounter during MP, HIV diagnosis starts before MP. and does not end (active)"}],"modifierExtension":[{"url":"http://hl7.org/fhir/us/cqfmeasures/StructureDefinition/cqfm-isTestCase","valueBoolean":true}],"status":"complete","type":"individual","measure":"https://madie.cms.gov/Measure/HIVScreeningFHIR","period":{"start":"2025-01-01","end":"2025-12-31"},"group":[{"population":[{"code":{"coding":[{"system":"http://terminology.hl7.org/CodeSystem/measure-population","code":"initial-population","display":"Initial Population"}]},"count":1},{"code":{"coding":[{"system":"http://terminology.hl7.org/CodeSystem/measure-population","code":"denominator","display":"Denominator"}]},"count":1},{"code":{"coding":[{"system":"http://terminology.hl7.org/CodeSystem/measure-population","code":"denominator-exclusion","display":"Denominator Exclusion"}]},"count":1},{"code":{"coding":[{"system":"http://terminology.hl7.org/CodeSystem/measure-population","code":"numerator","display":"Numerator"}]},"count":0}]}],"evaluatedResource":[{"reference":"Patient/d88198e5-7b2d-4f1d-a17e-80c52458c539"},{"reference":"Encounter/519a96df-f896-424f-9882-1637048e99a5"},{"reference":"Condition/1982215c-3595-41e3-895c-56489e36b1aa"}]},"request":{"method":"PUT","url":"MeasureReport/aad73eb5-5c4c-4318-ad69-37328d88e9d9"}}]}