{"resourceType":"Bundle","id":"tests-fdb1105f-52ed-4bda-8a00-00782aa2c1b0-bundle","type":"transaction","entry":[{"fullUrl":"https://madie.cms.gov/Patient/fdb1105f-52ed-4bda-8a00-00782aa2c1b0","resource":{"resourceType":"Patient","id":"fdb1105f-52ed-4bda-8a00-00782aa2c1b0","meta":{"profile":["http://hl7.org/fhir/us/qicore/StructureDefinition/qicore-patient"]},"text":{"status":"generated","div":"<div xmlns=\"http://www.w3.org/1999/xhtml\"><div class=\"hapiHeaderText\">TwoHIVDxBothInvalidTiming <b>DENEXFAIL </b></div><table class=\"hapiPropertyTable\"><tbody><tr><td>Identifier</td><td>9c54a4dd540c4bea149b36532d75fcb36030130b66a16274ae97dc73d2d880c3</td></tr><tr><td>Date of birth</td><td><span>31 July 1992</span></td></tr></tbody></table></div>"},"extension":[{"url":"http://hl7.org/fhir/us/core/StructureDefinition/us-core-race","extension":[{"url":"ombCategory","valueCoding":{"system":"urn:oid:2.16.840.1.113883.6.238","code":"2106-3","display":"White","userSelected":true}},{"url":"text","valueString":"White"}]},{"url":"http://hl7.org/fhir/us/core/StructureDefinition/us-core-ethnicity","extension":[{"url":"ombCategory","valueCoding":{"system":"urn:oid:2.16.840.1.113883.6.238","code":"2135-2","display":"Hispanic or Latino","userSelected":true}},{"url":"text","valueString":"Hispanic or Latino"}]}],"identifier":[{"type":{"coding":[{"system":"http://terminology.hl7.org/CodeSystem/v2-0203","code":"MR"}]},"system":"https://bonnie-fhir.healthit.gov/","value":"610965b998086b538055c15b"}],"active":true,"name":[{"use":"usual","family":"DENEXFail","given":["TwoHIVDxBothInvalidTiming"]}],"gender":"male","birthDate":"1993-07-31"},"request":{"method":"PUT","url":"Patient/fdb1105f-52ed-4bda-8a00-00782aa2c1b0"}},{"fullUrl":"https://madie.cms.gov/Condition/e3573d76-2ed1-4468-aa6b-49bc5a8a56e3","resource":{"resourceType":"Condition","id":"e3573d76-2ed1-4468-aa6b-49bc5a8a56e3","meta":{"profile":["http://hl7.org/fhir/us/qicore/StructureDefinition/qicore-condition"]},"clinicalStatus":{"coding":[{"system":"http://terminology.hl7.org/CodeSystem/condition-clinical","code":"active","display":"Active","userSelected":true}]},"category":[{"coding":[{"system":"http://terminology.hl7.org/CodeSystem/condition-category","code":"encounter-diagnosis","display":"Encounter Diagnosis","userSelected":true}]}],"code":{"coding":[{"system":"http://hl7.org/fhir/sid/icd-9-cm","code":"042"}]},"subject":{"reference":"Patient/fdb1105f-52ed-4bda-8a00-00782aa2c1b0"},"recordedDate":"2012-10-24T08:00:00+00:00"},"request":{"method":"PUT","url":"Condition/e3573d76-2ed1-4468-aa6b-49bc5a8a56e3"}},{"fullUrl":"https://madie.cms.gov/Condition/208a735c-6520-4579-a366-c7fc9fc828a3","resource":{"resourceType":"Condition","id":"208a735c-6520-4579-a366-c7fc9fc828a3","meta":{"profile":["http://hl7.org/fhir/us/qicore/StructureDefinition/qicore-condition"]},"clinicalStatus":{"coding":[{"system":"http://terminology.hl7.org/CodeSystem/condition-clinical","code":"active","display":"active","userSelected":true}]},"category":[{"coding":[{"system":"http://terminology.hl7.org/CodeSystem/condition-category","code":"encounter-diagnosis","display":"Encounter Diagnosis","userSelected":true}]}],"code":{"coding":[{"system":"http://hl7.org/fhir/sid/icd-9-cm","code":"042"}]},"subject":{"reference":"Patient/fdb1105f-52ed-4bda-8a00-00782aa2c1b0"},"onsetDateTime":"2025-05-10T08:00:00.000+00:00"},"request":{"method":"PUT","url":"Condition/208a735c-6520-4579-a366-c7fc9fc828a3"}},{"fullUrl":"https://madie.cms.gov/Encounter/15a2d67e-b8b8-4d58-a420-0dd9d0152a82","resource":{"resourceType":"Encounter","id":"15a2d67e-b8b8-4d58-a420-0dd9d0152a82","meta":{"profile":["http://hl7.org/fhir/us/qicore/StructureDefinition/qicore-encounter"]},"status":"finished","class":{"system":"http://terminology.hl7.org/CodeSystem/v3-ActCode","code":"AMB","display":"ambulatory","userSelected":true},"type":[{"coding":[{"system":"http://www.ama-assn.org/go/cpt","code":"99395"}]}],"subject":{"reference":"Patient/fdb1105f-52ed-4bda-8a00-00782aa2c1b0"},"period":{"start":"2025-10-24T08:00:00.000+00:00","end":"2025-10-24T08:30:00.000+00:00"}},"request":{"method":"PUT","url":"Encounter/15a2d67e-b8b8-4d58-a420-0dd9d0152a82"}},{"fullUrl":"https://madie.cms.gov/MeasureReport/c7ccc3f1-5793-4173-8026-899fd18dba7b","resource":{"resourceType":"MeasureReport","id":"c7ccc3f1-5793-4173-8026-899fd18dba7b","meta":{"profile":["http://hl7.org/fhir/us/cqfmeasures/StructureDefinition/test-case-cqfm"]},"contained":[{"resourceType":"Parameters","id":"e11b5755-602b-4b4b-80c2-6fadecbfea2b-parameters","parameter":[{"name":"subject","valueString":"fdb1105f-52ed-4bda-8a00-00782aa2c1b0"}]}],"extension":[{"url":"http://hl7.org/fhir/us/cqfmeasures/StructureDefinition/cqfm-inputParameters","valueReference":{"reference":"#e11b5755-602b-4b4b-80c2-6fadecbfea2b-parameters"}},{"url":"http://hl7.org/fhir/us/cqfmeasures/StructureDefinition/cqfm-testCaseDescription","valueMarkdown":"Patient 20 at start of MP, qual encounter during MP, two HIV diagnoses, one authorDatetime before MP, one valid during MP."}],"modifierExtension":[{"url":"http://hl7.org/fhir/us/cqfmeasures/StructureDefinition/cqfm-isTestCase","valueBoolean":true}],"status":"complete","type":"individual","measure":"https://madie.cms.gov/Measure/HIVScreeningFHIR","period":{"start":"2025-01-01","end":"2025-12-31"},"group":[{"population":[{"code":{"coding":[{"system":"http://terminology.hl7.org/CodeSystem/measure-population","code":"initial-population","display":"Initial Population"}]},"count":1},{"code":{"coding":[{"system":"http://terminology.hl7.org/CodeSystem/measure-population","code":"denominator","display":"Denominator"}]},"count":1},{"code":{"coding":[{"system":"http://terminology.hl7.org/CodeSystem/measure-population","code":"denominator-exclusion","display":"Denominator Exclusion"}]},"count":0},{"code":{"coding":[{"system":"http://terminology.hl7.org/CodeSystem/measure-population","code":"numerator","display":"Numerator"}]},"count":0}]}],"evaluatedResource":[{"reference":"Patient/fdb1105f-52ed-4bda-8a00-00782aa2c1b0"},{"reference":"Condition/e3573d76-2ed1-4468-aa6b-49bc5a8a56e3"},{"reference":"Condition/208a735c-6520-4579-a366-c7fc9fc828a3"},{"reference":"Encounter/15a2d67e-b8b8-4d58-a420-0dd9d0152a82"}]},"request":{"method":"PUT","url":"MeasureReport/c7ccc3f1-5793-4173-8026-899fd18dba7b"}}]}