{"resourceType":"Bundle","id":"tests-ebba9138-5ee3-4e94-bbbf-2a43fec3be71-bundle","type":"transaction","entry":[{"fullUrl":"https://madie.cms.gov/Patient/ebba9138-5ee3-4e94-bbbf-2a43fec3be71","resource":{"resourceType":"Patient","id":"ebba9138-5ee3-4e94-bbbf-2a43fec3be71","meta":{"profile":["http://hl7.org/fhir/us/qicore/StructureDefinition/qicore-patient"]},"text":{"status":"generated","div":"<div xmlns=\"http://www.w3.org/1999/xhtml\"><div class=\"hapiHeaderText\">HIVDxJan1duringMP <b>DENEXFAIL </b></div><table class=\"hapiPropertyTable\"><tbody><tr><td>Date of birth</td><td><span>04 January 1992</span></td></tr></tbody></table></div>"},"extension":[{"url":"http://hl7.org/fhir/us/core/StructureDefinition/us-core-race","extension":[{"url":"ombCategory","valueCoding":{"system":"urn:oid:2.16.840.1.113883.6.238","code":"2054-5","display":"Black or African American","userSelected":true}},{"url":"text","valueString":"Black or African American"}]},{"url":"http://hl7.org/fhir/us/core/StructureDefinition/us-core-ethnicity","extension":[{"url":"ombCategory","valueCoding":{"system":"urn:oid:2.16.840.1.113883.6.238","code":"2186-5","display":"Not Hispanic or Latino","userSelected":true}},{"url":"text","valueString":"Not Hispanic or Latino"}]}],"identifier":[{"type":{"coding":[{"system":"http://terminology.hl7.org/CodeSystem/v2-0203","code":"MR"}]},"system":"https://bonnie-fhir.healthit.gov/","value":"610965b998086b538055c161"}],"active":true,"name":[{"use":"usual","family":"DENEXFail","given":["HIVDxJan1duringMP"]}],"gender":"female","birthDate":"1993-01-04"},"request":{"method":"PUT","url":"Patient/ebba9138-5ee3-4e94-bbbf-2a43fec3be71"}},{"fullUrl":"https://madie.cms.gov/Condition/79237464-7b3c-4055-a9fe-4cf1de4399f7","resource":{"resourceType":"Condition","id":"79237464-7b3c-4055-a9fe-4cf1de4399f7","meta":{"profile":["http://hl7.org/fhir/us/qicore/StructureDefinition/qicore-condition"]},"clinicalStatus":{"coding":[{"system":"http://terminology.hl7.org/CodeSystem/condition-clinical","code":"active","display":"active","userSelected":true}]},"category":[{"coding":[{"system":"http://terminology.hl7.org/CodeSystem/condition-category","code":"encounter-diagnosis","display":"Encounter Diagnosis","userSelected":true}]}],"code":{"coding":[{"system":"http://hl7.org/fhir/sid/icd-9-cm","code":"042"}]},"subject":{"reference":"Patient/ebba9138-5ee3-4e94-bbbf-2a43fec3be71"},"onsetDateTime":"2025-01-01T08:00:00.000+00:00"},"request":{"method":"PUT","url":"Condition/79237464-7b3c-4055-a9fe-4cf1de4399f7"}},{"fullUrl":"https://madie.cms.gov/Encounter/614005ff-2653-49d4-81cb-446f1d6ce66d","resource":{"resourceType":"Encounter","id":"614005ff-2653-49d4-81cb-446f1d6ce66d","meta":{"profile":["http://hl7.org/fhir/us/qicore/StructureDefinition/qicore-encounter"]},"status":"finished","class":{"system":"http://terminology.hl7.org/CodeSystem/v3-ActCode","code":"AMB","display":"ambulatory","userSelected":true},"type":[{"coding":[{"system":"http://www.ama-assn.org/go/cpt","code":"99393"}]}],"subject":{"reference":"Patient/ebba9138-5ee3-4e94-bbbf-2a43fec3be71"},"period":{"start":"2025-04-15T09:00:00.000+00:00","end":"2025-04-15T10:15:00.000+00:00"}},"request":{"method":"PUT","url":"Encounter/614005ff-2653-49d4-81cb-446f1d6ce66d"}},{"fullUrl":"https://madie.cms.gov/MeasureReport/6b368627-378a-42d4-be91-7a7888d69d97","resource":{"resourceType":"MeasureReport","id":"6b368627-378a-42d4-be91-7a7888d69d97","meta":{"profile":["http://hl7.org/fhir/us/cqfmeasures/StructureDefinition/test-case-cqfm"]},"contained":[{"resourceType":"Parameters","id":"cda8c096-d9a2-4104-b89d-308ee36c31d0-parameters","parameter":[{"name":"subject","valueString":"ebba9138-5ee3-4e94-bbbf-2a43fec3be71"}]}],"extension":[{"url":"http://hl7.org/fhir/us/cqfmeasures/StructureDefinition/cqfm-inputParameters","valueReference":{"reference":"#cda8c096-d9a2-4104-b89d-308ee36c31d0-parameters"}},{"url":"http://hl7.org/fhir/us/cqfmeasures/StructureDefinition/cqfm-testCaseDescription","valueMarkdown":"Patient is 20 with a diagnosis of HIV on January 1st of MP [diagnosis timing edge case]"}],"modifierExtension":[{"url":"http://hl7.org/fhir/us/cqfmeasures/StructureDefinition/cqfm-isTestCase","valueBoolean":true}],"status":"complete","type":"individual","measure":"https://madie.cms.gov/Measure/HIVScreeningFHIR","period":{"start":"2025-01-01","end":"2025-12-31"},"group":[{"population":[{"code":{"coding":[{"system":"http://terminology.hl7.org/CodeSystem/measure-population","code":"initial-population","display":"Initial Population"}]},"count":1},{"code":{"coding":[{"system":"http://terminology.hl7.org/CodeSystem/measure-population","code":"denominator","display":"Denominator"}]},"count":1},{"code":{"coding":[{"system":"http://terminology.hl7.org/CodeSystem/measure-population","code":"denominator-exclusion","display":"Denominator Exclusion"}]},"count":0},{"code":{"coding":[{"system":"http://terminology.hl7.org/CodeSystem/measure-population","code":"numerator","display":"Numerator"}]},"count":0}]}],"evaluatedResource":[{"reference":"Patient/ebba9138-5ee3-4e94-bbbf-2a43fec3be71"},{"reference":"Condition/79237464-7b3c-4055-a9fe-4cf1de4399f7"},{"reference":"Encounter/614005ff-2653-49d4-81cb-446f1d6ce66d"}]},"request":{"method":"PUT","url":"MeasureReport/6b368627-378a-42d4-be91-7a7888d69d97"}}]}