{"resourceType":"Bundle","id":"tests-9e733d32-713d-4a5f-a556-36f847f6968c-bundle","type":"transaction","entry":[{"fullUrl":"https://madie.cms.gov/Patient/9e733d32-713d-4a5f-a556-36f847f6968c","resource":{"resourceType":"Patient","id":"9e733d32-713d-4a5f-a556-36f847f6968c","meta":{"profile":["http://hl7.org/fhir/us/qicore/StructureDefinition/qicore-patient"]},"text":{"status":"generated","div":"<div xmlns=\"http://www.w3.org/1999/xhtml\"><div class=\"hapiHeaderText\">LabTestAfterMP <b>NUMERFAIL </b></div><table class=\"hapiPropertyTable\"><tbody><tr><td>Date of birth</td><td><span>31 July 1992</span></td></tr></tbody></table></div>"},"extension":[{"url":"http://hl7.org/fhir/us/core/StructureDefinition/us-core-race","extension":[{"url":"ombCategory","valueCoding":{"system":"urn:oid:2.16.840.1.113883.6.238","code":"2106-3","display":"White","userSelected":true}},{"url":"text","valueString":"White"}]},{"url":"http://hl7.org/fhir/us/core/StructureDefinition/us-core-ethnicity","extension":[{"url":"ombCategory","valueCoding":{"system":"urn:oid:2.16.840.1.113883.6.238","code":"2186-5","display":"Not Hispanic or Latino","userSelected":true}},{"url":"text","valueString":"Not Hispanic or Latino"}]}],"identifier":[{"type":{"coding":[{"system":"http://terminology.hl7.org/CodeSystem/v2-0203","code":"MR"}]},"system":"https://bonnie-fhir.healthit.gov/","value":"610965b998086b538055c155"}],"active":true,"name":[{"use":"usual","family":"NUMERFail","given":["LabTestAfterMP"]}],"gender":"male","birthDate":"2003-07-31"},"request":{"method":"PUT","url":"Patient/9e733d32-713d-4a5f-a556-36f847f6968c"}},{"fullUrl":"https://madie.cms.gov/Condition/481e37da-18a7-4cf9-81de-c3e584e9846d","resource":{"resourceType":"Condition","id":"481e37da-18a7-4cf9-81de-c3e584e9846d","meta":{"profile":["http://hl7.org/fhir/us/qicore/StructureDefinition/qicore-condition"]},"clinicalStatus":{"coding":[{"system":"http://terminology.hl7.org/CodeSystem/condition-clinical","code":"active","display":"Active","userSelected":true}]},"category":[{"coding":[{"system":"http://terminology.hl7.org/CodeSystem/condition-category","code":"encounter-diagnosis","display":"Encounter Diagnosis","userSelected":true}]}],"code":{"coding":[{"system":"http://hl7.org/fhir/sid/icd-9-cm","code":"042"}]},"subject":{"reference":"Patient/9e733d32-713d-4a5f-a556-36f847f6968c"},"onsetDateTime":"2025-04-06T08:00:00.000+00:00"},"request":{"method":"PUT","url":"Condition/481e37da-18a7-4cf9-81de-c3e584e9846d"}},{"fullUrl":"https://madie.cms.gov/Encounter/bba4c321-6a38-4908-8505-99698c9093b8","resource":{"resourceType":"Encounter","id":"bba4c321-6a38-4908-8505-99698c9093b8","meta":{"profile":["http://hl7.org/fhir/us/qicore/StructureDefinition/qicore-encounter"]},"status":"finished","class":{"system":"http://terminology.hl7.org/CodeSystem/v3-ActCode","code":"AMB","display":"ambulatory","userSelected":true},"type":[{"coding":[{"system":"http://snomed.info/sct","code":"185463005"}]}],"subject":{"reference":"Patient/9e733d32-713d-4a5f-a556-36f847f6968c"},"period":{"start":"2025-10-24T08:00:00.000+00:00","end":"2025-10-24T08:15:00.000+00:00"}},"request":{"method":"PUT","url":"Encounter/bba4c321-6a38-4908-8505-99698c9093b8"}},{"fullUrl":"https://madie.cms.gov/Observation/4e2ea419-5299-482a-9bab-9e7891c373b9","resource":{"resourceType":"Observation","id":"4e2ea419-5299-482a-9bab-9e7891c373b9","meta":{"profile":["http://hl7.org/fhir/us/qicore/StructureDefinition/qicore-observation"]},"status":"amended","category":[{"coding":[{"system":"http://terminology.hl7.org/CodeSystem/observation-category","code":"laboratory","display":"Laboratory","userSelected":true}]}],"code":{"coding":[{"system":"http://loinc.org","code":"75622-1"}]},"subject":{"reference":"Patient/9e733d32-713d-4a5f-a556-36f847f6968c"},"effectiveDateTime":"2026-01-01T08:00:00.000+00:00","valueBoolean":true},"request":{"method":"PUT","url":"Observation/4e2ea419-5299-482a-9bab-9e7891c373b9"}},{"fullUrl":"https://madie.cms.gov/MeasureReport/f1705fd7-c471-43bd-a4ba-375d56bcb79d","resource":{"resourceType":"MeasureReport","id":"f1705fd7-c471-43bd-a4ba-375d56bcb79d","meta":{"profile":["http://hl7.org/fhir/us/cqfmeasures/StructureDefinition/test-case-cqfm"]},"contained":[{"resourceType":"Parameters","id":"110cfa3b-fb0a-4ceb-9079-0c58708f5cb1-parameters","parameter":[{"name":"subject","valueString":"9e733d32-713d-4a5f-a556-36f847f6968c"}]}],"extension":[{"url":"http://hl7.org/fhir/us/cqfmeasures/StructureDefinition/cqfm-inputParameters","valueReference":{"reference":"#110cfa3b-fb0a-4ceb-9079-0c58708f5cb1-parameters"}},{"url":"http://hl7.org/fhir/us/cqfmeasures/StructureDefinition/cqfm-testCaseDescription","valueMarkdown":"Patient 20 at start of MP,  qual encounter during MP, HIV diagnosis starts during MP, lab test at 20 after MP."}],"modifierExtension":[{"url":"http://hl7.org/fhir/us/cqfmeasures/StructureDefinition/cqfm-isTestCase","valueBoolean":true}],"status":"complete","type":"individual","measure":"https://madie.cms.gov/Measure/HIVScreeningFHIR","period":{"start":"2025-01-01","end":"2025-12-31"},"group":[{"population":[{"code":{"coding":[{"system":"http://terminology.hl7.org/CodeSystem/measure-population","code":"initial-population","display":"Initial Population"}]},"count":1},{"code":{"coding":[{"system":"http://terminology.hl7.org/CodeSystem/measure-population","code":"denominator","display":"Denominator"}]},"count":1},{"code":{"coding":[{"system":"http://terminology.hl7.org/CodeSystem/measure-population","code":"denominator-exclusion","display":"Denominator Exclusion"}]},"count":0},{"code":{"coding":[{"system":"http://terminology.hl7.org/CodeSystem/measure-population","code":"numerator","display":"Numerator"}]},"count":0}]}],"evaluatedResource":[{"reference":"Patient/9e733d32-713d-4a5f-a556-36f847f6968c"},{"reference":"Condition/481e37da-18a7-4cf9-81de-c3e584e9846d"},{"reference":"Encounter/bba4c321-6a38-4908-8505-99698c9093b8"},{"reference":"Observation/4e2ea419-5299-482a-9bab-9e7891c373b9"}]},"request":{"method":"PUT","url":"MeasureReport/f1705fd7-c471-43bd-a4ba-375d56bcb79d"}}]}