{"resourceType":"Bundle","id":"tests-253ce0e2-d045-46db-b160-7cd99233227c-bundle","type":"transaction","entry":[{"fullUrl":"https://madie.cms.gov/Patient/253ce0e2-d045-46db-b160-7cd99233227c","resource":{"resourceType":"Patient","id":"253ce0e2-d045-46db-b160-7cd99233227c","meta":{"profile":["http://hl7.org/fhir/us/qicore/StructureDefinition/qicore-patient"]},"extension":[{"url":"http://hl7.org/fhir/us/core/StructureDefinition/us-core-race","extension":[{"url":"ombCategory","valueCoding":{"system":"urn:oid:2.16.840.1.113883.6.238","code":"1002-5","display":"American Indian or Alaska Native","userSelected":true}},{"url":"text","valueString":"American Indian or Alaska Native"},{"url":"detailed","valueCoding":{"system":"urn:oid:2.16.840.1.113883.6.238","code":"1653-5","display":"Tohono O'Odham"}}]},{"url":"http://hl7.org/fhir/us/core/StructureDefinition/us-core-ethnicity","extension":[{"url":"ombCategory","valueCoding":{"system":"urn:oid:2.16.840.1.113883.6.238","code":"2135-2","display":"Hispanic or Latino","userSelected":true}},{"url":"text","valueString":"Not Hispanic or Latino"},{"url":"detailed","valueCoding":{"system":"urn:oid:2.16.840.1.113883.6.238","code":"2153-5","display":"Mexican American Indian"}}]}],"identifier":[{"type":{"coding":[{"system":"http://terminology.hl7.org/CodeSystem/v2-0203","code":"MR"}]},"system":"https://bonnie-fhir.healthit.gov/","value":"60eda3c80edfe2d9c328006e"}],"name":[{"family":"IPPFail","given":["Age65Dec31"]}],"gender":"female","birthDate":"1958-01-01"},"request":{"method":"PUT","url":"Patient/253ce0e2-d045-46db-b160-7cd99233227c"}},{"fullUrl":"https://madie.cms.gov/Organization/071f23be-0908-48c9-9d70-b968da9ba27b","resource":{"resourceType":"Organization","id":"071f23be-0908-48c9-9d70-b968da9ba27b","meta":{"profile":["http://hl7.org/fhir/us/qicore/StructureDefinition/qicore-organization"]},"identifier":[{"use":"temp","system":"urn:oid:2.16.840.1.113883.4.336","value":"APayer"}],"active":true,"type":[{"coding":[{"system":"http://terminology.hl7.org/CodeSystem/organization-type","code":"pay","display":"Payer"}],"text":"Healthcare Payer"}],"name":"Test Medical Center","telecom":[{"system":"phone","value":"(+1) 800-123-4567"},{"system":"email","value":"mypayer@test.org"}],"address":[{"line":["600 Maple Avenue"],"city":"Indianapolis","state":"IN","postalCode":"46237","country":"USA"}]},"request":{"method":"PUT","url":"Organization/071f23be-0908-48c9-9d70-b968da9ba27b"}},{"fullUrl":"https://madie.cms.gov/Coverage/12f422d2-10cc-44c6-bb83-ae67194ca870","resource":{"resourceType":"Coverage","id":"12f422d2-10cc-44c6-bb83-ae67194ca870","meta":{"profile":["http://hl7.org/fhir/us/qicore/StructureDefinition/qicore-coverage"]},"identifier":[{"system":"http://benefitsinc.com/certificate","value":"12345"}],"status":"active","type":{"coding":[{"system":"https://nahdo.org/sopt","code":"59","display":"Other Private Insurance"}]},"policyHolder":{"reference":"Patient/253ce0e2-d045-46db-b160-7cd99233227c"},"subscriber":{"reference":"Patient/253ce0e2-d045-46db-b160-7cd99233227c"},"beneficiary":{"reference":"Patient/253ce0e2-d045-46db-b160-7cd99233227c"},"dependent":"0","relationship":{"coding":[{"system":"http://terminology.hl7.org/CodeSystem/subscriber-relationship","code":"self"}]},"period":{"start":"2022-01-01T06:00:00.000Z","end":"2022-01-01T11:06:01.000Z"},"payor":[{"reference":"Organization/071f23be-0908-48c9-9d70-b968da9ba27b"}],"order":9},"request":{"method":"PUT","url":"Coverage/12f422d2-10cc-44c6-bb83-ae67194ca870"}},{"fullUrl":"https://madie.cms.gov/Encounter/35aac0d1-4978-4466-bfc1-08d97bb747ea","resource":{"resourceType":"Encounter","id":"35aac0d1-4978-4466-bfc1-08d97bb747ea","meta":{"profile":["http://hl7.org/fhir/us/qicore/StructureDefinition/qicore-encounter"]},"status":"finished","class":{"system":"http://terminology.hl7.org/CodeSystem/v3-ActCode","code":"AMB","display":"ambulatory","userSelected":true},"type":[{"coding":[{"system":"http://snomed.info/sct","version":"2020-09","code":"185463005","display":"Visit out of hours (procedure)","userSelected":true}]}],"subject":{"reference":"Patient/253ce0e2-d045-46db-b160-7cd99233227c"},"period":{"start":"2025-04-04T08:00:00.000+00:00","end":"2025-04-04T08:15:00.000+00:00"}},"request":{"method":"PUT","url":"Encounter/35aac0d1-4978-4466-bfc1-08d97bb747ea"}},{"fullUrl":"https://madie.cms.gov/MeasureReport/0b991c1c-b1f4-4735-ab51-35a6aaa4a4d8","resource":{"resourceType":"MeasureReport","id":"0b991c1c-b1f4-4735-ab51-35a6aaa4a4d8","meta":{"profile":["http://hl7.org/fhir/us/cqfmeasures/StructureDefinition/test-case-cqfm"]},"contained":[{"resourceType":"Parameters","id":"44529bba-8802-401d-bd37-b3c457b879db-parameters","parameter":[{"name":"subject","valueString":"253ce0e2-d045-46db-b160-7cd99233227c"}]}],"extension":[{"url":"http://hl7.org/fhir/us/cqfmeasures/StructureDefinition/cqfm-inputParameters","valueReference":{"reference":"#44529bba-8802-401d-bd37-b3c457b879db-parameters"}},{"url":"http://hl7.org/fhir/us/cqfmeasures/StructureDefinition/cqfm-testCaseDescription","valueMarkdown":"Patient turns 66 on start of MP."}],"modifierExtension":[{"url":"http://hl7.org/fhir/us/cqfmeasures/StructureDefinition/cqfm-isTestCase","valueBoolean":true}],"status":"complete","type":"individual","measure":"https://madie.cms.gov/Measure/HIVScreeningFHIR","period":{"start":"2025-01-01","end":"2025-12-31"},"group":[{"population":[{"code":{"coding":[{"system":"http://terminology.hl7.org/CodeSystem/measure-population","code":"initial-population","display":"Initial Population"}]},"count":0},{"code":{"coding":[{"system":"http://terminology.hl7.org/CodeSystem/measure-population","code":"denominator","display":"Denominator"}]},"count":0},{"code":{"coding":[{"system":"http://terminology.hl7.org/CodeSystem/measure-population","code":"denominator-exclusion","display":"Denominator Exclusion"}]},"count":0},{"code":{"coding":[{"system":"http://terminology.hl7.org/CodeSystem/measure-population","code":"numerator","display":"Numerator"}]},"count":0}]}],"evaluatedResource":[{"reference":"Patient/253ce0e2-d045-46db-b160-7cd99233227c"},{"reference":"Organization/071f23be-0908-48c9-9d70-b968da9ba27b"},{"reference":"Coverage/12f422d2-10cc-44c6-bb83-ae67194ca870"},{"reference":"Encounter/35aac0d1-4978-4466-bfc1-08d97bb747ea"}]},"request":{"method":"PUT","url":"MeasureReport/0b991c1c-b1f4-4735-ab51-35a6aaa4a4d8"}}]}