{"resourceType":"Bundle","id":"tests-4a88a433-7cc8-4588-8ce3-64480f4f45e7-bundle","type":"transaction","entry":[{"fullUrl":"https://madie.cms.gov/Patient/4a88a433-7cc8-4588-8ce3-64480f4f45e7","resource":{"resourceType":"Patient","id":"4a88a433-7cc8-4588-8ce3-64480f4f45e7","meta":{"profile":["http://hl7.org/fhir/us/qicore/StructureDefinition/qicore-patient"]},"extension":[{"url":"http://hl7.org/fhir/us/core/StructureDefinition/us-core-race","extension":[{"url":"ombCategory","valueCoding":{"system":"urn:oid:2.16.840.1.113883.6.238","code":"2106-3","display":"White","userSelected":true}},{"url":"text","valueString":"White"}]},{"url":"http://hl7.org/fhir/us/core/StructureDefinition/us-core-ethnicity","extension":[{"url":"ombCategory","valueCoding":{"system":"urn:oid:2.16.840.1.113883.6.238","code":"2186-5","display":"Not Hispanic or Latino","userSelected":true}},{"url":"text","valueString":"Not Hispanic or Latino"}]}],"identifier":[{"type":{"coding":[{"system":"http://terminology.hl7.org/CodeSystem/v2-0203","code":"MR"}]},"system":"https://bonnie-fhir.healthit.gov/","value":"60eda20e0edfe2d9c328006c"}],"name":[{"family":"IPPFail","given":["AgeUnder15"]}],"gender":"male","birthDate":"2015-01-02"},"request":{"method":"PUT","url":"Patient/4a88a433-7cc8-4588-8ce3-64480f4f45e7"}},{"fullUrl":"https://madie.cms.gov/Encounter/415cc4e7-beb4-4dd7-b015-4465dcdcaf0e","resource":{"resourceType":"Encounter","id":"415cc4e7-beb4-4dd7-b015-4465dcdcaf0e","meta":{"profile":["http://hl7.org/fhir/us/qicore/StructureDefinition/qicore-encounter"]},"status":"finished","class":{"system":"http://terminology.hl7.org/CodeSystem/v3-ActCode","code":"AMB","display":"ambulatory","userSelected":true},"type":[{"coding":[{"system":"http://www.ama-assn.org/go/cpt","version":"2021","code":"99393","display":"Periodic comprehensive preventive medicine reevaluation and management of an individual including an age and gender appropriate history, examination, counseling/anticipatory guidance/risk factor reduction interventions, and the ordering of laboratory/diagnostic procedures, established patient; late childhood (age 5 through 11 years)","userSelected":true}]}],"subject":{"reference":"Patient/4a88a433-7cc8-4588-8ce3-64480f4f45e7"},"period":{"start":"2025-11-21T08:00:00.000+00:00","end":"2025-11-21T08:15:00.000+00:00"}},"request":{"method":"PUT","url":"Encounter/415cc4e7-beb4-4dd7-b015-4465dcdcaf0e"}},{"fullUrl":"https://madie.cms.gov/MeasureReport/d415c4d3-a549-4bc6-976d-abc4e33b15e3","resource":{"resourceType":"MeasureReport","id":"d415c4d3-a549-4bc6-976d-abc4e33b15e3","meta":{"profile":["http://hl7.org/fhir/us/cqfmeasures/StructureDefinition/test-case-cqfm"]},"contained":[{"resourceType":"Parameters","id":"c8649b28-7ecb-4231-af3a-ef9b8cf0ef87-parameters","parameter":[{"name":"subject","valueString":"4a88a433-7cc8-4588-8ce3-64480f4f45e7"}]}],"extension":[{"url":"http://hl7.org/fhir/us/cqfmeasures/StructureDefinition/cqfm-inputParameters","valueReference":{"reference":"#c8649b28-7ecb-4231-af3a-ef9b8cf0ef87-parameters"}},{"url":"http://hl7.org/fhir/us/cqfmeasures/StructureDefinition/cqfm-testCaseDescription","valueMarkdown":"Patient too young, under 15 at start of MP, with qualifying encounter"}],"modifierExtension":[{"url":"http://hl7.org/fhir/us/cqfmeasures/StructureDefinition/cqfm-isTestCase","valueBoolean":true}],"status":"complete","type":"individual","measure":"https://madie.cms.gov/Measure/HIVScreeningFHIR","period":{"start":"2025-01-01","end":"2025-12-31"},"group":[{"population":[{"code":{"coding":[{"system":"http://terminology.hl7.org/CodeSystem/measure-population","code":"initial-population","display":"Initial Population"}]},"count":0},{"code":{"coding":[{"system":"http://terminology.hl7.org/CodeSystem/measure-population","code":"denominator","display":"Denominator"}]},"count":0},{"code":{"coding":[{"system":"http://terminology.hl7.org/CodeSystem/measure-population","code":"denominator-exclusion","display":"Denominator Exclusion"}]},"count":0},{"code":{"coding":[{"system":"http://terminology.hl7.org/CodeSystem/measure-population","code":"numerator","display":"Numerator"}]},"count":0}]}],"evaluatedResource":[{"reference":"Patient/4a88a433-7cc8-4588-8ce3-64480f4f45e7"},{"reference":"Encounter/415cc4e7-beb4-4dd7-b015-4465dcdcaf0e"}]},"request":{"method":"PUT","url":"MeasureReport/d415c4d3-a549-4bc6-976d-abc4e33b15e3"}}]}