{"resourceType":"Bundle","id":"tests-99692b18-23f5-4f36-b284-e764cb05811c-bundle","type":"transaction","entry":[{"fullUrl":"https://madie.cms.gov/Patient/99692b18-23f5-4f36-b284-e764cb05811c","resource":{"resourceType":"Patient","id":"99692b18-23f5-4f36-b284-e764cb05811c","meta":{"profile":["http://hl7.org/fhir/us/qicore/StructureDefinition/qicore-patient"]},"text":{"status":"generated","div":"<div xmlns=\"http://www.w3.org/1999/xhtml\"><div class=\"hapiHeaderText\">Patient15StartMP <b>IPPPASS </b></div><table class=\"hapiPropertyTable\"><tbody><tr><td>Identifier</td><td>604d2e51a95dc1c7ed644bda9409fd1cd9b88013d7cf822b73c0547dcd33ea53</td></tr><tr><td>Date of birth</td><td><span>01 January 1997</span></td></tr></tbody></table></div>"},"extension":[{"url":"http://hl7.org/fhir/us/core/StructureDefinition/us-core-race","extension":[{"url":"ombCategory","valueCoding":{"system":"urn:oid:2.16.840.1.113883.6.238","code":"1002-5","display":"American Indian or Alaska Native","userSelected":true}},{"url":"text","valueString":"American Indian or Alaska Native"}]},{"url":"http://hl7.org/fhir/us/core/StructureDefinition/us-core-ethnicity","extension":[{"url":"ombCategory","valueCoding":{"system":"urn:oid:2.16.840.1.113883.6.238","code":"2135-2","display":"Hispanic or Latino","userSelected":true}},{"url":"text","valueString":"Hispanic or Latino"}]}],"identifier":[{"type":{"coding":[{"system":"http://terminology.hl7.org/CodeSystem/v2-0203","code":"MR"}]},"system":"https://bonnie-fhir.healthit.gov/","value":"610965b898086b538055c146"}],"active":true,"name":[{"use":"usual","family":"IPPPass","given":["Age15Jan1"]}],"gender":"female","birthDate":"2009-01-01"},"request":{"method":"PUT","url":"Patient/99692b18-23f5-4f36-b284-e764cb05811c"}},{"fullUrl":"https://madie.cms.gov/Encounter/fc171ed3-3707-4f48-b503-68461473139f","resource":{"resourceType":"Encounter","id":"fc171ed3-3707-4f48-b503-68461473139f","meta":{"profile":["http://hl7.org/fhir/us/qicore/StructureDefinition/qicore-encounter"]},"status":"finished","class":{"system":"http://terminology.hl7.org/CodeSystem/v3-ActCode","code":"AMB","display":"ambulatory","userSelected":true},"type":[{"coding":[{"system":"http://www.ama-assn.org/go/cpt","code":"99381"}]}],"subject":{"reference":"Patient/99692b18-23f5-4f36-b284-e764cb05811c"},"period":{"start":"2025-10-24T08:00:00.000+00:00","end":"2025-10-24T08:15:00.000+00:00"}},"request":{"method":"PUT","url":"Encounter/fc171ed3-3707-4f48-b503-68461473139f"}},{"fullUrl":"https://madie.cms.gov/Encounter/c97dccb3-1935-44ab-a2c5-670c64cef76a","resource":{"resourceType":"Encounter","id":"c97dccb3-1935-44ab-a2c5-670c64cef76a","meta":{"profile":["http://hl7.org/fhir/us/qicore/StructureDefinition/qicore-encounter"]},"status":"finished","class":{"system":"http://terminology.hl7.org/CodeSystem/v3-ActCode","code":"AMB","display":"ambulatory","userSelected":true},"type":[{"coding":[{"system":"http://www.ama-assn.org/go/cpt","code":"99394"}]}],"subject":{"reference":"Patient/b26beebe-30ab-4734-b1d1-958ff70e29ca"},"period":{"start":"2025-09-24T08:00:00.000+00:00","end":"2025-09-24T08:15:00.000+00:00"}},"request":{"method":"PUT","url":"Encounter/c97dccb3-1935-44ab-a2c5-670c64cef76a"}},{"fullUrl":"https://madie.cms.gov/MeasureReport/c320bde1-aef7-49b0-9c83-29ae49bd83eb","resource":{"resourceType":"MeasureReport","id":"c320bde1-aef7-49b0-9c83-29ae49bd83eb","meta":{"profile":["http://hl7.org/fhir/us/cqfmeasures/StructureDefinition/test-case-cqfm"]},"contained":[{"resourceType":"Parameters","id":"40d8d0fc-0350-4159-92c9-59d1bc7ceded-parameters","parameter":[{"name":"subject","valueString":"99692b18-23f5-4f36-b284-e764cb05811c"}]}],"extension":[{"url":"http://hl7.org/fhir/us/cqfmeasures/StructureDefinition/cqfm-inputParameters","valueReference":{"reference":"#40d8d0fc-0350-4159-92c9-59d1bc7ceded-parameters"}},{"url":"http://hl7.org/fhir/us/cqfmeasures/StructureDefinition/cqfm-testCaseDescription","valueMarkdown":"Patient has qualifying encounter and is age 15 on Jan 1. "}],"modifierExtension":[{"url":"http://hl7.org/fhir/us/cqfmeasures/StructureDefinition/cqfm-isTestCase","valueBoolean":true}],"status":"complete","type":"individual","measure":"https://madie.cms.gov/Measure/HIVScreeningFHIR","period":{"start":"2025-01-01","end":"2025-12-31"},"group":[{"population":[{"code":{"coding":[{"system":"http://terminology.hl7.org/CodeSystem/measure-population","code":"initial-population","display":"Initial Population"}]},"count":1},{"code":{"coding":[{"system":"http://terminology.hl7.org/CodeSystem/measure-population","code":"denominator","display":"Denominator"}]},"count":1},{"code":{"coding":[{"system":"http://terminology.hl7.org/CodeSystem/measure-population","code":"denominator-exclusion","display":"Denominator Exclusion"}]},"count":0},{"code":{"coding":[{"system":"http://terminology.hl7.org/CodeSystem/measure-population","code":"numerator","display":"Numerator"}]},"count":0}]}],"evaluatedResource":[{"reference":"Patient/99692b18-23f5-4f36-b284-e764cb05811c"},{"reference":"Encounter/fc171ed3-3707-4f48-b503-68461473139f"},{"reference":"Encounter/c97dccb3-1935-44ab-a2c5-670c64cef76a"}]},"request":{"method":"PUT","url":"MeasureReport/c320bde1-aef7-49b0-9c83-29ae49bd83eb"}}]}