{"resourceType":"Bundle","id":"tests-c9f67b54-7020-4556-bec7-b0abb948fa92-bundle","type":"transaction","entry":[{"fullUrl":"https://madie.cms.gov/Patient/c9f67b54-7020-4556-bec7-b0abb948fa92","resource":{"resourceType":"Patient","id":"c9f67b54-7020-4556-bec7-b0abb948fa92","meta":{"profile":["http://hl7.org/fhir/us/qicore/StructureDefinition/qicore-patient"]},"text":{"status":"generated","div":"<div xmlns=\"http://www.w3.org/1999/xhtml\"><div class=\"hapiHeaderText\">NoEncounter <b>IPPFAIL </b></div><table class=\"hapiPropertyTable\"><tbody><tr><td>Identifier</td><td>3f32d52744f86ba776a08958282d8c783d541b6e898e64a7e1df9ffd69c42a02</td></tr><tr><td>Date of birth</td><td><span>31 July 1992</span></td></tr></tbody></table></div>"},"extension":[{"url":"http://hl7.org/fhir/us/core/StructureDefinition/us-core-race","extension":[{"url":"ombCategory","valueCoding":{"system":"urn:oid:2.16.840.1.113883.6.238","code":"1002-5","display":"American Indian or Alaska Native","userSelected":true}},{"url":"text","valueString":"American Indian or Alaska Native"}]},{"url":"http://hl7.org/fhir/us/core/StructureDefinition/us-core-ethnicity","extension":[{"url":"ombCategory","valueCoding":{"system":"urn:oid:2.16.840.1.113883.6.238","code":"2135-2","display":"Hispanic or Latino","userSelected":true}},{"url":"text","valueString":"Hispanic or Latino"}]}],"identifier":[{"type":{"coding":[{"system":"http://terminology.hl7.org/CodeSystem/v2-0203","code":"MR"}]},"system":"https://bonnie-fhir.healthit.gov/","value":"610965b898086b538055c14d"}],"active":true,"name":[{"use":"usual","family":"IPPFail","given":["NoEncounter"]}],"gender":"male","birthDate":"1994-07-31"},"request":{"method":"PUT","url":"Patient/c9f67b54-7020-4556-bec7-b0abb948fa92"}},{"fullUrl":"https://madie.cms.gov/MeasureReport/70aa2bdb-2f56-4505-a63e-7a50309ce393","resource":{"resourceType":"MeasureReport","id":"70aa2bdb-2f56-4505-a63e-7a50309ce393","meta":{"profile":["http://hl7.org/fhir/us/cqfmeasures/StructureDefinition/test-case-cqfm"]},"contained":[{"resourceType":"Parameters","id":"649cd334-97b8-41a3-bc86-a0733e9b375d-parameters","parameter":[{"name":"subject","valueString":"c9f67b54-7020-4556-bec7-b0abb948fa92"}]}],"extension":[{"url":"http://hl7.org/fhir/us/cqfmeasures/StructureDefinition/cqfm-inputParameters","valueReference":{"reference":"#649cd334-97b8-41a3-bc86-a0733e9b375d-parameters"}},{"url":"http://hl7.org/fhir/us/cqfmeasures/StructureDefinition/cqfm-testCaseDescription","valueMarkdown":"Patient qualifies by name but does not have a qualifying encounter."}],"modifierExtension":[{"url":"http://hl7.org/fhir/us/cqfmeasures/StructureDefinition/cqfm-isTestCase","valueBoolean":true}],"status":"complete","type":"individual","measure":"https://madie.cms.gov/Measure/HIVScreeningFHIR","period":{"start":"2025-01-01","end":"2025-12-31"},"group":[{"population":[{"code":{"coding":[{"system":"http://terminology.hl7.org/CodeSystem/measure-population","code":"initial-population","display":"Initial Population"}]},"count":0},{"code":{"coding":[{"system":"http://terminology.hl7.org/CodeSystem/measure-population","code":"denominator","display":"Denominator"}]},"count":0},{"code":{"coding":[{"system":"http://terminology.hl7.org/CodeSystem/measure-population","code":"denominator-exclusion","display":"Denominator Exclusion"}]},"count":0},{"code":{"coding":[{"system":"http://terminology.hl7.org/CodeSystem/measure-population","code":"numerator","display":"Numerator"}]},"count":0}]}],"evaluatedResource":[{"reference":"Patient/c9f67b54-7020-4556-bec7-b0abb948fa92"}]},"request":{"method":"PUT","url":"MeasureReport/70aa2bdb-2f56-4505-a63e-7a50309ce393"}}]}