{"resourceType":"Bundle","id":"tests-8b1b8c00-1d05-4d52-af9a-0c80cbc1c402-bundle","type":"transaction","entry":[{"fullUrl":"https://madie.cms.gov/Patient/8b1b8c00-1d05-4d52-af9a-0c80cbc1c402","resource":{"resourceType":"Patient","id":"8b1b8c00-1d05-4d52-af9a-0c80cbc1c402","meta":{"profile":["http://hl7.org/fhir/us/qicore/StructureDefinition/qicore-patient"]},"text":{"status":"generated","div":"<div xmlns=\"http://www.w3.org/1999/xhtml\"><div class=\"hapiHeaderText\">LabTestInvalid <b>NUMERFAIL </b></div><table class=\"hapiPropertyTable\"><tbody><tr><td>Date of birth</td><td><span>31 July 1992</span></td></tr></tbody></table></div>"},"extension":[{"url":"http://hl7.org/fhir/us/core/StructureDefinition/us-core-race","extension":[{"url":"ombCategory","valueCoding":{"system":"urn:oid:2.16.840.1.113883.6.238","code":"2076-8","display":"Native Hawaiian or Other Pacific Islander","userSelected":true}},{"url":"text","valueString":"Native Hawaiian or Other Pacific Islander"}]},{"url":"http://hl7.org/fhir/us/core/StructureDefinition/us-core-ethnicity","extension":[{"url":"ombCategory","valueCoding":{"system":"urn:oid:2.16.840.1.113883.6.238","code":"2135-2","display":"Hispanic or Latino","userSelected":true}},{"url":"text","valueString":"Hispanic or Latino"}]}],"identifier":[{"type":{"coding":[{"system":"http://terminology.hl7.org/CodeSystem/v2-0203","code":"MR"}]},"system":"https://bonnie-fhir.healthit.gov/","value":"610965b898086b538055c151"}],"active":true,"name":[{"use":"usual","family":"NUMERFail","given":["LabTestInvalid"]}],"gender":"female","birthDate":"2003-07-31"},"request":{"method":"PUT","url":"Patient/8b1b8c00-1d05-4d52-af9a-0c80cbc1c402"}},{"fullUrl":"https://madie.cms.gov/Condition/4f48d55c-1c38-450d-914d-b2c580cdca98","resource":{"resourceType":"Condition","id":"4f48d55c-1c38-450d-914d-b2c580cdca98","meta":{"profile":["http://hl7.org/fhir/us/qicore/StructureDefinition/qicore-condition"]},"clinicalStatus":{"coding":[{"system":"http://terminology.hl7.org/CodeSystem/condition-clinical","version":"4.0.1","code":"inactive","display":"Inactive","userSelected":true}]},"category":[{"coding":[{"system":"http://terminology.hl7.org/CodeSystem/condition-category","code":"encounter-diagnosis","display":"Encounter Diagnosis","userSelected":true}]}],"code":{"coding":[{"system":"http://hl7.org/fhir/sid/icd-9-cm","code":"042"}]},"subject":{"reference":"Patient/8b1b8c00-1d05-4d52-af9a-0c80cbc1c402"},"onsetDateTime":"2025-04-06T08:00:00.000+00:00","abatementDateTime":"2025-10-24T08:00:00.000+00:00"},"request":{"method":"PUT","url":"Condition/4f48d55c-1c38-450d-914d-b2c580cdca98"}},{"fullUrl":"https://madie.cms.gov/Encounter/92845244-b00f-44b5-b5c6-82dd6c3fc6f6","resource":{"resourceType":"Encounter","id":"92845244-b00f-44b5-b5c6-82dd6c3fc6f6","meta":{"profile":["http://hl7.org/fhir/us/qicore/StructureDefinition/qicore-encounter"]},"status":"finished","class":{"system":"http://terminology.hl7.org/CodeSystem/v3-ActCode","code":"AMB","display":"ambulatory","userSelected":true},"type":[{"coding":[{"system":"http://snomed.info/sct","code":"185463005"},{"system":"http://www.ama-assn.org/go/cpt","code":"99203"}]}],"subject":{"reference":"Patient/8b1b8c00-1d05-4d52-af9a-0c80cbc1c402"},"period":{"start":"2025-10-24T08:00:00.000+00:00","end":"2025-10-24T08:15:00.000+00:00"}},"request":{"method":"PUT","url":"Encounter/92845244-b00f-44b5-b5c6-82dd6c3fc6f6"}},{"fullUrl":"https://madie.cms.gov/Observation/5a049f1a-b3c3-4732-aad7-f7040ebb8617","resource":{"resourceType":"Observation","id":"5a049f1a-b3c3-4732-aad7-f7040ebb8617","meta":{"profile":["http://hl7.org/fhir/us/qicore/StructureDefinition/qicore-observation"]},"status":"final","category":[{"coding":[{"system":"http://terminology.hl7.org/CodeSystem/observation-category","code":"laboratory","display":"Laboratory","userSelected":true}]}],"code":{"coding":[{"system":"http://hl7.org/fhir/sid/icd-9-cm","code":"040"}]},"subject":{"reference":"Patient/8b1b8c00-1d05-4d52-af9a-0c80cbc1c402"},"effectiveDateTime":"2025-04-06T08:00:00.000+00:00","valueBoolean":true},"request":{"method":"PUT","url":"Observation/5a049f1a-b3c3-4732-aad7-f7040ebb8617"}},{"fullUrl":"https://madie.cms.gov/MeasureReport/6756c296-b118-48cc-a8c3-de01897bed74","resource":{"resourceType":"MeasureReport","id":"6756c296-b118-48cc-a8c3-de01897bed74","meta":{"profile":["http://hl7.org/fhir/us/cqfmeasures/StructureDefinition/test-case-cqfm"]},"contained":[{"resourceType":"Parameters","id":"6388b146-b641-4f3e-8c02-359791bc0644-parameters","parameter":[{"name":"subject","valueString":"8b1b8c00-1d05-4d52-af9a-0c80cbc1c402"}]}],"extension":[{"url":"http://hl7.org/fhir/us/cqfmeasures/StructureDefinition/cqfm-inputParameters","valueReference":{"reference":"#6388b146-b641-4f3e-8c02-359791bc0644-parameters"}},{"url":"http://hl7.org/fhir/us/cqfmeasures/StructureDefinition/cqfm-testCaseDescription","valueMarkdown":"Patient 20 at start of MP, qual encounter during MP, HIV diagnosis starts during MP, invalid lab test at 20 during MP."}],"modifierExtension":[{"url":"http://hl7.org/fhir/us/cqfmeasures/StructureDefinition/cqfm-isTestCase","valueBoolean":true}],"status":"complete","type":"individual","measure":"https://madie.cms.gov/Measure/HIVScreeningFHIR","period":{"start":"2025-01-01","end":"2025-12-31"},"group":[{"population":[{"code":{"coding":[{"system":"http://terminology.hl7.org/CodeSystem/measure-population","code":"initial-population","display":"Initial Population"}]},"count":1},{"code":{"coding":[{"system":"http://terminology.hl7.org/CodeSystem/measure-population","code":"denominator","display":"Denominator"}]},"count":1},{"code":{"coding":[{"system":"http://terminology.hl7.org/CodeSystem/measure-population","code":"denominator-exclusion","display":"Denominator Exclusion"}]},"count":0},{"code":{"coding":[{"system":"http://terminology.hl7.org/CodeSystem/measure-population","code":"numerator","display":"Numerator"}]},"count":0}]}],"evaluatedResource":[{"reference":"Patient/8b1b8c00-1d05-4d52-af9a-0c80cbc1c402"},{"reference":"Condition/4f48d55c-1c38-450d-914d-b2c580cdca98"},{"reference":"Encounter/92845244-b00f-44b5-b5c6-82dd6c3fc6f6"},{"reference":"Observation/5a049f1a-b3c3-4732-aad7-f7040ebb8617"}]},"request":{"method":"PUT","url":"MeasureReport/6756c296-b118-48cc-a8c3-de01897bed74"}}]}