{"resourceType":"Bundle","id":"tests-20a987a7-d45b-43e4-894b-2e3cba4d07b7-bundle","type":"transaction","entry":[{"fullUrl":"https://madie.cms.gov/Patient/20a987a7-d45b-43e4-894b-2e3cba4d07b7","resource":{"resourceType":"Patient","id":"20a987a7-d45b-43e4-894b-2e3cba4d07b7","meta":{"profile":["http://hl7.org/fhir/us/qicore/StructureDefinition/qicore-patient"]},"text":{"status":"generated","div":"<div xmlns=\"http://www.w3.org/1999/xhtml\"><div class=\"hapiHeaderText\">LabTestTooOld <b>NUMERFAIL </b></div><table class=\"hapiPropertyTable\"><tbody><tr><td>Identifier</td><td>3a3b648e0cc14e200f2d48b72852219e3b95e5787df1549ba35aedfebdf90868</td></tr><tr><td>Date of birth</td><td><span>02 January 1946</span></td></tr></tbody></table></div>"},"extension":[{"url":"http://hl7.org/fhir/us/core/StructureDefinition/us-core-race","extension":[{"url":"ombCategory","valueCoding":{"system":"urn:oid:2.16.840.1.113883.6.238","code":"1002-5","display":"American Indian or Alaska Native","userSelected":true}},{"url":"text","valueString":"American Indian or Alaska Native"}]},{"url":"http://hl7.org/fhir/us/core/StructureDefinition/us-core-ethnicity","extension":[{"url":"ombCategory","valueCoding":{"system":"urn:oid:2.16.840.1.113883.6.238","code":"2135-2","display":"Hispanic or Latino","userSelected":true}},{"url":"text","valueString":"Hispanic or Latino"}]}],"identifier":[{"type":{"coding":[{"system":"http://terminology.hl7.org/CodeSystem/v2-0203","code":"MR"}]},"system":"https://bonnie-fhir.healthit.gov/","value":"610965b898086b538055c14e"}],"active":true,"name":[{"use":"usual","family":"NUMERFail","given":["LabTestTooOld"]}],"gender":"male","birthDate":"1959-01-02"},"request":{"method":"PUT","url":"Patient/20a987a7-d45b-43e4-894b-2e3cba4d07b7"}},{"fullUrl":"https://madie.cms.gov/Encounter/a0d79087-3c39-4f55-bb2a-fee4a59a57c3","resource":{"resourceType":"Encounter","id":"a0d79087-3c39-4f55-bb2a-fee4a59a57c3","meta":{"profile":["http://hl7.org/fhir/us/qicore/StructureDefinition/qicore-encounter"]},"status":"finished","class":{"system":"http://terminology.hl7.org/CodeSystem/v3-ActCode","code":"AMB","display":"ambulatory","userSelected":true},"type":[{"coding":[{"system":"http://www.ama-assn.org/go/cpt","code":"99395"}]}],"subject":{"reference":"Patient/20a987a7-d45b-43e4-894b-2e3cba4d07b7"},"period":{"start":"2025-02-06T08:00:00.000+00:00","end":"2025-02-06T08:15:00.000+00:00"}},"request":{"method":"PUT","url":"Encounter/a0d79087-3c39-4f55-bb2a-fee4a59a57c3"}},{"fullUrl":"https://madie.cms.gov/Observation/e237749a-5854-465c-93f8-be7e3dfb9a32","resource":{"resourceType":"Observation","id":"e237749a-5854-465c-93f8-be7e3dfb9a32","meta":{"profile":["http://hl7.org/fhir/us/qicore/StructureDefinition/qicore-observation"]},"status":"final","category":[{"coding":[{"system":"http://terminology.hl7.org/CodeSystem/observation-category","code":"laboratory","display":"Laboratory","userSelected":true}]}],"code":{"coding":[{"system":"http://loinc.org","code":"10901-7"}]},"subject":{"reference":"Patient/20a987a7-d45b-43e4-894b-2e3cba4d07b7"},"effectiveDateTime":"2025-04-06T08:00:00.000+00:00","valueBoolean":true},"request":{"method":"PUT","url":"Observation/e237749a-5854-465c-93f8-be7e3dfb9a32"}},{"fullUrl":"https://madie.cms.gov/MeasureReport/d564d488-3daf-479b-b47b-1371d3a92696","resource":{"resourceType":"MeasureReport","id":"d564d488-3daf-479b-b47b-1371d3a92696","meta":{"profile":["http://hl7.org/fhir/us/cqfmeasures/StructureDefinition/test-case-cqfm"]},"contained":[{"resourceType":"Parameters","id":"b0aa1bb2-87d0-42cf-98d7-501aa92c9a65-parameters","parameter":[{"name":"subject","valueString":"20a987a7-d45b-43e4-894b-2e3cba4d07b7"}]}],"extension":[{"url":"http://hl7.org/fhir/us/cqfmeasures/StructureDefinition/cqfm-inputParameters","valueReference":{"reference":"#b0aa1bb2-87d0-42cf-98d7-501aa92c9a65-parameters"}},{"url":"http://hl7.org/fhir/us/cqfmeasures/StructureDefinition/cqfm-testCaseDescription","valueMarkdown":"Patient 65 at start of MP, qual encounter during MP, lab test at 66 during MP."}],"modifierExtension":[{"url":"http://hl7.org/fhir/us/cqfmeasures/StructureDefinition/cqfm-isTestCase","valueBoolean":true}],"status":"complete","type":"individual","measure":"https://madie.cms.gov/Measure/HIVScreeningFHIR","period":{"start":"2025-01-01","end":"2025-12-31"},"group":[{"population":[{"code":{"coding":[{"system":"http://terminology.hl7.org/CodeSystem/measure-population","code":"initial-population","display":"Initial Population"}]},"count":1},{"code":{"coding":[{"system":"http://terminology.hl7.org/CodeSystem/measure-population","code":"denominator","display":"Denominator"}]},"count":1},{"code":{"coding":[{"system":"http://terminology.hl7.org/CodeSystem/measure-population","code":"denominator-exclusion","display":"Denominator Exclusion"}]},"count":0},{"code":{"coding":[{"system":"http://terminology.hl7.org/CodeSystem/measure-population","code":"numerator","display":"Numerator"}]},"count":0}]}],"evaluatedResource":[{"reference":"Patient/20a987a7-d45b-43e4-894b-2e3cba4d07b7"},{"reference":"Encounter/a0d79087-3c39-4f55-bb2a-fee4a59a57c3"},{"reference":"Observation/e237749a-5854-465c-93f8-be7e3dfb9a32"}]},"request":{"method":"PUT","url":"MeasureReport/d564d488-3daf-479b-b47b-1371d3a92696"}}]}