{"resourceType":"Bundle","id":"tests-c10639c2-71a6-4afb-818f-8cc42def022a-bundle","type":"transaction","entry":[{"fullUrl":"https://madie.cms.gov/Patient/c10639c2-71a6-4afb-818f-8cc42def022a","resource":{"resourceType":"Patient","id":"c10639c2-71a6-4afb-818f-8cc42def022a","meta":{"profile":["http://hl7.org/fhir/us/qicore/StructureDefinition/qicore-patient"]},"text":{"status":"generated","div":"<div xmlns=\"http://www.w3.org/1999/xhtml\"><div class=\"hapiHeaderText\">LabTestHIVDxDuringMPrelevantPeriod <b>NUMERPASS </b></div><table class=\"hapiPropertyTable\"><tbody><tr><td>Date of birth</td><td><span>31 July 1992</span></td></tr></tbody></table></div>"},"extension":[{"url":"http://hl7.org/fhir/us/core/StructureDefinition/us-core-race","extension":[{"url":"ombCategory","valueCoding":{"system":"urn:oid:2.16.840.1.113883.6.238","code":"1002-5","display":"American Indian or Alaska Native","userSelected":true}},{"url":"text","valueString":"American Indian or Alaska Native"},{"url":"detailed","valueCoding":{"system":"urn:oid:2.16.840.1.113883.6.238","code":"1653-5","display":"Tohono O'Odham"}}]},{"url":"http://hl7.org/fhir/us/core/StructureDefinition/us-core-ethnicity","extension":[{"url":"ombCategory","valueCoding":{"system":"urn:oid:2.16.840.1.113883.6.238","code":"2135-2","display":"Hispanic or Latino","userSelected":true}},{"url":"text","valueString":"Not Hispanic or Latino"},{"url":"detailed","valueCoding":{"system":"urn:oid:2.16.840.1.113883.6.238","code":"2153-5","display":"Mexican American Indian"}}]}],"identifier":[{"type":{"coding":[{"system":"http://terminology.hl7.org/CodeSystem/v2-0203","code":"MR"}]},"system":"https://bonnie-fhir.healthit.gov/","value":"610965b998086b538055c15d"}],"active":true,"name":[{"use":"usual","family":"NUMERPass","given":["LabTestHIVDxDuringMPrelevantPeriod"]}],"gender":"male","birthDate":"1993-07-31"},"request":{"method":"PUT","url":"Patient/c10639c2-71a6-4afb-818f-8cc42def022a"}},{"fullUrl":"https://madie.cms.gov/Condition/850ae30a-eeef-4297-9924-439fc447db18","resource":{"resourceType":"Condition","id":"850ae30a-eeef-4297-9924-439fc447db18","meta":{"profile":["http://hl7.org/fhir/us/qicore/StructureDefinition/qicore-condition"]},"clinicalStatus":{"coding":[{"system":"http://terminology.hl7.org/CodeSystem/condition-clinical","code":"inactive","display":"inactive","userSelected":true}]},"verificationStatus":{"coding":[{"system":"http://terminology.hl7.org/CodeSystem/condition-ver-status","code":"confirmed","display":"Confirmed","userSelected":true}]},"category":[{"coding":[{"system":"http://terminology.hl7.org/CodeSystem/condition-category","code":"encounter-diagnosis","display":"Encounter Diagnosis","userSelected":true}]}],"code":{"coding":[{"system":"http://hl7.org/fhir/sid/icd-9-cm","code":"042"}]},"subject":{"reference":"Patient/c10639c2-71a6-4afb-818f-8cc42def022a"},"onsetDateTime":"2025-07-31T08:00:00.000+00:00","abatementDateTime":"2025-10-24T08:00:00.000+00:00"},"request":{"method":"PUT","url":"Condition/850ae30a-eeef-4297-9924-439fc447db18"}},{"fullUrl":"https://madie.cms.gov/Encounter/659e9aff-e7c8-4a5f-950a-cbf5e32238cf","resource":{"resourceType":"Encounter","id":"659e9aff-e7c8-4a5f-950a-cbf5e32238cf","meta":{"profile":["http://hl7.org/fhir/us/qicore/StructureDefinition/qicore-encounter"]},"status":"finished","class":{"system":"http://terminology.hl7.org/CodeSystem/v3-ActCode","code":"AMB","display":"ambulatory","userSelected":true},"type":[{"coding":[{"system":"http://www.ama-assn.org/go/cpt","code":"99215"}]}],"subject":{"reference":"Patient/c10639c2-71a6-4afb-818f-8cc42def022a"},"period":{"start":"2025-10-24T08:00:00.000+00:00","end":"2025-10-24T08:15:00.000+00:00"}},"request":{"method":"PUT","url":"Encounter/659e9aff-e7c8-4a5f-950a-cbf5e32238cf"}},{"fullUrl":"https://madie.cms.gov/Observation/e17563fe-e68b-4ba2-8324-0070a56a251a","resource":{"resourceType":"Observation","id":"e17563fe-e68b-4ba2-8324-0070a56a251a","meta":{"profile":["http://hl7.org/fhir/us/qicore/StructureDefinition/qicore-observation"]},"status":"final","category":[{"coding":[{"system":"http://terminology.hl7.org/CodeSystem/observation-category","code":"laboratory","display":"Laboratory","userSelected":true}]}],"code":{"coding":[{"system":"http://loinc.org","code":"75622-1"}]},"subject":{"reference":"Patient/c10639c2-71a6-4afb-818f-8cc42def022a"},"effectivePeriod":{"start":"2024-07-31T08:00:00.000+00:00","end":"2024-07-31T08:15:00.000+00:00"},"valueBoolean":true},"request":{"method":"PUT","url":"Observation/e17563fe-e68b-4ba2-8324-0070a56a251a"}},{"fullUrl":"https://madie.cms.gov/MeasureReport/a12c32d5-a2eb-4ba5-9d61-896089cee201","resource":{"resourceType":"MeasureReport","id":"a12c32d5-a2eb-4ba5-9d61-896089cee201","meta":{"profile":["http://hl7.org/fhir/us/cqfmeasures/StructureDefinition/test-case-cqfm"]},"contained":[{"resourceType":"Parameters","id":"51c237eb-3a12-4bf4-ad9d-b12e6ad4a0be-parameters","parameter":[{"name":"subject","valueString":"c10639c2-71a6-4afb-818f-8cc42def022a"}]}],"extension":[{"url":"http://hl7.org/fhir/us/cqfmeasures/StructureDefinition/cqfm-inputParameters","valueReference":{"reference":"#51c237eb-3a12-4bf4-ad9d-b12e6ad4a0be-parameters"}},{"url":"http://hl7.org/fhir/us/cqfmeasures/StructureDefinition/cqfm-testCaseDescription","valueMarkdown":"Patient 31 at start of MP, qual encounter during MP, HIV diagnosis starts during MP, invalid lab test at 20 during MP. - relevantPeriod"}],"modifierExtension":[{"url":"http://hl7.org/fhir/us/cqfmeasures/StructureDefinition/cqfm-isTestCase","valueBoolean":true}],"status":"complete","type":"individual","measure":"https://madie.cms.gov/Measure/HIVScreeningFHIR","period":{"start":"2025-01-01","end":"2025-12-31"},"group":[{"population":[{"code":{"coding":[{"system":"http://terminology.hl7.org/CodeSystem/measure-population","code":"initial-population","display":"Initial Population"}]},"count":1},{"code":{"coding":[{"system":"http://terminology.hl7.org/CodeSystem/measure-population","code":"denominator","display":"Denominator"}]},"count":1},{"code":{"coding":[{"system":"http://terminology.hl7.org/CodeSystem/measure-population","code":"denominator-exclusion","display":"Denominator Exclusion"}]},"count":0},{"code":{"coding":[{"system":"http://terminology.hl7.org/CodeSystem/measure-population","code":"numerator","display":"Numerator"}]},"count":1}]}],"evaluatedResource":[{"reference":"Patient/c10639c2-71a6-4afb-818f-8cc42def022a"},{"reference":"Condition/850ae30a-eeef-4297-9924-439fc447db18"},{"reference":"Encounter/659e9aff-e7c8-4a5f-950a-cbf5e32238cf"},{"reference":"Observation/e17563fe-e68b-4ba2-8324-0070a56a251a"}]},"request":{"method":"PUT","url":"MeasureReport/a12c32d5-a2eb-4ba5-9d61-896089cee201"}}]}