{"resourceType":"Bundle","id":"tests-dd3900aa-f567-4a28-9148-93184736b28c-bundle","type":"transaction","entry":[{"fullUrl":"https://madie.cms.gov/Patient/dd3900aa-f567-4a28-9148-93184736b28c","resource":{"resourceType":"Patient","id":"dd3900aa-f567-4a28-9148-93184736b28c","meta":{"profile":["http://hl7.org/fhir/us/qicore/StructureDefinition/qicore-patient"]},"extension":[{"url":"http://hl7.org/fhir/us/core/StructureDefinition/us-core-race","extension":[{"url":"ombCategory","valueCoding":{"system":"urn:oid:2.16.840.1.113883.6.238","code":"2054-5","display":"Black or African American","userSelected":true}},{"url":"text","valueString":"Black or African American"}]},{"url":"http://hl7.org/fhir/us/core/StructureDefinition/us-core-ethnicity","extension":[{"url":"ombCategory","valueCoding":{"system":"urn:oid:2.16.840.1.113883.6.238","code":"2135-2","display":"Hispanic or Latino","userSelected":true}},{"url":"text","valueString":"Hispanic or Latino"}]}],"identifier":[{"type":{"coding":[{"system":"http://terminology.hl7.org/CodeSystem/v2-0203","code":"MR"}]},"system":"https://bonnie-fhir.healthit.gov/","value":"60f84557a6b2848d9bc604f1"}],"name":[{"family":"DENEXFail","given":["HIVDxInvalid"]}],"gender":"female","birthDate":"1993-07-31"},"request":{"method":"PUT","url":"Patient/dd3900aa-f567-4a28-9148-93184736b28c"}},{"fullUrl":"https://madie.cms.gov/Condition/094fb1c5-cf99-4c87-b1a1-9426090f62f3","resource":{"resourceType":"Condition","id":"094fb1c5-cf99-4c87-b1a1-9426090f62f3","meta":{"profile":["http://hl7.org/fhir/us/qicore/StructureDefinition/qicore-condition"]},"clinicalStatus":{"coding":[{"system":"http://terminology.hl7.org/CodeSystem/condition-clinical","code":"inactive","display":"inactive","userSelected":true}]},"category":[{"coding":[{"system":"http://terminology.hl7.org/CodeSystem/condition-category","code":"encounter-diagnosis","display":"Encounter Diagnosis","userSelected":true}]}],"code":{"coding":[{"system":"http://hl7.org/fhir/sid/icd-9-cm","code":"040","userSelected":true}]},"subject":{"reference":"Patient/dd3900aa-f567-4a28-9148-93184736b28c"},"onsetDateTime":"2023-10-24T08:00:00.000+00:00","abatementDateTime":"2024-10-24T08:15:00.000+00:00"},"request":{"method":"PUT","url":"Condition/094fb1c5-cf99-4c87-b1a1-9426090f62f3"}},{"fullUrl":"https://madie.cms.gov/Encounter/256b0d7a-2f80-44d2-8fd6-960687b06282","resource":{"resourceType":"Encounter","id":"256b0d7a-2f80-44d2-8fd6-960687b06282","meta":{"profile":["http://hl7.org/fhir/us/qicore/StructureDefinition/qicore-encounter"]},"status":"finished","class":{"system":"http://terminology.hl7.org/CodeSystem/v3-ActCode","code":"AMB","display":"ambulatory","userSelected":true},"type":[{"coding":[{"system":"http://www.ama-assn.org/go/cpt","version":"2021","code":"99395","display":"Periodic comprehensive preventive medicine reevaluation and management of an individual including an age and gender appropriate history, examination, counseling/anticipatory guidance/risk factor reduction interventions, and the ordering of laboratory/diagnostic procedures, established patient; 18-39 years","userSelected":true}]}],"subject":{"reference":"Patient/dd3900aa-f567-4a28-9148-93184736b28c"},"period":{"start":"2025-10-24T08:00:00.000+00:00","end":"2025-10-24T08:15:00.000+00:00"}},"request":{"method":"PUT","url":"Encounter/256b0d7a-2f80-44d2-8fd6-960687b06282"}},{"fullUrl":"https://madie.cms.gov/Coverage/dfda2f29-fe42-454a-9b1d-e0fe632af245","resource":{"resourceType":"Coverage","id":"dfda2f29-fe42-454a-9b1d-e0fe632af245","meta":{"profile":["http://hl7.org/fhir/us/qicore/StructureDefinition/qicore-coverage"]},"status":"active","type":{"coding":[{"system":"https://nahdo.org/sopt","version":"9.2","code":"1","display":"MEDICARE"}]},"beneficiary":{"reference":"Patient/dd3900aa-f567-4a28-9148-93184736b28c"},"period":{"start":"2024-12-01T00:00:00+00:00"}},"request":{"method":"PUT","url":"Coverage/dfda2f29-fe42-454a-9b1d-e0fe632af245"}},{"fullUrl":"https://madie.cms.gov/MeasureReport/d8e66c5e-4cef-4dff-8244-d234496a9e36","resource":{"resourceType":"MeasureReport","id":"d8e66c5e-4cef-4dff-8244-d234496a9e36","meta":{"profile":["http://hl7.org/fhir/us/cqfmeasures/StructureDefinition/test-case-cqfm"]},"contained":[{"resourceType":"Parameters","id":"5cd1d971-7a44-4bbd-841e-1a7567d47471-parameters","parameter":[{"name":"subject","valueString":"dd3900aa-f567-4a28-9148-93184736b28c"}]}],"extension":[{"url":"http://hl7.org/fhir/us/cqfmeasures/StructureDefinition/cqfm-inputParameters","valueReference":{"reference":"#5cd1d971-7a44-4bbd-841e-1a7567d47471-parameters"}},{"url":"http://hl7.org/fhir/us/cqfmeasures/StructureDefinition/cqfm-testCaseDescription","valueMarkdown":"Patient 20 at start of MP, qualifying encounter during MP, invalid HIV diagnosis starts before MP."}],"modifierExtension":[{"url":"http://hl7.org/fhir/us/cqfmeasures/StructureDefinition/cqfm-isTestCase","valueBoolean":true}],"status":"complete","type":"individual","measure":"https://madie.cms.gov/Measure/HIVScreeningFHIR","period":{"start":"2025-01-01","end":"2025-12-31"},"group":[{"population":[{"code":{"coding":[{"system":"http://terminology.hl7.org/CodeSystem/measure-population","code":"initial-population","display":"Initial Population"}]},"count":1},{"code":{"coding":[{"system":"http://terminology.hl7.org/CodeSystem/measure-population","code":"denominator","display":"Denominator"}]},"count":1},{"code":{"coding":[{"system":"http://terminology.hl7.org/CodeSystem/measure-population","code":"denominator-exclusion","display":"Denominator Exclusion"}]},"count":0},{"code":{"coding":[{"system":"http://terminology.hl7.org/CodeSystem/measure-population","code":"numerator","display":"Numerator"}]},"count":0}]}],"evaluatedResource":[{"reference":"Patient/dd3900aa-f567-4a28-9148-93184736b28c"},{"reference":"Condition/094fb1c5-cf99-4c87-b1a1-9426090f62f3"},{"reference":"Encounter/256b0d7a-2f80-44d2-8fd6-960687b06282"},{"reference":"Coverage/dfda2f29-fe42-454a-9b1d-e0fe632af245"}]},"request":{"method":"PUT","url":"MeasureReport/d8e66c5e-4cef-4dff-8244-d234496a9e36"}}]}