{"resourceType":"Bundle","id":"tests-1e396e61-1966-47e0-9625-78ceca85aaff-bundle","type":"transaction","entry":[{"fullUrl":"https://madie.cms.gov/Patient/1e396e61-1966-47e0-9625-78ceca85aaff","resource":{"resourceType":"Patient","id":"1e396e61-1966-47e0-9625-78ceca85aaff","meta":{"profile":["http://hl7.org/fhir/us/qicore/StructureDefinition/qicore-patient"]},"text":{"status":"generated","div":"<div xmlns=\"http://www.w3.org/1999/xhtml\"><div class=\"hapiHeaderText\">LabTestAge65relevantDatetime <b>NUMERPASS </b></div><table class=\"hapiPropertyTable\"><tbody><tr><td>Identifier</td><td>3a3b648e0cc14e200f2d48b72852219e3b95e5787df1549ba35aedfebdf90868</td></tr><tr><td>Date of birth</td><td><span>02 January 1946</span></td></tr></tbody></table></div>"},"extension":[{"url":"http://hl7.org/fhir/us/core/StructureDefinition/us-core-race","extension":[{"url":"ombCategory","valueCoding":{"system":"urn:oid:2.16.840.1.113883.6.238","code":"1002-5","display":"American Indian or Alaska Native","userSelected":true}},{"url":"text","valueString":"American Indian or Alaska Native"}]},{"url":"http://hl7.org/fhir/us/core/StructureDefinition/us-core-ethnicity","extension":[{"url":"ombCategory","valueCoding":{"system":"urn:oid:2.16.840.1.113883.6.238","code":"2135-2","display":"Hispanic or Latino","userSelected":true}},{"url":"text","valueString":"Hispanic or Latino"}]}],"identifier":[{"type":{"coding":[{"system":"http://terminology.hl7.org/CodeSystem/v2-0203","code":"MR"}]},"system":"https://bonnie-fhir.healthit.gov/","value":"610965b898086b538055c152"}],"active":true,"name":[{"use":"usual","family":"NUMERPass","given":["LabTestAge65relevantDatetime"]}],"gender":"female","birthDate":"1959-01-02"},"request":{"method":"PUT","url":"Patient/1e396e61-1966-47e0-9625-78ceca85aaff"}},{"fullUrl":"https://madie.cms.gov/Encounter/c807c8f7-3006-4205-a12b-49e991ed0b2e","resource":{"resourceType":"Encounter","id":"c807c8f7-3006-4205-a12b-49e991ed0b2e","meta":{"profile":["http://hl7.org/fhir/us/qicore/StructureDefinition/qicore-encounter"]},"status":"finished","class":{"system":"http://terminology.hl7.org/CodeSystem/v3-ActCode","code":"AMB","display":"ambulatory","userSelected":true},"type":[{"coding":[{"system":"http://www.ama-assn.org/go/cpt","code":"99395"}]}],"subject":{"reference":"Patient/1e396e61-1966-47e0-9625-78ceca85aaff"},"period":{"start":"2025-02-06T08:00:00.000+00:00","end":"2025-02-06T08:15:00.000+00:00"}},"request":{"method":"PUT","url":"Encounter/c807c8f7-3006-4205-a12b-49e991ed0b2e"}},{"fullUrl":"https://madie.cms.gov/Observation/09589e58-4efe-4fd9-b948-bef3627890c4","resource":{"resourceType":"Observation","id":"09589e58-4efe-4fd9-b948-bef3627890c4","meta":{"profile":["http://hl7.org/fhir/us/qicore/StructureDefinition/qicore-observation"]},"status":"final","category":[{"coding":[{"system":"http://terminology.hl7.org/CodeSystem/observation-category","code":"laboratory","display":"Laboratory","userSelected":true}]}],"code":{"coding":[{"system":"http://loinc.org","code":"10901-7"}]},"subject":{"reference":"Patient/1e396e61-1966-47e0-9625-78ceca85aaff"},"effectiveDateTime":"2025-01-01T08:00:00.000+00:00","valueBoolean":true},"request":{"method":"PUT","url":"Observation/09589e58-4efe-4fd9-b948-bef3627890c4"}},{"fullUrl":"https://madie.cms.gov/MeasureReport/365b53e6-7c87-4254-9d92-141cd1e24e84","resource":{"resourceType":"MeasureReport","id":"365b53e6-7c87-4254-9d92-141cd1e24e84","meta":{"profile":["http://hl7.org/fhir/us/cqfmeasures/StructureDefinition/test-case-cqfm"]},"contained":[{"resourceType":"Parameters","id":"945bf4f2-ce8b-44a6-926e-aeb715664a8d-parameters","parameter":[{"name":"subject","valueString":"1e396e61-1966-47e0-9625-78ceca85aaff"}]}],"extension":[{"url":"http://hl7.org/fhir/us/cqfmeasures/StructureDefinition/cqfm-inputParameters","valueReference":{"reference":"#945bf4f2-ce8b-44a6-926e-aeb715664a8d-parameters"}},{"url":"http://hl7.org/fhir/us/cqfmeasures/StructureDefinition/cqfm-testCaseDescription","valueMarkdown":"Patient 65 at start of MP, qual encounter during MP, lab test at 65 during MP. - relevantDatetime"}],"modifierExtension":[{"url":"http://hl7.org/fhir/us/cqfmeasures/StructureDefinition/cqfm-isTestCase","valueBoolean":true}],"status":"complete","type":"individual","measure":"https://madie.cms.gov/Measure/HIVScreeningFHIR","period":{"start":"2025-01-01","end":"2025-12-31"},"group":[{"population":[{"code":{"coding":[{"system":"http://terminology.hl7.org/CodeSystem/measure-population","code":"initial-population","display":"Initial Population"}]},"count":1},{"code":{"coding":[{"system":"http://terminology.hl7.org/CodeSystem/measure-population","code":"denominator","display":"Denominator"}]},"count":1},{"code":{"coding":[{"system":"http://terminology.hl7.org/CodeSystem/measure-population","code":"denominator-exclusion","display":"Denominator Exclusion"}]},"count":0},{"code":{"coding":[{"system":"http://terminology.hl7.org/CodeSystem/measure-population","code":"numerator","display":"Numerator"}]},"count":1}]}],"evaluatedResource":[{"reference":"Patient/1e396e61-1966-47e0-9625-78ceca85aaff"},{"reference":"Encounter/c807c8f7-3006-4205-a12b-49e991ed0b2e"},{"reference":"Observation/09589e58-4efe-4fd9-b948-bef3627890c4"}]},"request":{"method":"PUT","url":"MeasureReport/365b53e6-7c87-4254-9d92-141cd1e24e84"}}]}