{"resourceType":"Bundle","id":"tests-1c0cb743-0d35-4b8d-9412-0e4749fb5bd7-bundle","type":"transaction","entry":[{"fullUrl":"https://madie.cms.gov/Patient/1c0cb743-0d35-4b8d-9412-0e4749fb5bd7","resource":{"resourceType":"Patient","id":"1c0cb743-0d35-4b8d-9412-0e4749fb5bd7","meta":{"profile":["http://hl7.org/fhir/us/qicore/StructureDefinition/qicore-patient"]},"text":{"status":"generated","div":"<div xmlns=\"http://www.w3.org/1999/xhtml\"><div class=\"hapiHeaderText\">Age65atstartofMP <b>IPPASS </b></div><table class=\"hapiPropertyTable\"><tbody><tr><td>Date of birth</td><td><span>01 January 1947</span></td></tr></tbody></table></div>"},"extension":[{"url":"http://hl7.org/fhir/us/core/StructureDefinition/us-core-race","extension":[{"url":"ombCategory","valueCoding":{"system":"urn:oid:2.16.840.1.113883.6.238","code":"2028-9","display":"Asian","userSelected":true}},{"url":"text","valueString":"Asian"}]},{"url":"http://hl7.org/fhir/us/core/StructureDefinition/us-core-ethnicity","extension":[{"url":"ombCategory","valueCoding":{"system":"urn:oid:2.16.840.1.113883.6.238","code":"2186-5","display":"Not Hispanic or Latino","userSelected":true}},{"url":"text","valueString":"Not Hispanic or Latino"}]}],"identifier":[{"type":{"coding":[{"system":"http://terminology.hl7.org/CodeSystem/v2-0203","code":"MR"}]},"system":"https://bonnie-fhir.healthit.gov/","value":"610965b998086b538055c162"}],"active":true,"name":[{"use":"usual","family":"IPPPass","given":["Age65Jan1"]}],"gender":"male","birthDate":"1960-01-01"},"request":{"method":"PUT","url":"Patient/1c0cb743-0d35-4b8d-9412-0e4749fb5bd7"}},{"fullUrl":"https://madie.cms.gov/Encounter/dadb9fd8-7461-44f8-aa17-951524855a8b","resource":{"resourceType":"Encounter","id":"dadb9fd8-7461-44f8-aa17-951524855a8b","meta":{"profile":["http://hl7.org/fhir/us/qicore/StructureDefinition/qicore-encounter"]},"status":"finished","class":{"system":"http://terminology.hl7.org/CodeSystem/v3-ActCode","code":"AMB","display":"ambulatory","userSelected":true},"type":[{"coding":[{"system":"http://www.ama-assn.org/go/cpt","code":"99386"}]}],"subject":{"reference":"Patient/1c0cb743-0d35-4b8d-9412-0e4749fb5bd7"},"period":{"start":"2025-02-15T08:00:00.000+00:00","end":"2025-02-15T08:15:00.000+00:00"}},"request":{"method":"PUT","url":"Encounter/dadb9fd8-7461-44f8-aa17-951524855a8b"}},{"fullUrl":"https://madie.cms.gov/MeasureReport/0ff9414e-b421-4608-a582-7f9159ea3562","resource":{"resourceType":"MeasureReport","id":"0ff9414e-b421-4608-a582-7f9159ea3562","meta":{"profile":["http://hl7.org/fhir/us/cqfmeasures/StructureDefinition/test-case-cqfm"]},"contained":[{"resourceType":"Parameters","id":"440959a8-62d8-4909-8729-38792bf0582a-parameters","parameter":[{"name":"subject","valueString":"1c0cb743-0d35-4b8d-9412-0e4749fb5bd7"}]}],"extension":[{"url":"http://hl7.org/fhir/us/cqfmeasures/StructureDefinition/cqfm-inputParameters","valueReference":{"reference":"#440959a8-62d8-4909-8729-38792bf0582a-parameters"}},{"url":"http://hl7.org/fhir/us/cqfmeasures/StructureDefinition/cqfm-testCaseDescription","valueMarkdown":"Patient is age 65 on start of MP with a qualifying encounter"}],"modifierExtension":[{"url":"http://hl7.org/fhir/us/cqfmeasures/StructureDefinition/cqfm-isTestCase","valueBoolean":true}],"status":"complete","type":"individual","measure":"https://madie.cms.gov/Measure/HIVScreeningFHIR","period":{"start":"2025-01-01","end":"2025-12-31"},"group":[{"population":[{"code":{"coding":[{"system":"http://terminology.hl7.org/CodeSystem/measure-population","code":"initial-population","display":"Initial Population"}]},"count":1},{"code":{"coding":[{"system":"http://terminology.hl7.org/CodeSystem/measure-population","code":"denominator","display":"Denominator"}]},"count":1},{"code":{"coding":[{"system":"http://terminology.hl7.org/CodeSystem/measure-population","code":"denominator-exclusion","display":"Denominator Exclusion"}]},"count":0},{"code":{"coding":[{"system":"http://terminology.hl7.org/CodeSystem/measure-population","code":"numerator","display":"Numerator"}]},"count":0}]}],"evaluatedResource":[{"reference":"Patient/1c0cb743-0d35-4b8d-9412-0e4749fb5bd7"},{"reference":"Encounter/dadb9fd8-7461-44f8-aa17-951524855a8b"}]},"request":{"method":"PUT","url":"MeasureReport/0ff9414e-b421-4608-a582-7f9159ea3562"}}]}