{"resourceType":"Bundle","id":"tests-44c4422b-aa41-446d-9fda-705f63555f7d-bundle","type":"transaction","entry":[{"fullUrl":"https://madie.cms.gov/Patient/44c4422b-aa41-446d-9fda-705f63555f7d","resource":{"resourceType":"Patient","id":"44c4422b-aa41-446d-9fda-705f63555f7d","meta":{"profile":["http://hl7.org/fhir/us/qicore/StructureDefinition/qicore-patient"]},"text":{"status":"generated","div":"<div xmlns=\"http://www.w3.org/1999/xhtml\"><div class=\"hapiHeaderText\">Patient65StartMP <b>IPPPASS </b></div><table class=\"hapiPropertyTable\"><tbody><tr><td>Identifier</td><td>4ea62120f3865f3430b6456f1259ae03c5efd14d62bd7e26962ff6dfa3b4556e</td></tr><tr><td>Date of birth</td><td><span>02 January 1946</span></td></tr></tbody></table></div>"},"extension":[{"url":"http://hl7.org/fhir/us/core/StructureDefinition/us-core-race","extension":[{"url":"ombCategory","valueCoding":{"system":"urn:oid:2.16.840.1.113883.6.238","code":"2076-8","display":"Native Hawaiian or Other Pacific Islander","userSelected":true}},{"url":"text","valueString":"Native Hawaiian or Other Pacific Islander"}]},{"url":"http://hl7.org/fhir/us/core/StructureDefinition/us-core-ethnicity","extension":[{"url":"ombCategory","valueCoding":{"system":"urn:oid:2.16.840.1.113883.6.238","code":"2186-5","display":"Not Hispanic or Latino","userSelected":true}},{"url":"text","valueString":"Not Hispanic or Latino"}]}],"identifier":[{"type":{"coding":[{"system":"http://terminology.hl7.org/CodeSystem/v2-0203","code":"MR"}]},"system":"https://bonnie-fhir.healthit.gov/","value":"610965b898086b538055c147"}],"active":true,"name":[{"use":"usual","family":"IPPPass","given":["Patient65StartMP"]}],"gender":"unknown","birthDate":"1959-01-02"},"request":{"method":"PUT","url":"Patient/44c4422b-aa41-446d-9fda-705f63555f7d"}},{"fullUrl":"https://madie.cms.gov/Encounter/8a4228e4-bb68-48c1-a2e0-c061be444f6b","resource":{"resourceType":"Encounter","id":"8a4228e4-bb68-48c1-a2e0-c061be444f6b","meta":{"profile":["http://hl7.org/fhir/us/qicore/StructureDefinition/qicore-encounter"]},"status":"finished","class":{"system":"http://terminology.hl7.org/CodeSystem/v3-ActCode","code":"AMB","display":"ambulatory","userSelected":true},"type":[{"coding":[{"system":"http://snomed.info/sct","code":"185463005"},{"system":"http://www.ama-assn.org/go/cpt","code":"99212"}]}],"subject":{"reference":"Patient/44c4422b-aa41-446d-9fda-705f63555f7d"},"period":{"start":"2025-10-24T08:00:00.000+00:00","end":"2025-10-24T08:15:00.000+00:00"}},"request":{"method":"PUT","url":"Encounter/8a4228e4-bb68-48c1-a2e0-c061be444f6b"}},{"fullUrl":"https://madie.cms.gov/MeasureReport/aa64d226-27d4-44c0-8249-318cf18432db","resource":{"resourceType":"MeasureReport","id":"aa64d226-27d4-44c0-8249-318cf18432db","meta":{"profile":["http://hl7.org/fhir/us/cqfmeasures/StructureDefinition/test-case-cqfm"]},"contained":[{"resourceType":"Parameters","id":"f6fa725e-3280-4086-8b11-0cd3bdd3a3f7-parameters","parameter":[{"name":"subject","valueString":"44c4422b-aa41-446d-9fda-705f63555f7d"}]}],"extension":[{"url":"http://hl7.org/fhir/us/cqfmeasures/StructureDefinition/cqfm-inputParameters","valueReference":{"reference":"#f6fa725e-3280-4086-8b11-0cd3bdd3a3f7-parameters"}},{"url":"http://hl7.org/fhir/us/cqfmeasures/StructureDefinition/cqfm-testCaseDescription","valueMarkdown":"Patient 65 at start of MP, with qualifying encounter."}],"modifierExtension":[{"url":"http://hl7.org/fhir/us/cqfmeasures/StructureDefinition/cqfm-isTestCase","valueBoolean":true}],"status":"complete","type":"individual","measure":"https://madie.cms.gov/Measure/HIVScreeningFHIR","period":{"start":"2025-01-01","end":"2025-12-31"},"group":[{"population":[{"code":{"coding":[{"system":"http://terminology.hl7.org/CodeSystem/measure-population","code":"initial-population","display":"Initial Population"}]},"count":1},{"code":{"coding":[{"system":"http://terminology.hl7.org/CodeSystem/measure-population","code":"denominator","display":"Denominator"}]},"count":1},{"code":{"coding":[{"system":"http://terminology.hl7.org/CodeSystem/measure-population","code":"denominator-exclusion","display":"Denominator Exclusion"}]},"count":0},{"code":{"coding":[{"system":"http://terminology.hl7.org/CodeSystem/measure-population","code":"numerator","display":"Numerator"}]},"count":0}]}],"evaluatedResource":[{"reference":"Patient/44c4422b-aa41-446d-9fda-705f63555f7d"},{"reference":"Encounter/8a4228e4-bb68-48c1-a2e0-c061be444f6b"}]},"request":{"method":"PUT","url":"MeasureReport/aa64d226-27d4-44c0-8249-318cf18432db"}}]}