{"resourceType":"Bundle","id":"tests-d728b49f-eccc-4689-a582-7918a015f78c-bundle","type":"transaction","entry":[{"fullUrl":"https://madie.cms.gov/Patient/d728b49f-eccc-4689-a582-7918a015f78c","resource":{"resourceType":"Patient","id":"d728b49f-eccc-4689-a582-7918a015f78c","meta":{"profile":["http://hl7.org/fhir/us/qicore/StructureDefinition/qicore-patient"]},"text":{"status":"generated","div":"<div xmlns=\"http://www.w3.org/1999/xhtml\"><div class=\"hapiHeaderText\">NoLabTest <b>NUMERFAIL </b></div><table class=\"hapiPropertyTable\"><tbody><tr><td>Identifier</td><td>8de0ab14b056fcd32f87b213d0f959e9c5ee73f04fd5302ce5e21711fa269223</td></tr><tr><td>Date of birth</td><td><span>31 July 1992</span></td></tr></tbody></table></div>"},"extension":[{"url":"http://hl7.org/fhir/us/core/StructureDefinition/us-core-race","extension":[{"url":"ombCategory","valueCoding":{"system":"urn:oid:2.16.840.1.113883.6.238","code":"2106-3","display":"White","userSelected":true}},{"url":"text","valueString":"White"}]},{"url":"http://hl7.org/fhir/us/core/StructureDefinition/us-core-ethnicity","extension":[{"url":"ombCategory","valueCoding":{"system":"urn:oid:2.16.840.1.113883.6.238","code":"2186-5","display":"Not Hispanic or Latino","userSelected":true}},{"url":"text","valueString":"Not Hispanic or Latino"}]}],"identifier":[{"type":{"coding":[{"system":"http://terminology.hl7.org/CodeSystem/v2-0203","code":"MR"}]},"system":"https://bonnie-fhir.healthit.gov/","value":"610965b998086b538055c157"}],"active":true,"name":[{"use":"usual","family":"NUMERFail","given":["NoLabTest"]}],"gender":"female","birthDate":"1993-07-31"},"request":{"method":"PUT","url":"Patient/d728b49f-eccc-4689-a582-7918a015f78c"}},{"fullUrl":"https://madie.cms.gov/Encounter/0c50523f-6801-4f32-825a-03c058e1f3cc","resource":{"resourceType":"Encounter","id":"0c50523f-6801-4f32-825a-03c058e1f3cc","meta":{"profile":["http://hl7.org/fhir/us/qicore/StructureDefinition/qicore-encounter"]},"status":"finished","class":{"system":"http://terminology.hl7.org/CodeSystem/v3-ActCode","code":"AMB","display":"ambulatory","userSelected":true},"type":[{"coding":[{"system":"http://www.ama-assn.org/go/cpt","code":"99395"}]}],"subject":{"reference":"Patient/d728b49f-eccc-4689-a582-7918a015f78c"},"period":{"start":"2025-10-24T08:00:00.000+00:00","end":"2025-10-24T08:15:00.000+00:00"}},"request":{"method":"PUT","url":"Encounter/0c50523f-6801-4f32-825a-03c058e1f3cc"}},{"fullUrl":"https://madie.cms.gov/MeasureReport/3d41e2ce-f49e-45ba-8776-9e3947a388d6","resource":{"resourceType":"MeasureReport","id":"3d41e2ce-f49e-45ba-8776-9e3947a388d6","meta":{"profile":["http://hl7.org/fhir/us/cqfmeasures/StructureDefinition/test-case-cqfm"]},"contained":[{"resourceType":"Parameters","id":"18ab6ff8-2967-42e0-95f0-0616d0276718-parameters","parameter":[{"name":"subject","valueString":"d728b49f-eccc-4689-a582-7918a015f78c"}]}],"extension":[{"url":"http://hl7.org/fhir/us/cqfmeasures/StructureDefinition/cqfm-inputParameters","valueReference":{"reference":"#18ab6ff8-2967-42e0-95f0-0616d0276718-parameters"}},{"url":"http://hl7.org/fhir/us/cqfmeasures/StructureDefinition/cqfm-testCaseDescription","valueMarkdown":"Patient 31 at start of MP, qualifying encounter during MP, no lab test."}],"modifierExtension":[{"url":"http://hl7.org/fhir/us/cqfmeasures/StructureDefinition/cqfm-isTestCase","valueBoolean":true}],"status":"complete","type":"individual","measure":"https://madie.cms.gov/Measure/HIVScreeningFHIR","period":{"start":"2025-01-01","end":"2025-12-31"},"group":[{"population":[{"code":{"coding":[{"system":"http://terminology.hl7.org/CodeSystem/measure-population","code":"initial-population","display":"Initial Population"}]},"count":1},{"code":{"coding":[{"system":"http://terminology.hl7.org/CodeSystem/measure-population","code":"denominator","display":"Denominator"}]},"count":1},{"code":{"coding":[{"system":"http://terminology.hl7.org/CodeSystem/measure-population","code":"denominator-exclusion","display":"Denominator Exclusion"}]},"count":0},{"code":{"coding":[{"system":"http://terminology.hl7.org/CodeSystem/measure-population","code":"numerator","display":"Numerator"}]},"count":0}]}],"evaluatedResource":[{"reference":"Patient/d728b49f-eccc-4689-a582-7918a015f78c"},{"reference":"Encounter/0c50523f-6801-4f32-825a-03c058e1f3cc"}]},"request":{"method":"PUT","url":"MeasureReport/3d41e2ce-f49e-45ba-8776-9e3947a388d6"}}]}