{"resourceType":"Bundle","id":"tests-71d98256-6d22-422f-8a0a-7546a6410107-bundle","type":"transaction","entry":[{"fullUrl":"https://madie.cms.gov/Patient/71d98256-6d22-422f-8a0a-7546a6410107","resource":{"resourceType":"Patient","id":"71d98256-6d22-422f-8a0a-7546a6410107","meta":{"profile":["http://hl7.org/fhir/us/qicore/StructureDefinition/qicore-patient"]},"text":{"status":"generated","div":"<div xmlns=\"http://www.w3.org/1999/xhtml\"><div class=\"hapiHeaderText\">LabTestHIVDxBeforeMP <b>NUMERFAIL </b></div><table class=\"hapiPropertyTable\"><tbody><tr><td>Date of birth</td><td><span>31 July 1992</span></td></tr></tbody></table></div>"},"extension":[{"url":"http://hl7.org/fhir/us/core/StructureDefinition/us-core-race","extension":[{"url":"ombCategory","valueCoding":{"system":"urn:oid:2.16.840.1.113883.6.238","code":"2054-5","display":"Black or African American","userSelected":true}},{"url":"text","valueString":"Black or African American"}]},{"url":"http://hl7.org/fhir/us/core/StructureDefinition/us-core-ethnicity","extension":[{"url":"ombCategory","valueCoding":{"system":"urn:oid:2.16.840.1.113883.6.238","code":"2186-5","display":"Not Hispanic or Latino","userSelected":true}},{"url":"text","valueString":"Not Hispanic or Latino"}]}],"identifier":[{"type":{"coding":[{"system":"http://terminology.hl7.org/CodeSystem/v2-0203","code":"MR"}]},"system":"https://bonnie-fhir.healthit.gov/","value":"610965b898086b538055c154"}],"active":true,"name":[{"use":"usual","family":"NUMERFail","given":["LabTestHIVDxBeforeMP"]}],"gender":"female","birthDate":"2003-07-31"},"request":{"method":"PUT","url":"Patient/71d98256-6d22-422f-8a0a-7546a6410107"}},{"fullUrl":"https://madie.cms.gov/Condition/b0b9b7cf-d782-4b49-8451-ee502d3842ac","resource":{"resourceType":"Condition","id":"b0b9b7cf-d782-4b49-8451-ee502d3842ac","meta":{"profile":["http://hl7.org/fhir/us/qicore/StructureDefinition/qicore-condition"]},"clinicalStatus":{"coding":[{"system":"http://terminology.hl7.org/CodeSystem/condition-clinical","version":"4.0.1","code":"inactive","display":"Inactive","userSelected":true}]},"category":[{"coding":[{"system":"http://terminology.hl7.org/CodeSystem/condition-category","code":"encounter-diagnosis","display":"Encounter Diagnosis","userSelected":true}]}],"code":{"coding":[{"system":"http://hl7.org/fhir/sid/icd-9-cm","code":"042"}]},"subject":{"reference":"Patient/71d98256-6d22-422f-8a0a-7546a6410107"},"onsetDateTime":"2012-10-24T08:00:00+00:00","abatementDateTime":"2025-04-06T08:00:00.000+00:00"},"request":{"method":"PUT","url":"Condition/b0b9b7cf-d782-4b49-8451-ee502d3842ac"}},{"fullUrl":"https://madie.cms.gov/Encounter/9b1fad2a-159d-4393-a4ea-90c257831a5c","resource":{"resourceType":"Encounter","id":"9b1fad2a-159d-4393-a4ea-90c257831a5c","meta":{"profile":["http://hl7.org/fhir/us/qicore/StructureDefinition/qicore-encounter"]},"status":"finished","class":{"system":"http://terminology.hl7.org/CodeSystem/v3-ActCode","code":"AMB","display":"ambulatory","userSelected":true},"type":[{"coding":[{"system":"http://snomed.info/sct","code":"185463005"},{"system":"http://www.ama-assn.org/go/cpt","code":"99204"}]}],"subject":{"reference":"Patient/71d98256-6d22-422f-8a0a-7546a6410107"},"period":{"start":"2025-10-24T08:00:00.000+00:00","end":"2025-10-24T08:15:00.000+00:00"}},"request":{"method":"PUT","url":"Encounter/9b1fad2a-159d-4393-a4ea-90c257831a5c"}},{"fullUrl":"https://madie.cms.gov/Observation/eda5ad7f-e98e-48e3-9e23-290a02ea3bc7","resource":{"resourceType":"Observation","id":"eda5ad7f-e98e-48e3-9e23-290a02ea3bc7","meta":{"profile":["http://hl7.org/fhir/us/qicore/StructureDefinition/qicore-observation"]},"status":"amended","category":[{"coding":[{"system":"http://terminology.hl7.org/CodeSystem/observation-category","code":"laboratory","display":"Laboratory","userSelected":true}]}],"code":{"coding":[{"system":"http://loinc.org","code":"75622-1","display":"HIV 1 and 2 tests - Meaningful Use set","userSelected":true}]},"subject":{"reference":"Patient/71d98256-6d22-422f-8a0a-7546a6410107"},"effectiveDateTime":"2025-04-06T08:00:00.000+00:00","valueBoolean":true},"request":{"method":"PUT","url":"Observation/eda5ad7f-e98e-48e3-9e23-290a02ea3bc7"}},{"fullUrl":"https://madie.cms.gov/MeasureReport/3c6c8d01-10dd-49b6-adce-c7ee76f6e4b9","resource":{"resourceType":"MeasureReport","id":"3c6c8d01-10dd-49b6-adce-c7ee76f6e4b9","meta":{"profile":["http://hl7.org/fhir/us/cqfmeasures/StructureDefinition/test-case-cqfm"]},"contained":[{"resourceType":"Parameters","id":"44bd9f3e-b5f4-4313-899b-816ca949d870-parameters","parameter":[{"name":"subject","valueString":"71d98256-6d22-422f-8a0a-7546a6410107"}]}],"extension":[{"url":"http://hl7.org/fhir/us/cqfmeasures/StructureDefinition/cqfm-inputParameters","valueReference":{"reference":"#44bd9f3e-b5f4-4313-899b-816ca949d870-parameters"}},{"url":"http://hl7.org/fhir/us/cqfmeasures/StructureDefinition/cqfm-testCaseDescription","valueMarkdown":"Patient 20 at start of MP, qual encounter during MP, HIV diagnosis starts before MP and ends during MP, lab test at 20 during MP.\n*Kim: this fails num in Bonnie but passes here. In Bonnie the lab has to be before MP, but here it can be during"}],"modifierExtension":[{"url":"http://hl7.org/fhir/us/cqfmeasures/StructureDefinition/cqfm-isTestCase","valueBoolean":true}],"status":"complete","type":"individual","measure":"https://madie.cms.gov/Measure/HIVScreeningFHIR","period":{"start":"2025-01-01","end":"2025-12-31"},"group":[{"population":[{"code":{"coding":[{"system":"http://terminology.hl7.org/CodeSystem/measure-population","code":"initial-population","display":"Initial Population"}]},"count":1},{"code":{"coding":[{"system":"http://terminology.hl7.org/CodeSystem/measure-population","code":"denominator","display":"Denominator"}]},"count":1},{"code":{"coding":[{"system":"http://terminology.hl7.org/CodeSystem/measure-population","code":"denominator-exclusion","display":"Denominator Exclusion"}]},"count":0},{"code":{"coding":[{"system":"http://terminology.hl7.org/CodeSystem/measure-population","code":"numerator","display":"Numerator"}]},"count":1}]}],"evaluatedResource":[{"reference":"Patient/71d98256-6d22-422f-8a0a-7546a6410107"},{"reference":"Condition/b0b9b7cf-d782-4b49-8451-ee502d3842ac"},{"reference":"Encounter/9b1fad2a-159d-4393-a4ea-90c257831a5c"},{"reference":"Observation/eda5ad7f-e98e-48e3-9e23-290a02ea3bc7"}]},"request":{"method":"PUT","url":"MeasureReport/3c6c8d01-10dd-49b6-adce-c7ee76f6e4b9"}}]}