{"resourceType":"Bundle","id":"tests-3273d746-7652-4603-a4f7-834ae52b545f-bundle","type":"transaction","entry":[{"fullUrl":"https://madie.cms.gov/Patient/3273d746-7652-4603-a4f7-834ae52b545f","resource":{"resourceType":"Patient","id":"3273d746-7652-4603-a4f7-834ae52b545f","meta":{"profile":["http://hl7.org/fhir/us/qicore/StructureDefinition/qicore-patient"]},"text":{"status":"generated","div":"<div xmlns=\"http://www.w3.org/1999/xhtml\"><div class=\"hapiHeaderText\">TwoLabBothInvalidTiming <b>NUMERFAIL </b></div><table class=\"hapiPropertyTable\"><tbody><tr><td>Date of birth</td><td><span>31 July 1992</span></td></tr></tbody></table></div>"},"extension":[{"url":"http://hl7.org/fhir/us/core/StructureDefinition/us-core-race","extension":[{"url":"ombCategory","valueCoding":{"system":"urn:oid:2.16.840.1.113883.6.238","code":"2054-5","display":"Black or African American","userSelected":true}},{"url":"text","valueString":"Black or African American"}]},{"url":"http://hl7.org/fhir/us/core/StructureDefinition/us-core-ethnicity","extension":[{"url":"ombCategory","valueCoding":{"system":"urn:oid:2.16.840.1.113883.6.238","code":"2135-2","display":"Hispanic or Latino","userSelected":true}},{"url":"text","valueString":"Hispanic or Latino"}]}],"identifier":[{"type":{"coding":[{"system":"http://terminology.hl7.org/CodeSystem/v2-0203","code":"MR"}]},"system":"https://bonnie-fhir.healthit.gov/","value":"610965b998086b538055c159"}],"active":true,"name":[{"use":"usual","family":"NUMERFail","given":["TwoLabBothInvalidTiming"]}],"gender":"female","birthDate":"2004-07-31"},"request":{"method":"PUT","url":"Patient/3273d746-7652-4603-a4f7-834ae52b545f"}},{"fullUrl":"https://madie.cms.gov/Encounter/8bfd7a5d-74f8-47d9-a265-82678e863999","resource":{"resourceType":"Encounter","id":"8bfd7a5d-74f8-47d9-a265-82678e863999","meta":{"profile":["http://hl7.org/fhir/us/qicore/StructureDefinition/qicore-encounter"]},"status":"finished","class":{"system":"http://terminology.hl7.org/CodeSystem/v3-ActCode","code":"AMB","display":"ambulatory","userSelected":true},"type":[{"coding":[{"system":"http://snomed.info/sct","code":"185463005"}]}],"subject":{"reference":"Patient/3273d746-7652-4603-a4f7-834ae52b545f"},"period":{"start":"2025-10-24T08:00:00.000+00:00","end":"2025-10-24T08:15:00.000+00:00"}},"request":{"method":"PUT","url":"Encounter/8bfd7a5d-74f8-47d9-a265-82678e863999"}},{"fullUrl":"https://madie.cms.gov/Observation/a92d11ba-eafe-4d05-ba46-c4700f8921f9","resource":{"resourceType":"Observation","id":"a92d11ba-eafe-4d05-ba46-c4700f8921f9","meta":{"profile":["http://hl7.org/fhir/us/qicore/StructureDefinition/qicore-observation"]},"status":"final","category":[{"coding":[{"system":"http://terminology.hl7.org/CodeSystem/observation-category","code":"laboratory","display":"Laboratory","userSelected":true}]}],"code":{"coding":[{"system":"http://loinc.org","code":"10901-7"}]},"subject":{"reference":"Patient/3273d746-7652-4603-a4f7-834ae52b545f"},"effectiveDateTime":"2017-07-20T08:00:00.000+00:00","valueBoolean":true},"request":{"method":"PUT","url":"Observation/a92d11ba-eafe-4d05-ba46-c4700f8921f9"}},{"fullUrl":"https://madie.cms.gov/Observation/ebb4fa2e-2ac5-4bbc-bf5d-c69384593e6f","resource":{"resourceType":"Observation","id":"ebb4fa2e-2ac5-4bbc-bf5d-c69384593e6f","meta":{"profile":["http://hl7.org/fhir/us/qicore/StructureDefinition/qicore-observation"]},"status":"final","category":[{"coding":[{"system":"http://terminology.hl7.org/CodeSystem/observation-category","code":"laboratory","display":"Laboratory","userSelected":true}]}],"code":{"coding":[{"system":"http://loinc.org","code":"75622-1"}]},"subject":{"reference":"Patient/3273d746-7652-4603-a4f7-834ae52b545f"},"issued":"2025-10-24T08:00:00.000+00:00","valueBoolean":true},"request":{"method":"PUT","url":"Observation/ebb4fa2e-2ac5-4bbc-bf5d-c69384593e6f"}},{"fullUrl":"https://madie.cms.gov/MeasureReport/6104f498-9562-4c86-9956-b99c7e4beee3","resource":{"resourceType":"MeasureReport","id":"6104f498-9562-4c86-9956-b99c7e4beee3","meta":{"profile":["http://hl7.org/fhir/us/cqfmeasures/StructureDefinition/test-case-cqfm"]},"contained":[{"resourceType":"Parameters","id":"7f0b45ee-b3d4-45bd-9957-2e861018e894-parameters","parameter":[{"name":"subject","valueString":"3273d746-7652-4603-a4f7-834ae52b545f"}]}],"extension":[{"url":"http://hl7.org/fhir/us/cqfmeasures/StructureDefinition/cqfm-inputParameters","valueReference":{"reference":"#7f0b45ee-b3d4-45bd-9957-2e861018e894-parameters"}},{"url":"http://hl7.org/fhir/us/cqfmeasures/StructureDefinition/cqfm-testCaseDescription","valueMarkdown":"Patient 20 at start of MP, qual encounter during MP, two lab test, one under 15 before MP, one at 20 during MP with authorDatetime."}],"modifierExtension":[{"url":"http://hl7.org/fhir/us/cqfmeasures/StructureDefinition/cqfm-isTestCase","valueBoolean":true}],"status":"complete","type":"individual","measure":"https://madie.cms.gov/Measure/HIVScreeningFHIR","period":{"start":"2025-01-01","end":"2025-12-31"},"group":[{"population":[{"code":{"coding":[{"system":"http://terminology.hl7.org/CodeSystem/measure-population","code":"initial-population","display":"Initial Population"}]},"count":1},{"code":{"coding":[{"system":"http://terminology.hl7.org/CodeSystem/measure-population","code":"denominator","display":"Denominator"}]},"count":1},{"code":{"coding":[{"system":"http://terminology.hl7.org/CodeSystem/measure-population","code":"denominator-exclusion","display":"Denominator Exclusion"}]},"count":0},{"code":{"coding":[{"system":"http://terminology.hl7.org/CodeSystem/measure-population","code":"numerator","display":"Numerator"}]},"count":0}]}],"evaluatedResource":[{"reference":"Patient/3273d746-7652-4603-a4f7-834ae52b545f"},{"reference":"Encounter/8bfd7a5d-74f8-47d9-a265-82678e863999"},{"reference":"Observation/a92d11ba-eafe-4d05-ba46-c4700f8921f9"},{"reference":"Observation/ebb4fa2e-2ac5-4bbc-bf5d-c69384593e6f"}]},"request":{"method":"PUT","url":"MeasureReport/6104f498-9562-4c86-9956-b99c7e4beee3"}}]}