{"resourceType":"Bundle","id":"tests-83ab43ae-b18d-4622-af88-1e57c51cecf0-bundle","type":"transaction","entry":[{"fullUrl":"https://madie.cms.gov/Patient/83ab43ae-b18d-4622-af88-1e57c51cecf0","resource":{"resourceType":"Patient","id":"83ab43ae-b18d-4622-af88-1e57c51cecf0","meta":{"profile":["http://hl7.org/fhir/us/qicore/StructureDefinition/qicore-patient"]},"text":{"status":"generated","div":"<div xmlns=\"http://www.w3.org/1999/xhtml\"><div class=\"hapiHeaderText\">LabTestHIVDxDuringMPrelevantDatetime <b>NUMERPASS </b></div><table class=\"hapiPropertyTable\"><tbody><tr><td>Date of birth</td><td><span>31 July 1992</span></td></tr></tbody></table></div>"},"extension":[{"url":"http://hl7.org/fhir/us/core/StructureDefinition/us-core-race","extension":[{"url":"ombCategory","valueCoding":{"system":"urn:oid:2.16.840.1.113883.6.238","code":"1002-5","display":"American Indian or Alaska Native","userSelected":true}},{"url":"text","valueString":"American Indian or Alaska Native"},{"url":"detailed","valueCoding":{"system":"urn:oid:2.16.840.1.113883.6.238","code":"1653-5","display":"Tohono O'Odham"}}]},{"url":"http://hl7.org/fhir/us/core/StructureDefinition/us-core-ethnicity","extension":[{"url":"ombCategory","valueCoding":{"system":"urn:oid:2.16.840.1.113883.6.238","code":"2135-2","display":"Hispanic or Latino","userSelected":true}},{"url":"text","valueString":"Not Hispanic or Latino"},{"url":"detailed","valueCoding":{"system":"urn:oid:2.16.840.1.113883.6.238","code":"2153-5","display":"Mexican American Indian"}}]}],"identifier":[{"type":{"coding":[{"system":"http://terminology.hl7.org/CodeSystem/v2-0203","code":"MR"}]},"system":"https://bonnie-fhir.healthit.gov/","value":"610965b898086b538055c153"}],"active":true,"name":[{"use":"usual","family":"NUMERPass","given":["LabTestHIVDxDuringMPrelevantDatetime"]}],"gender":"male","birthDate":"1993-07-31"},"request":{"method":"PUT","url":"Patient/83ab43ae-b18d-4622-af88-1e57c51cecf0"}},{"fullUrl":"https://madie.cms.gov/Condition/ab037a72-828e-4b06-a32d-13c585e4efc3","resource":{"resourceType":"Condition","id":"ab037a72-828e-4b06-a32d-13c585e4efc3","meta":{"profile":["http://hl7.org/fhir/us/qicore/StructureDefinition/qicore-condition"]},"clinicalStatus":{"coding":[{"system":"http://terminology.hl7.org/CodeSystem/condition-clinical","code":"inactive","display":"inactive","userSelected":true}]},"verificationStatus":{"coding":[{"system":"http://terminology.hl7.org/CodeSystem/condition-ver-status","code":"confirmed","display":"Confirmed","userSelected":true}]},"category":[{"coding":[{"system":"http://terminology.hl7.org/CodeSystem/condition-category","code":"encounter-diagnosis","display":"Encounter Diagnosis","userSelected":true}]}],"code":{"coding":[{"system":"http://hl7.org/fhir/sid/icd-9-cm","code":"042"}]},"subject":{"reference":"Patient/83ab43ae-b18d-4622-af88-1e57c51cecf0"},"onsetDateTime":"2025-07-31T08:00:00.000+00:00","abatementDateTime":"2025-10-24T08:00:00.000+00:00"},"request":{"method":"PUT","url":"Condition/ab037a72-828e-4b06-a32d-13c585e4efc3"}},{"fullUrl":"https://madie.cms.gov/Encounter/ae3ba52f-e57e-41d1-a372-5a20f691c513","resource":{"resourceType":"Encounter","id":"ae3ba52f-e57e-41d1-a372-5a20f691c513","meta":{"profile":["http://hl7.org/fhir/us/qicore/StructureDefinition/qicore-encounter"]},"status":"finished","class":{"system":"http://terminology.hl7.org/CodeSystem/v3-ActCode","code":"AMB","display":"ambulatory","userSelected":true},"type":[{"coding":[{"system":"http://www.ama-assn.org/go/cpt","code":"99214"}]}],"subject":{"reference":"Patient/83ab43ae-b18d-4622-af88-1e57c51cecf0"},"period":{"start":"2025-10-24T08:00:00.000+00:00","end":"2025-10-24T08:15:00.000+00:00"}},"request":{"method":"PUT","url":"Encounter/ae3ba52f-e57e-41d1-a372-5a20f691c513"}},{"fullUrl":"https://madie.cms.gov/Observation/c9a6794f-1c74-4b25-8d20-8a90e8dd82be","resource":{"resourceType":"Observation","id":"c9a6794f-1c74-4b25-8d20-8a90e8dd82be","meta":{"profile":["http://hl7.org/fhir/us/qicore/StructureDefinition/qicore-observation"]},"status":"final","category":[{"coding":[{"system":"http://terminology.hl7.org/CodeSystem/observation-category","code":"laboratory","display":"Laboratory","userSelected":true}]}],"code":{"coding":[{"system":"http://loinc.org","code":"75622-1"}]},"subject":{"reference":"Patient/83ab43ae-b18d-4622-af88-1e57c51cecf0"},"effectiveDateTime":"2025-07-31T08:00:00.000+00:00","valueBoolean":true},"request":{"method":"PUT","url":"Observation/c9a6794f-1c74-4b25-8d20-8a90e8dd82be"}},{"fullUrl":"https://madie.cms.gov/MeasureReport/46d9fc12-33c4-4d42-b76c-e24e6f624b5e","resource":{"resourceType":"MeasureReport","id":"46d9fc12-33c4-4d42-b76c-e24e6f624b5e","meta":{"profile":["http://hl7.org/fhir/us/cqfmeasures/StructureDefinition/test-case-cqfm"]},"contained":[{"resourceType":"Parameters","id":"282f0206-8528-495d-8f70-86f41174975b-parameters","parameter":[{"name":"subject","valueString":"83ab43ae-b18d-4622-af88-1e57c51cecf0"}]}],"extension":[{"url":"http://hl7.org/fhir/us/cqfmeasures/StructureDefinition/cqfm-inputParameters","valueReference":{"reference":"#282f0206-8528-495d-8f70-86f41174975b-parameters"}},{"url":"http://hl7.org/fhir/us/cqfmeasures/StructureDefinition/cqfm-testCaseDescription","valueMarkdown":"Patient 31 at start of MP, qual encounter during MP, HIV diagnosis starts during MP, invalid lab test at 31 during MP. - relevantDatetime"}],"modifierExtension":[{"url":"http://hl7.org/fhir/us/cqfmeasures/StructureDefinition/cqfm-isTestCase","valueBoolean":true}],"status":"complete","type":"individual","measure":"https://madie.cms.gov/Measure/HIVScreeningFHIR","period":{"start":"2025-01-01","end":"2025-12-31"},"group":[{"population":[{"code":{"coding":[{"system":"http://terminology.hl7.org/CodeSystem/measure-population","code":"initial-population","display":"Initial Population"}]},"count":1},{"code":{"coding":[{"system":"http://terminology.hl7.org/CodeSystem/measure-population","code":"denominator","display":"Denominator"}]},"count":1},{"code":{"coding":[{"system":"http://terminology.hl7.org/CodeSystem/measure-population","code":"denominator-exclusion","display":"Denominator Exclusion"}]},"count":0},{"code":{"coding":[{"system":"http://terminology.hl7.org/CodeSystem/measure-population","code":"numerator","display":"Numerator"}]},"count":1}]}],"evaluatedResource":[{"reference":"Patient/83ab43ae-b18d-4622-af88-1e57c51cecf0"},{"reference":"Condition/ab037a72-828e-4b06-a32d-13c585e4efc3"},{"reference":"Encounter/ae3ba52f-e57e-41d1-a372-5a20f691c513"},{"reference":"Observation/c9a6794f-1c74-4b25-8d20-8a90e8dd82be"}]},"request":{"method":"PUT","url":"MeasureReport/46d9fc12-33c4-4d42-b76c-e24e6f624b5e"}}]}