{"resourceType":"Bundle","id":"tests-41361b62-130a-434f-8bab-4699b4fa6f5b-bundle","type":"transaction","entry":[{"fullUrl":"https://madie.cms.gov/Patient/41361b62-130a-434f-8bab-4699b4fa6f5b","resource":{"resourceType":"Patient","id":"41361b62-130a-434f-8bab-4699b4fa6f5b","meta":{"profile":["http://hl7.org/fhir/us/qicore/StructureDefinition/qicore-patient"]},"text":{"status":"generated","div":"<div xmlns=\"http://www.w3.org/1999/xhtml\"><div class=\"hapiHeaderText\">Age64Dec31 <b>IPPASS </b></div><table class=\"hapiPropertyTable\"><tbody><tr><td>Date of birth</td><td><span>01 January 1947</span></td></tr></tbody></table></div>"},"extension":[{"url":"http://hl7.org/fhir/us/core/StructureDefinition/us-core-race","extension":[{"url":"ombCategory","valueCoding":{"system":"urn:oid:2.16.840.1.113883.6.238","code":"1002-5","display":"American Indian or Alaska Native","userSelected":true}},{"url":"text","valueString":"American Indian or Alaska Native"}]},{"url":"http://hl7.org/fhir/us/core/StructureDefinition/us-core-ethnicity","extension":[{"url":"ombCategory","valueCoding":{"system":"urn:oid:2.16.840.1.113883.6.238","code":"2135-2","display":"Hispanic or Latino","userSelected":true}},{"url":"text","valueString":"Hispanic or Latino"}]}],"identifier":[{"type":{"coding":[{"system":"http://terminology.hl7.org/CodeSystem/v2-0203","code":"MR"}]},"system":"https://bonnie-fhir.healthit.gov/","value":"610965b998086b538055c15f"}],"active":true,"name":[{"use":"usual","family":"IPPPass","given":["Age64Dec31"]}],"gender":"female","birthDate":"1960-01-01"},"request":{"method":"PUT","url":"Patient/41361b62-130a-434f-8bab-4699b4fa6f5b"}},{"fullUrl":"https://madie.cms.gov/Encounter/cfaf38af-245c-462d-962d-21da892d0834","resource":{"resourceType":"Encounter","id":"cfaf38af-245c-462d-962d-21da892d0834","meta":{"profile":["http://hl7.org/fhir/us/qicore/StructureDefinition/qicore-encounter"]},"status":"finished","class":{"system":"http://terminology.hl7.org/CodeSystem/v3-ActCode","code":"AMB","display":"ambulatory","userSelected":true},"type":[{"coding":[{"system":"http://www.ama-assn.org/go/cpt","code":"99213"}]}],"subject":{"reference":"Patient/41361b62-130a-434f-8bab-4699b4fa6f5b"},"period":{"start":"2025-02-20T08:00:00.000+00:00","end":"2025-02-20T08:30:00.000+00:00"}},"request":{"method":"PUT","url":"Encounter/cfaf38af-245c-462d-962d-21da892d0834"}},{"fullUrl":"https://madie.cms.gov/MeasureReport/81943255-dba0-4a23-830d-e33ce43aa3ab","resource":{"resourceType":"MeasureReport","id":"81943255-dba0-4a23-830d-e33ce43aa3ab","meta":{"profile":["http://hl7.org/fhir/us/cqfmeasures/StructureDefinition/test-case-cqfm"]},"contained":[{"resourceType":"Parameters","id":"24af230a-5248-4550-871a-fe33378405af-parameters","parameter":[{"name":"subject","valueString":"41361b62-130a-434f-8bab-4699b4fa6f5b"}]}],"extension":[{"url":"http://hl7.org/fhir/us/cqfmeasures/StructureDefinition/cqfm-inputParameters","valueReference":{"reference":"#24af230a-5248-4550-871a-fe33378405af-parameters"}},{"url":"http://hl7.org/fhir/us/cqfmeasures/StructureDefinition/cqfm-testCaseDescription","valueMarkdown":"Patient turns 65 on start of MP"}],"modifierExtension":[{"url":"http://hl7.org/fhir/us/cqfmeasures/StructureDefinition/cqfm-isTestCase","valueBoolean":true}],"status":"complete","type":"individual","measure":"https://madie.cms.gov/Measure/HIVScreeningFHIR","period":{"start":"2025-01-01","end":"2025-12-31"},"group":[{"population":[{"code":{"coding":[{"system":"http://terminology.hl7.org/CodeSystem/measure-population","code":"initial-population","display":"Initial Population"}]},"count":1},{"code":{"coding":[{"system":"http://terminology.hl7.org/CodeSystem/measure-population","code":"denominator","display":"Denominator"}]},"count":1},{"code":{"coding":[{"system":"http://terminology.hl7.org/CodeSystem/measure-population","code":"denominator-exclusion","display":"Denominator Exclusion"}]},"count":0},{"code":{"coding":[{"system":"http://terminology.hl7.org/CodeSystem/measure-population","code":"numerator","display":"Numerator"}]},"count":0}]}],"evaluatedResource":[{"reference":"Patient/41361b62-130a-434f-8bab-4699b4fa6f5b"},{"reference":"Encounter/cfaf38af-245c-462d-962d-21da892d0834"}]},"request":{"method":"PUT","url":"MeasureReport/81943255-dba0-4a23-830d-e33ce43aa3ab"}}]}