{
  "resourceType": "Bundle",
  "id": "612e6e8002c62a011f2ee9d4",
  "type": "transaction",
  "entry": [ {
    "fullUrl": "https://madie.cms.gov/Patient/fc59a209-22d4-4881-aa12-9a19fd91c083",
    "resource": {
      "resourceType": "Patient",
      "id": "fc59a209-22d4-4881-aa12-9a19fd91c083",
      "meta": {
        "profile": [ "http://hl7.org/fhir/us/qicore/StructureDefinition/qicore-patient" ]
      },
      "text": {
        "status": "generated",
        "div": "<div xmlns=\"http://www.w3.org/1999/xhtml\"><div class=\"hapiHeaderText\">CMOPerfOnAnesEndRvlntDT <b>DENEXPASS </b></div><table class=\"hapiPropertyTable\"><tbody><tr><td>Identifier</td><td>9d8ab3fcb5edc14843f80cd97de46a5e</td></tr><tr><td>Date of birth</td><td><span>16 July 1974</span></td></tr></tbody></table></div>"
      },
      "extension": [ {
        "url": "http://hl7.org/fhir/us/core/StructureDefinition/us-core-race",
        "extension": [ {
          "url": "ombCategory",
          "valueCoding": {
            "system": "urn:oid:2.16.840.1.113883.6.238",
            "code": "1002-5",
            "display": "American Indian or Alaska Native",
            "userSelected": true
          }
        }, {
          "url": "text",
          "valueString": "American Indian or Alaska Native"
        } ]
      }, {
        "url": "http://hl7.org/fhir/us/core/StructureDefinition/us-core-ethnicity",
        "extension": [ {
          "url": "ombCategory",
          "valueCoding": {
            "system": "urn:oid:2.16.840.1.113883.6.238",
            "code": "2135-2",
            "display": "Hispanic or Latino",
            "userSelected": true
          }
        }, {
          "url": "text",
          "valueString": "Hispanic or Latino"
        } ]
      } ],
      "identifier": [ {
        "type": {
          "coding": [ {
            "system": "http://terminology.hl7.org/CodeSystem/v2-0203",
            "code": "MR"
          } ]
        },
        "system": "https://bonnie-fhir.healthit.gov/",
        "value": "612e6e8002c62a011f2ee9d4"
      } ],
      "active": true,
      "name": [ {
        "use": "usual",
        "family": "DENEXPass",
        "given": [ "CMOPerfOnAnesEndRvlntDT" ]
      } ],
      "gender": "female",
      "birthDate": "1975-07-16"
    },
    "request": {
      "method": "PUT",
      "url": "Patient/fc59a209-22d4-4881-aa12-9a19fd91c083"
    }
  }, {
    "fullUrl": "https://madie.cms.gov/Encounter/d4f27e60-abd1-4c94-9586-3107f1a3466a",
    "resource": {
      "resourceType": "Encounter",
      "id": "d4f27e60-abd1-4c94-9586-3107f1a3466a",
      "meta": {
        "profile": [ "http://hl7.org/fhir/us/qicore/StructureDefinition/qicore-encounter" ]
      },
      "status": "finished",
      "class": {
        "system": "http://terminology.hl7.org/CodeSystem/v3-ActCode",
        "code": "IMP",
        "display": "inpatient encounter"
      },
      "type": [ {
        "coding": [ {
          "system": "http://snomed.info/sct",
          "code": "8715000"
        } ]
      } ],
      "subject": {
        "reference": "Patient/fc59a209-22d4-4881-aa12-9a19fd91c083"
      },
      "period": {
        "start": "2026-12-04T08:00:00.000+00:00",
        "end": "2026-12-30T08:15:00.000+00:00"
      },
      "length": {
        "value": 26.0,
        "unit": "days"
      },
      "location": [ {
        "location": {
          "reference": "Location/b7003415-2ab0-48aa-8afd-214a3ee73a2f"
        },
        "period": {
          "start": "2026-12-06T08:00:00.000+00:00",
          "end": "2026-12-08T08:15:00.000+00:00"
        }
      } ]
    },
    "request": {
      "method": "PUT",
      "url": "Encounter/d4f27e60-abd1-4c94-9586-3107f1a3466a"
    }
  }, {
    "fullUrl": "https://madie.cms.gov/Procedure/c656f69c-5ea3-4548-8ca9-c721863940dc",
    "resource": {
      "resourceType": "Procedure",
      "id": "c656f69c-5ea3-4548-8ca9-c721863940dc",
      "meta": {
        "profile": [ "http://hl7.org/fhir/us/qicore/StructureDefinition/qicore-procedure" ]
      },
      "extension": [ {
        "url": "http://hl7.org/fhir/us/qicore/StructureDefinition/qicore-recorded",
        "valueDateTime": "2013-11-02T13:35:00.000+00:00"
      } ],
      "status": "completed",
      "code": {
        "coding": [ {
          "system": "http://snomed.info/sct",
          "code": "133918004"
        } ]
      },
      "subject": {
        "reference": "Patient/fc59a209-22d4-4881-aa12-9a19fd91c083"
      },
      "performedDateTime": "2026-12-07T11:15:00.000+00:00"
    },
    "request": {
      "method": "PUT",
      "url": "Procedure/c656f69c-5ea3-4548-8ca9-c721863940dc"
    }
  }, {
    "fullUrl": "https://madie.cms.gov/Coverage/6c10e0aa-863f-4bf2-9c0e-b76f78c5501e",
    "resource": {
      "resourceType": "Coverage",
      "id": "6c10e0aa-863f-4bf2-9c0e-b76f78c5501e",
      "status": "active",
      "beneficiary": {
        "reference": "Patient/fc59a209-22d4-4881-aa12-9a19fd91c083"
      },
      "period": {
        "start": "1975-03-03T08:00:00.000+00:00"
      },
      "payor": [ {
        "reference": "Organization/203f88a4-ce9c-43b2-a9da-fbbd42080a9e"
      } ]
    },
    "request": {
      "method": "PUT",
      "url": "Coverage/6c10e0aa-863f-4bf2-9c0e-b76f78c5501e"
    }
  }, {
    "fullUrl": "https://madie.cms.gov/Procedure/8bb8469f-cd0f-4af7-9ad2-4c5ed70858bc",
    "resource": {
      "resourceType": "Procedure",
      "id": "8bb8469f-cd0f-4af7-9ad2-4c5ed70858bc",
      "status": "completed",
      "code": {
        "coding": [ {
          "system": "http://snomed.info/sct",
          "code": "18946005"
        } ]
      },
      "subject": {
        "reference": "Patient/fc59a209-22d4-4881-aa12-9a19fd91c083"
      },
      "performedPeriod": {
        "start": "2026-12-06T11:00:00.000+00:00",
        "end": "2026-12-07T11:15:00.000+00:00"
      }
    },
    "request": {
      "method": "PUT",
      "url": "Procedure/8bb8469f-cd0f-4af7-9ad2-4c5ed70858bc"
    }
  }, {
    "fullUrl": "https://madie.cms.gov/Location/b7003415-2ab0-48aa-8afd-214a3ee73a2f",
    "resource": {
      "resourceType": "Location",
      "id": "b7003415-2ab0-48aa-8afd-214a3ee73a2f",
      "meta": {
        "profile": [ "http://hl7.org/fhir/us/qicore/StructureDefinition/qicore-location" ]
      },
      "identifier": [ {
        "use": "usual",
        "system": "http://exampleoflocation.com",
        "value": "B1-S.F2"
      } ],
      "name": "Medical Surgical East, first floor",
      "type": [ {
        "coding": [ {
          "system": "https://www.cdc.gov/nhsn/cdaportal/terminology/codesystem/hsloc.html",
          "code": "1025-6",
          "display": "Trauma Critical Care",
          "userSelected": true
        } ]
      } ]
    },
    "request": {
      "method": "PUT",
      "url": "Location/b7003415-2ab0-48aa-8afd-214a3ee73a2f"
    }
  }, {
    "fullUrl": "https://madie.cms.gov/Organization/203f88a4-ce9c-43b2-a9da-fbbd42080a9e",
    "resource": {
      "resourceType": "Organization",
      "id": "203f88a4-ce9c-43b2-a9da-fbbd42080a9e",
      "meta": {
        "profile": [ "http://hl7.org/fhir/us/qicore/StructureDefinition/qicore-organization" ]
      },
      "identifier": [ {
        "use": "temp",
        "system": "urn:oid:2.16.840.1.113883.4.4",
        "value": "21-3259825"
      } ],
      "active": true,
      "type": [ {
        "coding": [ {
          "system": "http://terminology.hl7.org/CodeSystem/organization-type",
          "code": "pay",
          "display": "Payer"
        } ]
      } ],
      "name": "Blue Cross Blue Shield of Texas",
      "telecom": [ {
        "system": "phone",
        "value": "(+1) 972-766-6900"
      } ],
      "address": [ {
        "use": "billing",
        "type": "postal",
        "line": [ "P.O. Box 660044" ],
        "city": "Dallas",
        "state": "TX",
        "postalCode": "75266-0044",
        "country": "USA"
      } ]
    },
    "request": {
      "method": "PUT",
      "url": "Organization/203f88a4-ce9c-43b2-a9da-fbbd42080a9e"
    }
  }, {
    "fullUrl": "https://madie.cms.gov/Practitioner/a5335f86-1580-4fb0-ba79-9fe7df35e5ca",
    "resource": {
      "resourceType": "Practitioner",
      "id": "a5335f86-1580-4fb0-ba79-9fe7df35e5ca",
      "identifier": [ {
        "system": "http://hl7.org/fhir/sid/us-npi",
        "value": "123456"
      } ],
      "name": [ {
        "family": "Evil",
        "prefix": [ "Dr" ]
      } ]
    },
    "request": {
      "method": "PUT",
      "url": "Practitioner/a5335f86-1580-4fb0-ba79-9fe7df35e5ca"
    }
  }, {
    "fullUrl": "https://madie.cms.gov/MeasureReport/4b253dca-9606-4ce9-b7c3-2f85cee7c676",
    "resource": {
      "resourceType": "MeasureReport",
      "id": "4b253dca-9606-4ce9-b7c3-2f85cee7c676",
      "meta": {
        "profile": [ "http://hl7.org/fhir/us/cqfmeasures/StructureDefinition/test-case-cqfm" ]
      },
      "contained": [ {
        "resourceType": "Parameters",
        "id": "ec688b6e-2b1e-47cd-8d44-3e78249ae3be-parameters",
        "parameter": [ {
          "name": "subject",
          "valueString": "fc59a209-22d4-4881-aa12-9a19fd91c083"
        } ]
      } ],
      "extension": [ {
        "url": "http://hl7.org/fhir/StructureDefinition/cqf-inputParameters",
        "valueReference": {
          "reference": "#ec688b6e-2b1e-47cd-8d44-3e78249ae3be-parameters"
        }
      }, {
        "url": "http://hl7.org/fhir/us/cqfmeasures/StructureDefinition/cqfm-testCaseDescription",
        "valueMarkdown": "comfort measures starts concurrent with end of neuraxial anesthesia\n"
      } ],
      "modifierExtension": [ {
        "url": "http://hl7.org/fhir/us/cqfmeasures/StructureDefinition/cqfm-isTestCase",
        "valueBoolean": true
      } ],
      "status": "complete",
      "type": "individual",
      "measure": "https://madie.cms.gov/Measure/CMS190VTEProphylaxisICUFHIR",
      "period": {
        "start": "2026-01-01",
        "end": "2026-12-31"
      },
      "group": [ {
        "id": "Group_1",
        "population": [ {
          "id": "InitialPopulation_1",
          "code": {
            "coding": [ {
              "system": "http://terminology.hl7.org/CodeSystem/measure-population",
              "code": "initial-population",
              "display": "Initial Population"
            } ]
          },
          "count": 1
        }, {
          "id": "Denominator_1",
          "code": {
            "coding": [ {
              "system": "http://terminology.hl7.org/CodeSystem/measure-population",
              "code": "denominator",
              "display": "Denominator"
            } ]
          },
          "count": 1
        }, {
          "id": "DenominatorExclusion_1",
          "code": {
            "coding": [ {
              "system": "http://terminology.hl7.org/CodeSystem/measure-population",
              "code": "denominator-exclusion",
              "display": "Denominator Exclusion"
            } ]
          },
          "count": 1
        }, {
          "id": "Numerator_1",
          "code": {
            "coding": [ {
              "system": "http://terminology.hl7.org/CodeSystem/measure-population",
              "code": "numerator",
              "display": "Numerator"
            } ]
          },
          "count": 0
        }, {
          "id": "DenominatorException_1",
          "code": {
            "coding": [ {
              "system": "http://terminology.hl7.org/CodeSystem/measure-population",
              "code": "denominator-exception",
              "display": "Denominator Exception"
            } ]
          },
          "count": 0
        } ],
        "measureScore": {
          "value": 0.0
        }
      } ],
      "evaluatedResource": [ {
        "reference": "Patient/fc59a209-22d4-4881-aa12-9a19fd91c083"
      }, {
        "reference": "Encounter/d4f27e60-abd1-4c94-9586-3107f1a3466a"
      }, {
        "reference": "Procedure/c656f69c-5ea3-4548-8ca9-c721863940dc"
      }, {
        "reference": "Coverage/6c10e0aa-863f-4bf2-9c0e-b76f78c5501e"
      }, {
        "reference": "Procedure/8bb8469f-cd0f-4af7-9ad2-4c5ed70858bc"
      }, {
        "reference": "Location/b7003415-2ab0-48aa-8afd-214a3ee73a2f"
      }, {
        "reference": "Organization/203f88a4-ce9c-43b2-a9da-fbbd42080a9e"
      }, {
        "reference": "Practitioner/a5335f86-1580-4fb0-ba79-9fe7df35e5ca"
      } ]
    },
    "request": {
      "method": "PUT",
      "url": "MeasureReport/4b253dca-9606-4ce9-b7c3-2f85cee7c676"
    }
  } ]
}