{
  "resourceType": "Bundle",
  "id": "61095b0998086b53805591a5",
  "type": "transaction",
  "entry": [ {
    "fullUrl": "https://madie.cms.gov/Patient/cd97bd33-8e19-409c-ae92-b3c665cf3282",
    "resource": {
      "resourceType": "Patient",
      "id": "cd97bd33-8e19-409c-ae92-b3c665cf3282",
      "meta": {
        "profile": [ "http://hl7.org/fhir/us/qicore/StructureDefinition/qicore-patient" ]
      },
      "text": {
        "status": "generated",
        "div": "<div xmlns=\"http://www.w3.org/1999/xhtml\"><div class=\"hapiHeaderText\">Age@18 <b>DENOMPASS </b></div><table class=\"hapiPropertyTable\"><tbody><tr><td>Identifier</td><td>67f3e33acf17bcb386e754d726ed064ccd48ba21ff0ffb2eb678740a684398be</td></tr><tr><td>Date of birth</td><td><span>01 January 1994</span></td></tr></tbody></table></div>"
      },
      "extension": [ {
        "url": "http://hl7.org/fhir/us/core/StructureDefinition/us-core-race",
        "extension": [ {
          "url": "ombCategory",
          "valueCoding": {
            "system": "urn:oid:2.16.840.1.113883.6.238",
            "code": "1002-5",
            "display": "American Indian or Alaska Native",
            "userSelected": true
          }
        }, {
          "url": "text",
          "valueString": "American Indian or Alaska Native"
        } ]
      }, {
        "url": "http://hl7.org/fhir/us/core/StructureDefinition/us-core-ethnicity",
        "extension": [ {
          "url": "ombCategory",
          "valueCoding": {
            "system": "urn:oid:2.16.840.1.113883.6.238",
            "code": "2135-2",
            "display": "Hispanic or Latino",
            "userSelected": true
          }
        }, {
          "url": "text",
          "valueString": "Hispanic or Latino"
        } ]
      } ],
      "identifier": [ {
        "type": {
          "coding": [ {
            "system": "http://terminology.hl7.org/CodeSystem/v2-0203",
            "code": "MR"
          } ]
        },
        "system": "https://bonnie-fhir.healthit.gov/",
        "value": "61095b0998086b53805591a5"
      } ],
      "active": true,
      "name": [ {
        "use": "usual",
        "family": "DENEXPASS",
        "given": [ "CataractPosteriorPolarOverlapsCatSurg" ]
      } ],
      "gender": "female",
      "birthDate": "1996-01-01"
    },
    "request": {
      "method": "PUT",
      "url": "Patient/cd97bd33-8e19-409c-ae92-b3c665cf3282"
    }
  }, {
    "fullUrl": "https://madie.cms.gov/Observation/8121f2d2-9fb9-4ad3-9d3b-a3aff57ec65a",
    "resource": {
      "resourceType": "Observation",
      "id": "8121f2d2-9fb9-4ad3-9d3b-a3aff57ec65a",
      "meta": {
        "profile": [ "http://hl7.org/fhir/us/qicore/StructureDefinition/qicore-observation-clinical-result" ]
      },
      "status": "final",
      "category": [ {
        "coding": [ {
          "system": "http://terminology.hl7.org/CodeSystem/observation-category",
          "code": "exam",
          "display": "exam"
        } ]
      } ],
      "code": {
        "coding": [ {
          "system": "http://snomed.info/sct",
          "code": "419775003"
        } ]
      },
      "subject": {
        "reference": "Patient/cd97bd33-8e19-409c-ae92-b3c665cf3282"
      },
      "effectivePeriod": {
        "start": "2026-03-13T09:00:00+00:00",
        "end": "2026-03-13T09:30:00+00:00"
      }
    },
    "request": {
      "method": "PUT",
      "url": "Observation/8121f2d2-9fb9-4ad3-9d3b-a3aff57ec65a"
    }
  }, {
    "fullUrl": "https://madie.cms.gov/Procedure/3bcad60e-7e76-445b-9c1f-0464811e44a2",
    "resource": {
      "resourceType": "Procedure",
      "id": "3bcad60e-7e76-445b-9c1f-0464811e44a2",
      "meta": {
        "profile": [ "http://hl7.org/fhir/us/qicore/StructureDefinition/qicore-procedure" ]
      },
      "extension": [ {
        "url": "http://hl7.org/fhir/us/qicore/StructureDefinition/qicore-recorded",
        "valueDateTime": "2026-03-05T09:35:00-04:00"
      } ],
      "status": "completed",
      "code": {
        "coding": [ {
          "system": "http://snomed.info/sct",
          "code": "84149000"
        } ]
      },
      "subject": {
        "reference": "Patient/cd97bd33-8e19-409c-ae92-b3c665cf3282"
      },
      "performedPeriod": {
        "start": "2026-03-05T09:20:00-04:00",
        "end": "2026-04-05T10:30:00-04:00"
      }
    },
    "request": {
      "method": "PUT",
      "url": "Procedure/3bcad60e-7e76-445b-9c1f-0464811e44a2"
    }
  }, {
    "fullUrl": "https://madie.cms.gov/Condition/74cb2982-3bb7-49fe-a0fe-ea27744c10aa",
    "resource": {
      "resourceType": "Condition",
      "id": "74cb2982-3bb7-49fe-a0fe-ea27744c10aa",
      "meta": {
        "profile": [ "http://hl7.org/fhir/us/qicore/StructureDefinition/qicore-condition-problems-health-concerns" ]
      },
      "clinicalStatus": {
        "coding": [ {
          "system": "http://terminology.hl7.org/CodeSystem/condition-clinical",
          "code": "active",
          "display": "active",
          "userSelected": true
        } ]
      },
      "category": [ {
        "coding": [ {
          "system": "http://terminology.hl7.org/CodeSystem/condition-clinical",
          "code": "active",
          "display": "active",
          "userSelected": true
        } ]
      } ],
      "code": {
        "coding": [ {
          "system": "http://hl7.org/fhir/sid/icd-10-cm",
          "code": "H25.041",
          "userSelected": true
        }, {
          "system": "http://snomed.info/sct",
          "code": "315353005",
          "userSelected": true
        } ]
      },
      "subject": {
        "reference": "Patient/cd97bd33-8e19-409c-ae92-b3c665cf3282"
      },
      "onsetDateTime": "2024-11-01T08:00:00.000+00:00"
    },
    "request": {
      "method": "PUT",
      "url": "Condition/74cb2982-3bb7-49fe-a0fe-ea27744c10aa"
    }
  }, {
    "fullUrl": "https://madie.cms.gov/Coverage/2b1fa679-b34d-49f3-b600-38921f050632",
    "resource": {
      "resourceType": "Coverage",
      "id": "2b1fa679-b34d-49f3-b600-38921f050632",
      "meta": {
        "profile": [ "http://hl7.org/fhir/us/qicore/StructureDefinition/qicore-coverage" ]
      },
      "status": "active",
      "beneficiary": {
        "reference": "Patient/cd97bd33-8e19-409c-ae92-b3c665cf3282"
      },
      "payor": [ {
        "reference": "Organization/ab30e84b-4110-4a8f-8331-3ea6b57bd809"
      } ]
    },
    "request": {
      "method": "PUT",
      "url": "Coverage/2b1fa679-b34d-49f3-b600-38921f050632"
    }
  }, {
    "fullUrl": "https://madie.cms.gov/Organization/ab30e84b-4110-4a8f-8331-3ea6b57bd809",
    "resource": {
      "resourceType": "Organization",
      "id": "ab30e84b-4110-4a8f-8331-3ea6b57bd809",
      "meta": {
        "profile": [ "http://hl7.org/fhir/us/qicore/StructureDefinition/qicore-organization" ]
      },
      "identifier": [ {
        "use": "temp",
        "system": "urn:oid:2.16.840.1.113883.4.4",
        "value": "21-3259825"
      } ],
      "active": true,
      "type": [ {
        "coding": [ {
          "system": "http://terminology.hl7.org/CodeSystem/organization-type",
          "code": "pay",
          "display": "Payer"
        } ]
      } ],
      "name": "Blue Cross Blue Shield of Texas",
      "telecom": [ {
        "system": "phone",
        "value": "(+1) 972-766-6900"
      } ],
      "address": [ {
        "use": "billing",
        "type": "postal",
        "line": [ "P.O. Box 660044" ],
        "city": "Dallas",
        "state": "TX",
        "postalCode": "75266-0044",
        "country": "USA"
      } ]
    },
    "request": {
      "method": "PUT",
      "url": "Organization/ab30e84b-4110-4a8f-8331-3ea6b57bd809"
    }
  }, {
    "fullUrl": "https://madie.cms.gov/Practitioner/ea2e9050-999e-410a-92fb-c403043302c9",
    "resource": {
      "resourceType": "Practitioner",
      "id": "ea2e9050-999e-410a-92fb-c403043302c9",
      "meta": {
        "profile": [ "http://hl7.org/fhir/us/qicore/StructureDefinition/qicore-practitioner" ]
      },
      "identifier": [ {
        "system": "http://hl7.org/fhir/sid/us-npi",
        "value": "123456"
      } ],
      "name": [ {
        "family": "Evil",
        "prefix": [ "Dr" ]
      } ]
    },
    "request": {
      "method": "PUT",
      "url": "Practitioner/ea2e9050-999e-410a-92fb-c403043302c9"
    }
  }, {
    "fullUrl": "https://madie.cms.gov/MeasureReport/0943fb72-234c-49e9-92a0-d95cda3be1b0",
    "resource": {
      "resourceType": "MeasureReport",
      "id": "0943fb72-234c-49e9-92a0-d95cda3be1b0",
      "meta": {
        "profile": [ "http://hl7.org/fhir/us/cqfmeasures/StructureDefinition/test-case-cqfm" ]
      },
      "contained": [ {
        "resourceType": "Parameters",
        "id": "4595c185-1eda-4585-84c0-4649fd6c4887-parameters",
        "parameter": [ {
          "name": "subject",
          "valueString": "cd97bd33-8e19-409c-ae92-b3c665cf3282"
        } ]
      } ],
      "extension": [ {
        "url": "http://hl7.org/fhir/StructureDefinition/cqf-inputParameters",
        "valueReference": {
          "reference": "#4595c185-1eda-4585-84c0-4649fd6c4887-parameters"
        }
      }, {
        "url": "http://hl7.org/fhir/us/cqfmeasures/StructureDefinition/cqfm-testCaseDescription",
        "valueMarkdown": "Patient with Cataract Posterior Polar overlapping cataract surgery. "
      } ],
      "modifierExtension": [ {
        "url": "http://hl7.org/fhir/us/cqfmeasures/StructureDefinition/cqfm-isTestCase",
        "valueBoolean": true
      } ],
      "status": "complete",
      "type": "individual",
      "measure": "https://madie.cms.gov/Measure/CMS133FHIRCataracts2040BCVAwithin90Days",
      "period": {
        "start": "2026-01-01",
        "end": "2026-12-31"
      },
      "group": [ {
        "id": "Group_1",
        "population": [ {
          "id": "InitialPopulation_1",
          "code": {
            "coding": [ {
              "system": "http://terminology.hl7.org/CodeSystem/measure-population",
              "code": "initial-population",
              "display": "Initial Population"
            } ]
          },
          "count": 1
        }, {
          "id": "Denominator_1",
          "code": {
            "coding": [ {
              "system": "http://terminology.hl7.org/CodeSystem/measure-population",
              "code": "denominator",
              "display": "Denominator"
            } ]
          },
          "count": 1
        }, {
          "id": "DenominatorExclusion_1",
          "code": {
            "coding": [ {
              "system": "http://terminology.hl7.org/CodeSystem/measure-population",
              "code": "denominator-exclusion",
              "display": "Denominator Exclusion"
            } ]
          },
          "count": 1
        }, {
          "id": "Numerator_1",
          "code": {
            "coding": [ {
              "system": "http://terminology.hl7.org/CodeSystem/measure-population",
              "code": "numerator",
              "display": "Numerator"
            } ]
          },
          "count": 0
        } ],
        "measureScore": {
          "value": 0.0
        }
      } ],
      "evaluatedResource": [ {
        "reference": "Patient/cd97bd33-8e19-409c-ae92-b3c665cf3282"
      }, {
        "reference": "Observation/8121f2d2-9fb9-4ad3-9d3b-a3aff57ec65a"
      }, {
        "reference": "Procedure/3bcad60e-7e76-445b-9c1f-0464811e44a2"
      }, {
        "reference": "Condition/74cb2982-3bb7-49fe-a0fe-ea27744c10aa"
      }, {
        "reference": "Coverage/2b1fa679-b34d-49f3-b600-38921f050632"
      }, {
        "reference": "Organization/ab30e84b-4110-4a8f-8331-3ea6b57bd809"
      }, {
        "reference": "Practitioner/ea2e9050-999e-410a-92fb-c403043302c9"
      } ]
    },
    "request": {
      "method": "PUT",
      "url": "MeasureReport/0943fb72-234c-49e9-92a0-d95cda3be1b0"
    }
  } ]
}