{
  "resourceType": "Bundle",
  "id": "6356dca654e383debade75aa",
  "type": "transaction",
  "entry": [ {
    "fullUrl": "https://madie.cms.gov/Patient/6c96fedc-959a-415c-9cff-9c3ceb302c4d",
    "resource": {
      "resourceType": "Patient",
      "id": "6c96fedc-959a-415c-9cff-9c3ceb302c4d",
      "meta": {
        "profile": [ "http://hl7.org/fhir/us/qicore/StructureDefinition/qicore-patient" ]
      },
      "text": {
        "status": "generated",
        "div": "<div xmlns=\"http://www.w3.org/1999/xhtml\"><div class=\"hapiHeaderText\">EncDxEQSNOMEDShockPOAisNull<b>NUMFail</b></div><table class=\"hapiPropertyTable\"><tbody><tr><td>Date of birth</td><td><span>01 February 2004</span></td></tr></tbody></table></div>"
      },
      "extension": [ {
        "url": "http://hl7.org/fhir/us/core/StructureDefinition/us-core-race",
        "extension": [ {
          "url": "ombCategory",
          "valueCoding": {
            "system": "urn:oid:2.16.840.1.113883.6.238",
            "code": "1002-5",
            "display": "American Indian or Alaska Native",
            "userSelected": true
          }
        }, {
          "url": "text",
          "valueString": "American Indian or Alaska Native"
        } ]
      }, {
        "url": "http://hl7.org/fhir/us/core/StructureDefinition/us-core-ethnicity",
        "extension": [ {
          "url": "ombCategory",
          "valueCoding": {
            "system": "urn:oid:2.16.840.1.113883.6.238",
            "code": "2135-2",
            "display": "Hispanic or Latino",
            "userSelected": true
          }
        }, {
          "url": "text",
          "valueString": "Hispanic or Latino"
        } ]
      } ],
      "identifier": [ {
        "type": {
          "coding": [ {
            "system": "http://terminology.hl7.org/CodeSystem/v2-0203",
            "code": "MR"
          } ]
        },
        "system": "https://bonnie-fhir.healthit.gov/",
        "value": "6356dca654e383debade75aa"
      } ],
      "active": true,
      "name": [ {
        "use": "usual",
        "family": "NUMFail",
        "given": [ "EncDxEQSNOMEDShockPOAisNull" ]
      } ],
      "gender": "female",
      "birthDate": "2005-02-01"
    },
    "request": {
      "method": "PUT",
      "url": "Patient/6c96fedc-959a-415c-9cff-9c3ceb302c4d"
    }
  }, {
    "fullUrl": "https://madie.cms.gov/Observation/d2217846-50e1-4925-9a32-05ffad58fdca",
    "resource": {
      "resourceType": "Observation",
      "id": "d2217846-50e1-4925-9a32-05ffad58fdca",
      "meta": {
        "profile": [ "http://hl7.org/fhir/us/qicore/StructureDefinition/qicore-simple-observation" ]
      },
      "status": "final",
      "category": [ {
        "coding": [ {
          "system": "http://terminology.hl7.org/CodeSystem/observation-category",
          "code": "exam",
          "display": "exam",
          "userSelected": true
        } ]
      } ],
      "code": {
        "coding": [ {
          "system": "http://loinc.org",
          "code": "93857-1"
        } ]
      },
      "subject": {
        "reference": "Patient/6c96fedc-959a-415c-9cff-9c3ceb302c4d"
      },
      "effectiveDateTime": "2026-02-01T08:00:00Z",
      "performer": [ {
        "reference": "Organization/example1",
        "display": "Hendricks Country Hospital"
      } ],
      "valueDateTime": "2026-02-01T08:00:00.000+00:00"
    },
    "request": {
      "method": "PUT",
      "url": "Observation/d2217846-50e1-4925-9a32-05ffad58fdca"
    }
  }, {
    "fullUrl": "https://madie.cms.gov/Observation/d5b993fc-69bd-4468-85e9-55a33498ae76",
    "resource": {
      "resourceType": "Observation",
      "id": "d5b993fc-69bd-4468-85e9-55a33498ae76",
      "meta": {
        "profile": [ "http://hl7.org/fhir/us/qicore/StructureDefinition/qicore-simple-observation" ]
      },
      "status": "final",
      "category": [ {
        "coding": [ {
          "system": "http://terminology.hl7.org/CodeSystem/observation-category",
          "code": "exam",
          "display": "exam",
          "userSelected": true
        } ]
      } ],
      "code": {
        "coding": [ {
          "system": "http://loinc.org",
          "code": "11884-4"
        } ]
      },
      "subject": {
        "reference": "Patient/6c96fedc-959a-415c-9cff-9c3ceb302c4d"
      },
      "effectiveDateTime": "2026-02-01T08:00:00Z",
      "performer": [ {
        "reference": "Organization/example1",
        "display": "Hendricks Country Hospital"
      } ],
      "valueQuantity": {
        "value": 21,
        "system": "http://unitsofmeasure.org",
        "code": "wk"
      }
    },
    "request": {
      "method": "PUT",
      "url": "Observation/d5b993fc-69bd-4468-85e9-55a33498ae76"
    }
  }, {
    "fullUrl": "https://madie.cms.gov/Encounter/2f460d06-75d1-442c-82a3-f0cf45f201a2",
    "resource": {
      "resourceType": "Encounter",
      "id": "2f460d06-75d1-442c-82a3-f0cf45f201a2",
      "meta": {
        "profile": [ "http://hl7.org/fhir/us/qicore/StructureDefinition/qicore-encounter" ]
      },
      "status": "finished",
      "class": {
        "system": "http://terminology.hl7.org/CodeSystem/v3-ActCode",
        "code": "IMP",
        "display": "inpatient encounter"
      },
      "type": [ {
        "coding": [ {
          "system": "http://snomed.info/sct",
          "code": "183452005"
        } ]
      } ],
      "subject": {
        "reference": "Patient/6c96fedc-959a-415c-9cff-9c3ceb302c4d"
      },
      "period": {
        "start": "2026-02-01T08:00:00Z",
        "end": "2026-02-05T08:15:00.000+00:00"
      },
      "diagnosis": [ {
        "condition": {
          "reference": "Condition/72a1cf94-8052-4e4e-bc52-5bba4c172b43"
        }
      } ]
    },
    "request": {
      "method": "PUT",
      "url": "Encounter/2f460d06-75d1-442c-82a3-f0cf45f201a2"
    }
  }, {
    "fullUrl": "https://madie.cms.gov/Procedure/7cd9e58f-6149-482a-9a91-364b7f2c0f77",
    "resource": {
      "resourceType": "Procedure",
      "id": "7cd9e58f-6149-482a-9a91-364b7f2c0f77",
      "meta": {
        "profile": [ "http://hl7.org/fhir/us/qicore/StructureDefinition/qicore-procedure" ]
      },
      "extension": [ {
        "url": "http://hl7.org/fhir/us/qicore/StructureDefinition/qicore-recorded",
        "valueDateTime": "2014-04-05T13:35:00Z"
      } ],
      "status": "completed",
      "code": {
        "coding": [ {
          "system": "http://snomed.info/sct",
          "code": "10745001"
        } ]
      },
      "subject": {
        "reference": "Patient/6c96fedc-959a-415c-9cff-9c3ceb302c4d"
      },
      "performedPeriod": {
        "start": "2026-02-01T08:00:00Z",
        "end": "2026-02-05T08:15:00.000+00:00"
      }
    },
    "request": {
      "method": "PUT",
      "url": "Procedure/7cd9e58f-6149-482a-9a91-364b7f2c0f77"
    }
  }, {
    "fullUrl": "https://madie.cms.gov/Condition/72a1cf94-8052-4e4e-bc52-5bba4c172b43",
    "resource": {
      "resourceType": "Condition",
      "id": "72a1cf94-8052-4e4e-bc52-5bba4c172b43",
      "meta": {
        "profile": [ "http://hl7.org/fhir/us/qicore/StructureDefinition/qicore-condition" ]
      },
      "category": [ {
        "coding": [ {
          "system": "http://terminology.hl7.org/CodeSystem/condition-category",
          "code": "encounter-diagnosis",
          "display": "Encounter Diagnosis"
        } ]
      } ],
      "code": {
        "coding": [ {
          "system": "http://snomed.info/sct",
          "version": "2023",
          "code": "1092471000119105",
          "display": "Shock",
          "userSelected": true
        } ]
      },
      "subject": {
        "reference": "Patient/6c96fedc-959a-415c-9cff-9c3ceb302c4d"
      },
      "recordedDate": "2026-10-26T08:00:00Z"
    },
    "request": {
      "method": "PUT",
      "url": "Condition/72a1cf94-8052-4e4e-bc52-5bba4c172b43"
    }
  }, {
    "fullUrl": "https://madie.cms.gov/Coverage/2888f38d-4e59-42f3-a1f1-813f09c6dd1c",
    "resource": {
      "resourceType": "Coverage",
      "id": "2888f38d-4e59-42f3-a1f1-813f09c6dd1c",
      "meta": {
        "profile": [ "http://hl7.org/fhir/us/qicore/StructureDefinition/qicore-coverage" ]
      },
      "status": "active",
      "beneficiary": {
        "reference": "Patient/6c96fedc-959a-415c-9cff-9c3ceb302c4d"
      },
      "payor": [ {
        "reference": "Organization/7b0ad72b-04ca-4574-8d05-bbe7f559a845"
      } ]
    },
    "request": {
      "method": "PUT",
      "url": "Coverage/2888f38d-4e59-42f3-a1f1-813f09c6dd1c"
    }
  }, {
    "fullUrl": "https://madie.cms.gov/Organization/7b0ad72b-04ca-4574-8d05-bbe7f559a845",
    "resource": {
      "resourceType": "Organization",
      "id": "7b0ad72b-04ca-4574-8d05-bbe7f559a845",
      "meta": {
        "profile": [ "http://hl7.org/fhir/us/qicore/StructureDefinition/qicore-organization" ]
      },
      "identifier": [ {
        "use": "temp",
        "system": "urn:oid:2.16.840.1.113883.4.4",
        "value": "21-3259825"
      } ],
      "active": true,
      "type": [ {
        "coding": [ {
          "system": "http://terminology.hl7.org/CodeSystem/organization-type",
          "code": "pay",
          "display": "Payer"
        } ]
      } ],
      "name": "Blue Cross Blue Shield of Texas",
      "telecom": [ {
        "system": "phone",
        "value": "(+1) 972-766-6900"
      } ],
      "address": [ {
        "use": "billing",
        "type": "postal",
        "line": [ "P.O. Box 660044" ],
        "city": "Dallas",
        "state": "TX",
        "postalCode": "75266-0044",
        "country": "USA"
      } ]
    },
    "request": {
      "method": "PUT",
      "url": "Organization/7b0ad72b-04ca-4574-8d05-bbe7f559a845"
    }
  }, {
    "fullUrl": "https://madie.cms.gov/Practitioner/a998d777-4aad-4c58-86f4-152ff893eb63",
    "resource": {
      "resourceType": "Practitioner",
      "id": "a998d777-4aad-4c58-86f4-152ff893eb63",
      "identifier": [ {
        "system": "http://hl7.org/fhir/sid/us-npi",
        "value": "123456"
      } ],
      "name": [ {
        "family": "Evil",
        "prefix": [ "Dr" ]
      } ]
    },
    "request": {
      "method": "PUT",
      "url": "Practitioner/a998d777-4aad-4c58-86f4-152ff893eb63"
    }
  }, {
    "fullUrl": "https://madie.cms.gov/MeasureReport/dfea3427-8c0e-4767-9143-2806d54fb544",
    "resource": {
      "resourceType": "MeasureReport",
      "id": "dfea3427-8c0e-4767-9143-2806d54fb544",
      "meta": {
        "profile": [ "http://hl7.org/fhir/us/cqfmeasures/StructureDefinition/test-case-cqfm" ]
      },
      "contained": [ {
        "resourceType": "Parameters",
        "id": "d8371b84-208e-45b9-8491-8b9fe7eadfc7-parameters",
        "parameter": [ {
          "name": "subject",
          "valueString": "6c96fedc-959a-415c-9cff-9c3ceb302c4d"
        } ]
      } ],
      "extension": [ {
        "url": "http://hl7.org/fhir/StructureDefinition/cqf-inputParameters",
        "valueReference": {
          "reference": "#d8371b84-208e-45b9-8491-8b9fe7eadfc7-parameters"
        }
      }, {
        "url": "http://hl7.org/fhir/us/cqfmeasures/StructureDefinition/cqfm-testCaseDescription",
        "valueMarkdown": "EncDx= shock.  A SNOMED code is entered and therefore case will fail as SNOMED codes are not in the value set for SMM Diagnoses.\n"
      } ],
      "modifierExtension": [ {
        "url": "http://hl7.org/fhir/us/cqfmeasures/StructureDefinition/cqfm-isTestCase",
        "valueBoolean": true
      } ],
      "status": "complete",
      "type": "individual",
      "measure": "https://madie.cms.gov/Measure/CMS1028FHIRPCSevereOBComps",
      "period": {
        "start": "2026-01-01",
        "end": "2026-12-31"
      },
      "group": [ {
        "id": "Group_1",
        "population": [ {
          "id": "InitialPopulation_1",
          "code": {
            "coding": [ {
              "system": "http://terminology.hl7.org/CodeSystem/measure-population",
              "code": "initial-population",
              "display": "Initial Population"
            } ]
          },
          "count": 1
        }, {
          "id": "Denominator_1",
          "code": {
            "coding": [ {
              "system": "http://terminology.hl7.org/CodeSystem/measure-population",
              "code": "denominator",
              "display": "Denominator"
            } ]
          },
          "count": 1
        }, {
          "id": "Numerator_1",
          "code": {
            "coding": [ {
              "system": "http://terminology.hl7.org/CodeSystem/measure-population",
              "code": "numerator",
              "display": "Numerator"
            } ]
          },
          "count": 0
        }, {
          "id": "NumeratorExclusion_1",
          "code": {
            "coding": [ {
              "system": "http://terminology.hl7.org/CodeSystem/measure-population",
              "code": "numerator-exclusion",
              "display": "Numerator Exclusion"
            } ]
          },
          "count": 0
        } ],
        "measureScore": {
          "value": 0.0
        }
      }, {
        "id": "Group_2",
        "population": [ {
          "id": "InitialPopulation_2",
          "code": {
            "coding": [ {
              "system": "http://terminology.hl7.org/CodeSystem/measure-population",
              "code": "initial-population",
              "display": "Initial Population"
            } ]
          },
          "count": 1
        }, {
          "id": "Denominator_2",
          "code": {
            "coding": [ {
              "system": "http://terminology.hl7.org/CodeSystem/measure-population",
              "code": "denominator",
              "display": "Denominator"
            } ]
          },
          "count": 1
        }, {
          "id": "Numerator_2",
          "code": {
            "coding": [ {
              "system": "http://terminology.hl7.org/CodeSystem/measure-population",
              "code": "numerator",
              "display": "Numerator"
            } ]
          },
          "count": 0
        }, {
          "id": "NumeratorExclusion_2",
          "code": {
            "coding": [ {
              "system": "http://terminology.hl7.org/CodeSystem/measure-population",
              "code": "numerator-exclusion",
              "display": "Numerator Exclusion"
            } ]
          },
          "count": 0
        } ],
        "measureScore": {
          "value": 0.0
        }
      } ],
      "evaluatedResource": [ {
        "reference": "Patient/6c96fedc-959a-415c-9cff-9c3ceb302c4d"
      }, {
        "reference": "Observation/d2217846-50e1-4925-9a32-05ffad58fdca"
      }, {
        "reference": "Observation/d5b993fc-69bd-4468-85e9-55a33498ae76"
      }, {
        "reference": "Encounter/2f460d06-75d1-442c-82a3-f0cf45f201a2"
      }, {
        "reference": "Procedure/7cd9e58f-6149-482a-9a91-364b7f2c0f77"
      }, {
        "reference": "Condition/72a1cf94-8052-4e4e-bc52-5bba4c172b43"
      }, {
        "reference": "Coverage/2888f38d-4e59-42f3-a1f1-813f09c6dd1c"
      }, {
        "reference": "Organization/7b0ad72b-04ca-4574-8d05-bbe7f559a845"
      }, {
        "reference": "Practitioner/a998d777-4aad-4c58-86f4-152ff893eb63"
      } ]
    },
    "request": {
      "method": "PUT",
      "url": "MeasureReport/dfea3427-8c0e-4767-9143-2806d54fb544"
    }
  } ]
}