{
  "resourceType": "Bundle",
  "id": "62f65a0f5efef5272905e705",
  "type": "transaction",
  "entry": [ {
    "fullUrl": "https://madie.cms.gov/Patient/6aaff09e-4a7b-4efa-93f8-13033e95c230",
    "resource": {
      "resourceType": "Patient",
      "id": "6aaff09e-4a7b-4efa-93f8-13033e95c230",
      "meta": {
        "profile": [ "http://hl7.org/fhir/us/qicore/StructureDefinition/qicore-patient" ]
      },
      "extension": [ {
        "url": "http://hl7.org/fhir/us/core/StructureDefinition/us-core-race",
        "extension": [ {
          "url": "ombCategory",
          "valueCoding": {
            "system": "urn:oid:2.16.840.1.113883.6.238",
            "code": "1002-5",
            "display": "American Indian or Alaska Native",
            "userSelected": true
          }
        }, {
          "url": "text",
          "valueString": "American Indian or Alaska Native"
        } ]
      }, {
        "url": "http://hl7.org/fhir/us/core/StructureDefinition/us-core-ethnicity",
        "extension": [ {
          "url": "ombCategory",
          "valueCoding": {
            "system": "urn:oid:2.16.840.1.113883.6.238",
            "code": "2135-2",
            "display": "Hispanic or Latino",
            "userSelected": true
          }
        }, {
          "url": "text",
          "valueString": "Hispanic or Latino"
        } ]
      } ],
      "identifier": [ {
        "type": {
          "coding": [ {
            "system": "http://terminology.hl7.org/CodeSystem/v2-0203",
            "code": "MR"
          } ]
        },
        "system": "https://bonnie-fhir.healthit.gov/",
        "value": "62f65a0f5efef5272905e705"
      } ],
      "name": [ {
        "family": "DENEXCEPPass",
        "given": [ "AdultPatientReasonForNoDepressionScreenAge18" ]
      } ],
      "gender": "male",
      "birthDate": "2008-12-31"
    },
    "request": {
      "method": "PUT",
      "url": "Patient/6aaff09e-4a7b-4efa-93f8-13033e95c230"
    }
  }, {
    "fullUrl": "https://madie.cms.gov/Encounter/1dbef641-95e2-4ed5-a3b8-c4f2ed5c5f4c",
    "resource": {
      "resourceType": "Encounter",
      "id": "1dbef641-95e2-4ed5-a3b8-c4f2ed5c5f4c",
      "meta": {
        "profile": [ "http://hl7.org/fhir/us/qicore/StructureDefinition/qicore-encounter" ]
      },
      "status": "finished",
      "class": {
        "system": "http://terminology.hl7.org/CodeSystem/v3-ActCode",
        "code": "AMB",
        "display": "ambulatory"
      },
      "type": [ {
        "coding": [ {
          "system": "http://snomed.info/sct",
          "code": "10197000",
          "display": "Psychiatric interview and evaluation (procedure)",
          "userSelected": true
        } ]
      } ],
      "subject": {
        "reference": "Patient/6aaff09e-4a7b-4efa-93f8-13033e95c230"
      },
      "period": {
        "start": "2026-06-28T08:00:00.000+00:00",
        "end": "2026-06-28T08:15:00.000+00:00"
      }
    },
    "request": {
      "method": "PUT",
      "url": "Encounter/1dbef641-95e2-4ed5-a3b8-c4f2ed5c5f4c"
    }
  }, {
    "fullUrl": "https://madie.cms.gov/Observation/9f84de00-4f99-4228-9230-87fe79f77256",
    "resource": {
      "resourceType": "Observation",
      "id": "9f84de00-4f99-4228-9230-87fe79f77256",
      "meta": {
        "profile": [ "http://hl7.org/fhir/us/qicore/StructureDefinition/qicore-observationcancelled" ]
      },
      "extension": [ {
        "url": "http://hl7.org/fhir/us/qicore/StructureDefinition/qicore-notDoneReason",
        "valueCodeableConcept": {
          "coding": [ {
            "system": "http://snomed.info/sct",
            "code": "720834000",
            "display": "Depression screening declined (situation)",
            "userSelected": true
          } ]
        }
      } ],
      "status": "cancelled",
      "category": [ {
        "coding": [ {
          "system": "http://terminology.hl7.org/CodeSystem/observation-category",
          "code": "procedure",
          "display": "Procedure"
        } ]
      } ],
      "code": {
        "coding": [ {
          "system": "http://loinc.org",
          "code": "73832-8",
          "display": "Adult depression screening assessment",
          "userSelected": true
        } ]
      },
      "subject": {
        "reference": "Patient/6aaff09e-4a7b-4efa-93f8-13033e95c230"
      },
      "issued": "2026-06-28T08:00:00.000+00:00",
      "valueBoolean": true
    },
    "request": {
      "method": "PUT",
      "url": "Observation/9f84de00-4f99-4228-9230-87fe79f77256"
    }
  }, {
    "fullUrl": "https://madie.cms.gov/Coverage/bec99518-383f-46d1-9b1b-e4867b1d4cf7",
    "resource": {
      "resourceType": "Coverage",
      "id": "bec99518-383f-46d1-9b1b-e4867b1d4cf7",
      "meta": {
        "profile": [ "http://hl7.org/fhir/us/qicore/StructureDefinition/qicore-coverage" ]
      },
      "status": "active",
      "subscriberId": "123456789",
      "beneficiary": {
        "reference": "Patient/6aaff09e-4a7b-4efa-93f8-13033e95c230"
      },
      "relationship": {
        "coding": [ {
          "system": "http://terminology.hl7.org/CodeSystem/subscriber-relationship",
          "code": "self",
          "display": "Self",
          "userSelected": true
        } ]
      },
      "payor": [ {
        "reference": "Organization/19e1c59c-8d90-4189-98bb-bde4c7a3edce"
      } ]
    },
    "request": {
      "method": "PUT",
      "url": "Coverage/bec99518-383f-46d1-9b1b-e4867b1d4cf7"
    }
  }, {
    "fullUrl": "https://madie.cms.gov/Organization/19e1c59c-8d90-4189-98bb-bde4c7a3edce",
    "resource": {
      "resourceType": "Organization",
      "id": "19e1c59c-8d90-4189-98bb-bde4c7a3edce",
      "meta": {
        "profile": [ "http://hl7.org/fhir/us/qicore/StructureDefinition/qicore-organization" ]
      },
      "identifier": [ {
        "use": "temp",
        "system": "urn:oid:2.16.840.1.113883.4.4",
        "value": "21-3259825"
      } ],
      "active": true,
      "type": [ {
        "coding": [ {
          "system": "http://terminology.hl7.org/CodeSystem/organization-type",
          "code": "pay",
          "display": "Payer"
        } ]
      } ],
      "name": "Blue Cross Blue Shield of Texas",
      "telecom": [ {
        "system": "phone",
        "value": "(+1) 972-766-6900"
      } ],
      "address": [ {
        "use": "billing",
        "type": "postal",
        "line": [ "P.O. Box 660044" ],
        "city": "Dallas",
        "state": "TX",
        "postalCode": "75266-0044",
        "country": "USA"
      } ]
    },
    "request": {
      "method": "PUT",
      "url": "Organization/19e1c59c-8d90-4189-98bb-bde4c7a3edce"
    }
  }, {
    "fullUrl": "https://madie.cms.gov/Practitioner/f086eeba-7b89-48ff-a32a-ccc5057d3500",
    "resource": {
      "resourceType": "Practitioner",
      "id": "f086eeba-7b89-48ff-a32a-ccc5057d3500",
      "meta": {
        "profile": [ "http://hl7.org/fhir/us/qicore/StructureDefinition/qicore-practitioner" ]
      },
      "identifier": [ {
        "system": "http://hl7.org/fhir/sid/us-npi",
        "value": "1234567893"
      } ],
      "name": [ {
        "family": "Evil",
        "prefix": [ "Dr" ]
      } ]
    },
    "request": {
      "method": "PUT",
      "url": "Practitioner/f086eeba-7b89-48ff-a32a-ccc5057d3500"
    }
  }, {
    "fullUrl": "https://madie.cms.gov/MeasureReport/0e14776f-1748-4a6a-8a0a-2b24b1675c28",
    "resource": {
      "resourceType": "MeasureReport",
      "id": "0e14776f-1748-4a6a-8a0a-2b24b1675c28",
      "meta": {
        "profile": [ "http://hl7.org/fhir/us/cqfmeasures/StructureDefinition/test-case-cqfm" ]
      },
      "contained": [ {
        "resourceType": "Parameters",
        "id": "ed248e99-9797-45e8-8ab0-c0b52666f7b1-parameters",
        "parameter": [ {
          "name": "subject",
          "valueString": "6aaff09e-4a7b-4efa-93f8-13033e95c230"
        } ]
      } ],
      "extension": [ {
        "url": "http://hl7.org/fhir/StructureDefinition/cqf-inputParameters",
        "valueReference": {
          "reference": "#ed248e99-9797-45e8-8ab0-c0b52666f7b1-parameters"
        }
      }, {
        "url": "http://hl7.org/fhir/us/cqfmeasures/StructureDefinition/cqfm-testCaseDescription",
        "valueMarkdown": "18 yo male with patient reason for not screening for depression - 18 on last day MP."
      } ],
      "modifierExtension": [ {
        "url": "http://hl7.org/fhir/us/cqfmeasures/StructureDefinition/cqfm-isTestCase",
        "valueBoolean": true
      } ],
      "status": "complete",
      "type": "individual",
      "measure": "https://madie.cms.gov/Measure/CMS2FHIRPCSDepressionScreenAndFollowUp",
      "period": {
        "start": "2026-01-01",
        "end": "2026-12-31"
      },
      "group": [ {
        "id": "Group_1",
        "population": [ {
          "id": "InitialPopulation_1",
          "code": {
            "coding": [ {
              "system": "http://terminology.hl7.org/CodeSystem/measure-population",
              "code": "initial-population",
              "display": "Initial Population"
            } ]
          },
          "count": 1
        }, {
          "id": "Denominator_1",
          "code": {
            "coding": [ {
              "system": "http://terminology.hl7.org/CodeSystem/measure-population",
              "code": "denominator",
              "display": "Denominator"
            } ]
          },
          "count": 1
        }, {
          "id": "DenominatorExclusion_1",
          "code": {
            "coding": [ {
              "system": "http://terminology.hl7.org/CodeSystem/measure-population",
              "code": "denominator-exclusion",
              "display": "Denominator Exclusion"
            } ]
          },
          "count": 0
        }, {
          "id": "Numerator_1",
          "code": {
            "coding": [ {
              "system": "http://terminology.hl7.org/CodeSystem/measure-population",
              "code": "numerator",
              "display": "Numerator"
            } ]
          },
          "count": 0
        }, {
          "id": "DenominatorException_1",
          "code": {
            "coding": [ {
              "system": "http://terminology.hl7.org/CodeSystem/measure-population",
              "code": "denominator-exception",
              "display": "Denominator Exception"
            } ]
          },
          "count": 1
        } ],
        "measureScore": {
          "value": 1.0
        }
      } ],
      "evaluatedResource": [ {
        "reference": "Patient/6aaff09e-4a7b-4efa-93f8-13033e95c230"
      }, {
        "reference": "Encounter/1dbef641-95e2-4ed5-a3b8-c4f2ed5c5f4c"
      }, {
        "reference": "Observation/9f84de00-4f99-4228-9230-87fe79f77256"
      }, {
        "reference": "Coverage/bec99518-383f-46d1-9b1b-e4867b1d4cf7"
      }, {
        "reference": "Organization/19e1c59c-8d90-4189-98bb-bde4c7a3edce"
      }, {
        "reference": "Practitioner/f086eeba-7b89-48ff-a32a-ccc5057d3500"
      } ]
    },
    "request": {
      "method": "PUT",
      "url": "MeasureReport/0e14776f-1748-4a6a-8a0a-2b24b1675c28"
    }
  } ]
}