{
  "resourceType": "Bundle",
  "id": "657cbdc9b4f1f0343662347a",
  "type": "transaction",
  "entry": [ {
    "fullUrl": "https://madie.cms.gov/Patient/1e403fe4-88cd-4dbf-8942-e262ae91b2c4",
    "resource": {
      "resourceType": "Patient",
      "id": "1e403fe4-88cd-4dbf-8942-e262ae91b2c4",
      "meta": {
        "profile": [ "http://hl7.org/fhir/us/qicore/StructureDefinition/qicore-patient" ]
      },
      "extension": [ {
        "url": "http://hl7.org/fhir/us/core/StructureDefinition/us-core-race",
        "extension": [ {
          "url": "ombCategory",
          "valueCoding": {
            "system": "urn:oid:2.16.840.1.113883.6.238",
            "code": "2106-3",
            "display": "White",
            "userSelected": true
          }
        }, {
          "url": "text",
          "valueString": "White"
        } ]
      }, {
        "url": "http://hl7.org/fhir/us/core/StructureDefinition/us-core-ethnicity",
        "extension": [ {
          "url": "ombCategory",
          "valueCoding": {
            "system": "urn:oid:2.16.840.1.113883.6.238",
            "code": "2186-5",
            "display": "Not Hispanic or Latino",
            "userSelected": true
          }
        }, {
          "url": "text",
          "valueString": "Not Hispanic or Latino"
        } ]
      } ],
      "identifier": [ {
        "type": {
          "coding": [ {
            "system": "http://terminology.hl7.org/CodeSystem/v2-0203",
            "code": "MR"
          } ]
        },
        "system": "https://bonnie-fhir.healthit.gov/",
        "value": "657cbdc9b4f1f0343662347a"
      } ],
      "name": [ {
        "family": "IPOPPass",
        "given": [ "InptEncStatusInProgress" ]
      } ],
      "gender": "female",
      "birthDate": "2008-01-01"
    },
    "request": {
      "method": "PUT",
      "url": "Patient/1e403fe4-88cd-4dbf-8942-e262ae91b2c4"
    }
  }, {
    "fullUrl": "https://madie.cms.gov/Encounter/36a137fc-05b1-4d58-a326-3ce2d3bdea55",
    "resource": {
      "resourceType": "Encounter",
      "id": "36a137fc-05b1-4d58-a326-3ce2d3bdea55",
      "meta": {
        "profile": [ "http://hl7.org/fhir/us/qicore/StructureDefinition/qicore-encounter" ]
      },
      "status": "in-progress",
      "class": {
        "system": "http://terminology.hl7.org/CodeSystem/v3-ActCode",
        "code": "ACUTE",
        "display": "inpatient acute"
      },
      "type": [ {
        "coding": [ {
          "system": "http://snomed.info/sct",
          "version": "2024",
          "code": "32485007",
          "display": "Hospital admission (procedure)",
          "userSelected": true
        } ]
      } ],
      "subject": {
        "reference": "Patient/1e403fe4-88cd-4dbf-8942-e262ae91b2c4"
      },
      "period": {
        "start": "2026-01-01T08:00:00Z",
        "end": "2026-01-02T09:15:00Z"
      }
    },
    "request": {
      "method": "PUT",
      "url": "Encounter/36a137fc-05b1-4d58-a326-3ce2d3bdea55"
    }
  }, {
    "fullUrl": "https://madie.cms.gov/Location/ced328ca-af72-440e-9863-cb3d58c44262",
    "resource": {
      "resourceType": "Location",
      "id": "ced328ca-af72-440e-9863-cb3d58c44262",
      "meta": {
        "profile": [ "http://hl7.org/fhir/us/qicore/StructureDefinition/qicore-location" ]
      },
      "identifier": [ {
        "use": "usual",
        "system": "http://exampleoflocation.com",
        "value": "B1-S.F2"
      } ],
      "name": "Medical Surgical East, first floor",
      "type": [ {
        "coding": [ {
          "system": "https://www.cdc.gov/nhsn/cdaportal/terminology/codesystem/hsloc.html",
          "code": "1028-0",
          "display": "Medical Cardiac Critical Care",
          "userSelected": true
        } ]
      } ]
    },
    "request": {
      "method": "PUT",
      "url": "Location/ced328ca-af72-440e-9863-cb3d58c44262"
    }
  }, {
    "fullUrl": "https://madie.cms.gov/MedicationRequest/b5244876-9842-4c8a-a493-7ecbbf7bd64f",
    "resource": {
      "resourceType": "MedicationRequest",
      "id": "b5244876-9842-4c8a-a493-7ecbbf7bd64f",
      "meta": {
        "profile": [ "http://hl7.org/fhir/us/qicore/StructureDefinition/qicore-medicationrequest" ]
      },
      "status": "completed",
      "intent": "order",
      "medicationCodeableConcept": {
        "coding": [ {
          "system": "http://www.nlm.nih.gov/research/umls/rxnorm",
          "version": "06052023",
          "code": "1007184"
        } ]
      },
      "subject": {
        "reference": "Patient/1e403fe4-88cd-4dbf-8942-e262ae91b2c4"
      },
      "authoredOn": "2026-01-01T08:15:00Z",
      "requester": {
        "reference": "Practitioner/33d87640-6b2a-40b0-ab11-542478a88d5a"
      },
      "dosageInstruction": [ {
        "timing": {
          "repeat": {
            "boundsPeriod": {
              "start": "2025-01-01T08:15:00Z"
            }
          }
        }
      } ]
    },
    "request": {
      "method": "PUT",
      "url": "MedicationRequest/b5244876-9842-4c8a-a493-7ecbbf7bd64f"
    }
  }, {
    "fullUrl": "https://madie.cms.gov/Coverage/164dbf61-5db4-4d5a-a87e-e3a4f760963b",
    "resource": {
      "resourceType": "Coverage",
      "id": "164dbf61-5db4-4d5a-a87e-e3a4f760963b",
      "meta": {
        "profile": [ "http://hl7.org/fhir/us/qicore/StructureDefinition/qicore-coverage" ]
      },
      "identifier": [ {
        "system": "http://benefitsinc.com/certificate",
        "value": "12345"
      } ],
      "status": "active",
      "type": {
        "coding": [ {
          "system": "https://nahdo.org/sopt",
          "version": "1.0.1",
          "code": "1",
          "display": "MEDICARE",
          "userSelected": true
        } ]
      },
      "subscriberId": "AB9876",
      "beneficiary": {
        "reference": "Patient/1e403fe4-88cd-4dbf-8942-e262ae91b2c4"
      },
      "relationship": {
        "coding": [ {
          "system": "http://terminology.hl7.org/CodeSystem/subscriber-relationship",
          "code": "self"
        } ]
      },
      "payor": [ {
        "reference": "Organization/d4dfb481-a8ff-453a-9165-bb1225d5f3ea"
      } ]
    },
    "request": {
      "method": "PUT",
      "url": "Coverage/164dbf61-5db4-4d5a-a87e-e3a4f760963b"
    }
  }, {
    "fullUrl": "https://madie.cms.gov/Organization/d4dfb481-a8ff-453a-9165-bb1225d5f3ea",
    "resource": {
      "resourceType": "Organization",
      "id": "d4dfb481-a8ff-453a-9165-bb1225d5f3ea",
      "meta": {
        "profile": [ "http://hl7.org/fhir/us/qicore/StructureDefinition/qicore-organization" ]
      },
      "identifier": [ {
        "use": "temp",
        "system": "urn:oid:2.16.840.1.113883.4.4",
        "value": "21-3259825"
      } ],
      "active": true,
      "type": [ {
        "coding": [ {
          "system": "http://terminology.hl7.org/CodeSystem/organization-type",
          "code": "pay",
          "display": "Payer"
        } ]
      } ],
      "name": "Blue Cross Blue Shield of Texas",
      "telecom": [ {
        "system": "phone",
        "value": "(+1) 972-766-6900"
      } ],
      "address": [ {
        "use": "billing",
        "type": "postal",
        "line": [ "P.O. Box 660044" ],
        "city": "Dallas",
        "state": "TX",
        "postalCode": "75266-0044",
        "country": "USA"
      } ]
    },
    "request": {
      "method": "PUT",
      "url": "Organization/d4dfb481-a8ff-453a-9165-bb1225d5f3ea"
    }
  }, {
    "fullUrl": "https://madie.cms.gov/Practitioner/f0b93df4-0ede-4832-8777-d263b4d64141",
    "resource": {
      "resourceType": "Practitioner",
      "id": "f0b93df4-0ede-4832-8777-d263b4d64141",
      "meta": {
        "profile": [ "http://hl7.org/fhir/us/qicore/StructureDefinition/qicore-practitioner" ]
      },
      "identifier": [ {
        "system": "http://hl7.org/fhir/sid/us-npi",
        "value": "0723660813"
      } ],
      "name": [ {
        "family": "Evil",
        "prefix": [ "Dr" ]
      } ]
    },
    "request": {
      "method": "PUT",
      "url": "Practitioner/f0b93df4-0ede-4832-8777-d263b4d64141"
    }
  }, {
    "fullUrl": "https://madie.cms.gov/MeasureReport/6c6065db-2f13-4e38-a626-4692ee7321b4",
    "resource": {
      "resourceType": "MeasureReport",
      "id": "6c6065db-2f13-4e38-a626-4692ee7321b4",
      "meta": {
        "profile": [ "http://hl7.org/fhir/us/cqfmeasures/StructureDefinition/test-case-cqfm" ]
      },
      "contained": [ {
        "resourceType": "Parameters",
        "id": "813ec846-0f6b-465a-9df8-570cceb8f9d5-parameters",
        "parameter": [ {
          "name": "subject",
          "valueString": "1e403fe4-88cd-4dbf-8942-e262ae91b2c4"
        } ]
      } ],
      "extension": [ {
        "url": "http://hl7.org/fhir/StructureDefinition/cqf-inputParameters",
        "valueReference": {
          "reference": "#813ec846-0f6b-465a-9df8-570cceb8f9d5-parameters"
        }
      }, {
        "url": "http://hl7.org/fhir/us/cqfmeasures/StructureDefinition/cqfm-testCaseDescription",
        "valueMarkdown": "Inpatient encounter with diabetic medication - status in progress"
      } ],
      "modifierExtension": [ {
        "url": "http://hl7.org/fhir/us/cqfmeasures/StructureDefinition/cqfm-isTestCase",
        "valueBoolean": true
      } ],
      "status": "complete",
      "type": "individual",
      "measure": "https://madie.cms.gov/Measure/NHSNGlycemicControlHypoglycemiaInitialPopulation",
      "period": {
        "start": "2026-01-01",
        "end": "2026-12-31"
      },
      "group": [ {
        "id": "Group_1",
        "population": [ {
          "id": "InitialPopulation_1",
          "code": {
            "coding": [ {
              "system": "http://terminology.hl7.org/CodeSystem/measure-population",
              "code": "initial-population",
              "display": "Initial Population"
            } ]
          },
          "count": 1
        } ],
        "measureScore": {
          "value": 0.0
        }
      } ],
      "evaluatedResource": [ {
        "reference": "Patient/1e403fe4-88cd-4dbf-8942-e262ae91b2c4"
      }, {
        "reference": "Encounter/36a137fc-05b1-4d58-a326-3ce2d3bdea55"
      }, {
        "reference": "Location/ced328ca-af72-440e-9863-cb3d58c44262"
      }, {
        "reference": "MedicationRequest/b5244876-9842-4c8a-a493-7ecbbf7bd64f"
      }, {
        "reference": "Coverage/164dbf61-5db4-4d5a-a87e-e3a4f760963b"
      }, {
        "reference": "Organization/d4dfb481-a8ff-453a-9165-bb1225d5f3ea"
      }, {
        "reference": "Practitioner/f0b93df4-0ede-4832-8777-d263b4d64141"
      } ]
    },
    "request": {
      "method": "PUT",
      "url": "MeasureReport/6c6065db-2f13-4e38-a626-4692ee7321b4"
    }
  } ]
}