{
  "resourceType": "Bundle",
  "id": "612e6f6f02c62a011f2f1da2",
  "type": "transaction",
  "entry": [ {
    "fullUrl": "https://madie.cms.gov/Patient/002fcec4-89ed-42be-a7b7-41fa0acddf8c",
    "resource": {
      "resourceType": "Patient",
      "id": "002fcec4-89ed-42be-a7b7-41fa0acddf8c",
      "meta": {
        "profile": [ "http://hl7.org/fhir/us/qicore/StructureDefinition/qicore-patient" ]
      },
      "text": {
        "status": "generated",
        "div": "<div xmlns=\"http://www.w3.org/1999/xhtml\"><div class=\"hapiHeaderText\">TestMultipleOccur1inExcl1inNum <b>NUMERPASS </b></div><table class=\"hapiPropertyTable\"><tbody><tr><td>Identifier</td><td>1d32025f189fa435c8f5577d60ac33ec63a4414947e2aa89a0a7970a5a451ef3</td></tr><tr><td>Date of birth</td><td><span>03 March 1974</span></td></tr></tbody></table></div>"
      },
      "extension": [ {
        "url": "http://hl7.org/fhir/us/core/StructureDefinition/us-core-race",
        "extension": [ {
          "url": "ombCategory",
          "valueCoding": {
            "system": "urn:oid:2.16.840.1.113883.6.238",
            "code": "1002-5",
            "display": "American Indian or Alaska Native",
            "userSelected": true
          }
        }, {
          "url": "text",
          "valueString": "American Indian or Alaska Native"
        } ]
      }, {
        "url": "http://hl7.org/fhir/us/core/StructureDefinition/us-core-ethnicity",
        "extension": [ {
          "url": "ombCategory",
          "valueCoding": {
            "system": "urn:oid:2.16.840.1.113883.6.238",
            "code": "2135-2",
            "display": "Hispanic or Latino",
            "userSelected": true
          }
        }, {
          "url": "text",
          "valueString": "Hispanic or Latino"
        } ]
      } ],
      "identifier": [ {
        "type": {
          "coding": [ {
            "system": "http://terminology.hl7.org/CodeSystem/v2-0203",
            "code": "MR"
          } ]
        },
        "system": "https://bonnie-fhir.healthit.gov/",
        "value": "612e6f6f02c62a011f2f1da2"
      } ],
      "active": true,
      "name": [ {
        "use": "usual",
        "family": "NUMERPass",
        "given": [ "TestMultipleOccur1inExcl1inNum" ]
      } ],
      "gender": "female",
      "birthDate": "1975-03-03"
    },
    "request": {
      "method": "PUT",
      "url": "Patient/002fcec4-89ed-42be-a7b7-41fa0acddf8c"
    }
  }, {
    "fullUrl": "https://madie.cms.gov/Encounter/791c022b-4381-4e3d-8071-21f5dfc07115",
    "resource": {
      "resourceType": "Encounter",
      "id": "791c022b-4381-4e3d-8071-21f5dfc07115",
      "meta": {
        "profile": [ "http://hl7.org/fhir/us/qicore/StructureDefinition/qicore-encounter" ]
      },
      "status": "finished",
      "class": {
        "system": "http://terminology.hl7.org/CodeSystem/v3-ActCode",
        "code": "IMP",
        "display": "inpatient encounter"
      },
      "type": [ {
        "coding": [ {
          "system": "http://snomed.info/sct",
          "code": "183452005"
        } ]
      } ],
      "subject": {
        "reference": "Patient/002fcec4-89ed-42be-a7b7-41fa0acddf8c"
      },
      "period": {
        "start": "2026-03-22T08:00:00.000+00:00",
        "end": "2026-03-26T08:15:00.000+00:00"
      },
      "length": {
        "value": 4,
        "unit": "days"
      },
      "location": [ {
        "location": {
          "reference": "Location/9eb82076-298d-4c28-bf50-b8673f263688"
        },
        "period": {
          "start": "2026-03-23T09:00:00.000+00:00",
          "end": "2026-03-24T08:15:00.000+00:00"
        }
      } ]
    },
    "request": {
      "method": "PUT",
      "url": "Encounter/791c022b-4381-4e3d-8071-21f5dfc07115"
    }
  }, {
    "fullUrl": "https://madie.cms.gov/Encounter/ed4f0822-3508-46cc-b6bf-00d5290d567a",
    "resource": {
      "resourceType": "Encounter",
      "id": "ed4f0822-3508-46cc-b6bf-00d5290d567a",
      "meta": {
        "profile": [ "http://hl7.org/fhir/us/qicore/StructureDefinition/qicore-encounter" ]
      },
      "status": "finished",
      "class": {
        "system": "http://terminology.hl7.org/CodeSystem/v3-ActCode",
        "code": "EMER",
        "display": "emergency"
      },
      "type": [ {
        "coding": [ {
          "system": "http://snomed.info/sct",
          "code": "4525004"
        } ]
      } ],
      "subject": {
        "reference": "Patient/002fcec4-89ed-42be-a7b7-41fa0acddf8c"
      },
      "period": {
        "start": "2026-12-06T02:00:00.000+00:00",
        "end": "2026-12-06T08:15:00.000+00:00"
      },
      "length": {
        "value": 0,
        "unit": "days"
      }
    },
    "request": {
      "method": "PUT",
      "url": "Encounter/ed4f0822-3508-46cc-b6bf-00d5290d567a"
    }
  }, {
    "fullUrl": "https://madie.cms.gov/Encounter/3c124036-83b6-4042-8ccf-86e2f57f39c3",
    "resource": {
      "resourceType": "Encounter",
      "id": "3c124036-83b6-4042-8ccf-86e2f57f39c3",
      "meta": {
        "profile": [ "http://hl7.org/fhir/us/qicore/StructureDefinition/qicore-encounter" ]
      },
      "status": "finished",
      "class": {
        "system": "http://terminology.hl7.org/CodeSystem/v3-ActCode",
        "code": "IMP",
        "display": "inpatient encounter"
      },
      "type": [ {
        "coding": [ {
          "system": "http://snomed.info/sct",
          "code": "8715000"
        } ]
      } ],
      "subject": {
        "reference": "Patient/002fcec4-89ed-42be-a7b7-41fa0acddf8c"
      },
      "period": {
        "start": "2026-12-06T08:45:00.000+00:00",
        "end": "2026-12-30T08:15:00.000+00:00"
      },
      "length": {
        "value": 24,
        "unit": "days"
      },
      "location": [ {
        "location": {
          "reference": "Location/512186cb-aaf6-4953-b41f-b27cb2331ba8"
        },
        "period": {
          "start": "2026-12-06T09:00:00.000+00:00",
          "end": "2026-12-12T08:15:00.000+00:00"
        }
      } ]
    },
    "request": {
      "method": "PUT",
      "url": "Encounter/3c124036-83b6-4042-8ccf-86e2f57f39c3"
    }
  }, {
    "fullUrl": "https://madie.cms.gov/ServiceRequest/ef32d909-e000-417c-838e-72ed14b10e6b",
    "resource": {
      "resourceType": "ServiceRequest",
      "id": "ef32d909-e000-417c-838e-72ed14b10e6b",
      "meta": {
        "profile": [ "http://hl7.org/fhir/us/qicore/StructureDefinition/qicore-servicerequest" ]
      },
      "status": "active",
      "intent": "order",
      "code": {
        "coding": [ {
          "system": "http://snomed.info/sct",
          "code": "133918004"
        } ]
      },
      "subject": {
        "reference": "Patient/002fcec4-89ed-42be-a7b7-41fa0acddf8c"
      },
      "authoredOn": "2026-03-22T08:00:00.000+00:00"
    },
    "request": {
      "method": "PUT",
      "url": "ServiceRequest/ef32d909-e000-417c-838e-72ed14b10e6b"
    }
  }, {
    "fullUrl": "https://madie.cms.gov/Coverage/3ef9cb6f-cda4-42c3-9130-02ef12d80466",
    "resource": {
      "resourceType": "Coverage",
      "id": "3ef9cb6f-cda4-42c3-9130-02ef12d80466",
      "status": "active",
      "beneficiary": {
        "reference": "Patient/002fcec4-89ed-42be-a7b7-41fa0acddf8c"
      },
      "period": {
        "start": "1975-03-03T08:00:00.000+00:00"
      },
      "payor": [ {
        "reference": "Organization/cc2c857b-1b2a-4053-9f03-4084913afa35"
      } ]
    },
    "request": {
      "method": "PUT",
      "url": "Coverage/3ef9cb6f-cda4-42c3-9130-02ef12d80466"
    }
  }, {
    "fullUrl": "https://madie.cms.gov/MedicationAdministration/2948a94f-1b14-42b8-8ec0-b0d0ef8f7e49",
    "resource": {
      "resourceType": "MedicationAdministration",
      "id": "2948a94f-1b14-42b8-8ec0-b0d0ef8f7e49",
      "meta": {
        "profile": [ "http://hl7.org/fhir/us/qicore/StructureDefinition/qicore-medicationadministration" ]
      },
      "status": "completed",
      "medicationCodeableConcept": {
        "coding": [ {
          "system": "http://www.nlm.nih.gov/research/umls/rxnorm",
          "code": "308351"
        } ]
      },
      "subject": {
        "reference": "Patient/002fcec4-89ed-42be-a7b7-41fa0acddf8c"
      },
      "effectivePeriod": {
        "start": "2026-12-06T06:30:00.000+00:00"
      }
    },
    "request": {
      "method": "PUT",
      "url": "MedicationAdministration/2948a94f-1b14-42b8-8ec0-b0d0ef8f7e49"
    }
  }, {
    "fullUrl": "https://madie.cms.gov/Location/9eb82076-298d-4c28-bf50-b8673f263688",
    "resource": {
      "resourceType": "Location",
      "id": "9eb82076-298d-4c28-bf50-b8673f263688",
      "meta": {
        "profile": [ "http://hl7.org/fhir/us/qicore/StructureDefinition/qicore-location" ]
      },
      "identifier": [ {
        "use": "usual",
        "system": "http://exampleoflocation.com",
        "value": "B1-S.F2"
      } ],
      "name": "Medical Surgical East, first floor",
      "type": [ {
        "coding": [ {
          "system": "https://www.cdc.gov/nhsn/cdaportal/terminology/codesystem/hsloc.html",
          "code": "1025-6",
          "display": "Trauma Critical Care",
          "userSelected": true
        } ]
      } ]
    },
    "request": {
      "method": "PUT",
      "url": "Location/9eb82076-298d-4c28-bf50-b8673f263688"
    }
  }, {
    "fullUrl": "https://madie.cms.gov/Location/512186cb-aaf6-4953-b41f-b27cb2331ba8",
    "resource": {
      "resourceType": "Location",
      "id": "512186cb-aaf6-4953-b41f-b27cb2331ba8",
      "meta": {
        "profile": [ "http://hl7.org/fhir/us/qicore/StructureDefinition/qicore-location" ]
      },
      "identifier": [ {
        "use": "usual",
        "system": "http://exampleoflocation.com",
        "value": "B1-S.F2"
      } ],
      "name": "Medical Surgical East, first floor",
      "type": [ {
        "coding": [ {
          "system": "https://www.cdc.gov/nhsn/cdaportal/terminology/codesystem/hsloc.html",
          "code": "1025-6",
          "display": "Trauma Critical Care",
          "userSelected": true
        } ]
      } ]
    },
    "request": {
      "method": "PUT",
      "url": "Location/512186cb-aaf6-4953-b41f-b27cb2331ba8"
    }
  }, {
    "fullUrl": "https://madie.cms.gov/Organization/cc2c857b-1b2a-4053-9f03-4084913afa35",
    "resource": {
      "resourceType": "Organization",
      "id": "cc2c857b-1b2a-4053-9f03-4084913afa35",
      "meta": {
        "profile": [ "http://hl7.org/fhir/us/qicore/StructureDefinition/qicore-organization" ]
      },
      "identifier": [ {
        "use": "temp",
        "system": "urn:oid:2.16.840.1.113883.4.4",
        "value": "21-3259825"
      } ],
      "active": true,
      "type": [ {
        "coding": [ {
          "system": "http://terminology.hl7.org/CodeSystem/organization-type",
          "code": "pay",
          "display": "Payer"
        } ]
      } ],
      "name": "Blue Cross Blue Shield of Texas",
      "telecom": [ {
        "system": "phone",
        "value": "(+1) 972-766-6900"
      } ],
      "address": [ {
        "use": "billing",
        "type": "postal",
        "line": [ "P.O. Box 660044" ],
        "city": "Dallas",
        "state": "TX",
        "postalCode": "75266-0044",
        "country": "USA"
      } ]
    },
    "request": {
      "method": "PUT",
      "url": "Organization/cc2c857b-1b2a-4053-9f03-4084913afa35"
    }
  }, {
    "fullUrl": "https://madie.cms.gov/Practitioner/5fbe62dc-6919-400a-a90c-8e0e03f74786",
    "resource": {
      "resourceType": "Practitioner",
      "id": "5fbe62dc-6919-400a-a90c-8e0e03f74786",
      "identifier": [ {
        "system": "http://hl7.org/fhir/sid/us-npi",
        "value": "123456"
      } ],
      "name": [ {
        "family": "Evil",
        "prefix": [ "Dr" ]
      } ]
    },
    "request": {
      "method": "PUT",
      "url": "Practitioner/5fbe62dc-6919-400a-a90c-8e0e03f74786"
    }
  }, {
    "fullUrl": "https://madie.cms.gov/MeasureReport/3a44444b-27cf-416c-9557-769a62ed43ea",
    "resource": {
      "resourceType": "MeasureReport",
      "id": "3a44444b-27cf-416c-9557-769a62ed43ea",
      "meta": {
        "profile": [ "http://hl7.org/fhir/us/cqfmeasures/StructureDefinition/test-case-cqfm" ]
      },
      "contained": [ {
        "resourceType": "Parameters",
        "id": "44abca0b-4dc9-4338-b7c2-a58aae657070-parameters",
        "parameter": [ {
          "name": "subject",
          "valueString": "002fcec4-89ed-42be-a7b7-41fa0acddf8c"
        } ]
      } ],
      "extension": [ {
        "url": "http://hl7.org/fhir/StructureDefinition/cqf-inputParameters",
        "valueReference": {
          "reference": "#44abca0b-4dc9-4338-b7c2-a58aae657070-parameters"
        }
      }, {
        "url": "http://hl7.org/fhir/us/cqfmeasures/StructureDefinition/cqfm-testCaseDescription",
        "valueMarkdown": " Patient has 2 encounters, one in DENEX due to CMO and another pass Numerator \n"
      } ],
      "modifierExtension": [ {
        "url": "http://hl7.org/fhir/us/cqfmeasures/StructureDefinition/cqfm-isTestCase",
        "valueBoolean": true
      } ],
      "status": "complete",
      "type": "individual",
      "measure": "https://madie.cms.gov/Measure/CMS190VTEProphylaxisICUFHIR",
      "period": {
        "start": "2026-01-01",
        "end": "2026-12-31"
      },
      "group": [ {
        "id": "Group_1",
        "population": [ {
          "id": "InitialPopulation_1",
          "code": {
            "coding": [ {
              "system": "http://terminology.hl7.org/CodeSystem/measure-population",
              "code": "initial-population",
              "display": "Initial Population"
            } ]
          },
          "count": 2
        }, {
          "id": "Denominator_1",
          "code": {
            "coding": [ {
              "system": "http://terminology.hl7.org/CodeSystem/measure-population",
              "code": "denominator",
              "display": "Denominator"
            } ]
          },
          "count": 2
        }, {
          "id": "DenominatorExclusion_1",
          "code": {
            "coding": [ {
              "system": "http://terminology.hl7.org/CodeSystem/measure-population",
              "code": "denominator-exclusion",
              "display": "Denominator Exclusion"
            } ]
          },
          "count": 1
        }, {
          "id": "Numerator_1",
          "code": {
            "coding": [ {
              "system": "http://terminology.hl7.org/CodeSystem/measure-population",
              "code": "numerator",
              "display": "Numerator"
            } ]
          },
          "count": 1
        }, {
          "id": "DenominatorException_1",
          "code": {
            "coding": [ {
              "system": "http://terminology.hl7.org/CodeSystem/measure-population",
              "code": "denominator-exception",
              "display": "Denominator Exception"
            } ]
          },
          "count": 0
        } ],
        "measureScore": {
          "value": 0.0
        }
      } ],
      "evaluatedResource": [ {
        "reference": "Patient/002fcec4-89ed-42be-a7b7-41fa0acddf8c"
      }, {
        "reference": "Encounter/791c022b-4381-4e3d-8071-21f5dfc07115"
      }, {
        "reference": "Encounter/ed4f0822-3508-46cc-b6bf-00d5290d567a"
      }, {
        "reference": "Encounter/3c124036-83b6-4042-8ccf-86e2f57f39c3"
      }, {
        "reference": "ServiceRequest/ef32d909-e000-417c-838e-72ed14b10e6b"
      }, {
        "reference": "Coverage/3ef9cb6f-cda4-42c3-9130-02ef12d80466"
      }, {
        "reference": "MedicationAdministration/2948a94f-1b14-42b8-8ec0-b0d0ef8f7e49"
      }, {
        "reference": "Location/9eb82076-298d-4c28-bf50-b8673f263688"
      }, {
        "reference": "Location/512186cb-aaf6-4953-b41f-b27cb2331ba8"
      }, {
        "reference": "Organization/cc2c857b-1b2a-4053-9f03-4084913afa35"
      }, {
        "reference": "Practitioner/5fbe62dc-6919-400a-a90c-8e0e03f74786"
      } ]
    },
    "request": {
      "method": "PUT",
      "url": "MeasureReport/3a44444b-27cf-416c-9557-769a62ed43ea"
    }
  } ]
}