{
  "resourceType": "Bundle",
  "id": "NUMERPass-FallNullPOAModerateInjuryNullPOA",
  "type": "transaction",
  "entry": [ {
    "fullUrl": "https://madie.cms.gov/Claim/d7d9ab25-cad0-4cb8-a6bf-170cb1060596",
    "resource": {
      "resourceType": "Claim",
      "id": "d7d9ab25-cad0-4cb8-a6bf-170cb1060596",
      "meta": {
        "profile": [ "http://hl7.org/fhir/us/qicore/StructureDefinition/qicore-claim" ]
      },
      "status": "active",
      "type": {
        "coding": [ {
          "system": "http://terminology.hl7.org/CodeSystem/claim-type",
          "code": "professional",
          "display": "Professional"
        } ]
      },
      "use": "claim",
      "patient": {
        "reference": "Patient/e3212bfa-f3a9-4323-8993-9ef74c2f8d89"
      },
      "created": "2026-11-12",
      "priority": {
        "coding": [ {
          "system": "http://terminology.hl7.org/CodeSystem/processpriority",
          "code": "normal"
        } ]
      },
      "diagnosis": [ {
        "sequence": 1,
        "diagnosisReference": {
          "reference": "Condition/c39f1b1e-5ba3-4949-ab82-66addede54c7"
        }
      } ],
      "item": [ {
        "sequence": 1,
        "diagnosisSequence": [ 1, 2 ],
        "encounter": [ {
          "reference": "Encounter/0dec46be-fc57-4045-9886-afcf5ea8ef9a"
        } ]
      } ]
    },
    "request": {
      "method": "PUT",
      "url": "Claim/d7d9ab25-cad0-4cb8-a6bf-170cb1060596"
    }
  }, {
    "fullUrl": "https://madie.cms.gov/Claim/6d771e36-95b5-412d-be7d-60c9061a3b15",
    "resource": {
      "resourceType": "Claim",
      "id": "6d771e36-95b5-412d-be7d-60c9061a3b15",
      "meta": {
        "profile": [ "http://hl7.org/fhir/us/qicore/StructureDefinition/qicore-claim" ]
      },
      "status": "active",
      "type": {
        "coding": [ {
          "system": "http://terminology.hl7.org/CodeSystem/claim-type",
          "code": "professional",
          "display": "Professional"
        } ]
      },
      "use": "claim",
      "patient": {
        "reference": "Patient/e3212bfa-f3a9-4323-8993-9ef74c2f8d89"
      },
      "created": "2026-11-12",
      "priority": {
        "coding": [ {
          "system": "http://terminology.hl7.org/CodeSystem/processpriority",
          "code": "normal"
        } ]
      },
      "diagnosis": [ {
        "sequence": 2,
        "diagnosisReference": {
          "reference": "Condition/17be6261-140f-4625-9ba0-be01b21ec200"
        }
      } ],
      "item": [ {
        "sequence": 1,
        "diagnosisSequence": [ 1, 2 ],
        "encounter": [ {
          "reference": "Encounter/0dec46be-fc57-4045-9886-afcf5ea8ef9a"
        } ]
      } ]
    },
    "request": {
      "method": "PUT",
      "url": "Claim/6d771e36-95b5-412d-be7d-60c9061a3b15"
    }
  }, {
    "fullUrl": "https://madie.cms.gov/Encounter/0dec46be-fc57-4045-9886-afcf5ea8ef9a",
    "resource": {
      "resourceType": "Encounter",
      "id": "0dec46be-fc57-4045-9886-afcf5ea8ef9a",
      "meta": {
        "profile": [ "http://hl7.org/fhir/us/qicore/StructureDefinition/qicore-encounter" ]
      },
      "status": "finished",
      "class": {
        "system": "http://terminology.hl7.org/CodeSystem/v3-ActCode",
        "code": "IMP",
        "display": "inpatient encounter"
      },
      "type": [ {
        "coding": [ {
          "system": "http://snomed.info/sct",
          "code": "183452005"
        } ]
      } ],
      "subject": {
        "reference": "Patient/e3212bfa-f3a9-4323-8993-9ef74c2f8d89"
      },
      "period": {
        "start": "2026-11-09T11:00:00.000+00:00",
        "end": "2026-11-13T08:15:00.000+00:00"
      },
      "reasonReference": [ {
        "reference": "Condition/c39f1b1e-5ba3-4949-ab82-66addede54c7"
      }, {
        "reference": "Condition/17be6261-140f-4625-9ba0-be01b21ec200"
      } ]
    },
    "request": {
      "method": "PUT",
      "url": "Encounter/0dec46be-fc57-4045-9886-afcf5ea8ef9a"
    }
  }, {
    "fullUrl": "https://madie.cms.gov/Encounter/8c639037-b957-4bad-aef1-079e38d1d9c7",
    "resource": {
      "resourceType": "Encounter",
      "id": "8c639037-b957-4bad-aef1-079e38d1d9c7",
      "meta": {
        "profile": [ "http://hl7.org/fhir/us/qicore/StructureDefinition/qicore-encounter" ]
      },
      "status": "finished",
      "class": {
        "system": "http://terminology.hl7.org/CodeSystem/v3-ActCode",
        "code": "IMP",
        "display": "inpatient encounter"
      },
      "type": [ {
        "coding": [ {
          "system": "http://snomed.info/sct",
          "code": "4525004"
        } ]
      } ],
      "subject": {
        "reference": "Patient/e3212bfa-f3a9-4323-8993-9ef74c2f8d89"
      },
      "period": {
        "start": "2026-11-09T08:00:00.000+00:00",
        "end": "2026-11-09T10:15:00.000+00:00"
      }
    },
    "request": {
      "method": "PUT",
      "url": "Encounter/8c639037-b957-4bad-aef1-079e38d1d9c7"
    }
  }, {
    "fullUrl": "https://madie.cms.gov/Condition/17be6261-140f-4625-9ba0-be01b21ec200",
    "resource": {
      "resourceType": "Condition",
      "id": "17be6261-140f-4625-9ba0-be01b21ec200",
      "meta": {
        "profile": [ "http://hl7.org/fhir/us/qicore/StructureDefinition/qicore-condition-encounter-diagnosis" ]
      },
      "clinicalStatus": {
        "coding": [ {
          "system": "http://terminology.hl7.org/CodeSystem/condition-clinical",
          "code": "active"
        } ]
      },
      "verificationStatus": {
        "coding": [ {
          "system": "http://terminology.hl7.org/CodeSystem/condition-ver-status",
          "code": "confirmed"
        } ]
      },
      "category": [ {
        "coding": [ {
          "system": "http://terminology.hl7.org/CodeSystem/condition-category",
          "code": "encounter-diagnosis",
          "display": "Encounter Diagnosis"
        } ]
      } ],
      "code": {
        "coding": [ {
          "system": "http://hl7.org/fhir/sid/icd-10-cm",
          "code": "W19.XXXA"
        } ]
      },
      "subject": {
        "reference": "Patient/e3212bfa-f3a9-4323-8993-9ef74c2f8d89"
      },
      "encounter": {
        "reference": "Encounter/0dec46be-fc57-4045-9886-afcf5ea8ef9a"
      }
    },
    "request": {
      "method": "PUT",
      "url": "Condition/17be6261-140f-4625-9ba0-be01b21ec200"
    }
  }, {
    "fullUrl": "https://madie.cms.gov/Condition/c39f1b1e-5ba3-4949-ab82-66addede54c7",
    "resource": {
      "resourceType": "Condition",
      "id": "c39f1b1e-5ba3-4949-ab82-66addede54c7",
      "meta": {
        "profile": [ "http://hl7.org/fhir/us/qicore/StructureDefinition/qicore-condition-encounter-diagnosis" ]
      },
      "clinicalStatus": {
        "coding": [ {
          "system": "http://terminology.hl7.org/CodeSystem/condition-clinical",
          "code": "active"
        } ]
      },
      "verificationStatus": {
        "coding": [ {
          "system": "http://terminology.hl7.org/CodeSystem/condition-ver-status",
          "code": "confirmed"
        } ]
      },
      "category": [ {
        "coding": [ {
          "system": "http://terminology.hl7.org/CodeSystem/condition-category",
          "code": "encounter-diagnosis",
          "display": "Encounter Diagnosis"
        } ]
      } ],
      "code": {
        "coding": [ {
          "system": "http://hl7.org/fhir/sid/icd-10-cm",
          "code": "S01.00XA"
        } ]
      },
      "subject": {
        "reference": "Patient/e3212bfa-f3a9-4323-8993-9ef74c2f8d89"
      },
      "encounter": {
        "reference": "Encounter/0dec46be-fc57-4045-9886-afcf5ea8ef9a"
      }
    },
    "request": {
      "method": "PUT",
      "url": "Condition/c39f1b1e-5ba3-4949-ab82-66addede54c7"
    }
  }, {
    "fullUrl": "https://madie.cms.gov/Patient/e3212bfa-f3a9-4323-8993-9ef74c2f8d89",
    "resource": {
      "resourceType": "Patient",
      "id": "e3212bfa-f3a9-4323-8993-9ef74c2f8d89",
      "meta": {
        "profile": [ "http://hl7.org/fhir/us/qicore/StructureDefinition/qicore-patient" ]
      },
      "extension": [ {
        "url": "http://hl7.org/fhir/us/core/StructureDefinition/us-core-race",
        "extension": [ {
          "url": "ombCategory",
          "valueCoding": {
            "system": "urn:oid:2.16.840.1.113883.6.238",
            "code": "2028-9",
            "display": "Asian",
            "userSelected": true
          }
        }, {
          "url": "text",
          "valueString": "Asian"
        } ]
      }, {
        "url": "http://hl7.org/fhir/us/core/StructureDefinition/us-core-ethnicity",
        "extension": [ {
          "url": "ombCategory",
          "valueCoding": {
            "system": "urn:oid:2.16.840.1.113883.6.238",
            "code": "2186-5",
            "display": "Not Hispanic or Latino",
            "userSelected": true
          }
        }, {
          "url": "text",
          "valueString": "Not Hispanic or Latino"
        } ]
      } ],
      "identifier": [ {
        "type": {
          "coding": [ {
            "system": "http://terminology.hl7.org/CodeSystem/v2-0203",
            "code": "MR"
          } ]
        },
        "system": "https://bonnie-fhir.healthit.gov/",
        "value": "61152a3b98086b7a79cbd7c1"
      } ],
      "active": true,
      "name": [ {
        "use": "usual",
        "family": "NUMERPass",
        "given": [ "FallNullPOAModerateInjuryNullPOA" ]
      } ],
      "gender": "male",
      "birthDate": "2000-09-09"
    },
    "request": {
      "method": "PUT",
      "url": "Patient/e3212bfa-f3a9-4323-8993-9ef74c2f8d89"
    }
  }, {
    "fullUrl": "https://madie.cms.gov/MeasureReport/8b10215e-557d-48c4-abaf-84a932ecd8f1",
    "resource": {
      "resourceType": "MeasureReport",
      "id": "8b10215e-557d-48c4-abaf-84a932ecd8f1",
      "meta": {
        "profile": [ "http://hl7.org/fhir/us/cqfmeasures/StructureDefinition/test-case-cqfm" ]
      },
      "contained": [ {
        "resourceType": "Parameters",
        "id": "35ff4eea-18f1-4f81-b511-03a2e38c06d6-parameters",
        "parameter": [ {
          "name": "subject",
          "valueString": "e3212bfa-f3a9-4323-8993-9ef74c2f8d89"
        } ]
      } ],
      "extension": [ {
        "url": "http://hl7.org/fhir/StructureDefinition/cqf-inputParameters",
        "valueReference": {
          "reference": "#35ff4eea-18f1-4f81-b511-03a2e38c06d6-parameters"
        }
      }, {
        "url": "http://hl7.org/fhir/us/cqfmeasures/StructureDefinition/cqfm-testCaseDescription",
        "valueMarkdown": "Encounter with Fall diag and injury diag both w/null POA flags. Unless POA flags explicitly indicate POA (e.g., N or U) then diagnosis is assumed to be not present on admission. \nMeets Numerator. "
      } ],
      "modifierExtension": [ {
        "url": "http://hl7.org/fhir/us/cqfmeasures/StructureDefinition/cqfm-isTestCase",
        "valueBoolean": true
      } ],
      "status": "complete",
      "type": "individual",
      "measure": "https://madie.cms.gov/Measure/CMS1017FHIRHHFI",
      "period": {
        "start": "2026-01-01",
        "end": "2026-12-31"
      },
      "group": [ {
        "id": "Group_1",
        "population": [ {
          "id": "InitialPopulation_1",
          "code": {
            "coding": [ {
              "system": "http://terminology.hl7.org/CodeSystem/measure-population",
              "code": "initial-population",
              "display": "Initial Population"
            } ]
          },
          "count": 1
        }, {
          "id": "Denominator_1",
          "code": {
            "coding": [ {
              "system": "http://terminology.hl7.org/CodeSystem/measure-population",
              "code": "denominator",
              "display": "Denominator"
            } ]
          },
          "count": 1
        }, {
          "id": "DenominatorExclusion_1",
          "code": {
            "coding": [ {
              "system": "http://terminology.hl7.org/CodeSystem/measure-population",
              "code": "denominator-exclusion",
              "display": "Denominator Exclusion"
            } ]
          },
          "count": 0
        }, {
          "id": "Numerator_1",
          "code": {
            "coding": [ {
              "system": "http://terminology.hl7.org/CodeSystem/measure-population",
              "code": "numerator",
              "display": "Numerator"
            } ]
          },
          "count": 1
        }, {
          "id": "NumeratorExclusion_1",
          "code": {
            "coding": [ {
              "system": "http://terminology.hl7.org/CodeSystem/measure-population",
              "code": "numerator-exclusion",
              "display": "Numerator Exclusion"
            } ]
          },
          "count": 0
        }, {
          "id": "MeasureObservation_1_1_1",
          "code": {
            "coding": [ {
              "system": "http://terminology.hl7.org/CodeSystem/measure-population",
              "code": "measure-observation",
              "display": "Measure Observation"
            } ]
          },
          "count": 4
        }, {
          "id": "MeasureObservation_1_2_1",
          "code": {
            "coding": [ {
              "system": "http://terminology.hl7.org/CodeSystem/measure-population",
              "code": "measure-observation",
              "display": "Measure Observation"
            } ]
          },
          "count": 1
        } ],
        "measureScore": {
          "value": 0.0
        }
      } ],
      "evaluatedResource": [ {
        "reference": "Claim/d7d9ab25-cad0-4cb8-a6bf-170cb1060596"
      }, {
        "reference": "Claim/6d771e36-95b5-412d-be7d-60c9061a3b15"
      }, {
        "reference": "Encounter/0dec46be-fc57-4045-9886-afcf5ea8ef9a"
      }, {
        "reference": "Encounter/8c639037-b957-4bad-aef1-079e38d1d9c7"
      }, {
        "reference": "Condition/17be6261-140f-4625-9ba0-be01b21ec200"
      }, {
        "reference": "Condition/c39f1b1e-5ba3-4949-ab82-66addede54c7"
      }, {
        "reference": "Patient/e3212bfa-f3a9-4323-8993-9ef74c2f8d89"
      } ]
    },
    "request": {
      "method": "PUT",
      "url": "MeasureReport/8b10215e-557d-48c4-abaf-84a932ecd8f1"
    }
  } ]
}