{
  "resourceType": "Bundle",
  "id": "IPPass-19wTHAProcNov1OPConsultAug1",
  "type": "transaction",
  "entry": [ {
    "fullUrl": "https://madie.cms.gov/Patient/781e45b5-97a1-47cb-b067-84bd12f9a033",
    "resource": {
      "resourceType": "Patient",
      "id": "781e45b5-97a1-47cb-b067-84bd12f9a033",
      "meta": {
        "profile": [ "http://hl7.org/fhir/us/qicore/StructureDefinition/qicore-patient" ]
      },
      "extension": [ {
        "url": "http://hl7.org/fhir/us/core/StructureDefinition/us-core-race",
        "extension": [ {
          "url": "ombCategory",
          "valueCoding": {
            "system": "urn:oid:2.16.840.1.113883.6.238",
            "code": "2028-9",
            "display": "Asian"
          }
        }, {
          "url": "text",
          "valueString": "Asian"
        } ]
      }, {
        "url": "http://hl7.org/fhir/us/core/StructureDefinition/us-core-ethnicity",
        "extension": [ {
          "url": "ombCategory",
          "valueCoding": {
            "system": "urn:oid:2.16.840.1.113883.6.238",
            "code": "2135-2",
            "display": "Hispanic or Latino"
          }
        }, {
          "url": "text",
          "valueString": "Hispanic or Latino"
        } ]
      }, {
        "url": "http://hl7.org/fhir/us/core/StructureDefinition/us-core-sex",
        "valueCode": "248153007"
      } ],
      "identifier": [ {
        "system": "http://hospital.smarthealthit.org",
        "value": "999999995"
      } ],
      "name": [ {
        "family": "Bertha",
        "given": [ "Betty" ]
      } ],
      "gender": "male",
      "birthDate": "2007-01-01"
    },
    "request": {
      "method": "PUT",
      "url": "Patient/781e45b5-97a1-47cb-b067-84bd12f9a033"
    }
  }, {
    "fullUrl": "https://madie.cms.gov/Procedure/2a56cf5e-fcbc-44d4-8d41-eb620d8cef29",
    "resource": {
      "resourceType": "Procedure",
      "id": "2a56cf5e-fcbc-44d4-8d41-eb620d8cef29",
      "meta": {
        "profile": [ "http://hl7.org/fhir/us/qicore/StructureDefinition/qicore-procedure" ]
      },
      "extension": [ {
        "url": "http://hl7.org/fhir/us/qicore/StructureDefinition/qicore-recorded",
        "valueDateTime": "2024-11-01T00:00:00.000Z"
      } ],
      "status": "completed",
      "code": {
        "coding": [ {
          "system": "http://www.cms.gov/Medicare/Coding/ICD10",
          "code": "0SR9019",
          "display": "Replacement of Right Hip Joint with Metal Synthetic Substitute, Cemented, Open Approach"
        } ]
      },
      "subject": {
        "reference": "Patient/781e45b5-97a1-47cb-b067-84bd12f9a033"
      },
      "performedPeriod": {
        "start": "2024-11-01T00:00:00.000Z",
        "end": "2024-11-01T01:00:00.000Z"
      }
    },
    "request": {
      "method": "PUT",
      "url": "Procedure/2a56cf5e-fcbc-44d4-8d41-eb620d8cef29"
    }
  }, {
    "fullUrl": "https://madie.cms.gov/Encounter/ed1a75df-f483-4113-8c16-0feb3adcd7fb",
    "resource": {
      "resourceType": "Encounter",
      "id": "ed1a75df-f483-4113-8c16-0feb3adcd7fb",
      "meta": {
        "profile": [ "http://hl7.org/fhir/us/qicore/StructureDefinition/qicore-encounter" ]
      },
      "status": "finished",
      "class": {
        "system": "http://terminology.hl7.org/CodeSystem/v3-ActCode",
        "code": "AMB",
        "display": "ambulatory"
      },
      "type": [ {
        "coding": [ {
          "system": "http://snomed.info/sct",
          "code": "281036007",
          "display": "Follow-up consultation (procedure)"
        } ]
      } ],
      "subject": {
        "reference": "Patient/781e45b5-97a1-47cb-b067-84bd12f9a033"
      },
      "period": {
        "start": "2025-08-01T00:00:00.000Z",
        "end": "2025-08-01T01:15:00.000Z"
      }
    },
    "request": {
      "method": "PUT",
      "url": "Encounter/ed1a75df-f483-4113-8c16-0feb3adcd7fb"
    }
  }, {
    "fullUrl": "https://madie.cms.gov/MeasureReport/79db2b22-05ee-4baf-90ae-46f61fba5230",
    "resource": {
      "resourceType": "MeasureReport",
      "id": "79db2b22-05ee-4baf-90ae-46f61fba5230",
      "meta": {
        "profile": [ "http://hl7.org/fhir/us/cqfmeasures/StructureDefinition/test-case-cqfm" ]
      },
      "contained": [ {
        "resourceType": "Parameters",
        "id": "88800ef6-9bcf-46e8-bdd3-4d2aa94ae8fc-parameters",
        "parameter": [ {
          "name": "subject",
          "valueString": "781e45b5-97a1-47cb-b067-84bd12f9a033"
        } ]
      } ],
      "extension": [ {
        "url": "http://hl7.org/fhir/StructureDefinition/cqf-inputParameters",
        "valueReference": {
          "reference": "#88800ef6-9bcf-46e8-bdd3-4d2aa94ae8fc-parameters"
        }
      }, {
        "url": "http://hl7.org/fhir/us/cqfmeasures/StructureDefinition/cqfm-testCaseDescription",
        "valueMarkdown": "Patient 19yo w/ a THA Procedure 11/1 during THAProcedure Interval and Post Op Visit Outpatient Encounter 08/1 during Qualifying Encounter Interval."
      } ],
      "modifierExtension": [ {
        "url": "http://hl7.org/fhir/us/cqfmeasures/StructureDefinition/cqfm-isTestCase",
        "valueBoolean": true
      } ],
      "status": "complete",
      "type": "individual",
      "measure": "https://madie.cms.gov/Measure/CMS56FHIRFunctionalStatusAssessmentforTotalHipReplacement",
      "period": {
        "start": "2026-01-01",
        "end": "2026-12-31"
      },
      "group": [ {
        "id": "Group_1",
        "population": [ {
          "id": "InitialPopulation_1",
          "code": {
            "coding": [ {
              "system": "http://terminology.hl7.org/CodeSystem/measure-population",
              "code": "initial-population",
              "display": "Initial Population"
            } ]
          },
          "count": 1
        }, {
          "id": "Denominator_1",
          "code": {
            "coding": [ {
              "system": "http://terminology.hl7.org/CodeSystem/measure-population",
              "code": "denominator",
              "display": "Denominator"
            } ]
          },
          "count": 1
        }, {
          "id": "DenominatorExclusion_1",
          "code": {
            "coding": [ {
              "system": "http://terminology.hl7.org/CodeSystem/measure-population",
              "code": "denominator-exclusion",
              "display": "Denominator Exclusion"
            } ]
          },
          "count": 0
        }, {
          "id": "Numerator_1",
          "code": {
            "coding": [ {
              "system": "http://terminology.hl7.org/CodeSystem/measure-population",
              "code": "numerator",
              "display": "Numerator"
            } ]
          },
          "count": 0
        } ],
        "measureScore": {
          "value": 1.0
        }
      } ],
      "evaluatedResource": [ {
        "reference": "Patient/781e45b5-97a1-47cb-b067-84bd12f9a033"
      }, {
        "reference": "Procedure/2a56cf5e-fcbc-44d4-8d41-eb620d8cef29"
      }, {
        "reference": "Encounter/ed1a75df-f483-4113-8c16-0feb3adcd7fb"
      } ]
    },
    "request": {
      "method": "PUT",
      "url": "MeasureReport/79db2b22-05ee-4baf-90ae-46f61fba5230"
    }
  } ]
}