{
  "resourceType": "Bundle",
  "id": "60f82c2d98086b570510e252",
  "type": "transaction",
  "entry": [ {
    "fullUrl": "https://madie.cms.gov/Patient/d8ca26ff-f3dd-42e7-ab8c-17647582f5bb",
    "resource": {
      "resourceType": "Patient",
      "id": "d8ca26ff-f3dd-42e7-ab8c-17647582f5bb",
      "meta": {
        "profile": [ "http://hl7.org/fhir/us/qicore/StructureDefinition/qicore-patient" ]
      },
      "text": {
        "status": "generated",
        "div": "<div xmlns=\"http://www.w3.org/1999/xhtml\"><div class=\"hapiHeaderText\">EncEndsAfterMP <b>IPPFAIL </b></div><table class=\"hapiPropertyTable\"><tbody><tr><td>Identifier</td><td>247228d5a32cd9e233fcfcbc78ae54f7</td></tr><tr><td>Date of birth</td><td><span>21 August 1994</span></td></tr></tbody></table></div>"
      },
      "extension": [ {
        "url": "http://hl7.org/fhir/us/core/StructureDefinition/us-core-race",
        "extension": [ {
          "url": "ombCategory",
          "valueCoding": {
            "system": "urn:oid:2.16.840.1.113883.6.238",
            "code": "1002-5",
            "display": "American Indian or Alaska Native",
            "userSelected": true
          }
        }, {
          "url": "text",
          "valueString": "American Indian or Alaska Native"
        } ]
      }, {
        "url": "http://hl7.org/fhir/us/core/StructureDefinition/us-core-ethnicity",
        "extension": [ {
          "url": "ombCategory",
          "valueCoding": {
            "system": "urn:oid:2.16.840.1.113883.6.238",
            "code": "2186-5",
            "display": "Not Hispanic or Latino",
            "userSelected": true
          }
        }, {
          "url": "text",
          "valueString": "Not Hispanic or Latino"
        } ]
      } ],
      "identifier": [ {
        "type": {
          "coding": [ {
            "system": "http://terminology.hl7.org/CodeSystem/v2-0203",
            "code": "MR"
          } ]
        },
        "system": "https://bonnie-fhir.healthit.gov/",
        "value": "60f82c2d98086b570510e252"
      } ],
      "active": true,
      "name": [ {
        "use": "usual",
        "family": "IPPFail",
        "given": [ "EncEndsAfterMP" ]
      } ],
      "gender": "male",
      "birthDate": "1995-08-21"
    },
    "request": {
      "method": "PUT",
      "url": "Patient/d8ca26ff-f3dd-42e7-ab8c-17647582f5bb"
    }
  }, {
    "fullUrl": "https://madie.cms.gov/Encounter/13b48408-a2ad-47b6-bec9-beecdc9ad17d",
    "resource": {
      "resourceType": "Encounter",
      "id": "13b48408-a2ad-47b6-bec9-beecdc9ad17d",
      "meta": {
        "profile": [ "http://hl7.org/fhir/us/qicore/StructureDefinition/qicore-encounter" ]
      },
      "status": "finished",
      "class": {
        "system": "http://terminology.hl7.org/CodeSystem/v3-ActCode",
        "code": "IMP",
        "display": "inpatient encounter"
      },
      "type": [ {
        "coding": [ {
          "system": "http://snomed.info/sct",
          "code": "32485007"
        } ]
      } ],
      "subject": {
        "reference": "Patient/d8ca26ff-f3dd-42e7-ab8c-17647582f5bb"
      },
      "period": {
        "start": "2026-12-20T09:30:00Z",
        "end": "2027-01-01T00:00:00.000+00:00"
      },
      "length": {
        "value": 12,
        "unit": "days"
      },
      "reasonReference": [ {
        "reference": "Condition/589d7f60-6524-43a9-bf97-f32c29bfd8b2"
      } ]
    },
    "request": {
      "method": "PUT",
      "url": "Encounter/13b48408-a2ad-47b6-bec9-beecdc9ad17d"
    }
  }, {
    "fullUrl": "https://madie.cms.gov/Coverage/b4576f81-f5cc-415b-b2a4-681050be9164",
    "resource": {
      "resourceType": "Coverage",
      "id": "b4576f81-f5cc-415b-b2a4-681050be9164",
      "status": "active",
      "beneficiary": {
        "reference": "Patient/d8ca26ff-f3dd-42e7-ab8c-17647582f5bb"
      },
      "period": {
        "start": "1995-08-21T08:00:00Z"
      },
      "payor": [ {
        "reference": "Organization/095560e1-9be6-4168-9c54-ac87be3114d5"
      } ]
    },
    "request": {
      "method": "PUT",
      "url": "Coverage/b4576f81-f5cc-415b-b2a4-681050be9164"
    }
  }, {
    "fullUrl": "https://madie.cms.gov/Condition/589d7f60-6524-43a9-bf97-f32c29bfd8b2",
    "resource": {
      "resourceType": "Condition",
      "id": "589d7f60-6524-43a9-bf97-f32c29bfd8b2",
      "meta": {
        "profile": [ "http://hl7.org/fhir/us/qicore/StructureDefinition/qicore-condition-encounter-diagnosis" ]
      },
      "clinicalStatus": {
        "coding": [ {
          "system": "http://terminology.hl7.org/CodeSystem/condition-clinical",
          "code": "active"
        } ]
      },
      "verificationStatus": {
        "coding": [ {
          "system": "http://terminology.hl7.org/CodeSystem/condition-ver-status",
          "code": "confirmed"
        } ]
      },
      "category": [ {
        "coding": [ {
          "system": "http://terminology.hl7.org/CodeSystem/condition-category",
          "code": "encounter-diagnosis",
          "display": "Encounter Diagnosis"
        } ]
      } ],
      "code": {
        "coding": [ {
          "system": "http://snomed.info/sct",
          "version": "2020-09",
          "code": "111297002",
          "display": "Nonparalytic stroke (disorder)",
          "userSelected": true
        } ]
      },
      "subject": {
        "reference": "Patient/d8ca26ff-f3dd-42e7-ab8c-17647582f5bb"
      },
      "encounter": {
        "reference": "Encounter/13b48408-a2ad-47b6-bec9-beecdc9ad17d"
      },
      "recordedDate": "2026-08-16T08:00:00Z"
    },
    "request": {
      "method": "PUT",
      "url": "Condition/589d7f60-6524-43a9-bf97-f32c29bfd8b2"
    }
  }, {
    "fullUrl": "https://madie.cms.gov/claim/5ca62962b8484628b8de1ec5",
    "resource": {
      "resourceType": "Claim",
      "id": "5ca62962b8484628b8de1ec5",
      "meta": {
        "profile": [ "http://hl7.org/fhir/us/qicore/StructureDefinition/qicore-claim" ]
      },
      "status": "active",
      "type": {
        "coding": [ {
          "system": "http://terminology.hl7.org/CodeSystem/claim-type",
          "code": "institutional"
        } ]
      },
      "use": "claim",
      "patient": {
        "reference": "Patient/d8ca26ff-f3dd-42e7-ab8c-17647582f5bb"
      },
      "created": "2026-12-01",
      "provider": {
        "reference": "Practitioner/96847616-c29e-4a38-92f3-67b9f31da94d"
      },
      "priority": {
        "coding": [ {
          "system": "http://terminology.hl7.org/CodeSystem/processpriority",
          "code": "normal"
        } ]
      },
      "diagnosis": [ {
        "sequence": 1,
        "diagnosisCodeableConcept": {
          "coding": [ {
            "system": "http://hl7.org/fhir/sid/icd-10-cm",
            "code": "I63.00"
          } ]
        },
        "type": [ {
          "coding": [ {
            "system": "http://terminology.hl7.org/CodeSystem/ex-diagnosistype",
            "code": "principal"
          } ]
        } ]
      } ],
      "insurance": [ {
        "sequence": 1,
        "focal": true,
        "coverage": {
          "reference": "Coverage/5fa041661c76ba66d9959367"
        }
      } ],
      "item": [ {
        "sequence": 1,
        "diagnosisSequence": [ 1 ],
        "productOrService": {
          "coding": [ {
            "system": "http://terminology.hl7.org/CodeSystem/ex-USCLS",
            "code": "99555"
          } ]
        },
        "encounter": [ {
          "reference": "Encounter/13b48408-a2ad-47b6-bec9-beecdc9ad17d"
        } ]
      } ]
    },
    "request": {
      "method": "PUT",
      "url": "Claim/5ca62962b8484628b8de1ec5"
    }
  }, {
    "fullUrl": "https://madie.cms.gov/Organization/095560e1-9be6-4168-9c54-ac87be3114d5",
    "resource": {
      "resourceType": "Organization",
      "id": "095560e1-9be6-4168-9c54-ac87be3114d5",
      "meta": {
        "profile": [ "http://hl7.org/fhir/us/qicore/StructureDefinition/qicore-organization" ]
      },
      "identifier": [ {
        "use": "temp",
        "system": "urn:oid:2.16.840.1.113883.4.4",
        "value": "21-3259825"
      } ],
      "active": true,
      "type": [ {
        "coding": [ {
          "system": "http://terminology.hl7.org/CodeSystem/organization-type",
          "code": "pay",
          "display": "Payer"
        } ]
      } ],
      "name": "Blue Cross Blue Shield of Texas",
      "telecom": [ {
        "system": "phone",
        "value": "(+1) 972-766-6900"
      } ],
      "address": [ {
        "use": "billing",
        "type": "postal",
        "line": [ "P.O. Box 660044" ],
        "city": "Dallas",
        "state": "TX",
        "postalCode": "75266-0044",
        "country": "USA"
      } ]
    },
    "request": {
      "method": "PUT",
      "url": "Organization/095560e1-9be6-4168-9c54-ac87be3114d5"
    }
  }, {
    "fullUrl": "https://madie.cms.gov/Practitioner/96847616-c29e-4a38-92f3-67b9f31da94d",
    "resource": {
      "resourceType": "Practitioner",
      "id": "96847616-c29e-4a38-92f3-67b9f31da94d",
      "identifier": [ {
        "system": "http://hl7.org/fhir/sid/us-npi",
        "value": "123456"
      } ],
      "name": [ {
        "family": "Evil",
        "prefix": [ "Dr" ]
      } ]
    },
    "request": {
      "method": "PUT",
      "url": "Practitioner/96847616-c29e-4a38-92f3-67b9f31da94d"
    }
  }, {
    "fullUrl": "https://madie.cms.gov/MeasureReport/6e1dfb4a-48ac-4519-af46-b3abe16da9fd",
    "resource": {
      "resourceType": "MeasureReport",
      "id": "6e1dfb4a-48ac-4519-af46-b3abe16da9fd",
      "meta": {
        "profile": [ "http://hl7.org/fhir/us/cqfmeasures/StructureDefinition/test-case-cqfm" ]
      },
      "contained": [ {
        "resourceType": "Parameters",
        "id": "ff2db6f9-c72d-486f-9c10-1b14329c1499-parameters",
        "parameter": [ {
          "name": "subject",
          "valueString": "d8ca26ff-f3dd-42e7-ab8c-17647582f5bb"
        } ]
      } ],
      "extension": [ {
        "url": "http://hl7.org/fhir/StructureDefinition/cqf-inputParameters",
        "valueReference": {
          "reference": "#ff2db6f9-c72d-486f-9c10-1b14329c1499-parameters"
        }
      }, {
        "url": "http://hl7.org/fhir/us/cqfmeasures/StructureDefinition/cqfm-testCaseDescription",
        "valueMarkdown": " Encounter ends after MP \n"
      } ],
      "modifierExtension": [ {
        "url": "http://hl7.org/fhir/us/cqfmeasures/StructureDefinition/cqfm-isTestCase",
        "valueBoolean": true
      } ],
      "status": "complete",
      "type": "individual",
      "measure": "https://madie.cms.gov/Measure/CMS72FHIRSTKAntithromboticDay2",
      "period": {
        "start": "2026-01-01",
        "end": "2026-12-31"
      },
      "group": [ {
        "id": "Group_1",
        "population": [ {
          "id": "InitialPopulation_1",
          "code": {
            "coding": [ {
              "system": "http://terminology.hl7.org/CodeSystem/measure-population",
              "code": "initial-population",
              "display": "Initial Population"
            } ]
          },
          "count": 0
        }, {
          "id": "Denominator_1",
          "code": {
            "coding": [ {
              "system": "http://terminology.hl7.org/CodeSystem/measure-population",
              "code": "denominator",
              "display": "Denominator"
            } ]
          },
          "count": 0
        }, {
          "id": "DenominatorExclusion_1",
          "code": {
            "coding": [ {
              "system": "http://terminology.hl7.org/CodeSystem/measure-population",
              "code": "denominator-exclusion",
              "display": "Denominator Exclusion"
            } ]
          },
          "count": 0
        }, {
          "id": "Numerator_1",
          "code": {
            "coding": [ {
              "system": "http://terminology.hl7.org/CodeSystem/measure-population",
              "code": "numerator",
              "display": "Numerator"
            } ]
          },
          "count": 0
        }, {
          "id": "DenominatorException_1",
          "code": {
            "coding": [ {
              "system": "http://terminology.hl7.org/CodeSystem/measure-population",
              "code": "denominator-exception",
              "display": "Denominator Exception"
            } ]
          },
          "count": 0
        } ],
        "measureScore": {
          "value": 0.0
        }
      } ],
      "evaluatedResource": [ {
        "reference": "Patient/d8ca26ff-f3dd-42e7-ab8c-17647582f5bb"
      }, {
        "reference": "Encounter/13b48408-a2ad-47b6-bec9-beecdc9ad17d"
      }, {
        "reference": "Coverage/b4576f81-f5cc-415b-b2a4-681050be9164"
      }, {
        "reference": "Condition/589d7f60-6524-43a9-bf97-f32c29bfd8b2"
      }, {
        "reference": "Claim/5ca62962b8484628b8de1ec5"
      }, {
        "reference": "Organization/095560e1-9be6-4168-9c54-ac87be3114d5"
      }, {
        "reference": "Practitioner/96847616-c29e-4a38-92f3-67b9f31da94d"
      } ]
    },
    "request": {
      "method": "PUT",
      "url": "MeasureReport/6e1dfb4a-48ac-4519-af46-b3abe16da9fd"
    }
  } ]
}