{
  "resourceType": "Bundle",
  "id": "6129132c02c62a011f2e628f",
  "type": "transaction",
  "entry": [ {
    "fullUrl": "https://madie.cms.gov/Patient/b536acae-02c7-4c6e-914b-4ea199d98f79",
    "resource": {
      "resourceType": "Patient",
      "id": "b536acae-02c7-4c6e-914b-4ea199d98f79",
      "meta": {
        "profile": [ "http://hl7.org/fhir/us/qicore/StructureDefinition/qicore-patient" ]
      },
      "text": {
        "status": "generated",
        "div": "<div xmlns=\"http://www.w3.org/1999/xhtml\"><div class=\"hapiHeaderText\">CMOdurEncTM_EDEndTM=ObsTM_ObsEndTM=EncTM <b>DENEXPASS </b></div><table class=\"hapiPropertyTable\"><tbody><tr><td>Identifier</td><td>adf247755348532f73cb3b0d90981ec3</td></tr><tr><td>Date of birth</td><td><span>21 August 1994</span></td></tr></tbody></table></div>"
      },
      "extension": [ {
        "url": "http://hl7.org/fhir/us/core/StructureDefinition/us-core-race",
        "extension": [ {
          "url": "ombCategory",
          "valueCoding": {
            "system": "urn:oid:2.16.840.1.113883.6.238",
            "code": "1002-5",
            "display": "American Indian or Alaska Native",
            "userSelected": true
          }
        }, {
          "url": "text",
          "valueString": "American Indian or Alaska Native"
        } ]
      }, {
        "url": "http://hl7.org/fhir/us/core/StructureDefinition/us-core-ethnicity",
        "extension": [ {
          "url": "ombCategory",
          "valueCoding": {
            "system": "urn:oid:2.16.840.1.113883.6.238",
            "code": "2135-2",
            "display": "Hispanic or Latino",
            "userSelected": true
          }
        }, {
          "url": "text",
          "valueString": "Hispanic or Latino"
        } ]
      } ],
      "identifier": [ {
        "type": {
          "coding": [ {
            "system": "http://terminology.hl7.org/CodeSystem/v2-0203",
            "code": "MR"
          } ]
        },
        "system": "https://bonnie-fhir.healthit.gov/",
        "value": "6129132c02c62a011f2e628f"
      } ],
      "active": true,
      "name": [ {
        "use": "usual",
        "family": "DENEXPass",
        "given": [ "CMOdurEncTM_EDEndTM=ObsTM_ObsEndTM=EncTM" ]
      } ],
      "gender": "male",
      "birthDate": "1995-08-21"
    },
    "request": {
      "method": "PUT",
      "url": "Patient/b536acae-02c7-4c6e-914b-4ea199d98f79"
    }
  }, {
    "fullUrl": "https://madie.cms.gov/Encounter/88a486b1-997e-4478-97df-4b95d1d1a0fe",
    "resource": {
      "resourceType": "Encounter",
      "id": "88a486b1-997e-4478-97df-4b95d1d1a0fe",
      "meta": {
        "profile": [ "http://hl7.org/fhir/us/qicore/StructureDefinition/qicore-encounter" ]
      },
      "status": "finished",
      "class": {
        "system": "http://terminology.hl7.org/CodeSystem/v3-ActCode",
        "code": "EMER",
        "display": "emergency",
        "userSelected": true
      },
      "type": [ {
        "coding": [ {
          "system": "http://snomed.info/sct",
          "code": "4525004"
        } ]
      } ],
      "subject": {
        "reference": "Patient/b536acae-02c7-4c6e-914b-4ea199d98f79"
      },
      "period": {
        "start": "2026-10-10T08:30:00+00:00",
        "end": "2026-10-10T09:30:00.000+00:00"
      },
      "length": {
        "value": 0,
        "unit": "days"
      }
    },
    "request": {
      "method": "PUT",
      "url": "Encounter/88a486b1-997e-4478-97df-4b95d1d1a0fe"
    }
  }, {
    "fullUrl": "https://madie.cms.gov/Encounter/3dbe5e2b-590e-4bb7-99bc-925f07423483",
    "resource": {
      "resourceType": "Encounter",
      "id": "3dbe5e2b-590e-4bb7-99bc-925f07423483",
      "meta": {
        "profile": [ "http://hl7.org/fhir/us/qicore/StructureDefinition/qicore-encounter" ]
      },
      "status": "finished",
      "class": {
        "system": "http://terminology.hl7.org/CodeSystem/v3-ActCode",
        "code": "OBSENC",
        "display": "observation encounter",
        "userSelected": true
      },
      "type": [ {
        "coding": [ {
          "system": "http://snomed.info/sct",
          "code": "448851000124103"
        } ]
      } ],
      "subject": {
        "reference": "Patient/b536acae-02c7-4c6e-914b-4ea199d98f79"
      },
      "period": {
        "start": "2026-10-10T09:30:00+00:00",
        "end": "2026-10-10T09:35:00.000+00:00"
      },
      "length": {
        "value": 0,
        "unit": "days"
      }
    },
    "request": {
      "method": "PUT",
      "url": "Encounter/3dbe5e2b-590e-4bb7-99bc-925f07423483"
    }
  }, {
    "fullUrl": "https://madie.cms.gov/Encounter/7195ad93-fdb4-468e-8dec-289264df9f5f",
    "resource": {
      "resourceType": "Encounter",
      "id": "7195ad93-fdb4-468e-8dec-289264df9f5f",
      "meta": {
        "profile": [ "http://hl7.org/fhir/us/qicore/StructureDefinition/qicore-encounter" ]
      },
      "status": "finished",
      "class": {
        "system": "http://terminology.hl7.org/CodeSystem/v3-ActCode",
        "code": "IMP",
        "display": "inpatient encounter",
        "userSelected": true
      },
      "type": [ {
        "coding": [ {
          "system": "http://snomed.info/sct",
          "code": "32485007"
        } ]
      } ],
      "subject": {
        "reference": "Patient/b536acae-02c7-4c6e-914b-4ea199d98f79"
      },
      "period": {
        "start": "2026-10-10T09:35:00+00:00",
        "end": "2026-10-12T10:30:00.000+00:00"
      },
      "length": {
        "value": 2,
        "unit": "days"
      },
      "diagnosis": [ {
        "condition": {
          "reference": "Condition/6cc6c061-24ce-4126-8f24-551c060c0de8"
        },
        "use": {
          "coding": [ {
            "system": "http://terminology.hl7.org/CodeSystem/diagnosis-role",
            "code": "billing",
            "display": "Billing"
          } ]
        },
        "rank": 1
      } ]
    },
    "request": {
      "method": "PUT",
      "url": "Encounter/7195ad93-fdb4-468e-8dec-289264df9f5f"
    }
  }, {
    "fullUrl": "https://madie.cms.gov/ServiceRequest/5a4834b4-6540-427f-bc5e-d0ef5152f254",
    "resource": {
      "resourceType": "ServiceRequest",
      "id": "5a4834b4-6540-427f-bc5e-d0ef5152f254",
      "meta": {
        "profile": [ "http://hl7.org/fhir/us/qicore/StructureDefinition/qicore-servicerequest" ]
      },
      "status": "active",
      "intent": "order",
      "code": {
        "coding": [ {
          "system": "http://snomed.info/sct",
          "code": "133918004"
        } ]
      },
      "subject": {
        "reference": "Patient/b536acae-02c7-4c6e-914b-4ea199d98f79"
      },
      "authoredOn": "2026-10-10T09:35:00+00:00"
    },
    "request": {
      "method": "PUT",
      "url": "ServiceRequest/5a4834b4-6540-427f-bc5e-d0ef5152f254"
    }
  }, {
    "fullUrl": "https://madie.cms.gov/Condition/6cc6c061-24ce-4126-8f24-551c060c0de8",
    "resource": {
      "resourceType": "Condition",
      "id": "6cc6c061-24ce-4126-8f24-551c060c0de8",
      "meta": {
        "profile": [ "http://hl7.org/fhir/us/qicore/StructureDefinition/qicore-condition" ]
      },
      "clinicalStatus": {
        "coding": [ {
          "system": "http://terminology.hl7.org/CodeSystem/condition-clinical",
          "code": "active"
        } ]
      },
      "verificationStatus": {
        "coding": [ {
          "system": "http://terminology.hl7.org/CodeSystem/condition-ver-status",
          "code": "confirmed"
        } ]
      },
      "category": [ {
        "coding": [ {
          "system": "http://terminology.hl7.org/CodeSystem/condition-category",
          "code": "encounter-diagnosis",
          "display": "Encounter Diagnosis"
        } ]
      } ],
      "code": {
        "coding": [ {
          "system": "http://snomed.info/sct",
          "version": "2020-09",
          "code": "111297002",
          "display": "Nonparalytic stroke (disorder)",
          "userSelected": true
        } ]
      },
      "subject": {
        "reference": "Patient/b536acae-02c7-4c6e-914b-4ea199d98f79"
      },
      "recordedDate": "2026-07-14T08:00:00+00:00"
    },
    "request": {
      "method": "PUT",
      "url": "Condition/6cc6c061-24ce-4126-8f24-551c060c0de8"
    }
  }, {
    "fullUrl": "https://madie.cms.gov/claim/5ca62962b8484628b8de1ec5",
    "resource": {
      "resourceType": "Claim",
      "id": "5ca62962b8484628b8de1ec5",
      "meta": {
        "profile": [ "http://hl7.org/fhir/us/qicore/StructureDefinition/qicore-claim" ]
      },
      "status": "active",
      "type": {
        "coding": [ {
          "system": "http://terminology.hl7.org/CodeSystem/claim-type",
          "code": "institutional"
        } ]
      },
      "use": "claim",
      "patient": {
        "reference": "Patient/d170a0a8-b5ad-4303-b6df-e304dd5f92ad"
      },
      "created": "2026-12-01",
      "provider": {
        "reference": "Practitioner/practitioner-123456"
      },
      "priority": {
        "coding": [ {
          "system": "http://terminology.hl7.org/CodeSystem/processpriority",
          "code": "normal"
        } ]
      },
      "diagnosis": [ {
        "sequence": 1,
        "diagnosisCodeableConcept": {
          "coding": [ {
            "system": "http://hl7.org/fhir/sid/icd-10-cm",
            "code": "I63.00"
          } ]
        },
        "type": [ {
          "coding": [ {
            "system": "http://terminology.hl7.org/CodeSystem/ex-diagnosistype",
            "code": "principal"
          } ]
        } ]
      } ],
      "insurance": [ {
        "sequence": 1,
        "focal": true,
        "coverage": {
          "reference": "Coverage/5fa041661c76ba66d9959367"
        }
      } ],
      "item": [ {
        "sequence": 1,
        "diagnosisSequence": [ 1 ],
        "productOrService": {
          "coding": [ {
            "system": "http://terminology.hl7.org/CodeSystem/ex-USCLS",
            "code": "99555"
          } ]
        },
        "encounter": [ {
          "reference": "Encounter/7195ad93-fdb4-468e-8dec-289264df9f5f"
        } ]
      } ]
    },
    "request": {
      "method": "PUT",
      "url": "Claim/5ca62962b8484628b8de1ec5"
    }
  }, {
    "fullUrl": "https://madie.cms.gov/Coverage/06593b87-1b93-4e3c-bc63-1ddd7b32a772",
    "resource": {
      "resourceType": "Coverage",
      "id": "06593b87-1b93-4e3c-bc63-1ddd7b32a772",
      "meta": {
        "profile": [ "http://hl7.org/fhir/us/qicore/StructureDefinition/qicore-coverage" ]
      },
      "status": "active",
      "beneficiary": {
        "reference": "Patient/b536acae-02c7-4c6e-914b-4ea199d98f79"
      },
      "payor": [ {
        "reference": "Organization/484955ee-bd68-4623-aff9-4f70c772b9de"
      } ]
    },
    "request": {
      "method": "PUT",
      "url": "Coverage/06593b87-1b93-4e3c-bc63-1ddd7b32a772"
    }
  }, {
    "fullUrl": "https://madie.cms.gov/Organization/484955ee-bd68-4623-aff9-4f70c772b9de",
    "resource": {
      "resourceType": "Organization",
      "id": "484955ee-bd68-4623-aff9-4f70c772b9de",
      "meta": {
        "profile": [ "http://hl7.org/fhir/us/qicore/StructureDefinition/qicore-organization" ]
      },
      "identifier": [ {
        "use": "temp",
        "system": "urn:oid:2.16.840.1.113883.4.4",
        "value": "21-3259825"
      } ],
      "active": true,
      "type": [ {
        "coding": [ {
          "system": "http://terminology.hl7.org/CodeSystem/organization-type",
          "code": "pay",
          "display": "Payer"
        } ]
      } ],
      "name": "Blue Cross Blue Shield of Texas",
      "telecom": [ {
        "system": "phone",
        "value": "(+1) 972-766-6900"
      } ],
      "address": [ {
        "use": "billing",
        "type": "postal",
        "line": [ "P.O. Box 660044" ],
        "city": "Dallas",
        "state": "TX",
        "postalCode": "75266-0044",
        "country": "USA"
      } ]
    },
    "request": {
      "method": "PUT",
      "url": "Organization/484955ee-bd68-4623-aff9-4f70c772b9de"
    }
  }, {
    "fullUrl": "https://madie.cms.gov/MeasureReport/752dcfa2-ac5f-49ca-91fe-072d9e076abd",
    "resource": {
      "resourceType": "MeasureReport",
      "id": "752dcfa2-ac5f-49ca-91fe-072d9e076abd",
      "meta": {
        "profile": [ "http://hl7.org/fhir/us/cqfmeasures/StructureDefinition/test-case-cqfm" ]
      },
      "contained": [ {
        "resourceType": "Parameters",
        "id": "9497ccc0-66d5-463a-bf2b-0eff42279ec1-parameters",
        "parameter": [ {
          "name": "subject",
          "valueString": "b536acae-02c7-4c6e-914b-4ea199d98f79"
        } ]
      } ],
      "extension": [ {
        "url": "http://hl7.org/fhir/StructureDefinition/cqf-inputParameters",
        "valueReference": {
          "reference": "#9497ccc0-66d5-463a-bf2b-0eff42279ec1-parameters"
        }
      }, {
        "url": "http://hl7.org/fhir/us/cqfmeasures/StructureDefinition/cqfm-testCaseDescription",
        "valueMarkdown": "Patient receives CMO on IP start. ED ends on OBS start and OBS ends on IP start. Testing day of operator with HospitalizationWithObservation function.\n"
      } ],
      "modifierExtension": [ {
        "url": "http://hl7.org/fhir/us/cqfmeasures/StructureDefinition/cqfm-isTestCase",
        "valueBoolean": true
      } ],
      "status": "complete",
      "type": "individual",
      "measure": "https://madie.cms.gov/Measure/CMS104FHIRSTKDCAntithrombotic",
      "period": {
        "start": "2026-01-01",
        "end": "2026-12-31"
      },
      "group": [ {
        "id": "Group_1",
        "population": [ {
          "id": "InitialPopulation_1",
          "code": {
            "coding": [ {
              "system": "http://terminology.hl7.org/CodeSystem/measure-population",
              "code": "initial-population",
              "display": "Initial Population"
            } ]
          },
          "count": 1
        }, {
          "id": "Denominator_1",
          "code": {
            "coding": [ {
              "system": "http://terminology.hl7.org/CodeSystem/measure-population",
              "code": "denominator",
              "display": "Denominator"
            } ]
          },
          "count": 1
        }, {
          "id": "DenominatorExclusion_1",
          "code": {
            "coding": [ {
              "system": "http://terminology.hl7.org/CodeSystem/measure-population",
              "code": "denominator-exclusion",
              "display": "Denominator Exclusion"
            } ]
          },
          "count": 1
        }, {
          "id": "Numerator_1",
          "code": {
            "coding": [ {
              "system": "http://terminology.hl7.org/CodeSystem/measure-population",
              "code": "numerator",
              "display": "Numerator"
            } ]
          },
          "count": 0
        }, {
          "id": "DenominatorException_1",
          "code": {
            "coding": [ {
              "system": "http://terminology.hl7.org/CodeSystem/measure-population",
              "code": "denominator-exception",
              "display": "Denominator Exception"
            } ]
          },
          "count": 0
        } ],
        "measureScore": {
          "value": 0.0
        }
      } ],
      "evaluatedResource": [ {
        "reference": "Patient/b536acae-02c7-4c6e-914b-4ea199d98f79"
      }, {
        "reference": "Encounter/88a486b1-997e-4478-97df-4b95d1d1a0fe"
      }, {
        "reference": "Encounter/3dbe5e2b-590e-4bb7-99bc-925f07423483"
      }, {
        "reference": "Encounter/7195ad93-fdb4-468e-8dec-289264df9f5f"
      }, {
        "reference": "ServiceRequest/5a4834b4-6540-427f-bc5e-d0ef5152f254"
      }, {
        "reference": "Condition/6cc6c061-24ce-4126-8f24-551c060c0de8"
      }, {
        "reference": "Claim/5ca62962b8484628b8de1ec5"
      }, {
        "reference": "Coverage/06593b87-1b93-4e3c-bc63-1ddd7b32a772"
      }, {
        "reference": "Organization/484955ee-bd68-4623-aff9-4f70c772b9de"
      } ]
    },
    "request": {
      "method": "PUT",
      "url": "MeasureReport/752dcfa2-ac5f-49ca-91fe-072d9e076abd"
    }
  } ]
}