{
  "resourceType": "Bundle",
  "id": "612e6b4402c62a011f2ed1e1",
  "type": "transaction",
  "entry": [ {
    "fullUrl": "https://madie.cms.gov/Patient/8961c16d-d6a2-4da2-bbe0-d66f7ed6d85a",
    "resource": {
      "resourceType": "Patient",
      "id": "8961c16d-d6a2-4da2-bbe0-d66f7ed6d85a",
      "meta": {
        "profile": [ "http://hl7.org/fhir/us/qicore/StructureDefinition/qicore-patient" ]
      },
      "text": {
        "status": "generated",
        "div": "<div xmlns=\"http://www.w3.org/1999/xhtml\"><div class=\"hapiHeaderText\">CMPerfGT1DayAfterIPEnc <b>DENEXFAIL </b></div><table class=\"hapiPropertyTable\"><tbody><tr><td>Identifier</td><td>dcec2fd8df342b0e963fde01bb96af93</td></tr><tr><td>Date of birth</td><td><span>02 January 1974</span></td></tr></tbody></table></div>"
      },
      "extension": [ {
        "url": "http://hl7.org/fhir/us/core/StructureDefinition/us-core-race",
        "extension": [ {
          "url": "ombCategory",
          "valueCoding": {
            "system": "urn:oid:2.16.840.1.113883.6.238",
            "code": "1002-5",
            "display": "American Indian or Alaska Native",
            "userSelected": true
          }
        }, {
          "url": "text",
          "valueString": "American Indian or Alaska Native"
        } ]
      }, {
        "url": "http://hl7.org/fhir/us/core/StructureDefinition/us-core-ethnicity",
        "extension": [ {
          "url": "ombCategory",
          "valueCoding": {
            "system": "urn:oid:2.16.840.1.113883.6.238",
            "code": "2135-2",
            "display": "Hispanic or Latino",
            "userSelected": true
          }
        }, {
          "url": "text",
          "valueString": "Hispanic or Latino"
        } ]
      } ],
      "identifier": [ {
        "type": {
          "coding": [ {
            "system": "http://terminology.hl7.org/CodeSystem/v2-0203",
            "code": "MR"
          } ]
        },
        "system": "https://bonnie-fhir.healthit.gov/",
        "value": "612e6b4402c62a011f2ed1e1"
      } ],
      "active": true,
      "name": [ {
        "use": "usual",
        "family": "DENEXFail",
        "given": [ "CMPerfGT1DayAfterIPEnc" ]
      } ],
      "gender": "male",
      "birthDate": "1975-01-02"
    },
    "request": {
      "method": "PUT",
      "url": "Patient/8961c16d-d6a2-4da2-bbe0-d66f7ed6d85a"
    }
  }, {
    "fullUrl": "https://madie.cms.gov/Encounter/0e39da41-c6d3-4836-8c4d-e19c6ae65118",
    "resource": {
      "resourceType": "Encounter",
      "id": "0e39da41-c6d3-4836-8c4d-e19c6ae65118",
      "meta": {
        "profile": [ "http://hl7.org/fhir/us/qicore/StructureDefinition/qicore-encounter" ]
      },
      "status": "finished",
      "class": {
        "system": "http://terminology.hl7.org/CodeSystem/v3-ActCode",
        "code": "IMP",
        "display": "inpatient encounter"
      },
      "type": [ {
        "coding": [ {
          "system": "http://snomed.info/sct",
          "code": "8715000"
        } ]
      } ],
      "subject": {
        "reference": "Patient/8961c16d-d6a2-4da2-bbe0-d66f7ed6d85a"
      },
      "period": {
        "start": "2026-11-01T08:00:00.000+00:00",
        "end": "2026-11-26T08:15:00.000+00:00"
      },
      "length": {
        "value": 25.0,
        "unit": "days"
      }
    },
    "request": {
      "method": "PUT",
      "url": "Encounter/0e39da41-c6d3-4836-8c4d-e19c6ae65118"
    }
  }, {
    "fullUrl": "https://madie.cms.gov/Procedure/2963fb64-3714-4e69-b94c-7f2e9add7805",
    "resource": {
      "resourceType": "Procedure",
      "id": "2963fb64-3714-4e69-b94c-7f2e9add7805",
      "meta": {
        "profile": [ "http://hl7.org/fhir/us/qicore/StructureDefinition/qicore-procedure" ]
      },
      "extension": [ {
        "url": "http://hl7.org/fhir/us/qicore/StructureDefinition/qicore-recorded",
        "valueDateTime": "2013-12-04T13:35:00.000+00:00"
      } ],
      "status": "completed",
      "code": {
        "coding": [ {
          "system": "http://snomed.info/sct",
          "code": "133918004"
        } ]
      },
      "subject": {
        "reference": "Patient/8961c16d-d6a2-4da2-bbe0-d66f7ed6d85a"
      },
      "performedPeriod": {
        "start": "2026-11-05T11:00:00.000+00:00"
      }
    },
    "request": {
      "method": "PUT",
      "url": "Procedure/2963fb64-3714-4e69-b94c-7f2e9add7805"
    }
  }, {
    "fullUrl": "https://madie.cms.gov/Coverage/08165e2f-ee79-4827-a4e3-31f106131252",
    "resource": {
      "resourceType": "Coverage",
      "id": "08165e2f-ee79-4827-a4e3-31f106131252",
      "status": "active",
      "beneficiary": {
        "reference": "Patient/8961c16d-d6a2-4da2-bbe0-d66f7ed6d85a"
      },
      "period": {
        "start": "1975-01-02T08:00:00.000+00:00"
      },
      "payor": [ {
        "reference": "Organization/9aab6a50-e7bd-441e-8e7b-f9b40d3ba1e8"
      } ]
    },
    "request": {
      "method": "PUT",
      "url": "Coverage/08165e2f-ee79-4827-a4e3-31f106131252"
    }
  }, {
    "fullUrl": "https://madie.cms.gov/Procedure/ee88fe82-7381-4025-af0e-a664dbd06635",
    "resource": {
      "resourceType": "Procedure",
      "id": "ee88fe82-7381-4025-af0e-a664dbd06635",
      "meta": {
        "profile": [ "http://hl7.org/fhir/us/qicore/StructureDefinition/qicore-procedure" ]
      },
      "extension": [ {
        "url": "http://hl7.org/fhir/us/qicore/StructureDefinition/qicore-recorded",
        "valueDateTime": "2013-12-04T13:35:00.000+00:00"
      } ],
      "status": "completed",
      "code": {
        "coding": [ {
          "system": "http://www.icd10data.com/icd10pcs",
          "code": "3E030FZ"
        }, {
          "system": "http://snomed.info/sct",
          "code": "18946005"
        } ]
      },
      "subject": {
        "reference": "Patient/8961c16d-d6a2-4da2-bbe0-d66f7ed6d85a"
      },
      "performedPeriod": {
        "start": "2026-11-01T09:00:00.000+00:00",
        "end": "2026-12-02T09:15:00.000+00:00"
      }
    },
    "request": {
      "method": "PUT",
      "url": "Procedure/ee88fe82-7381-4025-af0e-a664dbd06635"
    }
  }, {
    "fullUrl": "https://madie.cms.gov/Organization/9aab6a50-e7bd-441e-8e7b-f9b40d3ba1e8",
    "resource": {
      "resourceType": "Organization",
      "id": "9aab6a50-e7bd-441e-8e7b-f9b40d3ba1e8",
      "meta": {
        "profile": [ "http://hl7.org/fhir/us/qicore/StructureDefinition/qicore-organization" ]
      },
      "identifier": [ {
        "use": "temp",
        "system": "urn:oid:2.16.840.1.113883.4.4",
        "value": "21-3259825"
      } ],
      "active": true,
      "type": [ {
        "coding": [ {
          "system": "http://terminology.hl7.org/CodeSystem/organization-type",
          "code": "pay",
          "display": "Payer"
        } ]
      } ],
      "name": "Blue Cross Blue Shield of Texas",
      "telecom": [ {
        "system": "phone",
        "value": "(+1) 972-766-6900"
      } ],
      "address": [ {
        "use": "billing",
        "type": "postal",
        "line": [ "P.O. Box 660044" ],
        "city": "Dallas",
        "state": "TX",
        "postalCode": "75266-0044",
        "country": "USA"
      } ]
    },
    "request": {
      "method": "PUT",
      "url": "Organization/9aab6a50-e7bd-441e-8e7b-f9b40d3ba1e8"
    }
  }, {
    "fullUrl": "https://madie.cms.gov/Practitioner/38b9a429-7265-47da-8a8d-3ce81a388662",
    "resource": {
      "resourceType": "Practitioner",
      "id": "38b9a429-7265-47da-8a8d-3ce81a388662",
      "identifier": [ {
        "system": "http://hl7.org/fhir/sid/us-npi",
        "value": "123456"
      } ],
      "name": [ {
        "family": "Evil",
        "prefix": [ "Dr" ]
      } ]
    },
    "request": {
      "method": "PUT",
      "url": "Practitioner/38b9a429-7265-47da-8a8d-3ce81a388662"
    }
  }, {
    "fullUrl": "https://madie.cms.gov/MeasureReport/292af1ce-9203-4990-8448-4cf042ea8f89",
    "resource": {
      "resourceType": "MeasureReport",
      "id": "292af1ce-9203-4990-8448-4cf042ea8f89",
      "meta": {
        "profile": [ "http://hl7.org/fhir/us/cqfmeasures/StructureDefinition/test-case-cqfm" ]
      },
      "contained": [ {
        "resourceType": "Parameters",
        "id": "a277f279-999e-4840-a55d-14be7dcabde7-parameters",
        "parameter": [ {
          "name": "subject",
          "valueString": "8961c16d-d6a2-4da2-bbe0-d66f7ed6d85a"
        } ]
      } ],
      "extension": [ {
        "url": "http://hl7.org/fhir/StructureDefinition/cqf-inputParameters",
        "valueReference": {
          "reference": "#a277f279-999e-4840-a55d-14be7dcabde7-parameters"
        }
      }, {
        "url": "http://hl7.org/fhir/us/cqfmeasures/StructureDefinition/cqfm-testCaseDescription",
        "valueMarkdown": "comfort measures > 1 day after IP encounter starts\n"
      } ],
      "modifierExtension": [ {
        "url": "http://hl7.org/fhir/us/cqfmeasures/StructureDefinition/cqfm-isTestCase",
        "valueBoolean": true
      } ],
      "status": "complete",
      "type": "individual",
      "measure": "https://madie.cms.gov/Measure/CMS108FHIRVTEProphylaxis",
      "period": {
        "start": "2026-01-01",
        "end": "2026-12-31"
      },
      "group": [ {
        "id": "Group_1",
        "population": [ {
          "id": "InitialPopulation_1",
          "code": {
            "coding": [ {
              "system": "http://terminology.hl7.org/CodeSystem/measure-population",
              "code": "initial-population",
              "display": "Initial Population"
            } ]
          },
          "count": 1
        }, {
          "id": "Denominator_1",
          "code": {
            "coding": [ {
              "system": "http://terminology.hl7.org/CodeSystem/measure-population",
              "code": "denominator",
              "display": "Denominator"
            } ]
          },
          "count": 1
        }, {
          "id": "DenominatorExclusion_1",
          "code": {
            "coding": [ {
              "system": "http://terminology.hl7.org/CodeSystem/measure-population",
              "code": "denominator-exclusion",
              "display": "Denominator Exclusion"
            } ]
          },
          "count": 0
        }, {
          "id": "Numerator_1",
          "code": {
            "coding": [ {
              "system": "http://terminology.hl7.org/CodeSystem/measure-population",
              "code": "numerator",
              "display": "Numerator"
            } ]
          },
          "count": 0
        } ],
        "measureScore": {
          "value": 0.0
        }
      } ],
      "evaluatedResource": [ {
        "reference": "Patient/8961c16d-d6a2-4da2-bbe0-d66f7ed6d85a"
      }, {
        "reference": "Encounter/0e39da41-c6d3-4836-8c4d-e19c6ae65118"
      }, {
        "reference": "Procedure/2963fb64-3714-4e69-b94c-7f2e9add7805"
      }, {
        "reference": "Coverage/08165e2f-ee79-4827-a4e3-31f106131252"
      }, {
        "reference": "Procedure/ee88fe82-7381-4025-af0e-a664dbd06635"
      }, {
        "reference": "Organization/9aab6a50-e7bd-441e-8e7b-f9b40d3ba1e8"
      }, {
        "reference": "Practitioner/38b9a429-7265-47da-8a8d-3ce81a388662"
      } ]
    },
    "request": {
      "method": "PUT",
      "url": "MeasureReport/292af1ce-9203-4990-8448-4cf042ea8f89"
    }
  } ]
}