{
  "resourceType": "Bundle",
  "id": "61095b0998086b53805591a5",
  "type": "transaction",
  "entry": [ {
    "fullUrl": "https://madie.cms.gov/Patient/57758f6c-7ed9-44f8-ba2a-5361746c4257",
    "resource": {
      "resourceType": "Patient",
      "id": "57758f6c-7ed9-44f8-ba2a-5361746c4257",
      "meta": {
        "profile": [ "http://hl7.org/fhir/us/qicore/StructureDefinition/qicore-patient" ]
      },
      "text": {
        "status": "generated",
        "div": "<div xmlns=\"http://www.w3.org/1999/xhtml\"><div class=\"hapiHeaderText\">Age@18 <b>DENOMPASS </b></div><table class=\"hapiPropertyTable\"><tbody><tr><td>Identifier</td><td>67f3e33acf17bcb386e754d726ed064ccd48ba21ff0ffb2eb678740a684398be</td></tr><tr><td>Date of birth</td><td><span>01 January 1994</span></td></tr></tbody></table></div>"
      },
      "extension": [ {
        "url": "http://hl7.org/fhir/us/core/StructureDefinition/us-core-race",
        "extension": [ {
          "url": "ombCategory",
          "valueCoding": {
            "system": "urn:oid:2.16.840.1.113883.6.238",
            "code": "1002-5",
            "display": "American Indian or Alaska Native",
            "userSelected": true
          }
        }, {
          "url": "text",
          "valueString": "American Indian or Alaska Native"
        } ]
      }, {
        "url": "http://hl7.org/fhir/us/core/StructureDefinition/us-core-ethnicity",
        "extension": [ {
          "url": "ombCategory",
          "valueCoding": {
            "system": "urn:oid:2.16.840.1.113883.6.238",
            "code": "2135-2",
            "display": "Hispanic or Latino",
            "userSelected": true
          }
        }, {
          "url": "text",
          "valueString": "Hispanic or Latino"
        } ]
      } ],
      "identifier": [ {
        "type": {
          "coding": [ {
            "system": "http://terminology.hl7.org/CodeSystem/v2-0203",
            "code": "MR"
          } ]
        },
        "system": "https://bonnie-fhir.healthit.gov/",
        "value": "61095b0998086b53805591a5"
      } ],
      "active": true,
      "name": [ {
        "use": "usual",
        "family": "DENEXPASS",
        "given": [ "DisseminatedChorioretinitisWithCatSurg" ]
      } ],
      "gender": "female",
      "birthDate": "1996-01-01"
    },
    "request": {
      "method": "PUT",
      "url": "Patient/57758f6c-7ed9-44f8-ba2a-5361746c4257"
    }
  }, {
    "fullUrl": "https://madie.cms.gov/Observation/62376c06-132a-464d-881b-975b1b5704ec",
    "resource": {
      "resourceType": "Observation",
      "id": "62376c06-132a-464d-881b-975b1b5704ec",
      "meta": {
        "profile": [ "http://hl7.org/fhir/us/qicore/StructureDefinition/qicore-observation-clinical-result" ]
      },
      "status": "final",
      "category": [ {
        "coding": [ {
          "system": "http://terminology.hl7.org/CodeSystem/observation-category",
          "code": "exam",
          "display": "exam"
        } ]
      } ],
      "code": {
        "coding": [ {
          "system": "http://snomed.info/sct",
          "code": "419775003"
        } ]
      },
      "subject": {
        "reference": "Patient/57758f6c-7ed9-44f8-ba2a-5361746c4257"
      },
      "effectivePeriod": {
        "start": "2026-03-13T09:00:00+00:00",
        "end": "2026-03-13T09:30:00+00:00"
      }
    },
    "request": {
      "method": "PUT",
      "url": "Observation/62376c06-132a-464d-881b-975b1b5704ec"
    }
  }, {
    "fullUrl": "https://madie.cms.gov/Procedure/f28f16dd-77e3-433b-a0cf-872deeca6717",
    "resource": {
      "resourceType": "Procedure",
      "id": "f28f16dd-77e3-433b-a0cf-872deeca6717",
      "meta": {
        "profile": [ "http://hl7.org/fhir/us/qicore/StructureDefinition/qicore-procedure" ]
      },
      "extension": [ {
        "url": "http://hl7.org/fhir/us/qicore/StructureDefinition/qicore-recorded",
        "valueDateTime": "2026-03-05T09:35:00-04:00"
      } ],
      "status": "completed",
      "code": {
        "coding": [ {
          "system": "http://snomed.info/sct",
          "code": "84149000"
        } ]
      },
      "subject": {
        "reference": "Patient/57758f6c-7ed9-44f8-ba2a-5361746c4257"
      },
      "performedPeriod": {
        "start": "2026-03-05T09:20:00-04:00",
        "end": "2026-04-05T10:30:00-04:00"
      }
    },
    "request": {
      "method": "PUT",
      "url": "Procedure/f28f16dd-77e3-433b-a0cf-872deeca6717"
    }
  }, {
    "fullUrl": "https://madie.cms.gov/Condition/f70f9a3a-dade-45e9-85bc-bf3853e4d94b",
    "resource": {
      "resourceType": "Condition",
      "id": "f70f9a3a-dade-45e9-85bc-bf3853e4d94b",
      "meta": {
        "profile": [ "http://hl7.org/fhir/us/qicore/StructureDefinition/qicore-condition-encounter-diagnosis" ]
      },
      "clinicalStatus": {
        "coding": [ {
          "system": "http://terminology.hl7.org/CodeSystem/condition-clinical",
          "code": "active",
          "display": "active",
          "userSelected": true
        } ]
      },
      "category": [ {
        "coding": [ {
          "system": "http://terminology.hl7.org/CodeSystem/condition-clinical",
          "code": "active",
          "display": "active",
          "userSelected": true
        } ]
      } ],
      "code": {
        "coding": [ {
          "system": "http://hl7.org/fhir/sid/icd-10-cm",
          "code": "A18.53",
          "userSelected": true
        }, {
          "system": "http://snomed.info/sct",
          "code": "14894002",
          "userSelected": true
        } ]
      },
      "subject": {
        "reference": "Patient/57758f6c-7ed9-44f8-ba2a-5361746c4257"
      },
      "onsetDateTime": "2024-11-01T08:00:00.000+00:00"
    },
    "request": {
      "method": "PUT",
      "url": "Condition/f70f9a3a-dade-45e9-85bc-bf3853e4d94b"
    }
  }, {
    "fullUrl": "https://madie.cms.gov/Coverage/196d48e7-62a5-48b0-b15f-7fed225a439b",
    "resource": {
      "resourceType": "Coverage",
      "id": "196d48e7-62a5-48b0-b15f-7fed225a439b",
      "meta": {
        "profile": [ "http://hl7.org/fhir/us/qicore/StructureDefinition/qicore-coverage" ]
      },
      "status": "active",
      "beneficiary": {
        "reference": "Patient/57758f6c-7ed9-44f8-ba2a-5361746c4257"
      },
      "payor": [ {
        "reference": "Organization/98ff8746-314b-4b75-b6d7-689d315e2e90"
      } ]
    },
    "request": {
      "method": "PUT",
      "url": "Coverage/196d48e7-62a5-48b0-b15f-7fed225a439b"
    }
  }, {
    "fullUrl": "https://madie.cms.gov/Organization/98ff8746-314b-4b75-b6d7-689d315e2e90",
    "resource": {
      "resourceType": "Organization",
      "id": "98ff8746-314b-4b75-b6d7-689d315e2e90",
      "meta": {
        "profile": [ "http://hl7.org/fhir/us/qicore/StructureDefinition/qicore-organization" ]
      },
      "identifier": [ {
        "use": "temp",
        "system": "urn:oid:2.16.840.1.113883.4.4",
        "value": "21-3259825"
      } ],
      "active": true,
      "type": [ {
        "coding": [ {
          "system": "http://terminology.hl7.org/CodeSystem/organization-type",
          "code": "pay",
          "display": "Payer"
        } ]
      } ],
      "name": "Blue Cross Blue Shield of Texas",
      "telecom": [ {
        "system": "phone",
        "value": "(+1) 972-766-6900"
      } ],
      "address": [ {
        "use": "billing",
        "type": "postal",
        "line": [ "P.O. Box 660044" ],
        "city": "Dallas",
        "state": "TX",
        "postalCode": "75266-0044",
        "country": "USA"
      } ]
    },
    "request": {
      "method": "PUT",
      "url": "Organization/98ff8746-314b-4b75-b6d7-689d315e2e90"
    }
  }, {
    "fullUrl": "https://madie.cms.gov/Practitioner/e4e3ecfc-94d3-4da8-8550-4a520ae6dcf3",
    "resource": {
      "resourceType": "Practitioner",
      "id": "e4e3ecfc-94d3-4da8-8550-4a520ae6dcf3",
      "meta": {
        "profile": [ "http://hl7.org/fhir/us/qicore/StructureDefinition/qicore-practitioner" ]
      },
      "identifier": [ {
        "system": "http://hl7.org/fhir/sid/us-npi",
        "value": "123456"
      } ],
      "name": [ {
        "family": "Evil",
        "prefix": [ "Dr" ]
      } ]
    },
    "request": {
      "method": "PUT",
      "url": "Practitioner/e4e3ecfc-94d3-4da8-8550-4a520ae6dcf3"
    }
  }, {
    "fullUrl": "https://madie.cms.gov/MeasureReport/1ed5829e-007a-4030-a811-535495cf75d4",
    "resource": {
      "resourceType": "MeasureReport",
      "id": "1ed5829e-007a-4030-a811-535495cf75d4",
      "meta": {
        "profile": [ "http://hl7.org/fhir/us/cqfmeasures/StructureDefinition/test-case-cqfm" ]
      },
      "contained": [ {
        "resourceType": "Parameters",
        "id": "153534ca-f5fc-4a72-9686-65fa6f71bfbf-parameters",
        "parameter": [ {
          "name": "subject",
          "valueString": "57758f6c-7ed9-44f8-ba2a-5361746c4257"
        } ]
      } ],
      "extension": [ {
        "url": "http://hl7.org/fhir/StructureDefinition/cqf-inputParameters",
        "valueReference": {
          "reference": "#153534ca-f5fc-4a72-9686-65fa6f71bfbf-parameters"
        }
      }, {
        "url": "http://hl7.org/fhir/us/cqfmeasures/StructureDefinition/cqfm-testCaseDescription",
        "valueMarkdown": "Patient with Disseminated Chorioretinitis and Disseminated Retinochoroiditis with cataract surgery. "
      } ],
      "modifierExtension": [ {
        "url": "http://hl7.org/fhir/us/cqfmeasures/StructureDefinition/cqfm-isTestCase",
        "valueBoolean": true
      } ],
      "status": "complete",
      "type": "individual",
      "measure": "https://madie.cms.gov/Measure/CMS133FHIRCataracts2040BCVAwithin90Days",
      "period": {
        "start": "2026-01-01",
        "end": "2026-12-31"
      },
      "group": [ {
        "id": "Group_1",
        "population": [ {
          "id": "InitialPopulation_1",
          "code": {
            "coding": [ {
              "system": "http://terminology.hl7.org/CodeSystem/measure-population",
              "code": "initial-population",
              "display": "Initial Population"
            } ]
          },
          "count": 1
        }, {
          "id": "Denominator_1",
          "code": {
            "coding": [ {
              "system": "http://terminology.hl7.org/CodeSystem/measure-population",
              "code": "denominator",
              "display": "Denominator"
            } ]
          },
          "count": 1
        }, {
          "id": "DenominatorExclusion_1",
          "code": {
            "coding": [ {
              "system": "http://terminology.hl7.org/CodeSystem/measure-population",
              "code": "denominator-exclusion",
              "display": "Denominator Exclusion"
            } ]
          },
          "count": 1
        }, {
          "id": "Numerator_1",
          "code": {
            "coding": [ {
              "system": "http://terminology.hl7.org/CodeSystem/measure-population",
              "code": "numerator",
              "display": "Numerator"
            } ]
          },
          "count": 0
        } ],
        "measureScore": {
          "value": 0.0
        }
      } ],
      "evaluatedResource": [ {
        "reference": "Patient/57758f6c-7ed9-44f8-ba2a-5361746c4257"
      }, {
        "reference": "Observation/62376c06-132a-464d-881b-975b1b5704ec"
      }, {
        "reference": "Procedure/f28f16dd-77e3-433b-a0cf-872deeca6717"
      }, {
        "reference": "Condition/f70f9a3a-dade-45e9-85bc-bf3853e4d94b"
      }, {
        "reference": "Coverage/196d48e7-62a5-48b0-b15f-7fed225a439b"
      }, {
        "reference": "Organization/98ff8746-314b-4b75-b6d7-689d315e2e90"
      }, {
        "reference": "Practitioner/e4e3ecfc-94d3-4da8-8550-4a520ae6dcf3"
      } ]
    },
    "request": {
      "method": "PUT",
      "url": "MeasureReport/1ed5829e-007a-4030-a811-535495cf75d4"
    }
  } ]
}