{
  "resourceType": "Bundle",
  "id": "NUMERPass-AllVaccinesAsProcedures2-Hib4-LAIV-RV3",
  "type": "transaction",
  "entry": [ {
    "fullUrl": "https://madie.cms.gov/Patient/15067a1f-bfa9-4dbc-b622-b2da823bea79",
    "resource": {
      "resourceType": "Patient",
      "id": "15067a1f-bfa9-4dbc-b622-b2da823bea79",
      "meta": {
        "profile": [ "http://hl7.org/fhir/us/qicore/StructureDefinition/qicore-patient" ]
      },
      "extension": [ {
        "url": "http://hl7.org/fhir/us/core/StructureDefinition/us-core-race",
        "extension": [ {
          "url": "ombCategory",
          "valueCoding": {
            "system": "urn:oid:2.16.840.1.113883.6.238",
            "code": "2028-9",
            "display": "Asian",
            "userSelected": true
          }
        }, {
          "url": "text",
          "valueString": "Asian"
        } ]
      }, {
        "url": "http://hl7.org/fhir/us/core/StructureDefinition/us-core-ethnicity",
        "extension": [ {
          "url": "ombCategory",
          "valueCoding": {
            "system": "urn:oid:2.16.840.1.113883.6.238",
            "code": "2135-2",
            "display": "Hispanic or Latino",
            "userSelected": true
          }
        }, {
          "url": "text",
          "valueString": "Hispanic or Latino"
        } ]
      } ],
      "identifier": [ {
        "type": {
          "coding": [ {
            "system": "http://terminology.hl7.org/CodeSystem/v2-0203",
            "code": "MR"
          } ]
        },
        "system": "http://hospital.smarthealthit.org",
        "value": "999999995"
      } ],
      "name": [ {
        "family": "Bertha",
        "given": [ "Betty" ]
      } ],
      "gender": "female",
      "birthDate": "2024-01-01"
    },
    "request": {
      "method": "PUT",
      "url": "Patient/15067a1f-bfa9-4dbc-b622-b2da823bea79"
    }
  }, {
    "fullUrl": "https://madie.cms.gov/Encounter/175c1480-eb87-40a7-9fe9-b7a5e3aff1df",
    "resource": {
      "resourceType": "Encounter",
      "id": "175c1480-eb87-40a7-9fe9-b7a5e3aff1df",
      "meta": {
        "profile": [ "http://hl7.org/fhir/us/qicore/StructureDefinition/qicore-encounter" ]
      },
      "status": "finished",
      "class": {
        "system": "http://terminology.hl7.org/CodeSystem/v3-ActCode",
        "code": "AMB",
        "display": "ambulatory"
      },
      "type": [ {
        "coding": [ {
          "system": "http://snomed.info/sct",
          "code": "185317003",
          "display": "Telephone encounter (procedure)"
        } ]
      } ],
      "subject": {
        "reference": "Patient/15067a1f-bfa9-4dbc-b622-b2da823bea79"
      },
      "period": {
        "start": "2026-01-01T01:00:00.000Z",
        "end": "2026-01-01T01:15:00.000Z"
      }
    },
    "request": {
      "method": "PUT",
      "url": "Encounter/175c1480-eb87-40a7-9fe9-b7a5e3aff1df"
    }
  }, {
    "fullUrl": "https://madie.cms.gov/Immunization/63564e74-04fe-4488-a284-4e57c8caa142",
    "resource": {
      "resourceType": "Immunization",
      "id": "63564e74-04fe-4488-a284-4e57c8caa142",
      "meta": {
        "profile": [ "http://hl7.org/fhir/us/qicore/StructureDefinition/qicore-immunization" ]
      },
      "status": "completed",
      "vaccineCode": {
        "coding": [ {
          "system": "http://hl7.org/fhir/sid/cvx",
          "code": "146",
          "display": "Diphtheria and Tetanus Toxoids and Acellular Pertussis Adsorbed, Inactivated Poliovirus, Haemophilus b Conjugate (Meningococcal Protein Conjugate), and Hepatitis B (Recombinant) Vaccine."
        } ]
      },
      "patient": {
        "reference": "Patient/15067a1f-bfa9-4dbc-b622-b2da823bea79"
      },
      "occurrenceDateTime": "2025-01-02T00:00:00.000Z",
      "recorded": "2025-01-02T00:00:00.000Z",
      "primarySource": true
    },
    "request": {
      "method": "PUT",
      "url": "Immunization/63564e74-04fe-4488-a284-4e57c8caa142"
    }
  }, {
    "fullUrl": "https://madie.cms.gov/Immunization/a05d2082-fad3-49cd-88fc-68d9b8ec4d69",
    "resource": {
      "resourceType": "Immunization",
      "id": "a05d2082-fad3-49cd-88fc-68d9b8ec4d69",
      "meta": {
        "profile": [ "http://hl7.org/fhir/us/qicore/StructureDefinition/qicore-immunization" ]
      },
      "status": "completed",
      "vaccineCode": {
        "coding": [ {
          "system": "http://hl7.org/fhir/sid/cvx",
          "code": "146",
          "display": "Diphtheria and Tetanus Toxoids and Acellular Pertussis Adsorbed, Inactivated Poliovirus, Haemophilus b Conjugate (Meningococcal Protein Conjugate), and Hepatitis B (Recombinant) Vaccine."
        } ]
      },
      "patient": {
        "reference": "Patient/15067a1f-bfa9-4dbc-b622-b2da823bea79"
      },
      "occurrenceDateTime": "2025-01-05T00:00:00.000Z",
      "recorded": "2025-01-02T00:00:00.000Z",
      "primarySource": true
    },
    "request": {
      "method": "PUT",
      "url": "Immunization/a05d2082-fad3-49cd-88fc-68d9b8ec4d69"
    }
  }, {
    "fullUrl": "https://madie.cms.gov/Immunization/7b9323b2-4cbe-4949-ac19-0dc8e5a440ae",
    "resource": {
      "resourceType": "Immunization",
      "id": "7b9323b2-4cbe-4949-ac19-0dc8e5a440ae",
      "meta": {
        "profile": [ "http://hl7.org/fhir/us/qicore/StructureDefinition/qicore-immunization" ]
      },
      "status": "completed",
      "vaccineCode": {
        "coding": [ {
          "system": "http://hl7.org/fhir/sid/cvx",
          "code": "146",
          "display": "Diphtheria and Tetanus Toxoids and Acellular Pertussis Adsorbed, Inactivated Poliovirus, Haemophilus b Conjugate (Meningococcal Protein Conjugate), and Hepatitis B (Recombinant) Vaccine."
        } ]
      },
      "patient": {
        "reference": "Patient/15067a1f-bfa9-4dbc-b622-b2da823bea79"
      },
      "occurrenceDateTime": "2025-01-07T00:00:00.000Z",
      "recorded": "2025-01-02T00:00:00.000Z",
      "primarySource": true
    },
    "request": {
      "method": "PUT",
      "url": "Immunization/7b9323b2-4cbe-4949-ac19-0dc8e5a440ae"
    }
  }, {
    "fullUrl": "https://madie.cms.gov/Procedure/ac836c30-a6c2-4bfc-8b37-ba48e1441303",
    "resource": {
      "resourceType": "Procedure",
      "id": "ac836c30-a6c2-4bfc-8b37-ba48e1441303",
      "meta": {
        "profile": [ "http://hl7.org/fhir/us/qicore/StructureDefinition/qicore-procedure" ]
      },
      "extension": [ {
        "url": "http://hl7.org/fhir/us/qicore/StructureDefinition/qicore-recorded",
        "valueDateTime": "2025-01-02T00:00:00.000Z"
      } ],
      "status": "completed",
      "code": {
        "coding": [ {
          "system": "http://www.ama-assn.org/go/cpt",
          "code": "90700",
          "display": "Diphtheria, tetanus toxoids, and acellular pertussis vaccine (DTaP), when administered to individuals younger than 7 years, for intramuscular use"
        } ]
      },
      "subject": {
        "reference": "Patient/15067a1f-bfa9-4dbc-b622-b2da823bea79"
      },
      "performedPeriod": {
        "start": "2025-01-02T00:00:00.000Z",
        "end": "2025-01-02T23:59:59.000Z"
      }
    },
    "request": {
      "method": "PUT",
      "url": "Procedure/ac836c30-a6c2-4bfc-8b37-ba48e1441303"
    }
  }, {
    "fullUrl": "https://madie.cms.gov/Immunization/437bfd78-8586-4bef-ab9a-bc133ade42e1",
    "resource": {
      "resourceType": "Immunization",
      "id": "437bfd78-8586-4bef-ab9a-bc133ade42e1",
      "meta": {
        "profile": [ "http://hl7.org/fhir/us/qicore/StructureDefinition/qicore-immunization" ]
      },
      "status": "completed",
      "vaccineCode": {
        "coding": [ {
          "system": "http://hl7.org/fhir/sid/cvx",
          "code": "146",
          "display": "\tDiphtheria and Tetanus Toxoids and Acellular Pertussis Adsorbed, Inactivated Poliovirus, Haemophilus b Conjugate (Meningococcal Protein Conjugate), and Hepatitis B (Recombinant) Vaccine."
        } ]
      },
      "patient": {
        "reference": "Patient/15067a1f-bfa9-4dbc-b622-b2da823bea79"
      },
      "occurrenceDateTime": "2025-01-02T00:00:00.000Z",
      "recorded": "2025-01-02T00:00:00.000Z",
      "primarySource": true
    },
    "request": {
      "method": "PUT",
      "url": "Immunization/437bfd78-8586-4bef-ab9a-bc133ade42e1"
    }
  }, {
    "fullUrl": "https://madie.cms.gov/Immunization/323cca8c-4ddc-4874-b234-a8b4c9978b5b",
    "resource": {
      "resourceType": "Immunization",
      "id": "323cca8c-4ddc-4874-b234-a8b4c9978b5b",
      "meta": {
        "profile": [ "http://hl7.org/fhir/us/qicore/StructureDefinition/qicore-immunization" ]
      },
      "status": "completed",
      "vaccineCode": {
        "coding": [ {
          "system": "http://hl7.org/fhir/sid/cvx",
          "code": "146",
          "display": "\tDiphtheria and Tetanus Toxoids and Acellular Pertussis Adsorbed, Inactivated Poliovirus, Haemophilus b Conjugate (Meningococcal Protein Conjugate), and Hepatitis B (Recombinant) Vaccine."
        } ]
      },
      "patient": {
        "reference": "Patient/15067a1f-bfa9-4dbc-b622-b2da823bea79"
      },
      "occurrenceDateTime": "2025-01-06T00:00:00.000Z",
      "recorded": "2025-01-02T00:00:00.000Z",
      "primarySource": true
    },
    "request": {
      "method": "PUT",
      "url": "Immunization/323cca8c-4ddc-4874-b234-a8b4c9978b5b"
    }
  }, {
    "fullUrl": "https://madie.cms.gov/Procedure/7791df95-64bf-4545-a0fd-85ad33f01a5c",
    "resource": {
      "resourceType": "Procedure",
      "id": "7791df95-64bf-4545-a0fd-85ad33f01a5c",
      "meta": {
        "profile": [ "http://hl7.org/fhir/us/qicore/StructureDefinition/qicore-procedure" ]
      },
      "extension": [ {
        "url": "http://hl7.org/fhir/us/qicore/StructureDefinition/qicore-recorded",
        "valueDateTime": "2025-01-02T00:00:00.000Z"
      } ],
      "status": "completed",
      "code": {
        "coding": [ {
          "system": "http://www.ama-assn.org/go/cpt",
          "code": "90713",
          "display": "Poliovirus vaccine, inactivated (IPV), for subcutaneous or intramuscular use"
        } ]
      },
      "subject": {
        "reference": "Patient/15067a1f-bfa9-4dbc-b622-b2da823bea79"
      },
      "performedPeriod": {
        "start": "2025-01-02T00:00:00.000Z",
        "end": "2025-01-02T23:59:59.000Z"
      }
    },
    "request": {
      "method": "PUT",
      "url": "Procedure/7791df95-64bf-4545-a0fd-85ad33f01a5c"
    }
  }, {
    "fullUrl": "https://madie.cms.gov/Procedure/4306fb7e-2779-4b35-b1e4-0279bac0a737",
    "resource": {
      "resourceType": "Procedure",
      "id": "4306fb7e-2779-4b35-b1e4-0279bac0a737",
      "meta": {
        "profile": [ "http://hl7.org/fhir/us/qicore/StructureDefinition/qicore-procedure" ]
      },
      "extension": [ {
        "url": "http://hl7.org/fhir/us/qicore/StructureDefinition/qicore-recorded",
        "valueDateTime": "2025-01-02T00:00:00.000Z"
      } ],
      "status": "completed",
      "code": {
        "coding": [ {
          "system": "http://www.ama-assn.org/go/cpt",
          "code": "90710",
          "display": "Measles, mumps, rubella, and varicella vaccine (MMRV), live, for subcutaneous use"
        } ]
      },
      "subject": {
        "reference": "Patient/15067a1f-bfa9-4dbc-b622-b2da823bea79"
      },
      "performedPeriod": {
        "start": "2025-01-02T00:00:00.000Z",
        "end": "2025-01-02T23:59:59.000Z"
      }
    },
    "request": {
      "method": "PUT",
      "url": "Procedure/4306fb7e-2779-4b35-b1e4-0279bac0a737"
    }
  }, {
    "fullUrl": "https://madie.cms.gov/Immunization/adc11759-9bca-483a-a3ad-8c429a789e24",
    "resource": {
      "resourceType": "Immunization",
      "id": "adc11759-9bca-483a-a3ad-8c429a789e24",
      "meta": {
        "profile": [ "http://hl7.org/fhir/us/qicore/StructureDefinition/qicore-immunization" ]
      },
      "status": "completed",
      "vaccineCode": {
        "coding": [ {
          "system": "http://hl7.org/fhir/sid/cvx",
          "code": "49",
          "display": "Haemophilus influenzae type b vaccine, PRP-OMP conjugate"
        } ]
      },
      "patient": {
        "reference": "Patient/15067a1f-bfa9-4dbc-b622-b2da823bea79"
      },
      "occurrenceDateTime": "2025-01-02T00:00:00.000Z",
      "recorded": "2025-01-02T00:00:00.000Z",
      "primarySource": true
    },
    "request": {
      "method": "PUT",
      "url": "Immunization/adc11759-9bca-483a-a3ad-8c429a789e24"
    }
  }, {
    "fullUrl": "https://madie.cms.gov/Immunization/00e203e1-9849-462e-bb49-e5127ddd0583",
    "resource": {
      "resourceType": "Immunization",
      "id": "00e203e1-9849-462e-bb49-e5127ddd0583",
      "meta": {
        "profile": [ "http://hl7.org/fhir/us/qicore/StructureDefinition/qicore-immunization" ]
      },
      "status": "completed",
      "vaccineCode": {
        "coding": [ {
          "system": "http://hl7.org/fhir/sid/cvx",
          "code": "49",
          "display": "Haemophilus influenzae type b vaccine, PRP-OMP conjugate"
        } ]
      },
      "patient": {
        "reference": "Patient/15067a1f-bfa9-4dbc-b622-b2da823bea79"
      },
      "occurrenceDateTime": "2025-01-02T00:00:00.000Z",
      "recorded": "2025-01-02T00:00:00.000Z",
      "primarySource": true
    },
    "request": {
      "method": "PUT",
      "url": "Immunization/00e203e1-9849-462e-bb49-e5127ddd0583"
    }
  }, {
    "fullUrl": "https://madie.cms.gov/Procedure/3cdcc4be-cd1f-4e4d-b2f2-222e989b0c57",
    "resource": {
      "resourceType": "Procedure",
      "id": "3cdcc4be-cd1f-4e4d-b2f2-222e989b0c57",
      "meta": {
        "profile": [ "http://hl7.org/fhir/us/qicore/StructureDefinition/qicore-procedure" ]
      },
      "extension": [ {
        "url": "http://hl7.org/fhir/us/qicore/StructureDefinition/qicore-recorded",
        "valueDateTime": "2025-01-02T00:00:00.000Z"
      } ],
      "status": "completed",
      "code": {
        "coding": [ {
          "system": "http://www.ama-assn.org/go/cpt",
          "code": "90697",
          "display": "Diphtheria, tetanus toxoids, acellular pertussis vaccine, inactivated poliovirus vaccine, Haemophilus influenzae type b PRP-OMP conjugate vaccine, and hepatitis B vaccine (DTaP-IPV-Hib-HepB), for intramuscular use"
        } ]
      },
      "subject": {
        "reference": "Patient/15067a1f-bfa9-4dbc-b622-b2da823bea79"
      },
      "performedPeriod": {
        "start": "2025-01-02T00:00:00.000Z",
        "end": "2025-01-02T23:59:59.000Z"
      }
    },
    "request": {
      "method": "PUT",
      "url": "Procedure/3cdcc4be-cd1f-4e4d-b2f2-222e989b0c57"
    }
  }, {
    "fullUrl": "https://madie.cms.gov/Procedure/729fe9a7-3bf2-4c32-9e27-c98ffd5d503b",
    "resource": {
      "resourceType": "Procedure",
      "id": "729fe9a7-3bf2-4c32-9e27-c98ffd5d503b",
      "meta": {
        "profile": [ "http://hl7.org/fhir/us/qicore/StructureDefinition/qicore-procedure" ]
      },
      "extension": [ {
        "url": "http://hl7.org/fhir/us/qicore/StructureDefinition/qicore-recorded",
        "valueDateTime": "2025-01-02T00:00:00.000Z"
      } ],
      "status": "completed",
      "code": {
        "coding": [ {
          "system": "http://www.ama-assn.org/go/cpt",
          "code": "90648",
          "display": "Haemophilus influenzae type b vaccine (Hib), PRP-T conjugate, 4 dose schedule, for intramuscular use"
        } ]
      },
      "subject": {
        "reference": "Patient/15067a1f-bfa9-4dbc-b622-b2da823bea79"
      },
      "performedPeriod": {
        "start": "2025-01-02T00:00:00.000Z",
        "end": "2025-01-02T23:59:59.000Z"
      }
    },
    "request": {
      "method": "PUT",
      "url": "Procedure/729fe9a7-3bf2-4c32-9e27-c98ffd5d503b"
    }
  }, {
    "fullUrl": "https://madie.cms.gov/Immunization/44a12f09-414b-45b5-aaf4-557d38915866",
    "resource": {
      "resourceType": "Immunization",
      "id": "44a12f09-414b-45b5-aaf4-557d38915866",
      "meta": {
        "profile": [ "http://hl7.org/fhir/us/qicore/StructureDefinition/qicore-immunization" ]
      },
      "status": "completed",
      "vaccineCode": {
        "coding": [ {
          "system": "http://hl7.org/fhir/sid/cvx",
          "code": "51",
          "display": "Haemophilus influenzae type b conjugate and Hepatitis B vaccine"
        } ]
      },
      "patient": {
        "reference": "Patient/15067a1f-bfa9-4dbc-b622-b2da823bea79"
      },
      "occurrenceDateTime": "2025-01-02T00:00:00.000Z",
      "recorded": "2025-01-02T00:00:00.000Z",
      "primarySource": true
    },
    "request": {
      "method": "PUT",
      "url": "Immunization/44a12f09-414b-45b5-aaf4-557d38915866"
    }
  }, {
    "fullUrl": "https://madie.cms.gov/Immunization/f032e931-10c3-4520-8292-9ba2fb7ed9db",
    "resource": {
      "resourceType": "Immunization",
      "id": "f032e931-10c3-4520-8292-9ba2fb7ed9db",
      "meta": {
        "profile": [ "http://hl7.org/fhir/us/qicore/StructureDefinition/qicore-immunization" ]
      },
      "status": "completed",
      "vaccineCode": {
        "coding": [ {
          "system": "http://hl7.org/fhir/sid/cvx",
          "code": "51",
          "display": "Haemophilus influenzae type b conjugate and Hepatitis B vaccine"
        } ]
      },
      "patient": {
        "reference": "Patient/15067a1f-bfa9-4dbc-b622-b2da823bea79"
      },
      "occurrenceDateTime": "2025-01-10T00:00:00.000Z",
      "recorded": "2025-01-02T00:00:00.000Z",
      "primarySource": true
    },
    "request": {
      "method": "PUT",
      "url": "Immunization/f032e931-10c3-4520-8292-9ba2fb7ed9db"
    }
  }, {
    "fullUrl": "https://madie.cms.gov/Procedure/bd4bd48f-c87f-4393-b9f6-4b29eda876b2",
    "resource": {
      "resourceType": "Procedure",
      "id": "bd4bd48f-c87f-4393-b9f6-4b29eda876b2",
      "meta": {
        "profile": [ "http://hl7.org/fhir/us/qicore/StructureDefinition/qicore-procedure" ]
      },
      "extension": [ {
        "url": "http://hl7.org/fhir/us/qicore/StructureDefinition/qicore-recorded",
        "valueDateTime": "2025-01-02T00:00:00.000Z"
      } ],
      "status": "completed",
      "code": {
        "coding": [ {
          "system": "http://www.ama-assn.org/go/cpt",
          "code": "90740",
          "display": "Hepatitis B vaccine (HepB), dialysis or immunosuppressed patient dosage, 3 dose schedule, for intramuscular use"
        } ]
      },
      "subject": {
        "reference": "Patient/15067a1f-bfa9-4dbc-b622-b2da823bea79"
      },
      "performedPeriod": {
        "start": "2025-01-02T00:00:00.000Z",
        "end": "2025-01-02T23:59:59.000Z"
      }
    },
    "request": {
      "method": "PUT",
      "url": "Procedure/bd4bd48f-c87f-4393-b9f6-4b29eda876b2"
    }
  }, {
    "fullUrl": "https://madie.cms.gov/Immunization/08c4afa8-eda9-4e01-a584-752a61d6ecbf",
    "resource": {
      "resourceType": "Immunization",
      "id": "08c4afa8-eda9-4e01-a584-752a61d6ecbf",
      "meta": {
        "profile": [ "http://hl7.org/fhir/us/qicore/StructureDefinition/qicore-immunization" ]
      },
      "status": "completed",
      "vaccineCode": {
        "coding": [ {
          "system": "http://hl7.org/fhir/sid/cvx",
          "code": "94",
          "display": "measles, mumps, rubella, and varicella virus vaccine"
        } ]
      },
      "patient": {
        "reference": "Patient/15067a1f-bfa9-4dbc-b622-b2da823bea79"
      },
      "occurrenceDateTime": "2025-01-02T00:00:00.000Z",
      "recorded": "2025-01-02T00:00:00.000Z",
      "primarySource": true
    },
    "request": {
      "method": "PUT",
      "url": "Immunization/08c4afa8-eda9-4e01-a584-752a61d6ecbf"
    }
  }, {
    "fullUrl": "https://madie.cms.gov/Immunization/0b4002b7-a088-4454-b870-451140a3ee32",
    "resource": {
      "resourceType": "Immunization",
      "id": "0b4002b7-a088-4454-b870-451140a3ee32",
      "meta": {
        "profile": [ "http://hl7.org/fhir/us/qicore/StructureDefinition/qicore-immunization" ]
      },
      "status": "completed",
      "vaccineCode": {
        "coding": [ {
          "system": "http://hl7.org/fhir/sid/cvx",
          "code": "215",
          "display": "Pneumococcal conjugate vaccine 15-valent (PCV15), polysaccharide CRM197 conjugate, adjuvant, preservative free"
        } ]
      },
      "patient": {
        "reference": "Patient/15067a1f-bfa9-4dbc-b622-b2da823bea79"
      },
      "occurrenceDateTime": "2025-01-12T00:00:00.000Z",
      "recorded": "2025-01-02T00:00:00.000Z",
      "primarySource": true
    },
    "request": {
      "method": "PUT",
      "url": "Immunization/0b4002b7-a088-4454-b870-451140a3ee32"
    }
  }, {
    "fullUrl": "https://madie.cms.gov/Immunization/752dae7e-4e33-4f99-8d1f-01ee32f77293",
    "resource": {
      "resourceType": "Immunization",
      "id": "752dae7e-4e33-4f99-8d1f-01ee32f77293",
      "meta": {
        "profile": [ "http://hl7.org/fhir/us/qicore/StructureDefinition/qicore-immunization" ]
      },
      "status": "completed",
      "vaccineCode": {
        "coding": [ {
          "system": "http://hl7.org/fhir/sid/cvx",
          "code": "215",
          "display": "Pneumococcal conjugate vaccine 15-valent (PCV15), polysaccharide CRM197 conjugate, adjuvant, preservative free"
        } ]
      },
      "patient": {
        "reference": "Patient/15067a1f-bfa9-4dbc-b622-b2da823bea79"
      },
      "occurrenceDateTime": "2025-01-14T00:00:00.000Z",
      "recorded": "2025-01-02T00:00:00.000Z",
      "primarySource": true
    },
    "request": {
      "method": "PUT",
      "url": "Immunization/752dae7e-4e33-4f99-8d1f-01ee32f77293"
    }
  }, {
    "fullUrl": "https://madie.cms.gov/Immunization/7c1f3142-79be-436c-9b41-be9b0f25e6e6",
    "resource": {
      "resourceType": "Immunization",
      "id": "7c1f3142-79be-436c-9b41-be9b0f25e6e6",
      "meta": {
        "profile": [ "http://hl7.org/fhir/us/qicore/StructureDefinition/qicore-immunization" ]
      },
      "status": "completed",
      "vaccineCode": {
        "coding": [ {
          "system": "http://hl7.org/fhir/sid/cvx",
          "code": "215",
          "display": "Pneumococcal conjugate vaccine 15-valent (PCV15), polysaccharide CRM197 conjugate, adjuvant, preservative free"
        } ]
      },
      "patient": {
        "reference": "Patient/15067a1f-bfa9-4dbc-b622-b2da823bea79"
      },
      "occurrenceDateTime": "2025-01-20T00:00:00.000Z",
      "recorded": "2025-01-02T00:00:00.000Z",
      "primarySource": true
    },
    "request": {
      "method": "PUT",
      "url": "Immunization/7c1f3142-79be-436c-9b41-be9b0f25e6e6"
    }
  }, {
    "fullUrl": "https://madie.cms.gov/Procedure/02eb5fbd-9401-4275-b5d6-0f0ce467038b",
    "resource": {
      "resourceType": "Procedure",
      "id": "02eb5fbd-9401-4275-b5d6-0f0ce467038b",
      "meta": {
        "profile": [ "http://hl7.org/fhir/us/qicore/StructureDefinition/qicore-procedure" ]
      },
      "extension": [ {
        "url": "http://hl7.org/fhir/us/qicore/StructureDefinition/qicore-recorded",
        "valueDateTime": "2025-01-02T00:00:00.000Z"
      } ],
      "status": "completed",
      "code": {
        "coding": [ {
          "system": "http://www.ama-assn.org/go/cpt",
          "code": "90670",
          "display": "Pneumococcal conjugate vaccine, 13 valent (PCV13), for intramuscular use"
        } ]
      },
      "subject": {
        "reference": "Patient/15067a1f-bfa9-4dbc-b622-b2da823bea79"
      },
      "performedPeriod": {
        "start": "2025-01-02T00:00:00.000Z",
        "end": "2025-01-02T23:59:59.000Z"
      }
    },
    "request": {
      "method": "PUT",
      "url": "Procedure/02eb5fbd-9401-4275-b5d6-0f0ce467038b"
    }
  }, {
    "fullUrl": "https://madie.cms.gov/Procedure/16839ab4-f74a-4503-8c47-0de485197ab9",
    "resource": {
      "resourceType": "Procedure",
      "id": "16839ab4-f74a-4503-8c47-0de485197ab9",
      "meta": {
        "profile": [ "http://hl7.org/fhir/us/qicore/StructureDefinition/qicore-procedure" ]
      },
      "extension": [ {
        "url": "http://hl7.org/fhir/us/qicore/StructureDefinition/qicore-recorded",
        "valueDateTime": "2025-01-02T00:00:00.000Z"
      } ],
      "status": "completed",
      "code": {
        "coding": [ {
          "system": "http://www.ama-assn.org/go/cpt",
          "code": "90633",
          "display": "Hepatitis A vaccine (HepA), pediatric/adolescent dosage-2 dose schedule, for intramuscular use"
        } ]
      },
      "subject": {
        "reference": "Patient/15067a1f-bfa9-4dbc-b622-b2da823bea79"
      },
      "performedPeriod": {
        "start": "2025-01-02T00:00:00.000Z",
        "end": "2025-01-02T23:59:59.000Z"
      }
    },
    "request": {
      "method": "PUT",
      "url": "Procedure/16839ab4-f74a-4503-8c47-0de485197ab9"
    }
  }, {
    "fullUrl": "https://madie.cms.gov/Immunization/1a1b5132-b311-4dc2-853b-45579d864d06",
    "resource": {
      "resourceType": "Immunization",
      "id": "1a1b5132-b311-4dc2-853b-45579d864d06",
      "meta": {
        "profile": [ "http://hl7.org/fhir/us/qicore/StructureDefinition/qicore-immunization" ]
      },
      "status": "completed",
      "vaccineCode": {
        "coding": [ {
          "system": "http://hl7.org/fhir/sid/cvx",
          "code": "119",
          "display": "rotavirus, live, monovalent vaccine"
        } ]
      },
      "patient": {
        "reference": "Patient/15067a1f-bfa9-4dbc-b622-b2da823bea79"
      },
      "occurrenceDateTime": "2025-01-02T00:00:00.000Z",
      "recorded": "2025-01-02T00:00:00.000Z",
      "primarySource": true
    },
    "request": {
      "method": "PUT",
      "url": "Immunization/1a1b5132-b311-4dc2-853b-45579d864d06"
    }
  }, {
    "fullUrl": "https://madie.cms.gov/Procedure/911cc1e5-e18b-41d7-b636-2afd46c03eab",
    "resource": {
      "resourceType": "Procedure",
      "id": "911cc1e5-e18b-41d7-b636-2afd46c03eab",
      "meta": {
        "profile": [ "http://hl7.org/fhir/us/qicore/StructureDefinition/qicore-procedure" ]
      },
      "extension": [ {
        "url": "http://hl7.org/fhir/us/qicore/StructureDefinition/qicore-recorded",
        "valueDateTime": "2025-01-07T00:00:00.000Z"
      } ],
      "status": "completed",
      "code": {
        "coding": [ {
          "system": "http://www.ama-assn.org/go/cpt",
          "code": "90681",
          "display": "Rotavirus vaccine, human, attenuated (RV1), 2 dose schedule, live, for oral use"
        } ]
      },
      "subject": {
        "reference": "Patient/15067a1f-bfa9-4dbc-b622-b2da823bea79"
      },
      "performedPeriod": {
        "start": "2025-01-07T00:00:00.000Z",
        "end": "2025-01-07T23:59:59.000Z"
      }
    },
    "request": {
      "method": "PUT",
      "url": "Procedure/911cc1e5-e18b-41d7-b636-2afd46c03eab"
    }
  }, {
    "fullUrl": "https://madie.cms.gov/Procedure/15db9dac-6d71-45e2-ba49-56ba81ef42c1",
    "resource": {
      "resourceType": "Procedure",
      "id": "15db9dac-6d71-45e2-ba49-56ba81ef42c1",
      "meta": {
        "profile": [ "http://hl7.org/fhir/us/qicore/StructureDefinition/qicore-procedure" ]
      },
      "extension": [ {
        "url": "http://hl7.org/fhir/us/qicore/StructureDefinition/qicore-recorded",
        "valueDateTime": "2025-01-08T00:00:00.000Z"
      } ],
      "status": "completed",
      "code": {
        "coding": [ {
          "system": "http://www.ama-assn.org/go/cpt",
          "code": "90680",
          "display": "Rotavirus vaccine, pentavalent (RV5), 3 dose schedule, live, for oral use"
        } ]
      },
      "subject": {
        "reference": "Patient/15067a1f-bfa9-4dbc-b622-b2da823bea79"
      },
      "performedPeriod": {
        "start": "2025-01-08T00:00:00.000Z",
        "end": "2025-01-08T23:59:59.000Z"
      }
    },
    "request": {
      "method": "PUT",
      "url": "Procedure/15db9dac-6d71-45e2-ba49-56ba81ef42c1"
    }
  }, {
    "fullUrl": "https://madie.cms.gov/Immunization/ab52e53f-b542-40a9-b97d-3a0f20274439",
    "resource": {
      "resourceType": "Immunization",
      "id": "ab52e53f-b542-40a9-b97d-3a0f20274439",
      "meta": {
        "profile": [ "http://hl7.org/fhir/us/qicore/StructureDefinition/qicore-immunization" ]
      },
      "status": "completed",
      "vaccineCode": {
        "coding": [ {
          "system": "http://hl7.org/fhir/sid/cvx",
          "code": "153",
          "display": "\tInfluenza, injectable, Madin Darby Canine Kidney, preservative free"
        } ]
      },
      "patient": {
        "reference": "Patient/15067a1f-bfa9-4dbc-b622-b2da823bea79"
      },
      "occurrenceDateTime": "2025-01-02T00:00:00.000Z",
      "recorded": "2025-01-02T00:00:00.000Z",
      "primarySource": true
    },
    "request": {
      "method": "PUT",
      "url": "Immunization/ab52e53f-b542-40a9-b97d-3a0f20274439"
    }
  }, {
    "fullUrl": "https://madie.cms.gov/Procedure/baca065f-69bb-49d1-84c3-74cdedca429e",
    "resource": {
      "resourceType": "Procedure",
      "id": "baca065f-69bb-49d1-84c3-74cdedca429e",
      "meta": {
        "profile": [ "http://hl7.org/fhir/us/qicore/StructureDefinition/qicore-procedure" ]
      },
      "extension": [ {
        "url": "http://hl7.org/fhir/us/qicore/StructureDefinition/qicore-recorded",
        "valueDateTime": "2026-01-01T00:00:00.000Z"
      } ],
      "status": "completed",
      "code": {
        "coding": [ {
          "system": "http://www.ama-assn.org/go/cpt",
          "code": "90672",
          "display": "Influenza virus vaccine, quadrivalent, live (LAIV4), for intranasal use"
        } ]
      },
      "subject": {
        "reference": "Patient/15067a1f-bfa9-4dbc-b622-b2da823bea79"
      },
      "performedPeriod": {
        "start": "2026-01-01T00:00:00.000Z",
        "end": "2026-01-01T23:59:59.000Z"
      }
    },
    "request": {
      "method": "PUT",
      "url": "Procedure/baca065f-69bb-49d1-84c3-74cdedca429e"
    }
  }, {
    "fullUrl": "https://madie.cms.gov/MeasureReport/09ef978f-7717-4b38-a234-dea456318e6c",
    "resource": {
      "resourceType": "MeasureReport",
      "id": "09ef978f-7717-4b38-a234-dea456318e6c",
      "meta": {
        "profile": [ "http://hl7.org/fhir/us/cqfmeasures/StructureDefinition/test-case-cqfm" ]
      },
      "contained": [ {
        "resourceType": "Parameters",
        "id": "e991cae0-6c02-430c-a978-82f880499b21-parameters",
        "parameter": [ {
          "name": "subject",
          "valueString": "15067a1f-bfa9-4dbc-b622-b2da823bea79"
        } ]
      } ],
      "extension": [ {
        "url": "http://hl7.org/fhir/StructureDefinition/cqf-inputParameters",
        "valueReference": {
          "reference": "#e991cae0-6c02-430c-a978-82f880499b21-parameters"
        }
      }, {
        "url": "http://hl7.org/fhir/us/cqfmeasures/StructureDefinition/cqfm-testCaseDescription",
        "valueMarkdown": "All vaccines met - procedures - with Hib4, LAIV, RV3 codes"
      } ],
      "modifierExtension": [ {
        "url": "http://hl7.org/fhir/us/cqfmeasures/StructureDefinition/cqfm-isTestCase",
        "valueBoolean": true
      } ],
      "status": "complete",
      "type": "individual",
      "measure": "https://madie.cms.gov/Measure/ChildhoodImmunizationStatusFHIR",
      "period": {
        "start": "2026-01-01",
        "end": "2026-12-31"
      },
      "group": [ {
        "id": "Group_1",
        "population": [ {
          "id": "InitialPopulation_1",
          "code": {
            "coding": [ {
              "system": "http://terminology.hl7.org/CodeSystem/measure-population",
              "code": "initial-population",
              "display": "Initial Population"
            } ]
          },
          "count": 1
        }, {
          "id": "Denominator_1",
          "code": {
            "coding": [ {
              "system": "http://terminology.hl7.org/CodeSystem/measure-population",
              "code": "denominator",
              "display": "Denominator"
            } ]
          },
          "count": 1
        }, {
          "id": "DenominatorExclusion_1",
          "code": {
            "coding": [ {
              "system": "http://terminology.hl7.org/CodeSystem/measure-population",
              "code": "denominator-exclusion",
              "display": "Denominator Exclusion"
            } ]
          },
          "count": 0
        }, {
          "id": "Numerator_1",
          "code": {
            "coding": [ {
              "system": "http://terminology.hl7.org/CodeSystem/measure-population",
              "code": "numerator",
              "display": "Numerator"
            } ]
          },
          "count": 1
        } ],
        "measureScore": {
          "value": 1.0
        }
      } ],
      "evaluatedResource": [ {
        "reference": "Patient/15067a1f-bfa9-4dbc-b622-b2da823bea79"
      }, {
        "reference": "Encounter/175c1480-eb87-40a7-9fe9-b7a5e3aff1df"
      }, {
        "reference": "Immunization/63564e74-04fe-4488-a284-4e57c8caa142"
      }, {
        "reference": "Immunization/a05d2082-fad3-49cd-88fc-68d9b8ec4d69"
      }, {
        "reference": "Immunization/7b9323b2-4cbe-4949-ac19-0dc8e5a440ae"
      }, {
        "reference": "Procedure/ac836c30-a6c2-4bfc-8b37-ba48e1441303"
      }, {
        "reference": "Immunization/437bfd78-8586-4bef-ab9a-bc133ade42e1"
      }, {
        "reference": "Immunization/323cca8c-4ddc-4874-b234-a8b4c9978b5b"
      }, {
        "reference": "Procedure/7791df95-64bf-4545-a0fd-85ad33f01a5c"
      }, {
        "reference": "Procedure/4306fb7e-2779-4b35-b1e4-0279bac0a737"
      }, {
        "reference": "Immunization/adc11759-9bca-483a-a3ad-8c429a789e24"
      }, {
        "reference": "Immunization/00e203e1-9849-462e-bb49-e5127ddd0583"
      }, {
        "reference": "Procedure/3cdcc4be-cd1f-4e4d-b2f2-222e989b0c57"
      }, {
        "reference": "Procedure/729fe9a7-3bf2-4c32-9e27-c98ffd5d503b"
      }, {
        "reference": "Immunization/44a12f09-414b-45b5-aaf4-557d38915866"
      }, {
        "reference": "Immunization/f032e931-10c3-4520-8292-9ba2fb7ed9db"
      }, {
        "reference": "Procedure/bd4bd48f-c87f-4393-b9f6-4b29eda876b2"
      }, {
        "reference": "Immunization/08c4afa8-eda9-4e01-a584-752a61d6ecbf"
      }, {
        "reference": "Immunization/0b4002b7-a088-4454-b870-451140a3ee32"
      }, {
        "reference": "Immunization/752dae7e-4e33-4f99-8d1f-01ee32f77293"
      }, {
        "reference": "Immunization/7c1f3142-79be-436c-9b41-be9b0f25e6e6"
      }, {
        "reference": "Procedure/02eb5fbd-9401-4275-b5d6-0f0ce467038b"
      }, {
        "reference": "Procedure/16839ab4-f74a-4503-8c47-0de485197ab9"
      }, {
        "reference": "Immunization/1a1b5132-b311-4dc2-853b-45579d864d06"
      }, {
        "reference": "Procedure/911cc1e5-e18b-41d7-b636-2afd46c03eab"
      }, {
        "reference": "Procedure/15db9dac-6d71-45e2-ba49-56ba81ef42c1"
      }, {
        "reference": "Immunization/ab52e53f-b542-40a9-b97d-3a0f20274439"
      }, {
        "reference": "Procedure/baca065f-69bb-49d1-84c3-74cdedca429e"
      } ]
    },
    "request": {
      "method": "PUT",
      "url": "MeasureReport/09ef978f-7717-4b38-a234-dea456318e6c"
    }
  }, {
    "fullUrl": "https://madie.cms.gov/MeasureReport/d450ece0-0299-4bff-a2c7-d0dbc0a531d4",
    "resource": {
      "resourceType": "MeasureReport",
      "id": "d450ece0-0299-4bff-a2c7-d0dbc0a531d4",
      "meta": {
        "profile": [ "http://hl7.org/fhir/us/cqfmeasures/StructureDefinition/test-case-cqfm" ]
      },
      "contained": [ {
        "resourceType": "Parameters",
        "id": "77ea11a1-5be6-482f-bada-17af9fe710e6-parameters",
        "parameter": [ {
          "name": "subject",
          "valueString": "15067a1f-bfa9-4dbc-b622-b2da823bea79"
        } ]
      } ],
      "extension": [ {
        "url": "http://hl7.org/fhir/StructureDefinition/cqf-inputParameters",
        "valueReference": {
          "reference": "#77ea11a1-5be6-482f-bada-17af9fe710e6-parameters"
        }
      }, {
        "url": "http://hl7.org/fhir/us/cqfmeasures/StructureDefinition/cqfm-testCaseDescription",
        "valueMarkdown": "All vaccines met - procedures - with Hib4, LAIV, RV3 codes"
      } ],
      "modifierExtension": [ {
        "url": "http://hl7.org/fhir/us/cqfmeasures/StructureDefinition/cqfm-isTestCase",
        "valueBoolean": true
      } ],
      "status": "complete",
      "type": "individual",
      "measure": "https://madie.cms.gov/Measure/CMS117FHIRChildhoodImmunizationStatus",
      "period": {
        "start": "2026-01-01",
        "end": "2026-12-31"
      },
      "group": [ {
        "id": "Group_1",
        "population": [ {
          "id": "InitialPopulation_1",
          "code": {
            "coding": [ {
              "system": "http://terminology.hl7.org/CodeSystem/measure-population",
              "code": "initial-population",
              "display": "Initial Population"
            } ]
          },
          "count": 1
        }, {
          "id": "Denominator_1",
          "code": {
            "coding": [ {
              "system": "http://terminology.hl7.org/CodeSystem/measure-population",
              "code": "denominator",
              "display": "Denominator"
            } ]
          },
          "count": 1
        }, {
          "id": "DenominatorExclusion_1",
          "code": {
            "coding": [ {
              "system": "http://terminology.hl7.org/CodeSystem/measure-population",
              "code": "denominator-exclusion",
              "display": "Denominator Exclusion"
            } ]
          },
          "count": 0
        }, {
          "id": "Numerator_1",
          "code": {
            "coding": [ {
              "system": "http://terminology.hl7.org/CodeSystem/measure-population",
              "code": "numerator",
              "display": "Numerator"
            } ]
          },
          "count": 1
        } ],
        "measureScore": {
          "value": 1.0
        }
      } ],
      "evaluatedResource": [ {
        "reference": "Patient/15067a1f-bfa9-4dbc-b622-b2da823bea79"
      }, {
        "reference": "Encounter/175c1480-eb87-40a7-9fe9-b7a5e3aff1df"
      }, {
        "reference": "Immunization/63564e74-04fe-4488-a284-4e57c8caa142"
      }, {
        "reference": "Immunization/a05d2082-fad3-49cd-88fc-68d9b8ec4d69"
      }, {
        "reference": "Immunization/7b9323b2-4cbe-4949-ac19-0dc8e5a440ae"
      }, {
        "reference": "Procedure/ac836c30-a6c2-4bfc-8b37-ba48e1441303"
      }, {
        "reference": "Immunization/437bfd78-8586-4bef-ab9a-bc133ade42e1"
      }, {
        "reference": "Immunization/323cca8c-4ddc-4874-b234-a8b4c9978b5b"
      }, {
        "reference": "Procedure/7791df95-64bf-4545-a0fd-85ad33f01a5c"
      }, {
        "reference": "Procedure/4306fb7e-2779-4b35-b1e4-0279bac0a737"
      }, {
        "reference": "Immunization/adc11759-9bca-483a-a3ad-8c429a789e24"
      }, {
        "reference": "Immunization/00e203e1-9849-462e-bb49-e5127ddd0583"
      }, {
        "reference": "Procedure/3cdcc4be-cd1f-4e4d-b2f2-222e989b0c57"
      }, {
        "reference": "Procedure/729fe9a7-3bf2-4c32-9e27-c98ffd5d503b"
      }, {
        "reference": "Immunization/44a12f09-414b-45b5-aaf4-557d38915866"
      }, {
        "reference": "Immunization/f032e931-10c3-4520-8292-9ba2fb7ed9db"
      }, {
        "reference": "Procedure/bd4bd48f-c87f-4393-b9f6-4b29eda876b2"
      }, {
        "reference": "Immunization/08c4afa8-eda9-4e01-a584-752a61d6ecbf"
      }, {
        "reference": "Immunization/0b4002b7-a088-4454-b870-451140a3ee32"
      }, {
        "reference": "Immunization/752dae7e-4e33-4f99-8d1f-01ee32f77293"
      }, {
        "reference": "Immunization/7c1f3142-79be-436c-9b41-be9b0f25e6e6"
      }, {
        "reference": "Procedure/02eb5fbd-9401-4275-b5d6-0f0ce467038b"
      }, {
        "reference": "Procedure/16839ab4-f74a-4503-8c47-0de485197ab9"
      }, {
        "reference": "Immunization/1a1b5132-b311-4dc2-853b-45579d864d06"
      }, {
        "reference": "Procedure/911cc1e5-e18b-41d7-b636-2afd46c03eab"
      }, {
        "reference": "Procedure/15db9dac-6d71-45e2-ba49-56ba81ef42c1"
      }, {
        "reference": "Immunization/ab52e53f-b542-40a9-b97d-3a0f20274439"
      }, {
        "reference": "Procedure/baca065f-69bb-49d1-84c3-74cdedca429e"
      }, {
        "reference": "MeasureReport/09ef978f-7717-4b38-a234-dea456318e6c"
      } ]
    },
    "request": {
      "method": "PUT",
      "url": "MeasureReport/d450ece0-0299-4bff-a2c7-d0dbc0a531d4"
    }
  } ]
}