{
  "resourceType": "Bundle",
  "id": "633b3f9e0968f80122503cc6",
  "type": "transaction",
  "entry": [ {
    "fullUrl": "https://madie.cms.gov/Patient/d7103361-816e-4396-8d63-d1f8fb4e7b2d",
    "resource": {
      "resourceType": "Patient",
      "id": "d7103361-816e-4396-8d63-d1f8fb4e7b2d",
      "meta": {
        "profile": [ "http://hl7.org/fhir/us/qicore/StructureDefinition/qicore-patient" ]
      },
      "text": {
        "status": "generated",
        "div": "<div xmlns=\"http://www.w3.org/1999/xhtml\"><div class=\"hapiHeaderText\">DelProcStartEncEnd<b>IPPASS</b></div><table class=\"hapiPropertyTable\"><tbody><tr><td>Date of birth</td><td><span>31 January 2004</span></td></tr></tbody></table></div>"
      },
      "extension": [ {
        "url": "http://hl7.org/fhir/us/core/StructureDefinition/us-core-race",
        "extension": [ {
          "url": "ombCategory",
          "valueCoding": {
            "system": "urn:oid:2.16.840.1.113883.6.238",
            "code": "1002-5",
            "display": "American Indian or Alaska Native",
            "userSelected": true
          }
        }, {
          "url": "text",
          "valueString": "American Indian or Alaska Native"
        } ]
      }, {
        "url": "http://hl7.org/fhir/us/core/StructureDefinition/us-core-ethnicity",
        "extension": [ {
          "url": "ombCategory",
          "valueCoding": {
            "system": "urn:oid:2.16.840.1.113883.6.238",
            "code": "2135-2",
            "display": "Hispanic or Latino",
            "userSelected": true
          }
        }, {
          "url": "text",
          "valueString": "Hispanic or Latino"
        } ]
      } ],
      "identifier": [ {
        "type": {
          "coding": [ {
            "system": "http://terminology.hl7.org/CodeSystem/v2-0203",
            "code": "MR"
          } ]
        },
        "system": "https://bonnie-fhir.healthit.gov/",
        "value": "633b3f9e0968f80122503cc6"
      } ],
      "active": true,
      "name": [ {
        "use": "usual",
        "family": "IPPass",
        "given": [ "DelProcStartEncEnd" ]
      } ],
      "gender": "female",
      "birthDate": "2005-01-31"
    },
    "request": {
      "method": "PUT",
      "url": "Patient/d7103361-816e-4396-8d63-d1f8fb4e7b2d"
    }
  }, {
    "fullUrl": "https://madie.cms.gov/Encounter/dc9783e5-059c-4188-be52-b78369330329",
    "resource": {
      "resourceType": "Encounter",
      "id": "dc9783e5-059c-4188-be52-b78369330329",
      "meta": {
        "profile": [ "http://hl7.org/fhir/us/qicore/StructureDefinition/qicore-encounter" ]
      },
      "status": "finished",
      "class": {
        "system": "http://terminology.hl7.org/CodeSystem/v3-ActCode",
        "code": "IMP",
        "display": "inpatient encounter"
      },
      "type": [ {
        "coding": [ {
          "system": "http://snomed.info/sct",
          "code": "183452005"
        } ]
      } ],
      "subject": {
        "reference": "Patient/d7103361-816e-4396-8d63-d1f8fb4e7b2d"
      },
      "period": {
        "start": "2026-02-01T08:00:00Z",
        "end": "2026-02-05T08:15:00.000+00:00"
      }
    },
    "request": {
      "method": "PUT",
      "url": "Encounter/dc9783e5-059c-4188-be52-b78369330329"
    }
  }, {
    "fullUrl": "https://madie.cms.gov/Procedure/4e6161cf-8f08-455f-a827-e12b691107f3",
    "resource": {
      "resourceType": "Procedure",
      "id": "4e6161cf-8f08-455f-a827-e12b691107f3",
      "meta": {
        "profile": [ "http://hl7.org/fhir/us/qicore/StructureDefinition/qicore-procedure" ]
      },
      "extension": [ {
        "url": "http://hl7.org/fhir/us/qicore/StructureDefinition/qicore-recorded",
        "valueDateTime": "2014-04-05T13:35:00Z"
      } ],
      "status": "completed",
      "code": {
        "coding": [ {
          "system": "http://snomed.info/sct",
          "code": "10745001"
        } ]
      },
      "subject": {
        "reference": "Patient/d7103361-816e-4396-8d63-d1f8fb4e7b2d"
      },
      "performedPeriod": {
        "start": "2026-02-05T08:15:00Z",
        "end": "2026-02-05T08:15:00.000+00:00"
      }
    },
    "request": {
      "method": "PUT",
      "url": "Procedure/4e6161cf-8f08-455f-a827-e12b691107f3"
    }
  }, {
    "fullUrl": "https://madie.cms.gov/Coverage/3ca61d21-05c2-44bf-ac81-3bb25984a8aa",
    "resource": {
      "resourceType": "Coverage",
      "id": "3ca61d21-05c2-44bf-ac81-3bb25984a8aa",
      "meta": {
        "profile": [ "http://hl7.org/fhir/us/qicore/StructureDefinition/qicore-coverage" ]
      },
      "status": "active",
      "beneficiary": {
        "reference": "Patient/d7103361-816e-4396-8d63-d1f8fb4e7b2d"
      },
      "payor": [ {
        "reference": "Organization/2814c3ad-d1bf-46fa-8c1d-336c3b85b736"
      } ]
    },
    "request": {
      "method": "PUT",
      "url": "Coverage/3ca61d21-05c2-44bf-ac81-3bb25984a8aa"
    }
  }, {
    "fullUrl": "https://madie.cms.gov/Organization/2814c3ad-d1bf-46fa-8c1d-336c3b85b736",
    "resource": {
      "resourceType": "Organization",
      "id": "2814c3ad-d1bf-46fa-8c1d-336c3b85b736",
      "meta": {
        "profile": [ "http://hl7.org/fhir/us/qicore/StructureDefinition/qicore-organization" ]
      },
      "identifier": [ {
        "use": "temp",
        "system": "urn:oid:2.16.840.1.113883.4.4",
        "value": "21-3259825"
      } ],
      "active": true,
      "type": [ {
        "coding": [ {
          "system": "http://terminology.hl7.org/CodeSystem/organization-type",
          "code": "pay",
          "display": "Payer"
        } ]
      } ],
      "name": "Blue Cross Blue Shield of Texas",
      "telecom": [ {
        "system": "phone",
        "value": "(+1) 972-766-6900"
      } ],
      "address": [ {
        "use": "billing",
        "type": "postal",
        "line": [ "P.O. Box 660044" ],
        "city": "Dallas",
        "state": "TX",
        "postalCode": "75266-0044",
        "country": "USA"
      } ]
    },
    "request": {
      "method": "PUT",
      "url": "Organization/2814c3ad-d1bf-46fa-8c1d-336c3b85b736"
    }
  }, {
    "fullUrl": "https://madie.cms.gov/Practitioner/f2e94546-9d31-4c29-a8b0-e1eb621e304c",
    "resource": {
      "resourceType": "Practitioner",
      "id": "f2e94546-9d31-4c29-a8b0-e1eb621e304c",
      "identifier": [ {
        "system": "http://hl7.org/fhir/sid/us-npi",
        "value": "123456"
      } ],
      "name": [ {
        "family": "Evil",
        "prefix": [ "Dr" ]
      } ]
    },
    "request": {
      "method": "PUT",
      "url": "Practitioner/f2e94546-9d31-4c29-a8b0-e1eb621e304c"
    }
  }, {
    "fullUrl": "https://madie.cms.gov/MeasureReport/05533a68-a958-48f9-8d6b-8a0cf6d13811",
    "resource": {
      "resourceType": "MeasureReport",
      "id": "05533a68-a958-48f9-8d6b-8a0cf6d13811",
      "meta": {
        "profile": [ "http://hl7.org/fhir/us/cqfmeasures/StructureDefinition/test-case-cqfm" ]
      },
      "contained": [ {
        "resourceType": "Parameters",
        "id": "f93696cc-d1db-4ac6-ac7c-9e9013f29947-parameters",
        "parameter": [ {
          "name": "subject",
          "valueString": "d7103361-816e-4396-8d63-d1f8fb4e7b2d"
        } ]
      } ],
      "extension": [ {
        "url": "http://hl7.org/fhir/StructureDefinition/cqf-inputParameters",
        "valueReference": {
          "reference": "#f93696cc-d1db-4ac6-ac7c-9e9013f29947-parameters"
        }
      }, {
        "url": "http://hl7.org/fhir/us/cqfmeasures/StructureDefinition/cqfm-testCaseDescription",
        "valueMarkdown": "Delivery procedure start equals encounter end\n"
      } ],
      "modifierExtension": [ {
        "url": "http://hl7.org/fhir/us/cqfmeasures/StructureDefinition/cqfm-isTestCase",
        "valueBoolean": true
      } ],
      "status": "complete",
      "type": "individual",
      "measure": "https://madie.cms.gov/Measure/CMS1028FHIRPCSevereOBComps",
      "period": {
        "start": "2026-01-01",
        "end": "2026-12-31"
      },
      "group": [ {
        "id": "Group_1",
        "population": [ {
          "id": "InitialPopulation_1",
          "code": {
            "coding": [ {
              "system": "http://terminology.hl7.org/CodeSystem/measure-population",
              "code": "initial-population",
              "display": "Initial Population"
            } ]
          },
          "count": 1
        }, {
          "id": "Denominator_1",
          "code": {
            "coding": [ {
              "system": "http://terminology.hl7.org/CodeSystem/measure-population",
              "code": "denominator",
              "display": "Denominator"
            } ]
          },
          "count": 0
        }, {
          "id": "Numerator_1",
          "code": {
            "coding": [ {
              "system": "http://terminology.hl7.org/CodeSystem/measure-population",
              "code": "numerator",
              "display": "Numerator"
            } ]
          },
          "count": 0
        }, {
          "id": "NumeratorExclusion_1",
          "code": {
            "coding": [ {
              "system": "http://terminology.hl7.org/CodeSystem/measure-population",
              "code": "numerator-exclusion",
              "display": "Numerator Exclusion"
            } ]
          },
          "count": 0
        } ],
        "measureScore": {
          "value": 0.0
        }
      }, {
        "id": "Group_2",
        "population": [ {
          "id": "InitialPopulation_2",
          "code": {
            "coding": [ {
              "system": "http://terminology.hl7.org/CodeSystem/measure-population",
              "code": "initial-population",
              "display": "Initial Population"
            } ]
          },
          "count": 1
        }, {
          "id": "Denominator_2",
          "code": {
            "coding": [ {
              "system": "http://terminology.hl7.org/CodeSystem/measure-population",
              "code": "denominator",
              "display": "Denominator"
            } ]
          },
          "count": 0
        }, {
          "id": "Numerator_2",
          "code": {
            "coding": [ {
              "system": "http://terminology.hl7.org/CodeSystem/measure-population",
              "code": "numerator",
              "display": "Numerator"
            } ]
          },
          "count": 0
        }, {
          "id": "NumeratorExclusion_2",
          "code": {
            "coding": [ {
              "system": "http://terminology.hl7.org/CodeSystem/measure-population",
              "code": "numerator-exclusion",
              "display": "Numerator Exclusion"
            } ]
          },
          "count": 0
        } ],
        "measureScore": {
          "value": 0.0
        }
      } ],
      "evaluatedResource": [ {
        "reference": "Patient/d7103361-816e-4396-8d63-d1f8fb4e7b2d"
      }, {
        "reference": "Encounter/dc9783e5-059c-4188-be52-b78369330329"
      }, {
        "reference": "Procedure/4e6161cf-8f08-455f-a827-e12b691107f3"
      }, {
        "reference": "Coverage/3ca61d21-05c2-44bf-ac81-3bb25984a8aa"
      }, {
        "reference": "Organization/2814c3ad-d1bf-46fa-8c1d-336c3b85b736"
      }, {
        "reference": "Practitioner/f2e94546-9d31-4c29-a8b0-e1eb621e304c"
      } ]
    },
    "request": {
      "method": "PUT",
      "url": "MeasureReport/05533a68-a958-48f9-8d6b-8a0cf6d13811"
    }
  } ]
}