{
  "resourceType": "Bundle",
  "id": "4616513133030",
  "type": "transaction",
  "entry": [ {
    "fullUrl": "https://madie.cms.gov/Patient/f40eb08c-b994-45b9-b907-d25e2fff2618",
    "resource": {
      "resourceType": "Patient",
      "id": "f40eb08c-b994-45b9-b907-d25e2fff2618",
      "meta": {
        "profile": [ "http://hl7.org/fhir/us/qicore/StructureDefinition/qicore-patient" ]
      },
      "extension": [ {
        "url": "http://hl7.org/fhir/us/core/StructureDefinition/us-core-race",
        "extension": [ {
          "url": "ombCategory",
          "valueCoding": {
            "system": "urn:oid:2.16.840.1.113883.6.238",
            "code": "2076-8",
            "display": "Native Hawaiian or Other Pacific Islander"
          }
        }, {
          "url": "text",
          "valueString": "Native Hawaiian or Other Pacific Islander"
        } ]
      }, {
        "url": "http://hl7.org/fhir/us/core/StructureDefinition/us-core-ethnicity",
        "extension": [ {
          "url": "ombCategory",
          "valueCoding": {
            "system": "urn:oid:2.16.840.1.113883.6.238",
            "code": "2186-5",
            "display": "Not Hispanic or Latino"
          }
        }, {
          "url": "text",
          "valueString": "Not Hispanic or Latino"
        } ]
      } ],
      "identifier": [ {
        "type": {
          "coding": [ {
            "system": "http://terminology.hl7.org/CodeSystem/v2-0203",
            "code": "MR"
          } ]
        },
        "system": "https://bonnie-fhir.healthit.gov/",
        "value": "60d4bda907206d58cd96b128"
      } ],
      "name": [ {
        "family": "NUMERFail",
        "given": [ "BCGMoreThan6MonthsAfterStagingEdge" ]
      } ],
      "gender": "female",
      "birthDate": "1951-12-25"
    },
    "request": {
      "method": "PUT",
      "url": "Patient/f40eb08c-b994-45b9-b907-d25e2fff2618"
    }
  }, {
    "fullUrl": "https://madie.cms.gov/Encounter/4724fa4a-d920-4d89-bb6b-80b24a53e4af",
    "resource": {
      "resourceType": "Encounter",
      "id": "4724fa4a-d920-4d89-bb6b-80b24a53e4af",
      "meta": {
        "profile": [ "http://hl7.org/fhir/us/qicore/StructureDefinition/qicore-encounter" ]
      },
      "status": "finished",
      "class": {
        "system": "http://terminology.hl7.org/CodeSystem/v3-ActCode",
        "code": "AMB",
        "display": "ambulatory"
      },
      "type": [ {
        "coding": [ {
          "system": "http://snomed.info/sct",
          "version": "http://snomed.info/sct/731000124108/version/20240301",
          "code": "185463005",
          "display": "Visit out of hours (procedure)"
        } ]
      } ],
      "subject": {
        "reference": "Patient/f40eb08c-b994-45b9-b907-d25e2fff2618"
      },
      "period": {
        "start": "2026-04-02T08:00:00.000+00:00",
        "end": "2026-04-02T09:15:00.000+00:00"
      }
    },
    "request": {
      "method": "PUT",
      "url": "Encounter/4724fa4a-d920-4d89-bb6b-80b24a53e4af"
    }
  }, {
    "fullUrl": "https://madie.cms.gov/Condition/72b1e748-c048-49a4-b128-2c9f3a9ba868",
    "resource": {
      "resourceType": "Condition",
      "id": "72b1e748-c048-49a4-b128-2c9f3a9ba868",
      "meta": {
        "profile": [ "http://hl7.org/fhir/us/qicore/StructureDefinition/qicore-condition-problems-health-concerns" ]
      },
      "clinicalStatus": {
        "coding": [ {
          "system": "http://terminology.hl7.org/CodeSystem/condition-clinical",
          "code": "active",
          "display": "Active"
        } ]
      },
      "verificationStatus": {
        "coding": [ {
          "system": "http://terminology.hl7.org/CodeSystem/condition-ver-status",
          "code": "confirmed",
          "display": "Confirmed"
        } ]
      },
      "category": [ {
        "coding": [ {
          "system": "http://terminology.hl7.org/CodeSystem/condition-category",
          "code": "problem-list-item",
          "display": "Problem List Item"
        } ]
      } ],
      "code": {
        "coding": [ {
          "system": "http://hl7.org/fhir/sid/icd-10-cm",
          "version": "2024",
          "code": "C67.1",
          "display": "Malignant neoplasm of dome of bladder"
        } ]
      },
      "subject": {
        "reference": "Patient/f40eb08c-b994-45b9-b907-d25e2fff2618"
      },
      "onsetPeriod": {
        "start": "2026-04-02T08:00:00.000+00:00"
      }
    },
    "request": {
      "method": "PUT",
      "url": "Condition/72b1e748-c048-49a4-b128-2c9f3a9ba868"
    }
  }, {
    "fullUrl": "https://madie.cms.gov/Procedure/d146d54c-9e5c-4a66-9a4d-68de21938a00",
    "resource": {
      "resourceType": "Procedure",
      "id": "d146d54c-9e5c-4a66-9a4d-68de21938a00",
      "meta": {
        "profile": [ "http://hl7.org/fhir/us/qicore/StructureDefinition/qicore-procedure" ]
      },
      "extension": [ {
        "url": "http://hl7.org/fhir/us/qicore/StructureDefinition/qicore-recorded",
        "valueDateTime": "2026-04-06T08:00:00.000+00:00"
      } ],
      "status": "completed",
      "code": {
        "coding": [ {
          "system": "http://snomed.info/sct",
          "version": "http://snomed.info/sct/731000124108/version/20240301",
          "code": "254292007",
          "display": "Tumor staging"
        } ]
      },
      "subject": {
        "reference": "Patient/f40eb08c-b994-45b9-b907-d25e2fff2618"
      },
      "performedPeriod": {
        "start": "2026-04-02T08:00:00.000+00:00",
        "end": "2026-04-06T08:15:00.000+00:00"
      }
    },
    "request": {
      "method": "PUT",
      "url": "Procedure/d146d54c-9e5c-4a66-9a4d-68de21938a00"
    }
  }, {
    "fullUrl": "https://madie.cms.gov/Observation/0d2de80b-fea9-4123-bcbf-435cacec6664",
    "resource": {
      "resourceType": "Observation",
      "id": "0d2de80b-fea9-4123-bcbf-435cacec6664",
      "meta": {
        "profile": [ "http://hl7.org/fhir/us/qicore/StructureDefinition/qicore-observation-lab" ]
      },
      "partOf": [ {
        "reference": "Procedure/d146d54c-9e5c-4a66-9a4d-68de21938a00"
      } ],
      "status": "final",
      "category": [ {
        "coding": [ {
          "system": "http://terminology.hl7.org/CodeSystem/observation-category",
          "code": "procedure",
          "display": "Procedure"
        } ]
      } ],
      "code": {
        "coding": [ {
          "system": "http://loinc.org",
          "version": "2.76",
          "code": "21902-2",
          "display": "Stage group.pathology Cancer"
        } ]
      },
      "subject": {
        "reference": "Patient/f40eb08c-b994-45b9-b907-d25e2fff2618"
      },
      "effectivePeriod": {
        "start": "2026-04-01T08:00:00.000+00:00",
        "end": "2026-04-02T08:15:00.000+00:00"
      },
      "issued": "2026-04-02T08:15:00.000+00:00",
      "valueCodeableConcept": {
        "coding": [ {
          "system": "http://snomed.info/sct",
          "version": "http://snomed.info/sct/731000124108/version/20240301",
          "code": "1228883000",
          "display": "American Joint Committee on Cancer cTa (qualifier value)"
        } ]
      }
    },
    "request": {
      "method": "PUT",
      "url": "Observation/0d2de80b-fea9-4123-bcbf-435cacec6664"
    }
  }, {
    "fullUrl": "https://madie.cms.gov/MedicationAdministration/f5bfcc75-62f1-408d-8038-a880729ca5bd",
    "resource": {
      "resourceType": "MedicationAdministration",
      "id": "f5bfcc75-62f1-408d-8038-a880729ca5bd",
      "meta": {
        "profile": [ "http://hl7.org/fhir/us/qicore/StructureDefinition/qicore-medicationadministration" ]
      },
      "status": "completed",
      "medicationCodeableConcept": {
        "coding": [ {
          "system": "http://www.nlm.nih.gov/research/umls/rxnorm",
          "version": "04012024",
          "code": "1653484",
          "display": "BCG, live, Tice strain 50 MG/ML Topical Suspension"
        } ]
      },
      "subject": {
        "reference": "Patient/f40eb08c-b994-45b9-b907-d25e2fff2618"
      },
      "effectivePeriod": {
        "start": "2026-10-10T08:00:00.000+00:00",
        "end": "2026-10-10T08:15:00.000+00:00"
      }
    },
    "request": {
      "method": "PUT",
      "url": "MedicationAdministration/f5bfcc75-62f1-408d-8038-a880729ca5bd"
    }
  }, {
    "fullUrl": "https://madie.cms.gov/MeasureReport/5f4439d7-5da1-479b-8c60-8b1cfd7aa5bf",
    "resource": {
      "resourceType": "MeasureReport",
      "id": "5f4439d7-5da1-479b-8c60-8b1cfd7aa5bf",
      "meta": {
        "profile": [ "http://hl7.org/fhir/us/cqfmeasures/StructureDefinition/test-case-cqfm" ]
      },
      "contained": [ {
        "resourceType": "Parameters",
        "id": "ee5eaf89-e64f-48c9-b223-3990814217f6-parameters",
        "parameter": [ {
          "name": "subject",
          "valueString": "f40eb08c-b994-45b9-b907-d25e2fff2618"
        } ]
      } ],
      "extension": [ {
        "url": "http://hl7.org/fhir/StructureDefinition/cqf-inputParameters",
        "valueReference": {
          "reference": "#ee5eaf89-e64f-48c9-b223-3990814217f6-parameters"
        }
      }, {
        "url": "http://hl7.org/fhir/us/cqfmeasures/StructureDefinition/cqfm-testCaseDescription",
        "valueMarkdown": "Male with bladder cancer.  BCG give >6mo. after staging.  Should fail"
      } ],
      "modifierExtension": [ {
        "url": "http://hl7.org/fhir/us/cqfmeasures/StructureDefinition/cqfm-isTestCase",
        "valueBoolean": true
      } ],
      "status": "complete",
      "type": "individual",
      "measure": "https://madie.cms.gov/Measure/CMS646FHIRIntravesicalBacillusCalmetteGuerinForBladderCancer",
      "period": {
        "start": "2026-01-01",
        "end": "2026-12-31"
      },
      "group": [ {
        "id": "Group_1",
        "population": [ {
          "id": "InitialPopulation_1",
          "code": {
            "coding": [ {
              "system": "http://terminology.hl7.org/CodeSystem/measure-population",
              "code": "initial-population",
              "display": "Initial Population"
            } ]
          },
          "count": 1
        }, {
          "id": "Denominator_1",
          "code": {
            "coding": [ {
              "system": "http://terminology.hl7.org/CodeSystem/measure-population",
              "code": "denominator",
              "display": "Denominator"
            } ]
          },
          "count": 1
        }, {
          "id": "DenominatorExclusion_1",
          "code": {
            "coding": [ {
              "system": "http://terminology.hl7.org/CodeSystem/measure-population",
              "code": "denominator-exclusion",
              "display": "Denominator Exclusion"
            } ]
          },
          "count": 0
        }, {
          "id": "Numerator_1",
          "code": {
            "coding": [ {
              "system": "http://terminology.hl7.org/CodeSystem/measure-population",
              "code": "numerator",
              "display": "Numerator"
            } ]
          },
          "count": 0
        }, {
          "id": "DenominatorException_1",
          "code": {
            "coding": [ {
              "system": "http://terminology.hl7.org/CodeSystem/measure-population",
              "code": "denominator-exception",
              "display": "Denominator Exception"
            } ]
          },
          "count": 0
        } ],
        "measureScore": {
          "value": 1.0
        }
      } ],
      "evaluatedResource": [ {
        "reference": "Patient/f40eb08c-b994-45b9-b907-d25e2fff2618"
      }, {
        "reference": "Encounter/4724fa4a-d920-4d89-bb6b-80b24a53e4af"
      }, {
        "reference": "Condition/72b1e748-c048-49a4-b128-2c9f3a9ba868"
      }, {
        "reference": "Procedure/d146d54c-9e5c-4a66-9a4d-68de21938a00"
      }, {
        "reference": "Observation/0d2de80b-fea9-4123-bcbf-435cacec6664"
      }, {
        "reference": "MedicationAdministration/f5bfcc75-62f1-408d-8038-a880729ca5bd"
      } ]
    },
    "request": {
      "method": "PUT",
      "url": "MeasureReport/5f4439d7-5da1-479b-8c60-8b1cfd7aa5bf"
    }
  } ]
}