{"resourceType":"Bundle","id":"tests-ad9a8d0c-7d40-49ee-9088-6676f5916c1f-bundle","type":"transaction","entry":[{"resource":{"resourceType":"Bundle","id":"Patient-4-IPFail-PatientAge17","type":"transaction","entry":[{"fullUrl":"https://madie.cms.gov/Patient/ad9a8d0c-7d40-49ee-9088-6676f5916c1f","resource":{"resourceType":"Patient","id":"ad9a8d0c-7d40-49ee-9088-6676f5916c1f","meta":{"profile":["http://hl7.org/fhir/us/qicore/StructureDefinition/qicore-patient"]},"extension":[{"url":"http://hl7.org/fhir/us/core/StructureDefinition/us-core-race","extension":[{"url":"ombCategory","valueCoding":{"system":"urn:oid:2.16.840.1.113883.6.238","code":"2028-9","display":"Asian"}},{"url":"text","valueString":"Asian"}]},{"url":"http://hl7.org/fhir/us/core/StructureDefinition/us-core-ethnicity","extension":[{"url":"ombCategory","valueCoding":{"system":"urn:oid:2.16.840.1.113883.6.238","code":"2135-2","display":"Hispanic or Latino"}},{"url":"text","valueString":"Hispanic or Latino"}]}],"identifier":[{"system":"http://hospital.smarthealthit.org","value":"999999995"}],"name":[{"family":"Bertha","given":["Betty"]}],"gender":"female","birthDate":"2009-01-01"},"request":{"method":"PUT","url":"Patient/ad9a8d0c-7d40-49ee-9088-6676f5916c1f"}},{"fullUrl":"https://madie.cms.gov/Encounter/64ae26b6-31a4-4466-9596-c8f0a176b253","resource":{"resourceType":"Encounter","id":"64ae26b6-31a4-4466-9596-c8f0a176b253","meta":{"profile":["http://hl7.org/fhir/us/qicore/StructureDefinition/qicore-encounter"]},"status":"finished","class":{"system":"http://terminology.hl7.org/CodeSystem/v3-ActCode","code":"AMB","display":"ambulatory"},"type":[{"coding":[{"system":"http://snomed.info/sct","code":"185460008","display":"Home visit request by patient (procedure)"}]}],"subject":{"reference":"Patient/ad9a8d0c-7d40-49ee-9088-6676f5916c1f"},"period":{"start":"2026-01-01T00:00:00.000+00:00","end":"2026-01-01T00:15:00.000+00:00"}},"request":{"method":"PUT","url":"Encounter/64ae26b6-31a4-4466-9596-c8f0a176b253"}},{"fullUrl":"https://madie.cms.gov/Condition/13bbe19a-98ff-42bc-b799-4ae3ab16376e","resource":{"resourceType":"Condition","id":"13bbe19a-98ff-42bc-b799-4ae3ab16376e","meta":{"profile":["http://hl7.org/fhir/us/qicore/StructureDefinition/qicore-condition-encounter-diagnosis"]},"clinicalStatus":{"coding":[{"system":"http://terminology.hl7.org/CodeSystem/condition-clinical","code":"active"}]},"category":[{"coding":[{"system":"http://terminology.hl7.org/CodeSystem/condition-category","code":"encounter-diagnosis","display":"Encounter Diagnosis"}]}],"code":{"coding":[{"system":"http://snomed.info/sct","code":"102781000119107","display":"Sensory neuropathy due to type 1 diabetes mellitus (disorder)"}]},"subject":{"reference":"Patient/ad9a8d0c-7d40-49ee-9088-6676f5916c1f"},"onsetDateTime":"2026-01-01T23:59:00.000+00:00"},"request":{"method":"PUT","url":"Condition/13bbe19a-98ff-42bc-b799-4ae3ab16376e"}},{"fullUrl":"https://madie.cms.gov/MeasureReport/cc96144f-bb68-439c-b32a-63d9fcb1a83d","resource":{"resourceType":"MeasureReport","id":"cc96144f-bb68-439c-b32a-63d9fcb1a83d","meta":{"profile":["http://hl7.org/fhir/us/cqfmeasures/StructureDefinition/test-case-cqfm"]},"contained":[{"resourceType":"Parameters","id":"53981e2f-c74c-4c03-9bac-317b5f2d2ab0-parameters","parameter":[{"name":"subject","valueString":"ad9a8d0c-7d40-49ee-9088-6676f5916c1f"}]}],"extension":[{"url":"http://hl7.org/fhir/StructureDefinition/cqf-inputParameters","valueReference":{"reference":"#53981e2f-c74c-4c03-9bac-317b5f2d2ab0-parameters"}},{"url":"http://hl7.org/fhir/us/cqfmeasures/StructureDefinition/cqfm-testCaseDescription","valueMarkdown":"Incorrect age (age 17)"}],"modifierExtension":[{"url":"http://hl7.org/fhir/us/cqfmeasures/StructureDefinition/cqfm-isTestCase","valueBoolean":true}],"status":"complete","type":"individual","measure":"https://madie.cms.gov/Measure/CMS122FHIRDiabetesAssessGreaterThan9Percent","period":{"start":"2026-01-01","end":"2026-12-31"},"group":[{"id":"Group_1","population":[{"id":"InitialPopulation_1","code":{"coding":[{"system":"http://terminology.hl7.org/CodeSystem/measure-population","code":"initial-population","display":"Initial Population"}]},"count":0},{"id":"Denominator_1","code":{"coding":[{"system":"http://terminology.hl7.org/CodeSystem/measure-population","code":"denominator","display":"Denominator"}]},"count":0},{"id":"DenominatorExclusion_1","code":{"coding":[{"system":"http://terminology.hl7.org/CodeSystem/measure-population","code":"denominator-exclusion","display":"Denominator Exclusion"}]},"count":0},{"id":"Numerator_1","code":{"coding":[{"system":"http://terminology.hl7.org/CodeSystem/measure-population","code":"numerator","display":"Numerator"}]},"count":0}],"measureScore":{"value":1.0}}],"evaluatedResource":[{"reference":"Patient/ad9a8d0c-7d40-49ee-9088-6676f5916c1f"},{"reference":"Encounter/64ae26b6-31a4-4466-9596-c8f0a176b253"},{"reference":"Condition/13bbe19a-98ff-42bc-b799-4ae3ab16376e"}]},"request":{"method":"PUT","url":"MeasureReport/cc96144f-bb68-439c-b32a-63d9fcb1a83d"}}]},"request":{"method":"PUT","url":"Bundle/Patient-4-IPFail-PatientAge17"}},{"resource":{"resourceType":"Patient","id":"ad9a8d0c-7d40-49ee-9088-6676f5916c1f","meta":{"profile":["http://hl7.org/fhir/us/qicore/StructureDefinition/qicore-patient"]},"extension":[{"url":"http://hl7.org/fhir/us/core/StructureDefinition/us-core-race","extension":[{"url":"ombCategory","valueCoding":{"system":"urn:oid:2.16.840.1.113883.6.238","code":"2028-9","display":"Asian"}},{"url":"text","valueString":"Asian"}]},{"url":"http://hl7.org/fhir/us/core/StructureDefinition/us-core-ethnicity","extension":[{"url":"ombCategory","valueCoding":{"system":"urn:oid:2.16.840.1.113883.6.238","code":"2135-2","display":"Hispanic or Latino"}},{"url":"text","valueString":"Hispanic or Latino"}]}],"identifier":[{"system":"http://hospital.smarthealthit.org","value":"999999995"}],"name":[{"family":"Bertha","given":["Betty"]}],"gender":"female","birthDate":"2009-01-01"},"request":{"method":"PUT","url":"Patient/ad9a8d0c-7d40-49ee-9088-6676f5916c1f"}},{"resource":{"resourceType":"Encounter","id":"64ae26b6-31a4-4466-9596-c8f0a176b253","meta":{"profile":["http://hl7.org/fhir/us/qicore/StructureDefinition/qicore-encounter"]},"status":"finished","class":{"system":"http://terminology.hl7.org/CodeSystem/v3-ActCode","code":"AMB","display":"ambulatory"},"type":[{"coding":[{"system":"http://snomed.info/sct","code":"185460008","display":"Home visit request by patient (procedure)"}]}],"subject":{"reference":"Patient/ad9a8d0c-7d40-49ee-9088-6676f5916c1f"},"period":{"start":"2026-01-01T00:00:00.000+00:00","end":"2026-01-01T00:15:00.000+00:00"}},"request":{"method":"PUT","url":"Encounter/64ae26b6-31a4-4466-9596-c8f0a176b253"}},{"resource":{"resourceType":"MeasureReport","id":"cc96144f-bb68-439c-b32a-63d9fcb1a83d","meta":{"profile":["http://hl7.org/fhir/us/cqfmeasures/StructureDefinition/test-case-cqfm"]},"contained":[{"resourceType":"Parameters","id":"53981e2f-c74c-4c03-9bac-317b5f2d2ab0-parameters","parameter":[{"name":"subject","valueString":"ad9a8d0c-7d40-49ee-9088-6676f5916c1f"}]}],"extension":[{"url":"http://hl7.org/fhir/StructureDefinition/cqf-inputParameters","valueReference":{"reference":"#53981e2f-c74c-4c03-9bac-317b5f2d2ab0-parameters"}},{"url":"http://hl7.org/fhir/us/cqfmeasures/StructureDefinition/cqfm-testCaseDescription","valueMarkdown":"Incorrect age (age 17)"}],"modifierExtension":[{"url":"http://hl7.org/fhir/us/cqfmeasures/StructureDefinition/cqfm-isTestCase","valueBoolean":true}],"status":"complete","type":"individual","measure":"https://madie.cms.gov/Measure/CMS122FHIRDiabetesAssessGreaterThan9Percent","period":{"start":"2026-01-01","end":"2026-12-31"},"group":[{"id":"Group_1","population":[{"id":"InitialPopulation_1","code":{"coding":[{"system":"http://terminology.hl7.org/CodeSystem/measure-population","code":"initial-population","display":"Initial Population"}]},"count":0},{"id":"Denominator_1","code":{"coding":[{"system":"http://terminology.hl7.org/CodeSystem/measure-population","code":"denominator","display":"Denominator"}]},"count":0},{"id":"DenominatorExclusion_1","code":{"coding":[{"system":"http://terminology.hl7.org/CodeSystem/measure-population","code":"denominator-exclusion","display":"Denominator Exclusion"}]},"count":0},{"id":"Numerator_1","code":{"coding":[{"system":"http://terminology.hl7.org/CodeSystem/measure-population","code":"numerator","display":"Numerator"}]},"count":0}],"measureScore":{"value":1.0}}],"evaluatedResource":[{"reference":"Patient/ad9a8d0c-7d40-49ee-9088-6676f5916c1f"},{"reference":"Encounter/64ae26b6-31a4-4466-9596-c8f0a176b253"},{"reference":"Condition/13bbe19a-98ff-42bc-b799-4ae3ab16376e"}]},"request":{"method":"PUT","url":"MeasureReport/cc96144f-bb68-439c-b32a-63d9fcb1a83d"}},{"resource":{"resourceType":"Condition","id":"13bbe19a-98ff-42bc-b799-4ae3ab16376e","meta":{"profile":["http://hl7.org/fhir/us/qicore/StructureDefinition/qicore-condition-encounter-diagnosis"]},"clinicalStatus":{"coding":[{"system":"http://terminology.hl7.org/CodeSystem/condition-clinical","code":"active"}]},"category":[{"coding":[{"system":"http://terminology.hl7.org/CodeSystem/condition-category","code":"encounter-diagnosis","display":"Encounter Diagnosis"}]}],"code":{"coding":[{"system":"http://snomed.info/sct","code":"102781000119107","display":"Sensory neuropathy due to type 1 diabetes mellitus (disorder)"}]},"subject":{"reference":"Patient/ad9a8d0c-7d40-49ee-9088-6676f5916c1f"},"onsetDateTime":"2026-01-01T23:59:00.000+00:00"},"request":{"method":"PUT","url":"Condition/13bbe19a-98ff-42bc-b799-4ae3ab16376e"}}]}