{"resourceType":"Bundle","id":"tests-8b1155b0-ff08-4f28-90e7-ac0e622f840c-bundle","type":"transaction","entry":[{"resource":{"resourceType":"Condition","id":"477ad5e8-6200-490a-bb20-47158bd1fa74","meta":{"profile":["http://hl7.org/fhir/us/qicore/StructureDefinition/qicore-condition-encounter-diagnosis"]},"clinicalStatus":{"coding":[{"system":"http://terminology.hl7.org/CodeSystem/condition-clinical","code":"active"}]},"category":[{"coding":[{"system":"http://terminology.hl7.org/CodeSystem/condition-category","code":"encounter-diagnosis","display":"Encounter Diagnosis"}]}],"code":{"coding":[{"system":"http://snomed.info/sct","code":"102781000119107","display":"Sensory neuropathy due to type 1 diabetes mellitus (disorder)"}]},"subject":{"reference":"Patient/8b1155b0-ff08-4f28-90e7-ac0e622f840c"},"onsetDateTime":"2026-01-01T23:59:00.000+00:00"},"request":{"method":"PUT","url":"Condition/477ad5e8-6200-490a-bb20-47158bd1fa74"}},{"resource":{"resourceType":"MeasureReport","id":"6096302a-e0e4-41ac-bb13-450d90ae4662","meta":{"profile":["http://hl7.org/fhir/us/cqfmeasures/StructureDefinition/test-case-cqfm"]},"contained":[{"resourceType":"Parameters","id":"1667ee58-b4b9-45bb-9c02-b431ca16b406-parameters","parameter":[{"name":"subject","valueString":"8b1155b0-ff08-4f28-90e7-ac0e622f840c"}]}],"extension":[{"url":"http://hl7.org/fhir/StructureDefinition/cqf-inputParameters","valueReference":{"reference":"#1667ee58-b4b9-45bb-9c02-b431ca16b406-parameters"}},{"url":"http://hl7.org/fhir/us/cqfmeasures/StructureDefinition/cqfm-testCaseDescription","valueMarkdown":"Palliative care diagnosis starts after the MP"}],"modifierExtension":[{"url":"http://hl7.org/fhir/us/cqfmeasures/StructureDefinition/cqfm-isTestCase","valueBoolean":true}],"status":"complete","type":"individual","measure":"https://madie.cms.gov/Measure/CMS122FHIRDiabetesAssessGreaterThan9Percent","period":{"start":"2026-01-01","end":"2026-12-31"},"group":[{"id":"Group_1","population":[{"id":"InitialPopulation_1","code":{"coding":[{"system":"http://terminology.hl7.org/CodeSystem/measure-population","code":"initial-population","display":"Initial Population"}]},"count":1},{"id":"Denominator_1","code":{"coding":[{"system":"http://terminology.hl7.org/CodeSystem/measure-population","code":"denominator","display":"Denominator"}]},"count":1},{"id":"DenominatorExclusion_1","code":{"coding":[{"system":"http://terminology.hl7.org/CodeSystem/measure-population","code":"denominator-exclusion","display":"Denominator Exclusion"}]},"count":0},{"id":"Numerator_1","code":{"coding":[{"system":"http://terminology.hl7.org/CodeSystem/measure-population","code":"numerator","display":"Numerator"}]},"count":1}],"measureScore":{"value":1.0}}],"evaluatedResource":[{"reference":"Patient/8b1155b0-ff08-4f28-90e7-ac0e622f840c"},{"reference":"Encounter/c4fb7905-0b68-4a49-a284-36693ffb4779"},{"reference":"Condition/477ad5e8-6200-490a-bb20-47158bd1fa74"},{"reference":"Condition/8c5e2260-8704-4604-89f4-888db9391c94"}]},"request":{"method":"PUT","url":"MeasureReport/6096302a-e0e4-41ac-bb13-450d90ae4662"}},{"resource":{"resourceType":"Patient","id":"8b1155b0-ff08-4f28-90e7-ac0e622f840c","meta":{"profile":["http://hl7.org/fhir/us/qicore/StructureDefinition/qicore-patient"]},"extension":[{"url":"http://hl7.org/fhir/us/core/StructureDefinition/us-core-race","extension":[{"url":"ombCategory","valueCoding":{"system":"urn:oid:2.16.840.1.113883.6.238","code":"2028-9","display":"Asian"}},{"url":"text","valueString":"Asian"}]},{"url":"http://hl7.org/fhir/us/core/StructureDefinition/us-core-ethnicity","extension":[{"url":"ombCategory","valueCoding":{"system":"urn:oid:2.16.840.1.113883.6.238","code":"2135-2","display":"Hispanic or Latino"}},{"url":"text","valueString":"Hispanic or Latino"}]}],"identifier":[{"system":"http://hospital.smarthealthit.org","value":"999999995"}],"name":[{"family":"Bertha","given":["Betty"]}],"gender":"female","birthDate":"2007-01-01"},"request":{"method":"PUT","url":"Patient/8b1155b0-ff08-4f28-90e7-ac0e622f840c"}},{"resource":{"resourceType":"Bundle","id":"Patient-28-DENEXFail-PalliativeCareDiagnosisStartsAfterMP","type":"transaction","entry":[{"fullUrl":"https://madie.cms.gov/Patient/8b1155b0-ff08-4f28-90e7-ac0e622f840c","resource":{"resourceType":"Patient","id":"8b1155b0-ff08-4f28-90e7-ac0e622f840c","meta":{"profile":["http://hl7.org/fhir/us/qicore/StructureDefinition/qicore-patient"]},"extension":[{"url":"http://hl7.org/fhir/us/core/StructureDefinition/us-core-race","extension":[{"url":"ombCategory","valueCoding":{"system":"urn:oid:2.16.840.1.113883.6.238","code":"2028-9","display":"Asian"}},{"url":"text","valueString":"Asian"}]},{"url":"http://hl7.org/fhir/us/core/StructureDefinition/us-core-ethnicity","extension":[{"url":"ombCategory","valueCoding":{"system":"urn:oid:2.16.840.1.113883.6.238","code":"2135-2","display":"Hispanic or Latino"}},{"url":"text","valueString":"Hispanic or Latino"}]}],"identifier":[{"system":"http://hospital.smarthealthit.org","value":"999999995"}],"name":[{"family":"Bertha","given":["Betty"]}],"gender":"female","birthDate":"2007-01-01"},"request":{"method":"PUT","url":"Patient/8b1155b0-ff08-4f28-90e7-ac0e622f840c"}},{"fullUrl":"https://madie.cms.gov/Encounter/c4fb7905-0b68-4a49-a284-36693ffb4779","resource":{"resourceType":"Encounter","id":"c4fb7905-0b68-4a49-a284-36693ffb4779","meta":{"profile":["http://hl7.org/fhir/us/qicore/StructureDefinition/qicore-encounter"]},"status":"finished","class":{"system":"http://terminology.hl7.org/CodeSystem/v3-ActCode","code":"AMB","display":"ambulatory"},"type":[{"coding":[{"system":"http://snomed.info/sct","code":"185460008","display":"Home visit request by patient (procedure)"}]}],"subject":{"reference":"Patient/8b1155b0-ff08-4f28-90e7-ac0e622f840c"},"period":{"start":"2026-01-01T00:00:00.000+00:00","end":"2026-01-01T00:15:00.000+00:00"}},"request":{"method":"PUT","url":"Encounter/c4fb7905-0b68-4a49-a284-36693ffb4779"}},{"fullUrl":"https://madie.cms.gov/Condition/477ad5e8-6200-490a-bb20-47158bd1fa74","resource":{"resourceType":"Condition","id":"477ad5e8-6200-490a-bb20-47158bd1fa74","meta":{"profile":["http://hl7.org/fhir/us/qicore/StructureDefinition/qicore-condition-encounter-diagnosis"]},"clinicalStatus":{"coding":[{"system":"http://terminology.hl7.org/CodeSystem/condition-clinical","code":"active"}]},"category":[{"coding":[{"system":"http://terminology.hl7.org/CodeSystem/condition-category","code":"encounter-diagnosis","display":"Encounter Diagnosis"}]}],"code":{"coding":[{"system":"http://snomed.info/sct","code":"102781000119107","display":"Sensory neuropathy due to type 1 diabetes mellitus (disorder)"}]},"subject":{"reference":"Patient/8b1155b0-ff08-4f28-90e7-ac0e622f840c"},"onsetDateTime":"2026-01-01T23:59:00.000+00:00"},"request":{"method":"PUT","url":"Condition/477ad5e8-6200-490a-bb20-47158bd1fa74"}},{"fullUrl":"https://madie.cms.gov/Condition/8c5e2260-8704-4604-89f4-888db9391c94","resource":{"resourceType":"Condition","id":"8c5e2260-8704-4604-89f4-888db9391c94","meta":{"profile":["http://hl7.org/fhir/us/qicore/StructureDefinition/qicore-condition-encounter-diagnosis"]},"clinicalStatus":{"coding":[{"system":"http://terminology.hl7.org/CodeSystem/condition-clinical","code":"active"}]},"category":[{"coding":[{"system":"http://terminology.hl7.org/CodeSystem/condition-category","code":"encounter-diagnosis","display":"Encounter Diagnosis"}]}],"code":{"coding":[{"system":"http://snomed.info/sct","code":"441874000","display":"Seen by palliative care service (finding)"}]},"subject":{"reference":"Patient/8b1155b0-ff08-4f28-90e7-ac0e622f840c"},"onsetDateTime":"2027-01-01T00:00:00.000+00:00"},"request":{"method":"PUT","url":"Condition/8c5e2260-8704-4604-89f4-888db9391c94"}},{"fullUrl":"https://madie.cms.gov/MeasureReport/6096302a-e0e4-41ac-bb13-450d90ae4662","resource":{"resourceType":"MeasureReport","id":"6096302a-e0e4-41ac-bb13-450d90ae4662","meta":{"profile":["http://hl7.org/fhir/us/cqfmeasures/StructureDefinition/test-case-cqfm"]},"contained":[{"resourceType":"Parameters","id":"1667ee58-b4b9-45bb-9c02-b431ca16b406-parameters","parameter":[{"name":"subject","valueString":"8b1155b0-ff08-4f28-90e7-ac0e622f840c"}]}],"extension":[{"url":"http://hl7.org/fhir/StructureDefinition/cqf-inputParameters","valueReference":{"reference":"#1667ee58-b4b9-45bb-9c02-b431ca16b406-parameters"}},{"url":"http://hl7.org/fhir/us/cqfmeasures/StructureDefinition/cqfm-testCaseDescription","valueMarkdown":"Palliative care diagnosis starts after the MP"}],"modifierExtension":[{"url":"http://hl7.org/fhir/us/cqfmeasures/StructureDefinition/cqfm-isTestCase","valueBoolean":true}],"status":"complete","type":"individual","measure":"https://madie.cms.gov/Measure/CMS122FHIRDiabetesAssessGreaterThan9Percent","period":{"start":"2026-01-01","end":"2026-12-31"},"group":[{"id":"Group_1","population":[{"id":"InitialPopulation_1","code":{"coding":[{"system":"http://terminology.hl7.org/CodeSystem/measure-population","code":"initial-population","display":"Initial Population"}]},"count":1},{"id":"Denominator_1","code":{"coding":[{"system":"http://terminology.hl7.org/CodeSystem/measure-population","code":"denominator","display":"Denominator"}]},"count":1},{"id":"DenominatorExclusion_1","code":{"coding":[{"system":"http://terminology.hl7.org/CodeSystem/measure-population","code":"denominator-exclusion","display":"Denominator Exclusion"}]},"count":0},{"id":"Numerator_1","code":{"coding":[{"system":"http://terminology.hl7.org/CodeSystem/measure-population","code":"numerator","display":"Numerator"}]},"count":1}],"measureScore":{"value":1.0}}],"evaluatedResource":[{"reference":"Patient/8b1155b0-ff08-4f28-90e7-ac0e622f840c"},{"reference":"Encounter/c4fb7905-0b68-4a49-a284-36693ffb4779"},{"reference":"Condition/477ad5e8-6200-490a-bb20-47158bd1fa74"},{"reference":"Condition/8c5e2260-8704-4604-89f4-888db9391c94"}]},"request":{"method":"PUT","url":"MeasureReport/6096302a-e0e4-41ac-bb13-450d90ae4662"}}]},"request":{"method":"PUT","url":"Bundle/Patient-28-DENEXFail-PalliativeCareDiagnosisStartsAfterMP"}},{"resource":{"resourceType":"Condition","id":"8c5e2260-8704-4604-89f4-888db9391c94","meta":{"profile":["http://hl7.org/fhir/us/qicore/StructureDefinition/qicore-condition-encounter-diagnosis"]},"clinicalStatus":{"coding":[{"system":"http://terminology.hl7.org/CodeSystem/condition-clinical","code":"active"}]},"category":[{"coding":[{"system":"http://terminology.hl7.org/CodeSystem/condition-category","code":"encounter-diagnosis","display":"Encounter Diagnosis"}]}],"code":{"coding":[{"system":"http://snomed.info/sct","code":"441874000","display":"Seen by palliative care service (finding)"}]},"subject":{"reference":"Patient/8b1155b0-ff08-4f28-90e7-ac0e622f840c"},"onsetDateTime":"2027-01-01T00:00:00.000+00:00"},"request":{"method":"PUT","url":"Condition/8c5e2260-8704-4604-89f4-888db9391c94"}},{"resource":{"resourceType":"Encounter","id":"c4fb7905-0b68-4a49-a284-36693ffb4779","meta":{"profile":["http://hl7.org/fhir/us/qicore/StructureDefinition/qicore-encounter"]},"status":"finished","class":{"system":"http://terminology.hl7.org/CodeSystem/v3-ActCode","code":"AMB","display":"ambulatory"},"type":[{"coding":[{"system":"http://snomed.info/sct","code":"185460008","display":"Home visit request by patient (procedure)"}]}],"subject":{"reference":"Patient/8b1155b0-ff08-4f28-90e7-ac0e622f840c"},"period":{"start":"2026-01-01T00:00:00.000+00:00","end":"2026-01-01T00:15:00.000+00:00"}},"request":{"method":"PUT","url":"Encounter/c4fb7905-0b68-4a49-a284-36693ffb4779"}}]}