{"resourceType":"Bundle","id":"tests-b6a4b9f8-21c1-44f2-a834-72f0906b4f88-bundle","type":"transaction","entry":[{"resource":{"resourceType":"Encounter","id":"9147632b-1613-4949-8815-8bb7c06e7c6e","meta":{"profile":["http://hl7.org/fhir/us/qicore/StructureDefinition/qicore-encounter"]},"status":"finished","class":{"system":"http://terminology.hl7.org/CodeSystem/v3-ActCode","code":"AMB","display":"ambulatory"},"type":[{"coding":[{"system":"http://snomed.info/sct","code":"185460008","display":"Home visit request by patient (procedure)"}]}],"subject":{"reference":"Patient/b6a4b9f8-21c1-44f2-a834-72f0906b4f88"},"period":{"start":"2026-01-01T00:00:00.000+00:00","end":"2026-01-01T00:15:00.000+00:00"}},"request":{"method":"PUT","url":"Encounter/9147632b-1613-4949-8815-8bb7c06e7c6e"}},{"resource":{"resourceType":"Bundle","id":"Patient-19-DENEXPass-HospiceDiscDurMP","type":"transaction","entry":[{"fullUrl":"https://madie.cms.gov/Patient/b6a4b9f8-21c1-44f2-a834-72f0906b4f88","resource":{"resourceType":"Patient","id":"b6a4b9f8-21c1-44f2-a834-72f0906b4f88","meta":{"profile":["http://hl7.org/fhir/us/qicore/StructureDefinition/qicore-patient"]},"extension":[{"url":"http://hl7.org/fhir/us/core/StructureDefinition/us-core-race","extension":[{"url":"ombCategory","valueCoding":{"system":"urn:oid:2.16.840.1.113883.6.238","code":"2028-9","display":"Asian"}},{"url":"text","valueString":"Asian"}]},{"url":"http://hl7.org/fhir/us/core/StructureDefinition/us-core-ethnicity","extension":[{"url":"ombCategory","valueCoding":{"system":"urn:oid:2.16.840.1.113883.6.238","code":"2135-2","display":"Hispanic or Latino"}},{"url":"text","valueString":"Hispanic or Latino"}]}],"identifier":[{"system":"http://hospital.smarthealthit.org","value":"999999995"}],"name":[{"family":"Bertha","given":["Betty"]}],"gender":"female","birthDate":"2007-01-01"},"request":{"method":"PUT","url":"Patient/b6a4b9f8-21c1-44f2-a834-72f0906b4f88"}},{"fullUrl":"https://madie.cms.gov/Encounter/9147632b-1613-4949-8815-8bb7c06e7c6e","resource":{"resourceType":"Encounter","id":"9147632b-1613-4949-8815-8bb7c06e7c6e","meta":{"profile":["http://hl7.org/fhir/us/qicore/StructureDefinition/qicore-encounter"]},"status":"finished","class":{"system":"http://terminology.hl7.org/CodeSystem/v3-ActCode","code":"AMB","display":"ambulatory"},"type":[{"coding":[{"system":"http://snomed.info/sct","code":"185460008","display":"Home visit request by patient (procedure)"}]}],"subject":{"reference":"Patient/b6a4b9f8-21c1-44f2-a834-72f0906b4f88"},"period":{"start":"2026-01-01T00:00:00.000+00:00","end":"2026-01-01T00:15:00.000+00:00"}},"request":{"method":"PUT","url":"Encounter/9147632b-1613-4949-8815-8bb7c06e7c6e"}},{"fullUrl":"https://madie.cms.gov/Condition/25aa585b-93a6-474b-8fd4-7d2d9949fea2","resource":{"resourceType":"Condition","id":"25aa585b-93a6-474b-8fd4-7d2d9949fea2","meta":{"profile":["http://hl7.org/fhir/us/qicore/StructureDefinition/qicore-condition-encounter-diagnosis"]},"clinicalStatus":{"coding":[{"system":"http://terminology.hl7.org/CodeSystem/condition-clinical","code":"active"}]},"category":[{"coding":[{"system":"http://terminology.hl7.org/CodeSystem/condition-category","code":"encounter-diagnosis","display":"Encounter Diagnosis"}]}],"code":{"coding":[{"system":"http://snomed.info/sct","code":"102781000119107","display":"Sensory neuropathy due to type 1 diabetes mellitus (disorder)"}]},"subject":{"reference":"Patient/b6a4b9f8-21c1-44f2-a834-72f0906b4f88"},"onsetDateTime":"2026-01-01T23:59:00.000+00:00"},"request":{"method":"PUT","url":"Condition/25aa585b-93a6-474b-8fd4-7d2d9949fea2"}},{"fullUrl":"https://madie.cms.gov/Encounter/57361cf7-1f03-4e0f-8cdc-d8535b29dc5f","resource":{"resourceType":"Encounter","id":"57361cf7-1f03-4e0f-8cdc-d8535b29dc5f","meta":{"profile":["http://hl7.org/fhir/us/qicore/StructureDefinition/qicore-encounter"]},"status":"finished","class":{"system":"http://terminology.hl7.org/CodeSystem/v3-ActCode","code":"AMB","display":"ambulatory"},"type":[{"coding":[{"system":"http://snomed.info/sct","code":"32485007","display":"Hospital admission (procedure)"}]}],"subject":{"reference":"Patient/b6a4b9f8-21c1-44f2-a834-72f0906b4f88"},"period":{"start":"2025-12-31T23:59:59.000+00:00","end":"2026-01-01T01:00:00.000+00:00"},"hospitalization":{"dischargeDisposition":{"coding":[{"system":"http://snomed.info/sct","code":"428371000124100","display":"Discharge to healthcare facility for hospice care (procedure)"}]}}},"request":{"method":"PUT","url":"Encounter/57361cf7-1f03-4e0f-8cdc-d8535b29dc5f"}},{"fullUrl":"https://madie.cms.gov/MeasureReport/48fe6a7e-2a8e-4e79-8514-4446cdbfe664","resource":{"resourceType":"MeasureReport","id":"48fe6a7e-2a8e-4e79-8514-4446cdbfe664","meta":{"profile":["http://hl7.org/fhir/us/cqfmeasures/StructureDefinition/test-case-cqfm"]},"contained":[{"resourceType":"Parameters","id":"8d33390e-13db-46e9-a3eb-a620b6b5e077-parameters","parameter":[{"name":"subject","valueString":"b6a4b9f8-21c1-44f2-a834-72f0906b4f88"}]}],"extension":[{"url":"http://hl7.org/fhir/StructureDefinition/cqf-inputParameters","valueReference":{"reference":"#8d33390e-13db-46e9-a3eb-a620b6b5e077-parameters"}},{"url":"http://hl7.org/fhir/us/cqfmeasures/StructureDefinition/cqfm-testCaseDescription","valueMarkdown":"Hospice discharge during the MP"}],"modifierExtension":[{"url":"http://hl7.org/fhir/us/cqfmeasures/StructureDefinition/cqfm-isTestCase","valueBoolean":true}],"status":"complete","type":"individual","measure":"https://madie.cms.gov/Measure/CMS122FHIRDiabetesAssessGreaterThan9Percent","period":{"start":"2026-01-01","end":"2026-12-31"},"group":[{"id":"Group_1","population":[{"id":"InitialPopulation_1","code":{"coding":[{"system":"http://terminology.hl7.org/CodeSystem/measure-population","code":"initial-population","display":"Initial Population"}]},"count":1},{"id":"Denominator_1","code":{"coding":[{"system":"http://terminology.hl7.org/CodeSystem/measure-population","code":"denominator","display":"Denominator"}]},"count":1},{"id":"DenominatorExclusion_1","code":{"coding":[{"system":"http://terminology.hl7.org/CodeSystem/measure-population","code":"denominator-exclusion","display":"Denominator Exclusion"}]},"count":1},{"id":"Numerator_1","code":{"coding":[{"system":"http://terminology.hl7.org/CodeSystem/measure-population","code":"numerator","display":"Numerator"}]},"count":0}],"measureScore":{"value":1.0}}],"evaluatedResource":[{"reference":"Patient/b6a4b9f8-21c1-44f2-a834-72f0906b4f88"},{"reference":"Encounter/9147632b-1613-4949-8815-8bb7c06e7c6e"},{"reference":"Condition/25aa585b-93a6-474b-8fd4-7d2d9949fea2"},{"reference":"Encounter/57361cf7-1f03-4e0f-8cdc-d8535b29dc5f"}]},"request":{"method":"PUT","url":"MeasureReport/48fe6a7e-2a8e-4e79-8514-4446cdbfe664"}}]},"request":{"method":"PUT","url":"Bundle/Patient-19-DENEXPass-HospiceDiscDurMP"}},{"resource":{"resourceType":"Encounter","id":"57361cf7-1f03-4e0f-8cdc-d8535b29dc5f","meta":{"profile":["http://hl7.org/fhir/us/qicore/StructureDefinition/qicore-encounter"]},"status":"finished","class":{"system":"http://terminology.hl7.org/CodeSystem/v3-ActCode","code":"AMB","display":"ambulatory"},"type":[{"coding":[{"system":"http://snomed.info/sct","code":"32485007","display":"Hospital admission (procedure)"}]}],"subject":{"reference":"Patient/b6a4b9f8-21c1-44f2-a834-72f0906b4f88"},"period":{"start":"2025-12-31T23:59:59.000+00:00","end":"2026-01-01T01:00:00.000+00:00"},"hospitalization":{"dischargeDisposition":{"coding":[{"system":"http://snomed.info/sct","code":"428371000124100","display":"Discharge to healthcare facility for hospice care (procedure)"}]}}},"request":{"method":"PUT","url":"Encounter/57361cf7-1f03-4e0f-8cdc-d8535b29dc5f"}},{"resource":{"resourceType":"Condition","id":"25aa585b-93a6-474b-8fd4-7d2d9949fea2","meta":{"profile":["http://hl7.org/fhir/us/qicore/StructureDefinition/qicore-condition-encounter-diagnosis"]},"clinicalStatus":{"coding":[{"system":"http://terminology.hl7.org/CodeSystem/condition-clinical","code":"active"}]},"category":[{"coding":[{"system":"http://terminology.hl7.org/CodeSystem/condition-category","code":"encounter-diagnosis","display":"Encounter Diagnosis"}]}],"code":{"coding":[{"system":"http://snomed.info/sct","code":"102781000119107","display":"Sensory neuropathy due to type 1 diabetes mellitus (disorder)"}]},"subject":{"reference":"Patient/b6a4b9f8-21c1-44f2-a834-72f0906b4f88"},"onsetDateTime":"2026-01-01T23:59:00.000+00:00"},"request":{"method":"PUT","url":"Condition/25aa585b-93a6-474b-8fd4-7d2d9949fea2"}},{"resource":{"resourceType":"MeasureReport","id":"48fe6a7e-2a8e-4e79-8514-4446cdbfe664","meta":{"profile":["http://hl7.org/fhir/us/cqfmeasures/StructureDefinition/test-case-cqfm"]},"contained":[{"resourceType":"Parameters","id":"8d33390e-13db-46e9-a3eb-a620b6b5e077-parameters","parameter":[{"name":"subject","valueString":"b6a4b9f8-21c1-44f2-a834-72f0906b4f88"}]}],"extension":[{"url":"http://hl7.org/fhir/StructureDefinition/cqf-inputParameters","valueReference":{"reference":"#8d33390e-13db-46e9-a3eb-a620b6b5e077-parameters"}},{"url":"http://hl7.org/fhir/us/cqfmeasures/StructureDefinition/cqfm-testCaseDescription","valueMarkdown":"Hospice discharge during the MP"}],"modifierExtension":[{"url":"http://hl7.org/fhir/us/cqfmeasures/StructureDefinition/cqfm-isTestCase","valueBoolean":true}],"status":"complete","type":"individual","measure":"https://madie.cms.gov/Measure/CMS122FHIRDiabetesAssessGreaterThan9Percent","period":{"start":"2026-01-01","end":"2026-12-31"},"group":[{"id":"Group_1","population":[{"id":"InitialPopulation_1","code":{"coding":[{"system":"http://terminology.hl7.org/CodeSystem/measure-population","code":"initial-population","display":"Initial Population"}]},"count":1},{"id":"Denominator_1","code":{"coding":[{"system":"http://terminology.hl7.org/CodeSystem/measure-population","code":"denominator","display":"Denominator"}]},"count":1},{"id":"DenominatorExclusion_1","code":{"coding":[{"system":"http://terminology.hl7.org/CodeSystem/measure-population","code":"denominator-exclusion","display":"Denominator Exclusion"}]},"count":1},{"id":"Numerator_1","code":{"coding":[{"system":"http://terminology.hl7.org/CodeSystem/measure-population","code":"numerator","display":"Numerator"}]},"count":0}],"measureScore":{"value":1.0}}],"evaluatedResource":[{"reference":"Patient/b6a4b9f8-21c1-44f2-a834-72f0906b4f88"},{"reference":"Encounter/9147632b-1613-4949-8815-8bb7c06e7c6e"},{"reference":"Condition/25aa585b-93a6-474b-8fd4-7d2d9949fea2"},{"reference":"Encounter/57361cf7-1f03-4e0f-8cdc-d8535b29dc5f"}]},"request":{"method":"PUT","url":"MeasureReport/48fe6a7e-2a8e-4e79-8514-4446cdbfe664"}},{"resource":{"resourceType":"Patient","id":"b6a4b9f8-21c1-44f2-a834-72f0906b4f88","meta":{"profile":["http://hl7.org/fhir/us/qicore/StructureDefinition/qicore-patient"]},"extension":[{"url":"http://hl7.org/fhir/us/core/StructureDefinition/us-core-race","extension":[{"url":"ombCategory","valueCoding":{"system":"urn:oid:2.16.840.1.113883.6.238","code":"2028-9","display":"Asian"}},{"url":"text","valueString":"Asian"}]},{"url":"http://hl7.org/fhir/us/core/StructureDefinition/us-core-ethnicity","extension":[{"url":"ombCategory","valueCoding":{"system":"urn:oid:2.16.840.1.113883.6.238","code":"2135-2","display":"Hispanic or Latino"}},{"url":"text","valueString":"Hispanic or Latino"}]}],"identifier":[{"system":"http://hospital.smarthealthit.org","value":"999999995"}],"name":[{"family":"Bertha","given":["Betty"]}],"gender":"female","birthDate":"2007-01-01"},"request":{"method":"PUT","url":"Patient/b6a4b9f8-21c1-44f2-a834-72f0906b4f88"}}]}