{"resourceType":"Bundle","id":"tests-88b67805-bfef-411c-a191-12382d2c3104-bundle","type":"transaction","entry":[{"resource":{"resourceType":"Bundle","id":"Patient-23-DENEXPass-HospiceEncDuringMP","type":"transaction","entry":[{"fullUrl":"https://madie.cms.gov/Patient/88b67805-bfef-411c-a191-12382d2c3104","resource":{"resourceType":"Patient","id":"88b67805-bfef-411c-a191-12382d2c3104","meta":{"profile":["http://hl7.org/fhir/us/qicore/StructureDefinition/qicore-patient"]},"extension":[{"url":"http://hl7.org/fhir/us/core/StructureDefinition/us-core-race","extension":[{"url":"ombCategory","valueCoding":{"system":"urn:oid:2.16.840.1.113883.6.238","code":"2028-9","display":"Asian"}},{"url":"text","valueString":"Asian"}]},{"url":"http://hl7.org/fhir/us/core/StructureDefinition/us-core-ethnicity","extension":[{"url":"ombCategory","valueCoding":{"system":"urn:oid:2.16.840.1.113883.6.238","code":"2135-2","display":"Hispanic or Latino"}},{"url":"text","valueString":"Hispanic or Latino"}]}],"identifier":[{"system":"http://hospital.smarthealthit.org","value":"999999995"}],"name":[{"family":"Bertha","given":["Betty"]}],"gender":"female","birthDate":"2007-01-01"},"request":{"method":"PUT","url":"Patient/88b67805-bfef-411c-a191-12382d2c3104"}},{"fullUrl":"https://madie.cms.gov/Encounter/66656685-d225-48d5-8562-3fe6f7cd5708","resource":{"resourceType":"Encounter","id":"66656685-d225-48d5-8562-3fe6f7cd5708","meta":{"profile":["http://hl7.org/fhir/us/qicore/StructureDefinition/qicore-encounter"]},"status":"finished","class":{"system":"http://terminology.hl7.org/CodeSystem/v3-ActCode","code":"AMB","display":"ambulatory"},"type":[{"coding":[{"system":"http://snomed.info/sct","code":"185460008","display":"Home visit request by patient (procedure)"}]}],"subject":{"reference":"Patient/88b67805-bfef-411c-a191-12382d2c3104"},"period":{"start":"2026-01-01T00:00:00.000+00:00","end":"2026-01-01T00:15:00.000+00:00"}},"request":{"method":"PUT","url":"Encounter/66656685-d225-48d5-8562-3fe6f7cd5708"}},{"fullUrl":"https://madie.cms.gov/Condition/fba61aa0-437b-40a0-b182-660e66c311d2","resource":{"resourceType":"Condition","id":"fba61aa0-437b-40a0-b182-660e66c311d2","meta":{"profile":["http://hl7.org/fhir/us/qicore/StructureDefinition/qicore-condition-encounter-diagnosis"]},"clinicalStatus":{"coding":[{"system":"http://terminology.hl7.org/CodeSystem/condition-clinical","code":"active"}]},"category":[{"coding":[{"system":"http://terminology.hl7.org/CodeSystem/condition-category","code":"encounter-diagnosis","display":"Encounter Diagnosis"}]}],"code":{"coding":[{"system":"http://snomed.info/sct","code":"102781000119107","display":"Sensory neuropathy due to type 1 diabetes mellitus (disorder)"}]},"subject":{"reference":"Patient/88b67805-bfef-411c-a191-12382d2c3104"},"onsetDateTime":"2026-01-01T23:59:00.000+00:00"},"request":{"method":"PUT","url":"Condition/fba61aa0-437b-40a0-b182-660e66c311d2"}},{"fullUrl":"https://madie.cms.gov/Encounter/633a0d36-c707-4008-a00a-18051368e2ee","resource":{"resourceType":"Encounter","id":"633a0d36-c707-4008-a00a-18051368e2ee","meta":{"profile":["http://hl7.org/fhir/us/qicore/StructureDefinition/qicore-encounter"]},"status":"finished","class":{"system":"http://terminology.hl7.org/CodeSystem/v3-ActCode","code":"AMB","display":"ambulatory"},"type":[{"coding":[{"system":"http://snomed.info/sct","code":"305336008","display":"Admission to hospice (procedure)"}]}],"subject":{"reference":"Patient/88b67805-bfef-411c-a191-12382d2c3104"},"period":{"start":"2026-01-02T01:00:00.000+00:00","end":"2026-01-02T01:15:00.000+00:00"}},"request":{"method":"PUT","url":"Encounter/633a0d36-c707-4008-a00a-18051368e2ee"}},{"fullUrl":"https://madie.cms.gov/MeasureReport/aad1b0e3-55a7-406c-9e8f-72c9510703ac","resource":{"resourceType":"MeasureReport","id":"aad1b0e3-55a7-406c-9e8f-72c9510703ac","meta":{"profile":["http://hl7.org/fhir/us/cqfmeasures/StructureDefinition/test-case-cqfm"]},"contained":[{"resourceType":"Parameters","id":"1d7c66c5-32e4-444b-a2f9-8bac61b6dfb7-parameters","parameter":[{"name":"subject","valueString":"88b67805-bfef-411c-a191-12382d2c3104"}]}],"extension":[{"url":"http://hl7.org/fhir/StructureDefinition/cqf-inputParameters","valueReference":{"reference":"#1d7c66c5-32e4-444b-a2f9-8bac61b6dfb7-parameters"}},{"url":"http://hl7.org/fhir/us/cqfmeasures/StructureDefinition/cqfm-testCaseDescription","valueMarkdown":"Hospice encounter during the MP"}],"modifierExtension":[{"url":"http://hl7.org/fhir/us/cqfmeasures/StructureDefinition/cqfm-isTestCase","valueBoolean":true}],"status":"complete","type":"individual","measure":"https://madie.cms.gov/Measure/CMS122FHIRDiabetesAssessGreaterThan9Percent","period":{"start":"2026-01-01","end":"2026-12-31"},"group":[{"id":"Group_1","population":[{"id":"InitialPopulation_1","code":{"coding":[{"system":"http://terminology.hl7.org/CodeSystem/measure-population","code":"initial-population","display":"Initial Population"}]},"count":1},{"id":"Denominator_1","code":{"coding":[{"system":"http://terminology.hl7.org/CodeSystem/measure-population","code":"denominator","display":"Denominator"}]},"count":1},{"id":"DenominatorExclusion_1","code":{"coding":[{"system":"http://terminology.hl7.org/CodeSystem/measure-population","code":"denominator-exclusion","display":"Denominator Exclusion"}]},"count":1},{"id":"Numerator_1","code":{"coding":[{"system":"http://terminology.hl7.org/CodeSystem/measure-population","code":"numerator","display":"Numerator"}]},"count":0}],"measureScore":{"value":1.0}}],"evaluatedResource":[{"reference":"Patient/88b67805-bfef-411c-a191-12382d2c3104"},{"reference":"Encounter/66656685-d225-48d5-8562-3fe6f7cd5708"},{"reference":"Condition/fba61aa0-437b-40a0-b182-660e66c311d2"},{"reference":"Encounter/633a0d36-c707-4008-a00a-18051368e2ee"}]},"request":{"method":"PUT","url":"MeasureReport/aad1b0e3-55a7-406c-9e8f-72c9510703ac"}}]},"request":{"method":"PUT","url":"Bundle/Patient-23-DENEXPass-HospiceEncDuringMP"}},{"resource":{"resourceType":"Condition","id":"fba61aa0-437b-40a0-b182-660e66c311d2","meta":{"profile":["http://hl7.org/fhir/us/qicore/StructureDefinition/qicore-condition-encounter-diagnosis"]},"clinicalStatus":{"coding":[{"system":"http://terminology.hl7.org/CodeSystem/condition-clinical","code":"active"}]},"category":[{"coding":[{"system":"http://terminology.hl7.org/CodeSystem/condition-category","code":"encounter-diagnosis","display":"Encounter Diagnosis"}]}],"code":{"coding":[{"system":"http://snomed.info/sct","code":"102781000119107","display":"Sensory neuropathy due to type 1 diabetes mellitus (disorder)"}]},"subject":{"reference":"Patient/88b67805-bfef-411c-a191-12382d2c3104"},"onsetDateTime":"2026-01-01T23:59:00.000+00:00"},"request":{"method":"PUT","url":"Condition/fba61aa0-437b-40a0-b182-660e66c311d2"}},{"resource":{"resourceType":"Patient","id":"88b67805-bfef-411c-a191-12382d2c3104","meta":{"profile":["http://hl7.org/fhir/us/qicore/StructureDefinition/qicore-patient"]},"extension":[{"url":"http://hl7.org/fhir/us/core/StructureDefinition/us-core-race","extension":[{"url":"ombCategory","valueCoding":{"system":"urn:oid:2.16.840.1.113883.6.238","code":"2028-9","display":"Asian"}},{"url":"text","valueString":"Asian"}]},{"url":"http://hl7.org/fhir/us/core/StructureDefinition/us-core-ethnicity","extension":[{"url":"ombCategory","valueCoding":{"system":"urn:oid:2.16.840.1.113883.6.238","code":"2135-2","display":"Hispanic or Latino"}},{"url":"text","valueString":"Hispanic or Latino"}]}],"identifier":[{"system":"http://hospital.smarthealthit.org","value":"999999995"}],"name":[{"family":"Bertha","given":["Betty"]}],"gender":"female","birthDate":"2007-01-01"},"request":{"method":"PUT","url":"Patient/88b67805-bfef-411c-a191-12382d2c3104"}},{"resource":{"resourceType":"MeasureReport","id":"aad1b0e3-55a7-406c-9e8f-72c9510703ac","meta":{"profile":["http://hl7.org/fhir/us/cqfmeasures/StructureDefinition/test-case-cqfm"]},"contained":[{"resourceType":"Parameters","id":"1d7c66c5-32e4-444b-a2f9-8bac61b6dfb7-parameters","parameter":[{"name":"subject","valueString":"88b67805-bfef-411c-a191-12382d2c3104"}]}],"extension":[{"url":"http://hl7.org/fhir/StructureDefinition/cqf-inputParameters","valueReference":{"reference":"#1d7c66c5-32e4-444b-a2f9-8bac61b6dfb7-parameters"}},{"url":"http://hl7.org/fhir/us/cqfmeasures/StructureDefinition/cqfm-testCaseDescription","valueMarkdown":"Hospice encounter during the MP"}],"modifierExtension":[{"url":"http://hl7.org/fhir/us/cqfmeasures/StructureDefinition/cqfm-isTestCase","valueBoolean":true}],"status":"complete","type":"individual","measure":"https://madie.cms.gov/Measure/CMS122FHIRDiabetesAssessGreaterThan9Percent","period":{"start":"2026-01-01","end":"2026-12-31"},"group":[{"id":"Group_1","population":[{"id":"InitialPopulation_1","code":{"coding":[{"system":"http://terminology.hl7.org/CodeSystem/measure-population","code":"initial-population","display":"Initial Population"}]},"count":1},{"id":"Denominator_1","code":{"coding":[{"system":"http://terminology.hl7.org/CodeSystem/measure-population","code":"denominator","display":"Denominator"}]},"count":1},{"id":"DenominatorExclusion_1","code":{"coding":[{"system":"http://terminology.hl7.org/CodeSystem/measure-population","code":"denominator-exclusion","display":"Denominator Exclusion"}]},"count":1},{"id":"Numerator_1","code":{"coding":[{"system":"http://terminology.hl7.org/CodeSystem/measure-population","code":"numerator","display":"Numerator"}]},"count":0}],"measureScore":{"value":1.0}}],"evaluatedResource":[{"reference":"Patient/88b67805-bfef-411c-a191-12382d2c3104"},{"reference":"Encounter/66656685-d225-48d5-8562-3fe6f7cd5708"},{"reference":"Condition/fba61aa0-437b-40a0-b182-660e66c311d2"},{"reference":"Encounter/633a0d36-c707-4008-a00a-18051368e2ee"}]},"request":{"method":"PUT","url":"MeasureReport/aad1b0e3-55a7-406c-9e8f-72c9510703ac"}},{"resource":{"resourceType":"Encounter","id":"633a0d36-c707-4008-a00a-18051368e2ee","meta":{"profile":["http://hl7.org/fhir/us/qicore/StructureDefinition/qicore-encounter"]},"status":"finished","class":{"system":"http://terminology.hl7.org/CodeSystem/v3-ActCode","code":"AMB","display":"ambulatory"},"type":[{"coding":[{"system":"http://snomed.info/sct","code":"305336008","display":"Admission to hospice (procedure)"}]}],"subject":{"reference":"Patient/88b67805-bfef-411c-a191-12382d2c3104"},"period":{"start":"2026-01-02T01:00:00.000+00:00","end":"2026-01-02T01:15:00.000+00:00"}},"request":{"method":"PUT","url":"Encounter/633a0d36-c707-4008-a00a-18051368e2ee"}},{"resource":{"resourceType":"Encounter","id":"66656685-d225-48d5-8562-3fe6f7cd5708","meta":{"profile":["http://hl7.org/fhir/us/qicore/StructureDefinition/qicore-encounter"]},"status":"finished","class":{"system":"http://terminology.hl7.org/CodeSystem/v3-ActCode","code":"AMB","display":"ambulatory"},"type":[{"coding":[{"system":"http://snomed.info/sct","code":"185460008","display":"Home visit request by patient (procedure)"}]}],"subject":{"reference":"Patient/88b67805-bfef-411c-a191-12382d2c3104"},"period":{"start":"2026-01-01T00:00:00.000+00:00","end":"2026-01-01T00:15:00.000+00:00"}},"request":{"method":"PUT","url":"Encounter/66656685-d225-48d5-8562-3fe6f7cd5708"}}]}