{"resourceType":"Bundle","id":"tests-1fa14a28-3be6-4299-ac4f-68772805748a-bundle","type":"transaction","entry":[{"resource":{"resourceType":"Patient","id":"1fa14a28-3be6-4299-ac4f-68772805748a","meta":{"profile":["http://hl7.org/fhir/us/qicore/StructureDefinition/qicore-patient"]},"extension":[{"url":"http://hl7.org/fhir/us/core/StructureDefinition/us-core-race","extension":[{"url":"ombCategory","valueCoding":{"system":"urn:oid:2.16.840.1.113883.6.238","code":"2028-9","display":"Asian"}},{"url":"text","valueString":"Asian"}]},{"url":"http://hl7.org/fhir/us/core/StructureDefinition/us-core-ethnicity","extension":[{"url":"ombCategory","valueCoding":{"system":"urn:oid:2.16.840.1.113883.6.238","code":"2135-2","display":"Hispanic or Latino"}},{"url":"text","valueString":"Hispanic or Latino"}]}],"identifier":[{"system":"http://hospital.smarthealthit.org","value":"999999995"}],"name":[{"family":"Bertha","given":["Betty"]}],"gender":"female","birthDate":"1950-01-01"},"request":{"method":"PUT","url":"Patient/1fa14a28-3be6-4299-ac4f-68772805748a"}},{"resource":{"resourceType":"Bundle","id":"Patient-3-IPFail-PatientAge76","type":"transaction","entry":[{"fullUrl":"https://madie.cms.gov/Patient/1fa14a28-3be6-4299-ac4f-68772805748a","resource":{"resourceType":"Patient","id":"1fa14a28-3be6-4299-ac4f-68772805748a","meta":{"profile":["http://hl7.org/fhir/us/qicore/StructureDefinition/qicore-patient"]},"extension":[{"url":"http://hl7.org/fhir/us/core/StructureDefinition/us-core-race","extension":[{"url":"ombCategory","valueCoding":{"system":"urn:oid:2.16.840.1.113883.6.238","code":"2028-9","display":"Asian"}},{"url":"text","valueString":"Asian"}]},{"url":"http://hl7.org/fhir/us/core/StructureDefinition/us-core-ethnicity","extension":[{"url":"ombCategory","valueCoding":{"system":"urn:oid:2.16.840.1.113883.6.238","code":"2135-2","display":"Hispanic or Latino"}},{"url":"text","valueString":"Hispanic or Latino"}]}],"identifier":[{"system":"http://hospital.smarthealthit.org","value":"999999995"}],"name":[{"family":"Bertha","given":["Betty"]}],"gender":"female","birthDate":"1950-01-01"},"request":{"method":"PUT","url":"Patient/1fa14a28-3be6-4299-ac4f-68772805748a"}},{"fullUrl":"https://madie.cms.gov/Encounter/e73fbc4f-e855-4c49-8368-5b97f074027c","resource":{"resourceType":"Encounter","id":"e73fbc4f-e855-4c49-8368-5b97f074027c","meta":{"profile":["http://hl7.org/fhir/us/qicore/StructureDefinition/qicore-encounter"]},"status":"finished","class":{"system":"http://terminology.hl7.org/CodeSystem/v3-ActCode","code":"AMB","display":"ambulatory"},"type":[{"coding":[{"system":"http://snomed.info/sct","code":"185460008","display":"Home visit request by patient (procedure)"}]}],"subject":{"reference":"Patient/1fa14a28-3be6-4299-ac4f-68772805748a"},"period":{"start":"2026-01-01T00:00:00.000+00:00","end":"2026-01-01T00:15:00.000+00:00"}},"request":{"method":"PUT","url":"Encounter/e73fbc4f-e855-4c49-8368-5b97f074027c"}},{"fullUrl":"https://madie.cms.gov/Condition/8f359fd2-4b8d-4120-9cfa-8d5cea392552","resource":{"resourceType":"Condition","id":"8f359fd2-4b8d-4120-9cfa-8d5cea392552","meta":{"profile":["http://hl7.org/fhir/us/qicore/StructureDefinition/qicore-condition-encounter-diagnosis"]},"clinicalStatus":{"coding":[{"system":"http://terminology.hl7.org/CodeSystem/condition-clinical","code":"active"}]},"category":[{"coding":[{"system":"http://terminology.hl7.org/CodeSystem/condition-category","code":"encounter-diagnosis","display":"Encounter Diagnosis"}]}],"code":{"coding":[{"system":"http://snomed.info/sct","code":"102781000119107","display":"Sensory neuropathy due to type 1 diabetes mellitus (disorder)"}]},"subject":{"reference":"Patient/1fa14a28-3be6-4299-ac4f-68772805748a"},"onsetDateTime":"2026-01-01T23:59:00.000+00:00"},"request":{"method":"PUT","url":"Condition/8f359fd2-4b8d-4120-9cfa-8d5cea392552"}},{"fullUrl":"https://madie.cms.gov/MeasureReport/3d4c304d-7654-43ea-89fc-08a1cee7ec20","resource":{"resourceType":"MeasureReport","id":"3d4c304d-7654-43ea-89fc-08a1cee7ec20","meta":{"profile":["http://hl7.org/fhir/us/cqfmeasures/StructureDefinition/test-case-cqfm"]},"contained":[{"resourceType":"Parameters","id":"e51fa43c-a1d5-4844-b09f-73f5e59a058f-parameters","parameter":[{"name":"subject","valueString":"1fa14a28-3be6-4299-ac4f-68772805748a"}]}],"extension":[{"url":"http://hl7.org/fhir/StructureDefinition/cqf-inputParameters","valueReference":{"reference":"#e51fa43c-a1d5-4844-b09f-73f5e59a058f-parameters"}},{"url":"http://hl7.org/fhir/us/cqfmeasures/StructureDefinition/cqfm-testCaseDescription","valueMarkdown":"Incorrect age (age 76)"}],"modifierExtension":[{"url":"http://hl7.org/fhir/us/cqfmeasures/StructureDefinition/cqfm-isTestCase","valueBoolean":true}],"status":"complete","type":"individual","measure":"https://madie.cms.gov/Measure/CMS122FHIRDiabetesAssessGreaterThan9Percent","period":{"start":"2026-01-01","end":"2026-12-31"},"group":[{"id":"Group_1","population":[{"id":"InitialPopulation_1","code":{"coding":[{"system":"http://terminology.hl7.org/CodeSystem/measure-population","code":"initial-population","display":"Initial Population"}]},"count":0},{"id":"Denominator_1","code":{"coding":[{"system":"http://terminology.hl7.org/CodeSystem/measure-population","code":"denominator","display":"Denominator"}]},"count":0},{"id":"DenominatorExclusion_1","code":{"coding":[{"system":"http://terminology.hl7.org/CodeSystem/measure-population","code":"denominator-exclusion","display":"Denominator Exclusion"}]},"count":0},{"id":"Numerator_1","code":{"coding":[{"system":"http://terminology.hl7.org/CodeSystem/measure-population","code":"numerator","display":"Numerator"}]},"count":0}],"measureScore":{"value":1.0}}],"evaluatedResource":[{"reference":"Patient/1fa14a28-3be6-4299-ac4f-68772805748a"},{"reference":"Encounter/e73fbc4f-e855-4c49-8368-5b97f074027c"},{"reference":"Condition/8f359fd2-4b8d-4120-9cfa-8d5cea392552"}]},"request":{"method":"PUT","url":"MeasureReport/3d4c304d-7654-43ea-89fc-08a1cee7ec20"}}]},"request":{"method":"PUT","url":"Bundle/Patient-3-IPFail-PatientAge76"}},{"resource":{"resourceType":"Encounter","id":"e73fbc4f-e855-4c49-8368-5b97f074027c","meta":{"profile":["http://hl7.org/fhir/us/qicore/StructureDefinition/qicore-encounter"]},"status":"finished","class":{"system":"http://terminology.hl7.org/CodeSystem/v3-ActCode","code":"AMB","display":"ambulatory"},"type":[{"coding":[{"system":"http://snomed.info/sct","code":"185460008","display":"Home visit request by patient (procedure)"}]}],"subject":{"reference":"Patient/1fa14a28-3be6-4299-ac4f-68772805748a"},"period":{"start":"2026-01-01T00:00:00.000+00:00","end":"2026-01-01T00:15:00.000+00:00"}},"request":{"method":"PUT","url":"Encounter/e73fbc4f-e855-4c49-8368-5b97f074027c"}},{"resource":{"resourceType":"Condition","id":"8f359fd2-4b8d-4120-9cfa-8d5cea392552","meta":{"profile":["http://hl7.org/fhir/us/qicore/StructureDefinition/qicore-condition-encounter-diagnosis"]},"clinicalStatus":{"coding":[{"system":"http://terminology.hl7.org/CodeSystem/condition-clinical","code":"active"}]},"category":[{"coding":[{"system":"http://terminology.hl7.org/CodeSystem/condition-category","code":"encounter-diagnosis","display":"Encounter Diagnosis"}]}],"code":{"coding":[{"system":"http://snomed.info/sct","code":"102781000119107","display":"Sensory neuropathy due to type 1 diabetes mellitus (disorder)"}]},"subject":{"reference":"Patient/1fa14a28-3be6-4299-ac4f-68772805748a"},"onsetDateTime":"2026-01-01T23:59:00.000+00:00"},"request":{"method":"PUT","url":"Condition/8f359fd2-4b8d-4120-9cfa-8d5cea392552"}},{"resource":{"resourceType":"MeasureReport","id":"3d4c304d-7654-43ea-89fc-08a1cee7ec20","meta":{"profile":["http://hl7.org/fhir/us/cqfmeasures/StructureDefinition/test-case-cqfm"]},"contained":[{"resourceType":"Parameters","id":"e51fa43c-a1d5-4844-b09f-73f5e59a058f-parameters","parameter":[{"name":"subject","valueString":"1fa14a28-3be6-4299-ac4f-68772805748a"}]}],"extension":[{"url":"http://hl7.org/fhir/StructureDefinition/cqf-inputParameters","valueReference":{"reference":"#e51fa43c-a1d5-4844-b09f-73f5e59a058f-parameters"}},{"url":"http://hl7.org/fhir/us/cqfmeasures/StructureDefinition/cqfm-testCaseDescription","valueMarkdown":"Incorrect age (age 76)"}],"modifierExtension":[{"url":"http://hl7.org/fhir/us/cqfmeasures/StructureDefinition/cqfm-isTestCase","valueBoolean":true}],"status":"complete","type":"individual","measure":"https://madie.cms.gov/Measure/CMS122FHIRDiabetesAssessGreaterThan9Percent","period":{"start":"2026-01-01","end":"2026-12-31"},"group":[{"id":"Group_1","population":[{"id":"InitialPopulation_1","code":{"coding":[{"system":"http://terminology.hl7.org/CodeSystem/measure-population","code":"initial-population","display":"Initial Population"}]},"count":0},{"id":"Denominator_1","code":{"coding":[{"system":"http://terminology.hl7.org/CodeSystem/measure-population","code":"denominator","display":"Denominator"}]},"count":0},{"id":"DenominatorExclusion_1","code":{"coding":[{"system":"http://terminology.hl7.org/CodeSystem/measure-population","code":"denominator-exclusion","display":"Denominator Exclusion"}]},"count":0},{"id":"Numerator_1","code":{"coding":[{"system":"http://terminology.hl7.org/CodeSystem/measure-population","code":"numerator","display":"Numerator"}]},"count":0}],"measureScore":{"value":1.0}}],"evaluatedResource":[{"reference":"Patient/1fa14a28-3be6-4299-ac4f-68772805748a"},{"reference":"Encounter/e73fbc4f-e855-4c49-8368-5b97f074027c"},{"reference":"Condition/8f359fd2-4b8d-4120-9cfa-8d5cea392552"}]},"request":{"method":"PUT","url":"MeasureReport/3d4c304d-7654-43ea-89fc-08a1cee7ec20"}}]}