{"resourceType":"Bundle","id":"tests-981dbc54-03ac-4f2e-a008-dbedfcbd2a7a-bundle","type":"transaction","entry":[{"resource":{"resourceType":"Patient","id":"981dbc54-03ac-4f2e-a008-dbedfcbd2a7a","meta":{"profile":["http://hl7.org/fhir/us/qicore/StructureDefinition/qicore-patient"]},"extension":[{"url":"http://hl7.org/fhir/us/core/StructureDefinition/us-core-race","extension":[{"url":"ombCategory","valueCoding":{"system":"urn:oid:2.16.840.1.113883.6.238","code":"2028-9","display":"Asian"}},{"url":"text","valueString":"Asian"}]},{"url":"http://hl7.org/fhir/us/core/StructureDefinition/us-core-ethnicity","extension":[{"url":"ombCategory","valueCoding":{"system":"urn:oid:2.16.840.1.113883.6.238","code":"2135-2","display":"Hispanic or Latino"}},{"url":"text","valueString":"Hispanic or Latino"}]}],"identifier":[{"system":"http://hospital.smarthealthit.org","value":"999999995"}],"name":[{"family":"Bertha","given":["Betty"]}],"gender":"female","birthDate":"2008-01-01"},"request":{"method":"PUT","url":"Patient/981dbc54-03ac-4f2e-a008-dbedfcbd2a7a"}},{"resource":{"resourceType":"Encounter","id":"b28b6770-dd77-4330-9a4f-c8a3524b6e5b","meta":{"profile":["http://hl7.org/fhir/us/qicore/StructureDefinition/qicore-encounter"]},"status":"finished","class":{"system":"http://terminology.hl7.org/CodeSystem/v3-ActCode","code":"AMB","display":"ambulatory"},"type":[{"coding":[{"system":"http://snomed.info/sct","code":"185460008","display":"Home visit request by patient (procedure)"}]}],"subject":{"reference":"Patient/981dbc54-03ac-4f2e-a008-dbedfcbd2a7a"},"period":{"start":"2026-01-01T00:00:00.000+00:00","end":"2026-01-01T00:15:00.000+00:00"}},"request":{"method":"PUT","url":"Encounter/b28b6770-dd77-4330-9a4f-c8a3524b6e5b"}},{"resource":{"resourceType":"Bundle","id":"Patient-1-IPPass-PatientAge18","type":"transaction","entry":[{"fullUrl":"https://madie.cms.gov/Patient/981dbc54-03ac-4f2e-a008-dbedfcbd2a7a","resource":{"resourceType":"Patient","id":"981dbc54-03ac-4f2e-a008-dbedfcbd2a7a","meta":{"profile":["http://hl7.org/fhir/us/qicore/StructureDefinition/qicore-patient"]},"extension":[{"url":"http://hl7.org/fhir/us/core/StructureDefinition/us-core-race","extension":[{"url":"ombCategory","valueCoding":{"system":"urn:oid:2.16.840.1.113883.6.238","code":"2028-9","display":"Asian"}},{"url":"text","valueString":"Asian"}]},{"url":"http://hl7.org/fhir/us/core/StructureDefinition/us-core-ethnicity","extension":[{"url":"ombCategory","valueCoding":{"system":"urn:oid:2.16.840.1.113883.6.238","code":"2135-2","display":"Hispanic or Latino"}},{"url":"text","valueString":"Hispanic or Latino"}]}],"identifier":[{"system":"http://hospital.smarthealthit.org","value":"999999995"}],"name":[{"family":"Bertha","given":["Betty"]}],"gender":"female","birthDate":"2008-01-01"},"request":{"method":"PUT","url":"Patient/981dbc54-03ac-4f2e-a008-dbedfcbd2a7a"}},{"fullUrl":"https://madie.cms.gov/Encounter/b28b6770-dd77-4330-9a4f-c8a3524b6e5b","resource":{"resourceType":"Encounter","id":"b28b6770-dd77-4330-9a4f-c8a3524b6e5b","meta":{"profile":["http://hl7.org/fhir/us/qicore/StructureDefinition/qicore-encounter"]},"status":"finished","class":{"system":"http://terminology.hl7.org/CodeSystem/v3-ActCode","code":"AMB","display":"ambulatory"},"type":[{"coding":[{"system":"http://snomed.info/sct","code":"185460008","display":"Home visit request by patient (procedure)"}]}],"subject":{"reference":"Patient/981dbc54-03ac-4f2e-a008-dbedfcbd2a7a"},"period":{"start":"2026-01-01T00:00:00.000+00:00","end":"2026-01-01T00:15:00.000+00:00"}},"request":{"method":"PUT","url":"Encounter/b28b6770-dd77-4330-9a4f-c8a3524b6e5b"}},{"fullUrl":"https://madie.cms.gov/Condition/01493099-27c3-4f24-9a7a-65af10d7e485","resource":{"resourceType":"Condition","id":"01493099-27c3-4f24-9a7a-65af10d7e485","meta":{"profile":["http://hl7.org/fhir/us/qicore/StructureDefinition/qicore-condition-encounter-diagnosis"]},"clinicalStatus":{"coding":[{"system":"http://terminology.hl7.org/CodeSystem/condition-clinical","code":"active"}]},"category":[{"coding":[{"system":"http://terminology.hl7.org/CodeSystem/condition-category","code":"encounter-diagnosis","display":"Encounter Diagnosis"}]}],"code":{"coding":[{"system":"http://snomed.info/sct","code":"102781000119107","display":"Sensory neuropathy due to type 1 diabetes mellitus (disorder)"}]},"subject":{"reference":"Patient/981dbc54-03ac-4f2e-a008-dbedfcbd2a7a"},"onsetDateTime":"2026-01-01T23:59:00.000+00:00"},"request":{"method":"PUT","url":"Condition/01493099-27c3-4f24-9a7a-65af10d7e485"}},{"fullUrl":"https://madie.cms.gov/MeasureReport/efe6b950-ae06-4abe-a0cd-f438fc9d0fe5","resource":{"resourceType":"MeasureReport","id":"efe6b950-ae06-4abe-a0cd-f438fc9d0fe5","meta":{"profile":["http://hl7.org/fhir/us/cqfmeasures/StructureDefinition/test-case-cqfm"]},"contained":[{"resourceType":"Parameters","id":"7cf3f93c-d0f1-4d63-b22d-67c3a12bef81-parameters","parameter":[{"name":"subject","valueString":"981dbc54-03ac-4f2e-a008-dbedfcbd2a7a"}]}],"extension":[{"url":"http://hl7.org/fhir/StructureDefinition/cqf-inputParameters","valueReference":{"reference":"#7cf3f93c-d0f1-4d63-b22d-67c3a12bef81-parameters"}},{"url":"http://hl7.org/fhir/us/cqfmeasures/StructureDefinition/cqfm-testCaseDescription","valueMarkdown":"Correct age (age 18)"}],"modifierExtension":[{"url":"http://hl7.org/fhir/us/cqfmeasures/StructureDefinition/cqfm-isTestCase","valueBoolean":true}],"status":"complete","type":"individual","measure":"https://madie.cms.gov/Measure/CMS122FHIRDiabetesAssessGreaterThan9Percent","period":{"start":"2026-01-01","end":"2026-12-31"},"group":[{"id":"Group_1","population":[{"id":"InitialPopulation_1","code":{"coding":[{"system":"http://terminology.hl7.org/CodeSystem/measure-population","code":"initial-population","display":"Initial Population"}]},"count":1},{"id":"Denominator_1","code":{"coding":[{"system":"http://terminology.hl7.org/CodeSystem/measure-population","code":"denominator","display":"Denominator"}]},"count":1},{"id":"DenominatorExclusion_1","code":{"coding":[{"system":"http://terminology.hl7.org/CodeSystem/measure-population","code":"denominator-exclusion","display":"Denominator Exclusion"}]},"count":0},{"id":"Numerator_1","code":{"coding":[{"system":"http://terminology.hl7.org/CodeSystem/measure-population","code":"numerator","display":"Numerator"}]},"count":1}],"measureScore":{"value":1.0}}],"evaluatedResource":[{"reference":"Patient/981dbc54-03ac-4f2e-a008-dbedfcbd2a7a"},{"reference":"Encounter/b28b6770-dd77-4330-9a4f-c8a3524b6e5b"},{"reference":"Condition/01493099-27c3-4f24-9a7a-65af10d7e485"}]},"request":{"method":"PUT","url":"MeasureReport/efe6b950-ae06-4abe-a0cd-f438fc9d0fe5"}}]},"request":{"method":"PUT","url":"Bundle/Patient-1-IPPass-PatientAge18"}},{"resource":{"resourceType":"Condition","id":"01493099-27c3-4f24-9a7a-65af10d7e485","meta":{"profile":["http://hl7.org/fhir/us/qicore/StructureDefinition/qicore-condition-encounter-diagnosis"]},"clinicalStatus":{"coding":[{"system":"http://terminology.hl7.org/CodeSystem/condition-clinical","code":"active"}]},"category":[{"coding":[{"system":"http://terminology.hl7.org/CodeSystem/condition-category","code":"encounter-diagnosis","display":"Encounter Diagnosis"}]}],"code":{"coding":[{"system":"http://snomed.info/sct","code":"102781000119107","display":"Sensory neuropathy due to type 1 diabetes mellitus (disorder)"}]},"subject":{"reference":"Patient/981dbc54-03ac-4f2e-a008-dbedfcbd2a7a"},"onsetDateTime":"2026-01-01T23:59:00.000+00:00"},"request":{"method":"PUT","url":"Condition/01493099-27c3-4f24-9a7a-65af10d7e485"}},{"resource":{"resourceType":"MeasureReport","id":"efe6b950-ae06-4abe-a0cd-f438fc9d0fe5","meta":{"profile":["http://hl7.org/fhir/us/cqfmeasures/StructureDefinition/test-case-cqfm"]},"contained":[{"resourceType":"Parameters","id":"7cf3f93c-d0f1-4d63-b22d-67c3a12bef81-parameters","parameter":[{"name":"subject","valueString":"981dbc54-03ac-4f2e-a008-dbedfcbd2a7a"}]}],"extension":[{"url":"http://hl7.org/fhir/StructureDefinition/cqf-inputParameters","valueReference":{"reference":"#7cf3f93c-d0f1-4d63-b22d-67c3a12bef81-parameters"}},{"url":"http://hl7.org/fhir/us/cqfmeasures/StructureDefinition/cqfm-testCaseDescription","valueMarkdown":"Correct age (age 18)"}],"modifierExtension":[{"url":"http://hl7.org/fhir/us/cqfmeasures/StructureDefinition/cqfm-isTestCase","valueBoolean":true}],"status":"complete","type":"individual","measure":"https://madie.cms.gov/Measure/CMS122FHIRDiabetesAssessGreaterThan9Percent","period":{"start":"2026-01-01","end":"2026-12-31"},"group":[{"id":"Group_1","population":[{"id":"InitialPopulation_1","code":{"coding":[{"system":"http://terminology.hl7.org/CodeSystem/measure-population","code":"initial-population","display":"Initial Population"}]},"count":1},{"id":"Denominator_1","code":{"coding":[{"system":"http://terminology.hl7.org/CodeSystem/measure-population","code":"denominator","display":"Denominator"}]},"count":1},{"id":"DenominatorExclusion_1","code":{"coding":[{"system":"http://terminology.hl7.org/CodeSystem/measure-population","code":"denominator-exclusion","display":"Denominator Exclusion"}]},"count":0},{"id":"Numerator_1","code":{"coding":[{"system":"http://terminology.hl7.org/CodeSystem/measure-population","code":"numerator","display":"Numerator"}]},"count":1}],"measureScore":{"value":1.0}}],"evaluatedResource":[{"reference":"Patient/981dbc54-03ac-4f2e-a008-dbedfcbd2a7a"},{"reference":"Encounter/b28b6770-dd77-4330-9a4f-c8a3524b6e5b"},{"reference":"Condition/01493099-27c3-4f24-9a7a-65af10d7e485"}]},"request":{"method":"PUT","url":"MeasureReport/efe6b950-ae06-4abe-a0cd-f438fc9d0fe5"}}]}