{"resourceType":"Bundle","id":"tests-24fa66c5-52ba-4386-a5e7-7b78002be77a-bundle","type":"transaction","entry":[{"resource":{"resourceType":"Encounter","id":"327a5860-bbc8-4d0a-ae2a-8056e73411ef","meta":{"profile":["http://hl7.org/fhir/us/qicore/StructureDefinition/qicore-encounter"]},"status":"finished","class":{"system":"http://terminology.hl7.org/CodeSystem/v3-ActCode","code":"AMB","display":"ambulatory"},"type":[{"coding":[{"system":"http://www.ama-assn.org/go/cpt","code":"99395","display":"Periodic comprehensive preventive medicine reevaluation and management of an individual including an age and gender appropriate history, examination, counseling/anticipatory guidance/risk factor reduction interventions, and the ordering of laboratory/diagnostic procedures, established patient; 18-39 years"}]}],"subject":{"reference":"Patient/24fa66c5-52ba-4386-a5e7-7b78002be77a"},"period":{"start":"2026-01-01T00:00:00.000+00:00","end":"2026-01-01T00:15:00.000+00:00"}},"request":{"method":"PUT","url":"Encounter/327a5860-bbc8-4d0a-ae2a-8056e73411ef"}},{"resource":{"resourceType":"Patient","id":"24fa66c5-52ba-4386-a5e7-7b78002be77a","meta":{"profile":["http://hl7.org/fhir/us/qicore/StructureDefinition/qicore-patient"]},"extension":[{"url":"http://hl7.org/fhir/us/core/StructureDefinition/us-core-race","extension":[{"url":"ombCategory","valueCoding":{"system":"urn:oid:2.16.840.1.113883.6.238","code":"2028-9","display":"Asian"}},{"url":"text","valueString":"Asian"}]},{"url":"http://hl7.org/fhir/us/core/StructureDefinition/us-core-ethnicity","extension":[{"url":"ombCategory","valueCoding":{"system":"urn:oid:2.16.840.1.113883.6.238","code":"2135-2","display":"Hispanic or Latino"}},{"url":"text","valueString":"Hispanic or Latino"}]}],"identifier":[{"system":"http://hospital.smarthealthit.org","value":"999999995"}],"name":[{"family":"Bertha","given":["Betty"]}],"gender":"female","birthDate":"2008-01-01"},"request":{"method":"PUT","url":"Patient/24fa66c5-52ba-4386-a5e7-7b78002be77a"}},{"resource":{"resourceType":"MeasureReport","id":"27eeb32e-d121-4fad-af31-4ea5b26559e1","meta":{"profile":["http://hl7.org/fhir/us/cqfmeasures/StructureDefinition/test-case-cqfm"]},"contained":[{"resourceType":"Parameters","id":"87dd9aaf-fd97-45fb-b5a7-ff436b0e3b7d-parameters","parameter":[{"name":"subject","valueString":"24fa66c5-52ba-4386-a5e7-7b78002be77a"}]}],"extension":[{"url":"http://hl7.org/fhir/StructureDefinition/cqf-inputParameters","valueReference":{"reference":"#87dd9aaf-fd97-45fb-b5a7-ff436b0e3b7d-parameters"}},{"url":"http://hl7.org/fhir/us/cqfmeasures/StructureDefinition/cqfm-testCaseDescription","valueMarkdown":"Encounter is an established office visit"}],"modifierExtension":[{"url":"http://hl7.org/fhir/us/cqfmeasures/StructureDefinition/cqfm-isTestCase","valueBoolean":true}],"status":"complete","type":"individual","measure":"https://madie.cms.gov/Measure/CMS122FHIRDiabetesAssessGreaterThan9Percent","period":{"start":"2026-01-01","end":"2026-12-31"},"group":[{"id":"Group_1","population":[{"id":"InitialPopulation_1","code":{"coding":[{"system":"http://terminology.hl7.org/CodeSystem/measure-population","code":"initial-population","display":"Initial Population"}]},"count":1},{"id":"Denominator_1","code":{"coding":[{"system":"http://terminology.hl7.org/CodeSystem/measure-population","code":"denominator","display":"Denominator"}]},"count":1},{"id":"DenominatorExclusion_1","code":{"coding":[{"system":"http://terminology.hl7.org/CodeSystem/measure-population","code":"denominator-exclusion","display":"Denominator Exclusion"}]},"count":0},{"id":"Numerator_1","code":{"coding":[{"system":"http://terminology.hl7.org/CodeSystem/measure-population","code":"numerator","display":"Numerator"}]},"count":1}],"measureScore":{"value":1.0}}],"evaluatedResource":[{"reference":"Patient/24fa66c5-52ba-4386-a5e7-7b78002be77a"},{"reference":"Encounter/327a5860-bbc8-4d0a-ae2a-8056e73411ef"},{"reference":"Condition/0547674e-7112-44a4-8bd6-1c079eded40e"}]},"request":{"method":"PUT","url":"MeasureReport/27eeb32e-d121-4fad-af31-4ea5b26559e1"}},{"resource":{"resourceType":"Bundle","id":"Patient-36-IPPass-EstablishedOfficeVisit","type":"transaction","entry":[{"fullUrl":"https://madie.cms.gov/Patient/24fa66c5-52ba-4386-a5e7-7b78002be77a","resource":{"resourceType":"Patient","id":"24fa66c5-52ba-4386-a5e7-7b78002be77a","meta":{"profile":["http://hl7.org/fhir/us/qicore/StructureDefinition/qicore-patient"]},"extension":[{"url":"http://hl7.org/fhir/us/core/StructureDefinition/us-core-race","extension":[{"url":"ombCategory","valueCoding":{"system":"urn:oid:2.16.840.1.113883.6.238","code":"2028-9","display":"Asian"}},{"url":"text","valueString":"Asian"}]},{"url":"http://hl7.org/fhir/us/core/StructureDefinition/us-core-ethnicity","extension":[{"url":"ombCategory","valueCoding":{"system":"urn:oid:2.16.840.1.113883.6.238","code":"2135-2","display":"Hispanic or Latino"}},{"url":"text","valueString":"Hispanic or Latino"}]}],"identifier":[{"system":"http://hospital.smarthealthit.org","value":"999999995"}],"name":[{"family":"Bertha","given":["Betty"]}],"gender":"female","birthDate":"2008-01-01"},"request":{"method":"PUT","url":"Patient/24fa66c5-52ba-4386-a5e7-7b78002be77a"}},{"fullUrl":"https://madie.cms.gov/Encounter/327a5860-bbc8-4d0a-ae2a-8056e73411ef","resource":{"resourceType":"Encounter","id":"327a5860-bbc8-4d0a-ae2a-8056e73411ef","meta":{"profile":["http://hl7.org/fhir/us/qicore/StructureDefinition/qicore-encounter"]},"status":"finished","class":{"system":"http://terminology.hl7.org/CodeSystem/v3-ActCode","code":"AMB","display":"ambulatory"},"type":[{"coding":[{"system":"http://www.ama-assn.org/go/cpt","code":"99395","display":"Periodic comprehensive preventive medicine reevaluation and management of an individual including an age and gender appropriate history, examination, counseling/anticipatory guidance/risk factor reduction interventions, and the ordering of laboratory/diagnostic procedures, established patient; 18-39 years"}]}],"subject":{"reference":"Patient/24fa66c5-52ba-4386-a5e7-7b78002be77a"},"period":{"start":"2026-01-01T00:00:00.000+00:00","end":"2026-01-01T00:15:00.000+00:00"}},"request":{"method":"PUT","url":"Encounter/327a5860-bbc8-4d0a-ae2a-8056e73411ef"}},{"fullUrl":"https://madie.cms.gov/Condition/0547674e-7112-44a4-8bd6-1c079eded40e","resource":{"resourceType":"Condition","id":"0547674e-7112-44a4-8bd6-1c079eded40e","meta":{"profile":["http://hl7.org/fhir/us/qicore/StructureDefinition/qicore-condition-encounter-diagnosis"]},"clinicalStatus":{"coding":[{"system":"http://terminology.hl7.org/CodeSystem/condition-clinical","code":"active"}]},"category":[{"coding":[{"system":"http://terminology.hl7.org/CodeSystem/condition-category","code":"encounter-diagnosis","display":"Encounter Diagnosis"}]}],"code":{"coding":[{"system":"http://snomed.info/sct","code":"102781000119107","display":"Sensory neuropathy due to type 1 diabetes mellitus (disorder)"}]},"subject":{"reference":"Patient/24fa66c5-52ba-4386-a5e7-7b78002be77a"},"onsetDateTime":"2026-01-01T23:59:00.000+00:00"},"request":{"method":"PUT","url":"Condition/0547674e-7112-44a4-8bd6-1c079eded40e"}},{"fullUrl":"https://madie.cms.gov/MeasureReport/27eeb32e-d121-4fad-af31-4ea5b26559e1","resource":{"resourceType":"MeasureReport","id":"27eeb32e-d121-4fad-af31-4ea5b26559e1","meta":{"profile":["http://hl7.org/fhir/us/cqfmeasures/StructureDefinition/test-case-cqfm"]},"contained":[{"resourceType":"Parameters","id":"87dd9aaf-fd97-45fb-b5a7-ff436b0e3b7d-parameters","parameter":[{"name":"subject","valueString":"24fa66c5-52ba-4386-a5e7-7b78002be77a"}]}],"extension":[{"url":"http://hl7.org/fhir/StructureDefinition/cqf-inputParameters","valueReference":{"reference":"#87dd9aaf-fd97-45fb-b5a7-ff436b0e3b7d-parameters"}},{"url":"http://hl7.org/fhir/us/cqfmeasures/StructureDefinition/cqfm-testCaseDescription","valueMarkdown":"Encounter is an established office visit"}],"modifierExtension":[{"url":"http://hl7.org/fhir/us/cqfmeasures/StructureDefinition/cqfm-isTestCase","valueBoolean":true}],"status":"complete","type":"individual","measure":"https://madie.cms.gov/Measure/CMS122FHIRDiabetesAssessGreaterThan9Percent","period":{"start":"2026-01-01","end":"2026-12-31"},"group":[{"id":"Group_1","population":[{"id":"InitialPopulation_1","code":{"coding":[{"system":"http://terminology.hl7.org/CodeSystem/measure-population","code":"initial-population","display":"Initial Population"}]},"count":1},{"id":"Denominator_1","code":{"coding":[{"system":"http://terminology.hl7.org/CodeSystem/measure-population","code":"denominator","display":"Denominator"}]},"count":1},{"id":"DenominatorExclusion_1","code":{"coding":[{"system":"http://terminology.hl7.org/CodeSystem/measure-population","code":"denominator-exclusion","display":"Denominator Exclusion"}]},"count":0},{"id":"Numerator_1","code":{"coding":[{"system":"http://terminology.hl7.org/CodeSystem/measure-population","code":"numerator","display":"Numerator"}]},"count":1}],"measureScore":{"value":1.0}}],"evaluatedResource":[{"reference":"Patient/24fa66c5-52ba-4386-a5e7-7b78002be77a"},{"reference":"Encounter/327a5860-bbc8-4d0a-ae2a-8056e73411ef"},{"reference":"Condition/0547674e-7112-44a4-8bd6-1c079eded40e"}]},"request":{"method":"PUT","url":"MeasureReport/27eeb32e-d121-4fad-af31-4ea5b26559e1"}}]},"request":{"method":"PUT","url":"Bundle/Patient-36-IPPass-EstablishedOfficeVisit"}},{"resource":{"resourceType":"Condition","id":"0547674e-7112-44a4-8bd6-1c079eded40e","meta":{"profile":["http://hl7.org/fhir/us/qicore/StructureDefinition/qicore-condition-encounter-diagnosis"]},"clinicalStatus":{"coding":[{"system":"http://terminology.hl7.org/CodeSystem/condition-clinical","code":"active"}]},"category":[{"coding":[{"system":"http://terminology.hl7.org/CodeSystem/condition-category","code":"encounter-diagnosis","display":"Encounter Diagnosis"}]}],"code":{"coding":[{"system":"http://snomed.info/sct","code":"102781000119107","display":"Sensory neuropathy due to type 1 diabetes mellitus (disorder)"}]},"subject":{"reference":"Patient/24fa66c5-52ba-4386-a5e7-7b78002be77a"},"onsetDateTime":"2026-01-01T23:59:00.000+00:00"},"request":{"method":"PUT","url":"Condition/0547674e-7112-44a4-8bd6-1c079eded40e"}}]}