{"resourceType":"Bundle","id":"tests-85b60f52-7b08-46f3-946b-cb317b28acf5-bundle","type":"transaction","entry":[{"resource":{"resourceType":"MeasureReport","id":"b1638951-b21b-4ed7-b2f2-0d877f17a337","meta":{"profile":["http://hl7.org/fhir/us/cqfmeasures/StructureDefinition/test-case-cqfm"]},"contained":[{"resourceType":"Parameters","id":"5ee65ee3-9902-466b-8118-102946dd1544-parameters","parameter":[{"name":"subject","valueString":"85b60f52-7b08-46f3-946b-cb317b28acf5"}]}],"extension":[{"url":"http://hl7.org/fhir/StructureDefinition/cqf-inputParameters","valueReference":{"reference":"#5ee65ee3-9902-466b-8118-102946dd1544-parameters"}},{"url":"http://hl7.org/fhir/us/cqfmeasures/StructureDefinition/cqfm-testCaseDescription","valueMarkdown":"One inpatient visit during the MP"}],"modifierExtension":[{"url":"http://hl7.org/fhir/us/cqfmeasures/StructureDefinition/cqfm-isTestCase","valueBoolean":true}],"status":"complete","type":"individual","measure":"https://madie.cms.gov/Measure/CMS122FHIRDiabetesAssessGreaterThan9Percent","period":{"start":"2026-01-01","end":"2026-12-31"},"group":[{"id":"Group_1","population":[{"id":"InitialPopulation_1","code":{"coding":[{"system":"http://terminology.hl7.org/CodeSystem/measure-population","code":"initial-population","display":"Initial Population"}]},"count":1},{"id":"Denominator_1","code":{"coding":[{"system":"http://terminology.hl7.org/CodeSystem/measure-population","code":"denominator","display":"Denominator"}]},"count":1},{"id":"DenominatorExclusion_1","code":{"coding":[{"system":"http://terminology.hl7.org/CodeSystem/measure-population","code":"denominator-exclusion","display":"Denominator Exclusion"}]},"count":1},{"id":"Numerator_1","code":{"coding":[{"system":"http://terminology.hl7.org/CodeSystem/measure-population","code":"numerator","display":"Numerator"}]},"count":0}],"measureScore":{"value":1.0}}],"evaluatedResource":[{"reference":"Patient/85b60f52-7b08-46f3-946b-cb317b28acf5"},{"reference":"Encounter/815ef3b8-74b9-4e3d-a5e8-54eb4f3e1ba9"},{"reference":"Condition/d124cb53-9b85-4e15-8967-ab280273621e"},{"reference":"Condition/7f2ba7d7-993e-411b-b860-9d03cf88e609"},{"reference":"Encounter/b1159c6f-c109-44a4-b724-bbecb9ff8152"},{"reference":"DeviceRequest/b08e5874-2493-451e-a6a8-43dbc950debe"}]},"request":{"method":"PUT","url":"MeasureReport/b1638951-b21b-4ed7-b2f2-0d877f17a337"}},{"resource":{"resourceType":"Condition","id":"7f2ba7d7-993e-411b-b860-9d03cf88e609","meta":{"profile":["http://hl7.org/fhir/us/qicore/StructureDefinition/qicore-condition-encounter-diagnosis"]},"clinicalStatus":{"coding":[{"system":"http://terminology.hl7.org/CodeSystem/condition-clinical","code":"active"}]},"category":[{"coding":[{"system":"http://terminology.hl7.org/CodeSystem/condition-category","code":"encounter-diagnosis","display":"Encounter Diagnosis"}]}],"code":{"coding":[{"system":"http://snomed.info/sct","code":"101421000119107","display":"Dementia due to Parkinson's disease (disorder)"}]},"subject":{"reference":"Patient/85b60f52-7b08-46f3-946b-cb317b28acf5"},"onsetDateTime":"2025-12-31T23:59:59.000+00:00"},"request":{"method":"PUT","url":"Condition/7f2ba7d7-993e-411b-b860-9d03cf88e609"}},{"resource":{"resourceType":"Encounter","id":"815ef3b8-74b9-4e3d-a5e8-54eb4f3e1ba9","meta":{"profile":["http://hl7.org/fhir/us/qicore/StructureDefinition/qicore-encounter"]},"status":"finished","class":{"system":"http://terminology.hl7.org/CodeSystem/v3-ActCode","code":"AMB","display":"ambulatory"},"type":[{"coding":[{"system":"http://snomed.info/sct","code":"185460008","display":"Home visit request by patient (procedure)"}]}],"subject":{"reference":"Patient/85b60f52-7b08-46f3-946b-cb317b28acf5"},"period":{"start":"2026-01-01T00:00:00.000+00:00","end":"2026-01-01T00:15:00.000+00:00"}},"request":{"method":"PUT","url":"Encounter/815ef3b8-74b9-4e3d-a5e8-54eb4f3e1ba9"}},{"resource":{"resourceType":"Patient","id":"85b60f52-7b08-46f3-946b-cb317b28acf5","meta":{"profile":["http://hl7.org/fhir/us/qicore/StructureDefinition/qicore-patient"]},"extension":[{"url":"http://hl7.org/fhir/us/core/StructureDefinition/us-core-race","extension":[{"url":"ombCategory","valueCoding":{"system":"urn:oid:2.16.840.1.113883.6.238","code":"2028-9","display":"Asian"}},{"url":"text","valueString":"Asian"}]},{"url":"http://hl7.org/fhir/us/core/StructureDefinition/us-core-ethnicity","extension":[{"url":"ombCategory","valueCoding":{"system":"urn:oid:2.16.840.1.113883.6.238","code":"2135-2","display":"Hispanic or Latino"}},{"url":"text","valueString":"Hispanic or Latino"}]}],"identifier":[{"system":"http://hospital.smarthealthit.org","value":"999999995"}],"name":[{"family":"Bertha","given":["Betty"]}],"gender":"female","birthDate":"1959-12-31"},"request":{"method":"PUT","url":"Patient/85b60f52-7b08-46f3-946b-cb317b28acf5"}},{"resource":{"resourceType":"Bundle","id":"Patient-39-DENEXPass-OneInpatientVisitDuringMP","type":"transaction","entry":[{"fullUrl":"https://madie.cms.gov/Patient/85b60f52-7b08-46f3-946b-cb317b28acf5","resource":{"resourceType":"Patient","id":"85b60f52-7b08-46f3-946b-cb317b28acf5","meta":{"profile":["http://hl7.org/fhir/us/qicore/StructureDefinition/qicore-patient"]},"extension":[{"url":"http://hl7.org/fhir/us/core/StructureDefinition/us-core-race","extension":[{"url":"ombCategory","valueCoding":{"system":"urn:oid:2.16.840.1.113883.6.238","code":"2028-9","display":"Asian"}},{"url":"text","valueString":"Asian"}]},{"url":"http://hl7.org/fhir/us/core/StructureDefinition/us-core-ethnicity","extension":[{"url":"ombCategory","valueCoding":{"system":"urn:oid:2.16.840.1.113883.6.238","code":"2135-2","display":"Hispanic or Latino"}},{"url":"text","valueString":"Hispanic or Latino"}]}],"identifier":[{"system":"http://hospital.smarthealthit.org","value":"999999995"}],"name":[{"family":"Bertha","given":["Betty"]}],"gender":"female","birthDate":"1959-12-31"},"request":{"method":"PUT","url":"Patient/85b60f52-7b08-46f3-946b-cb317b28acf5"}},{"fullUrl":"https://madie.cms.gov/Encounter/815ef3b8-74b9-4e3d-a5e8-54eb4f3e1ba9","resource":{"resourceType":"Encounter","id":"815ef3b8-74b9-4e3d-a5e8-54eb4f3e1ba9","meta":{"profile":["http://hl7.org/fhir/us/qicore/StructureDefinition/qicore-encounter"]},"status":"finished","class":{"system":"http://terminology.hl7.org/CodeSystem/v3-ActCode","code":"AMB","display":"ambulatory"},"type":[{"coding":[{"system":"http://snomed.info/sct","code":"185460008","display":"Home visit request by patient (procedure)"}]}],"subject":{"reference":"Patient/85b60f52-7b08-46f3-946b-cb317b28acf5"},"period":{"start":"2026-01-01T00:00:00.000+00:00","end":"2026-01-01T00:15:00.000+00:00"}},"request":{"method":"PUT","url":"Encounter/815ef3b8-74b9-4e3d-a5e8-54eb4f3e1ba9"}},{"fullUrl":"https://madie.cms.gov/Condition/d124cb53-9b85-4e15-8967-ab280273621e","resource":{"resourceType":"Condition","id":"d124cb53-9b85-4e15-8967-ab280273621e","meta":{"profile":["http://hl7.org/fhir/us/qicore/StructureDefinition/qicore-condition-encounter-diagnosis"]},"clinicalStatus":{"coding":[{"system":"http://terminology.hl7.org/CodeSystem/condition-clinical","code":"active"}]},"category":[{"coding":[{"system":"http://terminology.hl7.org/CodeSystem/condition-category","code":"encounter-diagnosis","display":"Encounter Diagnosis"}]}],"code":{"coding":[{"system":"http://snomed.info/sct","code":"102781000119107","display":"Sensory neuropathy due to type 1 diabetes mellitus (disorder)"}]},"subject":{"reference":"Patient/85b60f52-7b08-46f3-946b-cb317b28acf5"},"onsetDateTime":"2026-01-01T23:59:00.000+00:00"},"request":{"method":"PUT","url":"Condition/d124cb53-9b85-4e15-8967-ab280273621e"}},{"fullUrl":"https://madie.cms.gov/Condition/7f2ba7d7-993e-411b-b860-9d03cf88e609","resource":{"resourceType":"Condition","id":"7f2ba7d7-993e-411b-b860-9d03cf88e609","meta":{"profile":["http://hl7.org/fhir/us/qicore/StructureDefinition/qicore-condition-encounter-diagnosis"]},"clinicalStatus":{"coding":[{"system":"http://terminology.hl7.org/CodeSystem/condition-clinical","code":"active"}]},"category":[{"coding":[{"system":"http://terminology.hl7.org/CodeSystem/condition-category","code":"encounter-diagnosis","display":"Encounter Diagnosis"}]}],"code":{"coding":[{"system":"http://snomed.info/sct","code":"101421000119107","display":"Dementia due to Parkinson's disease (disorder)"}]},"subject":{"reference":"Patient/85b60f52-7b08-46f3-946b-cb317b28acf5"},"onsetDateTime":"2025-12-31T23:59:59.000+00:00"},"request":{"method":"PUT","url":"Condition/7f2ba7d7-993e-411b-b860-9d03cf88e609"}},{"fullUrl":"https://madie.cms.gov/Encounter/b1159c6f-c109-44a4-b724-bbecb9ff8152","resource":{"resourceType":"Encounter","id":"b1159c6f-c109-44a4-b724-bbecb9ff8152","meta":{"profile":["http://hl7.org/fhir/us/qicore/StructureDefinition/qicore-encounter"]},"status":"finished","class":{"system":"http://terminology.hl7.org/CodeSystem/v3-ActCode","code":"AMB","display":"ambulatory"},"type":[{"coding":[{"system":"http://snomed.info/sct","code":"183450002","display":"Admission to burn unit (procedure)"}]}],"subject":{"reference":"Patient/85b60f52-7b08-46f3-946b-cb317b28acf5"},"period":{"start":"2026-05-01T00:00:00.000+00:00","end":"2026-05-01T01:00:00.000+00:00"},"diagnosis":[{"condition":{"reference":"Condition/7f2ba7d7-993e-411b-b860-9d03cf88e609"}}]},"request":{"method":"PUT","url":"Encounter/b1159c6f-c109-44a4-b724-bbecb9ff8152"}},{"fullUrl":"https://madie.cms.gov/DeviceRequest/b08e5874-2493-451e-a6a8-43dbc950debe","resource":{"resourceType":"DeviceRequest","id":"b08e5874-2493-451e-a6a8-43dbc950debe","meta":{"profile":["http://hl7.org/fhir/us/qicore/StructureDefinition/qicore-devicerequest"]},"modifierExtension":[{"url":"http://hl7.org/fhir/5.0/StructureDefinition/extension-DeviceRequest.doNotPerform","valueBoolean":false}],"status":"completed","intent":"order","codeCodeableConcept":{"coding":[{"system":"http://snomed.info/sct","code":"183240000","display":"Self-propelled wheelchair (physical object)"}]},"subject":{"reference":"Patient/85b60f52-7b08-46f3-946b-cb317b28acf5"},"authoredOn":"2026-11-01T23:59:00.000+00:00"},"request":{"method":"PUT","url":"DeviceRequest/b08e5874-2493-451e-a6a8-43dbc950debe"}},{"fullUrl":"https://madie.cms.gov/MeasureReport/b1638951-b21b-4ed7-b2f2-0d877f17a337","resource":{"resourceType":"MeasureReport","id":"b1638951-b21b-4ed7-b2f2-0d877f17a337","meta":{"profile":["http://hl7.org/fhir/us/cqfmeasures/StructureDefinition/test-case-cqfm"]},"contained":[{"resourceType":"Parameters","id":"5ee65ee3-9902-466b-8118-102946dd1544-parameters","parameter":[{"name":"subject","valueString":"85b60f52-7b08-46f3-946b-cb317b28acf5"}]}],"extension":[{"url":"http://hl7.org/fhir/StructureDefinition/cqf-inputParameters","valueReference":{"reference":"#5ee65ee3-9902-466b-8118-102946dd1544-parameters"}},{"url":"http://hl7.org/fhir/us/cqfmeasures/StructureDefinition/cqfm-testCaseDescription","valueMarkdown":"One inpatient visit during the MP"}],"modifierExtension":[{"url":"http://hl7.org/fhir/us/cqfmeasures/StructureDefinition/cqfm-isTestCase","valueBoolean":true}],"status":"complete","type":"individual","measure":"https://madie.cms.gov/Measure/CMS122FHIRDiabetesAssessGreaterThan9Percent","period":{"start":"2026-01-01","end":"2026-12-31"},"group":[{"id":"Group_1","population":[{"id":"InitialPopulation_1","code":{"coding":[{"system":"http://terminology.hl7.org/CodeSystem/measure-population","code":"initial-population","display":"Initial Population"}]},"count":1},{"id":"Denominator_1","code":{"coding":[{"system":"http://terminology.hl7.org/CodeSystem/measure-population","code":"denominator","display":"Denominator"}]},"count":1},{"id":"DenominatorExclusion_1","code":{"coding":[{"system":"http://terminology.hl7.org/CodeSystem/measure-population","code":"denominator-exclusion","display":"Denominator Exclusion"}]},"count":1},{"id":"Numerator_1","code":{"coding":[{"system":"http://terminology.hl7.org/CodeSystem/measure-population","code":"numerator","display":"Numerator"}]},"count":0}],"measureScore":{"value":1.0}}],"evaluatedResource":[{"reference":"Patient/85b60f52-7b08-46f3-946b-cb317b28acf5"},{"reference":"Encounter/815ef3b8-74b9-4e3d-a5e8-54eb4f3e1ba9"},{"reference":"Condition/d124cb53-9b85-4e15-8967-ab280273621e"},{"reference":"Condition/7f2ba7d7-993e-411b-b860-9d03cf88e609"},{"reference":"Encounter/b1159c6f-c109-44a4-b724-bbecb9ff8152"},{"reference":"DeviceRequest/b08e5874-2493-451e-a6a8-43dbc950debe"}]},"request":{"method":"PUT","url":"MeasureReport/b1638951-b21b-4ed7-b2f2-0d877f17a337"}}]},"request":{"method":"PUT","url":"Bundle/Patient-39-DENEXPass-OneInpatientVisitDuringMP"}},{"resource":{"resourceType":"DeviceRequest","id":"b08e5874-2493-451e-a6a8-43dbc950debe","meta":{"profile":["http://hl7.org/fhir/us/qicore/StructureDefinition/qicore-devicerequest"]},"modifierExtension":[{"url":"http://hl7.org/fhir/5.0/StructureDefinition/extension-DeviceRequest.doNotPerform","valueBoolean":false}],"status":"completed","intent":"order","codeCodeableConcept":{"coding":[{"system":"http://snomed.info/sct","code":"183240000","display":"Self-propelled wheelchair (physical object)"}]},"subject":{"reference":"Patient/85b60f52-7b08-46f3-946b-cb317b28acf5"},"authoredOn":"2026-11-01T23:59:00.000+00:00"},"request":{"method":"PUT","url":"DeviceRequest/b08e5874-2493-451e-a6a8-43dbc950debe"}},{"resource":{"resourceType":"Encounter","id":"b1159c6f-c109-44a4-b724-bbecb9ff8152","meta":{"profile":["http://hl7.org/fhir/us/qicore/StructureDefinition/qicore-encounter"]},"status":"finished","class":{"system":"http://terminology.hl7.org/CodeSystem/v3-ActCode","code":"AMB","display":"ambulatory"},"type":[{"coding":[{"system":"http://snomed.info/sct","code":"183450002","display":"Admission to burn unit (procedure)"}]}],"subject":{"reference":"Patient/85b60f52-7b08-46f3-946b-cb317b28acf5"},"period":{"start":"2026-05-01T00:00:00.000+00:00","end":"2026-05-01T01:00:00.000+00:00"},"diagnosis":[{"condition":{"reference":"Condition/7f2ba7d7-993e-411b-b860-9d03cf88e609"}}]},"request":{"method":"PUT","url":"Encounter/b1159c6f-c109-44a4-b724-bbecb9ff8152"}},{"resource":{"resourceType":"Condition","id":"d124cb53-9b85-4e15-8967-ab280273621e","meta":{"profile":["http://hl7.org/fhir/us/qicore/StructureDefinition/qicore-condition-encounter-diagnosis"]},"clinicalStatus":{"coding":[{"system":"http://terminology.hl7.org/CodeSystem/condition-clinical","code":"active"}]},"category":[{"coding":[{"system":"http://terminology.hl7.org/CodeSystem/condition-category","code":"encounter-diagnosis","display":"Encounter Diagnosis"}]}],"code":{"coding":[{"system":"http://snomed.info/sct","code":"102781000119107","display":"Sensory neuropathy due to type 1 diabetes mellitus (disorder)"}]},"subject":{"reference":"Patient/85b60f52-7b08-46f3-946b-cb317b28acf5"},"onsetDateTime":"2026-01-01T23:59:00.000+00:00"},"request":{"method":"PUT","url":"Condition/d124cb53-9b85-4e15-8967-ab280273621e"}}]}