{"resourceType":"Bundle","id":"tests-abe87c54-c0b1-4f86-94ca-360a228e9aa3-bundle","type":"transaction","entry":[{"resource":{"resourceType":"Condition","id":"51daefc3-f9ee-4e02-8566-ccc29a30e167","meta":{"profile":["http://hl7.org/fhir/us/qicore/StructureDefinition/qicore-condition-encounter-diagnosis"]},"clinicalStatus":{"coding":[{"system":"http://terminology.hl7.org/CodeSystem/condition-clinical","code":"active"}]},"category":[{"coding":[{"system":"http://terminology.hl7.org/CodeSystem/condition-category","code":"encounter-diagnosis","display":"Encounter Diagnosis"}]}],"code":{"coding":[{"system":"http://snomed.info/sct","code":"102781000119107","display":"Sensory neuropathy due to type 1 diabetes mellitus (disorder)"}]},"subject":{"reference":"Patient/abe87c54-c0b1-4f86-94ca-360a228e9aa3"},"onsetDateTime":"2026-01-01T23:59:00Z"},"request":{"method":"PUT","url":"Condition/51daefc3-f9ee-4e02-8566-ccc29a30e167"}},{"resource":{"resourceType":"Bundle","id":"Patient-IPPass-MedicalNutritionTherapy4","type":"transaction","entry":[{"fullUrl":"https://madie.cms.gov/Patient/abe87c54-c0b1-4f86-94ca-360a228e9aa3","resource":{"resourceType":"Patient","id":"abe87c54-c0b1-4f86-94ca-360a228e9aa3","meta":{"profile":["http://hl7.org/fhir/us/qicore/StructureDefinition/qicore-patient"]},"extension":[{"url":"http://hl7.org/fhir/us/core/StructureDefinition/us-core-race","extension":[{"url":"ombCategory","valueCoding":{"system":"urn:oid:2.16.840.1.113883.6.238","code":"2028-9","display":"Asian"}},{"url":"text","valueString":"Asian"}]},{"url":"http://hl7.org/fhir/us/core/StructureDefinition/us-core-ethnicity","extension":[{"url":"ombCategory","valueCoding":{"system":"urn:oid:2.16.840.1.113883.6.238","code":"2135-2","display":"Hispanic or Latino"}},{"url":"text","valueString":"Hispanic or Latino"}]}],"identifier":[{"system":"http://hospital.smarthealthit.org","value":"999999995"}],"name":[{"family":"Bertha","given":["Betty"]}],"gender":"female","birthDate":"2008-01-01"},"request":{"method":"PUT","url":"Patient/abe87c54-c0b1-4f86-94ca-360a228e9aa3"}},{"fullUrl":"https://madie.cms.gov/Encounter/2bb18e1f-ace9-4a99-8a57-fec73bb6fd05","resource":{"resourceType":"Encounter","id":"2bb18e1f-ace9-4a99-8a57-fec73bb6fd05","meta":{"profile":["http://hl7.org/fhir/us/qicore/StructureDefinition/qicore-encounter"]},"status":"finished","class":{"system":"http://terminology.hl7.org/CodeSystem/v3-ActCode","code":"AMB","display":"ambulatory"},"type":[{"coding":[{"system":"http://www.ama-assn.org/go/cpt","code":"97803","display":"Medical nutrition therapy; re-assessment and intervention, individual, face-to-face with the patient, each 15 minutes"}]}],"subject":{"reference":"Patient/abe87c54-c0b1-4f86-94ca-360a228e9aa3"},"period":{"start":"2026-01-01T00:00:00Z","end":"2026-01-01T00:15:00Z"}},"request":{"method":"PUT","url":"Encounter/2bb18e1f-ace9-4a99-8a57-fec73bb6fd05"}},{"fullUrl":"https://madie.cms.gov/Condition/51daefc3-f9ee-4e02-8566-ccc29a30e167","resource":{"resourceType":"Condition","id":"51daefc3-f9ee-4e02-8566-ccc29a30e167","meta":{"profile":["http://hl7.org/fhir/us/qicore/StructureDefinition/qicore-condition-encounter-diagnosis"]},"clinicalStatus":{"coding":[{"system":"http://terminology.hl7.org/CodeSystem/condition-clinical","code":"active"}]},"category":[{"coding":[{"system":"http://terminology.hl7.org/CodeSystem/condition-category","code":"encounter-diagnosis","display":"Encounter Diagnosis"}]}],"code":{"coding":[{"system":"http://snomed.info/sct","code":"102781000119107","display":"Sensory neuropathy due to type 1 diabetes mellitus (disorder)"}]},"subject":{"reference":"Patient/abe87c54-c0b1-4f86-94ca-360a228e9aa3"},"onsetDateTime":"2026-01-01T23:59:00Z"},"request":{"method":"PUT","url":"Condition/51daefc3-f9ee-4e02-8566-ccc29a30e167"}},{"fullUrl":"https://madie.cms.gov/MeasureReport/02d96f9d-cf3c-4e27-84b0-a40593c45dfe","resource":{"resourceType":"MeasureReport","id":"02d96f9d-cf3c-4e27-84b0-a40593c45dfe","meta":{"profile":["http://hl7.org/fhir/us/cqfmeasures/StructureDefinition/test-case-cqfm"]},"contained":[{"resourceType":"Parameters","id":"632a936d-811a-4517-aa38-f4f2ed66faf9-parameters","parameter":[{"name":"subject","valueString":"abe87c54-c0b1-4f86-94ca-360a228e9aa3"}]}],"extension":[{"url":"http://hl7.org/fhir/StructureDefinition/cqf-inputParameters","valueReference":{"reference":"#632a936d-811a-4517-aa38-f4f2ed66faf9-parameters"}},{"url":"http://hl7.org/fhir/us/cqfmeasures/StructureDefinition/cqfm-testCaseDescription","valueMarkdown":"Encounter is medical nutrition therapy; re-assessment and intervention, individual, face-to-face with the patient, each 15 minutes"}],"modifierExtension":[{"url":"http://hl7.org/fhir/us/cqfmeasures/StructureDefinition/cqfm-isTestCase","valueBoolean":true}],"status":"complete","type":"individual","measure":"https://madie.cms.gov/Measure/CMS122FHIRDiabetesAssessGreaterThan9Percent","period":{"start":"2026-01-01","end":"2026-12-31"},"group":[{"id":"Group_1","population":[{"id":"InitialPopulation_1","code":{"coding":[{"system":"http://terminology.hl7.org/CodeSystem/measure-population","code":"initial-population","display":"Initial Population"}]},"count":1},{"id":"Denominator_1","code":{"coding":[{"system":"http://terminology.hl7.org/CodeSystem/measure-population","code":"denominator","display":"Denominator"}]},"count":1},{"id":"DenominatorExclusion_1","code":{"coding":[{"system":"http://terminology.hl7.org/CodeSystem/measure-population","code":"denominator-exclusion","display":"Denominator Exclusion"}]},"count":0},{"id":"Numerator_1","code":{"coding":[{"system":"http://terminology.hl7.org/CodeSystem/measure-population","code":"numerator","display":"Numerator"}]},"count":1}],"measureScore":{"value":1.0}}],"evaluatedResource":[{"reference":"Patient/abe87c54-c0b1-4f86-94ca-360a228e9aa3"},{"reference":"Encounter/2bb18e1f-ace9-4a99-8a57-fec73bb6fd05"},{"reference":"Condition/51daefc3-f9ee-4e02-8566-ccc29a30e167"}]},"request":{"method":"PUT","url":"MeasureReport/02d96f9d-cf3c-4e27-84b0-a40593c45dfe"}}]},"request":{"method":"PUT","url":"Bundle/Patient-IPPass-MedicalNutritionTherapy4"}},{"resource":{"resourceType":"Encounter","id":"2bb18e1f-ace9-4a99-8a57-fec73bb6fd05","meta":{"profile":["http://hl7.org/fhir/us/qicore/StructureDefinition/qicore-encounter"]},"status":"finished","class":{"system":"http://terminology.hl7.org/CodeSystem/v3-ActCode","code":"AMB","display":"ambulatory"},"type":[{"coding":[{"system":"http://www.ama-assn.org/go/cpt","code":"97803","display":"Medical nutrition therapy; re-assessment and intervention, individual, face-to-face with the patient, each 15 minutes"}]}],"subject":{"reference":"Patient/abe87c54-c0b1-4f86-94ca-360a228e9aa3"},"period":{"start":"2026-01-01T00:00:00Z","end":"2026-01-01T00:15:00Z"}},"request":{"method":"PUT","url":"Encounter/2bb18e1f-ace9-4a99-8a57-fec73bb6fd05"}},{"resource":{"resourceType":"MeasureReport","id":"02d96f9d-cf3c-4e27-84b0-a40593c45dfe","meta":{"profile":["http://hl7.org/fhir/us/cqfmeasures/StructureDefinition/test-case-cqfm"]},"contained":[{"resourceType":"Parameters","id":"632a936d-811a-4517-aa38-f4f2ed66faf9-parameters","parameter":[{"name":"subject","valueString":"abe87c54-c0b1-4f86-94ca-360a228e9aa3"}]}],"extension":[{"url":"http://hl7.org/fhir/StructureDefinition/cqf-inputParameters","valueReference":{"reference":"#632a936d-811a-4517-aa38-f4f2ed66faf9-parameters"}},{"url":"http://hl7.org/fhir/us/cqfmeasures/StructureDefinition/cqfm-testCaseDescription","valueMarkdown":"Encounter is medical nutrition therapy; re-assessment and intervention, individual, face-to-face with the patient, each 15 minutes"}],"modifierExtension":[{"url":"http://hl7.org/fhir/us/cqfmeasures/StructureDefinition/cqfm-isTestCase","valueBoolean":true}],"status":"complete","type":"individual","measure":"https://madie.cms.gov/Measure/CMS122FHIRDiabetesAssessGreaterThan9Percent","period":{"start":"2026-01-01","end":"2026-12-31"},"group":[{"id":"Group_1","population":[{"id":"InitialPopulation_1","code":{"coding":[{"system":"http://terminology.hl7.org/CodeSystem/measure-population","code":"initial-population","display":"Initial Population"}]},"count":1},{"id":"Denominator_1","code":{"coding":[{"system":"http://terminology.hl7.org/CodeSystem/measure-population","code":"denominator","display":"Denominator"}]},"count":1},{"id":"DenominatorExclusion_1","code":{"coding":[{"system":"http://terminology.hl7.org/CodeSystem/measure-population","code":"denominator-exclusion","display":"Denominator Exclusion"}]},"count":0},{"id":"Numerator_1","code":{"coding":[{"system":"http://terminology.hl7.org/CodeSystem/measure-population","code":"numerator","display":"Numerator"}]},"count":1}],"measureScore":{"value":1.0}}],"evaluatedResource":[{"reference":"Patient/abe87c54-c0b1-4f86-94ca-360a228e9aa3"},{"reference":"Encounter/2bb18e1f-ace9-4a99-8a57-fec73bb6fd05"},{"reference":"Condition/51daefc3-f9ee-4e02-8566-ccc29a30e167"}]},"request":{"method":"PUT","url":"MeasureReport/02d96f9d-cf3c-4e27-84b0-a40593c45dfe"}},{"resource":{"resourceType":"Patient","id":"abe87c54-c0b1-4f86-94ca-360a228e9aa3","meta":{"profile":["http://hl7.org/fhir/us/qicore/StructureDefinition/qicore-patient"]},"extension":[{"url":"http://hl7.org/fhir/us/core/StructureDefinition/us-core-race","extension":[{"url":"ombCategory","valueCoding":{"system":"urn:oid:2.16.840.1.113883.6.238","code":"2028-9","display":"Asian"}},{"url":"text","valueString":"Asian"}]},{"url":"http://hl7.org/fhir/us/core/StructureDefinition/us-core-ethnicity","extension":[{"url":"ombCategory","valueCoding":{"system":"urn:oid:2.16.840.1.113883.6.238","code":"2135-2","display":"Hispanic or Latino"}},{"url":"text","valueString":"Hispanic or Latino"}]}],"identifier":[{"system":"http://hospital.smarthealthit.org","value":"999999995"}],"name":[{"family":"Bertha","given":["Betty"]}],"gender":"female","birthDate":"2008-01-01"},"request":{"method":"PUT","url":"Patient/abe87c54-c0b1-4f86-94ca-360a228e9aa3"}}]}