{"resourceType":"Bundle","id":"tests-21695544-0997-4b9a-989c-a535da22d033-bundle","type":"transaction","entry":[{"resource":{"resourceType":"Bundle","id":"NUMPass-LabA1cNoResultInMP","type":"transaction","entry":[{"fullUrl":"https://madie.cms.gov/Patient/21695544-0997-4b9a-989c-a535da22d033","resource":{"resourceType":"Patient","id":"21695544-0997-4b9a-989c-a535da22d033","meta":{"profile":["http://hl7.org/fhir/us/qicore/StructureDefinition/qicore-patient"]},"extension":[{"url":"http://hl7.org/fhir/us/core/StructureDefinition/us-core-race","extension":[{"url":"ombCategory","valueCoding":{"system":"urn:oid:2.16.840.1.113883.6.238","code":"2028-9","display":"Asian"}},{"url":"text","valueString":"Asian"}]},{"url":"http://hl7.org/fhir/us/core/StructureDefinition/us-core-ethnicity","extension":[{"url":"ombCategory","valueCoding":{"system":"urn:oid:2.16.840.1.113883.6.238","code":"2135-2","display":"Hispanic or Latino"}},{"url":"text","valueString":"Hispanic or Latino"}]}],"identifier":[{"system":"http://hospital.smarthealthit.org","value":"999999995"}],"name":[{"family":"Bertha","given":["Betty"]}],"gender":"female","birthDate":"2008-01-01"},"request":{"method":"PUT","url":"Patient/21695544-0997-4b9a-989c-a535da22d033"}},{"fullUrl":"https://madie.cms.gov/Encounter/e027c8aa-0e86-49ac-891b-71dfded8fd21","resource":{"resourceType":"Encounter","id":"e027c8aa-0e86-49ac-891b-71dfded8fd21","meta":{"profile":["http://hl7.org/fhir/us/qicore/StructureDefinition/qicore-encounter"]},"status":"finished","class":{"system":"http://terminology.hl7.org/CodeSystem/v3-ActCode","code":"AMB","display":"ambulatory"},"type":[{"coding":[{"system":"http://snomed.info/sct","code":"185460008","display":"Home visit request by patient (procedure)"}]}],"subject":{"reference":"Patient/21695544-0997-4b9a-989c-a535da22d033"},"period":{"start":"2026-01-01T00:00:00Z","end":"2026-01-01T00:15:00Z"}},"request":{"method":"PUT","url":"Encounter/e027c8aa-0e86-49ac-891b-71dfded8fd21"}},{"fullUrl":"https://madie.cms.gov/Condition/e13b77f2-5bb1-4112-824b-5a7a1db974dd","resource":{"resourceType":"Condition","id":"e13b77f2-5bb1-4112-824b-5a7a1db974dd","meta":{"profile":["http://hl7.org/fhir/us/qicore/StructureDefinition/qicore-condition-encounter-diagnosis"]},"clinicalStatus":{"coding":[{"system":"http://terminology.hl7.org/CodeSystem/condition-clinical","code":"active"}]},"category":[{"coding":[{"system":"http://terminology.hl7.org/CodeSystem/condition-category","code":"encounter-diagnosis","display":"Encounter Diagnosis"}]}],"code":{"coding":[{"system":"http://snomed.info/sct","code":"102781000119107","display":"Sensory neuropathy due to type 1 diabetes mellitus (disorder)"}]},"subject":{"reference":"Patient/21695544-0997-4b9a-989c-a535da22d033"},"onsetDateTime":"2026-01-01T23:59:00Z"},"request":{"method":"PUT","url":"Condition/e13b77f2-5bb1-4112-824b-5a7a1db974dd"}},{"fullUrl":"https://madie.cms.gov/Observation/7dfcbb1a-004d-4d58-8d32-78f2aa35b822","resource":{"resourceType":"Observation","id":"7dfcbb1a-004d-4d58-8d32-78f2aa35b822","meta":{"profile":["http://hl7.org/fhir/us/qicore/StructureDefinition/qicore-observation-lab"]},"status":"corrected","category":[{"coding":[{"system":"http://terminology.hl7.org/CodeSystem/observation-category","code":"laboratory"}]}],"code":{"coding":[{"system":"http://loinc.org","code":"17855-8","display":"Hemoglobin A1c/Hemoglobin.total in Blood by calculation"}]},"subject":{"reference":"Patient/21695544-0997-4b9a-989c-a535da22d033"},"effectivePeriod":{"start":"2026-01-02T00:00:00Z","end":"2026-01-03T00:00:00Z"},"dataAbsentReason":{"extension":[{"url":"http://hl7.org/fhir/StructureDefinition/data-absent-reason","valueCode":"unknown"}]}},"request":{"method":"PUT","url":"Observation/7dfcbb1a-004d-4d58-8d32-78f2aa35b822"}},{"fullUrl":"https://madie.cms.gov/MeasureReport/ead4949f-b0b8-425a-9a2a-d3400a7ff3d7","resource":{"resourceType":"MeasureReport","id":"ead4949f-b0b8-425a-9a2a-d3400a7ff3d7","meta":{"profile":["http://hl7.org/fhir/us/cqfmeasures/StructureDefinition/test-case-cqfm"]},"contained":[{"resourceType":"Parameters","id":"06b461f3-c57c-4048-8b8b-f7985c8d6307-parameters","parameter":[{"name":"subject","valueString":"21695544-0997-4b9a-989c-a535da22d033"}]}],"extension":[{"url":"http://hl7.org/fhir/StructureDefinition/cqf-inputParameters","valueReference":{"reference":"#06b461f3-c57c-4048-8b8b-f7985c8d6307-parameters"}},{"url":"http://hl7.org/fhir/us/cqfmeasures/StructureDefinition/cqfm-testCaseDescription","valueMarkdown":"HbA1c Lab done with null result in the MP"}],"modifierExtension":[{"url":"http://hl7.org/fhir/us/cqfmeasures/StructureDefinition/cqfm-isTestCase","valueBoolean":true}],"status":"complete","type":"individual","measure":"https://madie.cms.gov/Measure/CMS122FHIRDiabetesAssessGreaterThan9Percent","period":{"start":"2026-01-01","end":"2026-12-31"},"group":[{"id":"Group_1","population":[{"id":"InitialPopulation_1","code":{"coding":[{"system":"http://terminology.hl7.org/CodeSystem/measure-population","code":"initial-population","display":"Initial Population"}]},"count":1},{"id":"Denominator_1","code":{"coding":[{"system":"http://terminology.hl7.org/CodeSystem/measure-population","code":"denominator","display":"Denominator"}]},"count":1},{"id":"DenominatorExclusion_1","code":{"coding":[{"system":"http://terminology.hl7.org/CodeSystem/measure-population","code":"denominator-exclusion","display":"Denominator Exclusion"}]},"count":0},{"id":"Numerator_1","code":{"coding":[{"system":"http://terminology.hl7.org/CodeSystem/measure-population","code":"numerator","display":"Numerator"}]},"count":1}],"measureScore":{"value":1.0}}],"evaluatedResource":[{"reference":"Patient/21695544-0997-4b9a-989c-a535da22d033"},{"reference":"Encounter/e027c8aa-0e86-49ac-891b-71dfded8fd21"},{"reference":"Condition/e13b77f2-5bb1-4112-824b-5a7a1db974dd"},{"reference":"Observation/7dfcbb1a-004d-4d58-8d32-78f2aa35b822"}]},"request":{"method":"PUT","url":"MeasureReport/ead4949f-b0b8-425a-9a2a-d3400a7ff3d7"}}]},"request":{"method":"PUT","url":"Bundle/NUMPass-LabA1cNoResultInMP"}},{"resource":{"resourceType":"Observation","id":"7dfcbb1a-004d-4d58-8d32-78f2aa35b822","meta":{"profile":["http://hl7.org/fhir/us/qicore/StructureDefinition/qicore-observation-lab"]},"status":"corrected","category":[{"coding":[{"system":"http://terminology.hl7.org/CodeSystem/observation-category","code":"laboratory"}]}],"code":{"coding":[{"system":"http://loinc.org","code":"17855-8","display":"Hemoglobin A1c/Hemoglobin.total in Blood by calculation"}]},"subject":{"reference":"Patient/21695544-0997-4b9a-989c-a535da22d033"},"effectivePeriod":{"start":"2026-01-02T00:00:00Z","end":"2026-01-03T00:00:00Z"},"dataAbsentReason":{"extension":[{"url":"http://hl7.org/fhir/StructureDefinition/data-absent-reason","valueCode":"unknown"}]}},"request":{"method":"PUT","url":"Observation/7dfcbb1a-004d-4d58-8d32-78f2aa35b822"}},{"resource":{"resourceType":"Encounter","id":"e027c8aa-0e86-49ac-891b-71dfded8fd21","meta":{"profile":["http://hl7.org/fhir/us/qicore/StructureDefinition/qicore-encounter"]},"status":"finished","class":{"system":"http://terminology.hl7.org/CodeSystem/v3-ActCode","code":"AMB","display":"ambulatory"},"type":[{"coding":[{"system":"http://snomed.info/sct","code":"185460008","display":"Home visit request by patient (procedure)"}]}],"subject":{"reference":"Patient/21695544-0997-4b9a-989c-a535da22d033"},"period":{"start":"2026-01-01T00:00:00Z","end":"2026-01-01T00:15:00Z"}},"request":{"method":"PUT","url":"Encounter/e027c8aa-0e86-49ac-891b-71dfded8fd21"}},{"resource":{"resourceType":"Condition","id":"e13b77f2-5bb1-4112-824b-5a7a1db974dd","meta":{"profile":["http://hl7.org/fhir/us/qicore/StructureDefinition/qicore-condition-encounter-diagnosis"]},"clinicalStatus":{"coding":[{"system":"http://terminology.hl7.org/CodeSystem/condition-clinical","code":"active"}]},"category":[{"coding":[{"system":"http://terminology.hl7.org/CodeSystem/condition-category","code":"encounter-diagnosis","display":"Encounter Diagnosis"}]}],"code":{"coding":[{"system":"http://snomed.info/sct","code":"102781000119107","display":"Sensory neuropathy due to type 1 diabetes mellitus (disorder)"}]},"subject":{"reference":"Patient/21695544-0997-4b9a-989c-a535da22d033"},"onsetDateTime":"2026-01-01T23:59:00Z"},"request":{"method":"PUT","url":"Condition/e13b77f2-5bb1-4112-824b-5a7a1db974dd"}},{"resource":{"resourceType":"MeasureReport","id":"ead4949f-b0b8-425a-9a2a-d3400a7ff3d7","meta":{"profile":["http://hl7.org/fhir/us/cqfmeasures/StructureDefinition/test-case-cqfm"]},"contained":[{"resourceType":"Parameters","id":"06b461f3-c57c-4048-8b8b-f7985c8d6307-parameters","parameter":[{"name":"subject","valueString":"21695544-0997-4b9a-989c-a535da22d033"}]}],"extension":[{"url":"http://hl7.org/fhir/StructureDefinition/cqf-inputParameters","valueReference":{"reference":"#06b461f3-c57c-4048-8b8b-f7985c8d6307-parameters"}},{"url":"http://hl7.org/fhir/us/cqfmeasures/StructureDefinition/cqfm-testCaseDescription","valueMarkdown":"HbA1c Lab done with null result in the MP"}],"modifierExtension":[{"url":"http://hl7.org/fhir/us/cqfmeasures/StructureDefinition/cqfm-isTestCase","valueBoolean":true}],"status":"complete","type":"individual","measure":"https://madie.cms.gov/Measure/CMS122FHIRDiabetesAssessGreaterThan9Percent","period":{"start":"2026-01-01","end":"2026-12-31"},"group":[{"id":"Group_1","population":[{"id":"InitialPopulation_1","code":{"coding":[{"system":"http://terminology.hl7.org/CodeSystem/measure-population","code":"initial-population","display":"Initial Population"}]},"count":1},{"id":"Denominator_1","code":{"coding":[{"system":"http://terminology.hl7.org/CodeSystem/measure-population","code":"denominator","display":"Denominator"}]},"count":1},{"id":"DenominatorExclusion_1","code":{"coding":[{"system":"http://terminology.hl7.org/CodeSystem/measure-population","code":"denominator-exclusion","display":"Denominator Exclusion"}]},"count":0},{"id":"Numerator_1","code":{"coding":[{"system":"http://terminology.hl7.org/CodeSystem/measure-population","code":"numerator","display":"Numerator"}]},"count":1}],"measureScore":{"value":1.0}}],"evaluatedResource":[{"reference":"Patient/21695544-0997-4b9a-989c-a535da22d033"},{"reference":"Encounter/e027c8aa-0e86-49ac-891b-71dfded8fd21"},{"reference":"Condition/e13b77f2-5bb1-4112-824b-5a7a1db974dd"},{"reference":"Observation/7dfcbb1a-004d-4d58-8d32-78f2aa35b822"}]},"request":{"method":"PUT","url":"MeasureReport/ead4949f-b0b8-425a-9a2a-d3400a7ff3d7"}},{"resource":{"resourceType":"Patient","id":"21695544-0997-4b9a-989c-a535da22d033","meta":{"profile":["http://hl7.org/fhir/us/qicore/StructureDefinition/qicore-patient"]},"extension":[{"url":"http://hl7.org/fhir/us/core/StructureDefinition/us-core-race","extension":[{"url":"ombCategory","valueCoding":{"system":"urn:oid:2.16.840.1.113883.6.238","code":"2028-9","display":"Asian"}},{"url":"text","valueString":"Asian"}]},{"url":"http://hl7.org/fhir/us/core/StructureDefinition/us-core-ethnicity","extension":[{"url":"ombCategory","valueCoding":{"system":"urn:oid:2.16.840.1.113883.6.238","code":"2135-2","display":"Hispanic or Latino"}},{"url":"text","valueString":"Hispanic or Latino"}]}],"identifier":[{"system":"http://hospital.smarthealthit.org","value":"999999995"}],"name":[{"family":"Bertha","given":["Betty"]}],"gender":"female","birthDate":"2008-01-01"},"request":{"method":"PUT","url":"Patient/21695544-0997-4b9a-989c-a535da22d033"}}]}