{"resourceType":"Bundle","id":"tests-31b40acc-ca5f-4d1d-bd83-4b1a14eb822e-bundle","type":"transaction","entry":[{"resource":{"resourceType":"MedicationAdministration","id":"019a875e-b81f-4d65-b229-ae0e602f999a","meta":{"profile":["http://hl7.org/fhir/us/qicore/StructureDefinition/qicore-medicationadministration"]},"status":"completed","medicationCodeableConcept":{"coding":[{"system":"http://www.nlm.nih.gov/research/umls/rxnorm","code":"1725059","display":"Naloxone (opioid antagonist)"}]},"subject":{"reference":"Patient/31b40acc-ca5f-4d1d-bd83-4b1a14eb822e"},"effectiveDateTime":"2026-07-13T09:05:00.000+00:00","dosage":{"route":{"coding":[{"system":"http://snomed.info/sct","code":"47625008","display":"Subcutaneous route"}]}}},"request":{"method":"PUT","url":"MedicationAdministration/019a875e-b81f-4d65-b229-ae0e602f999a"}},{"resource":{"resourceType":"MedicationAdministration","id":"b3114d12-7fd9-4d33-81b8-41f443ea66d9","meta":{"profile":["http://hl7.org/fhir/us/qicore/StructureDefinition/qicore-medicationadministration"]},"status":"completed","medicationCodeableConcept":{"coding":[{"system":"http://www.nlm.nih.gov/research/umls/rxnorm","code":"1010600","display":"Opioids"}]},"subject":{"reference":"Patient/31b40acc-ca5f-4d1d-bd83-4b1a14eb822e"},"effectivePeriod":{"start":"2026-10-31T08:00:00.000+00:00","end":"2026-10-31T08:15:00.000+00:00"}},"request":{"method":"PUT","url":"MedicationAdministration/b3114d12-7fd9-4d33-81b8-41f443ea66d9"}},{"resource":{"resourceType":"Patient","id":"31b40acc-ca5f-4d1d-bd83-4b1a14eb822e","meta":{"profile":["http://hl7.org/fhir/us/qicore/StructureDefinition/qicore-patient"]},"extension":[{"url":"http://hl7.org/fhir/us/core/StructureDefinition/us-core-race","extension":[{"url":"ombCategory","valueCoding":{"system":"urn:oid:2.16.840.1.113883.6.238","code":"2106-3","display":"White"}},{"url":"text","valueString":"White"}]},{"url":"http://hl7.org/fhir/us/core/StructureDefinition/us-core-ethnicity","extension":[{"url":"ombCategory","valueCoding":{"system":"urn:oid:2.16.840.1.113883.6.238","code":"2135-2","display":"Hispanic or Latino"}},{"url":"text","valueString":"Hispanic or Latino"}]},{"url":"http://hl7.org/fhir/us/core/StructureDefinition/us-core-sex","valueCode":"248153007"}],"identifier":[{"system":"http://hospital.smarthealthit.org","value":"999999999"}],"name":[{"family":"Example","given":["Patient"]}],"gender":"female","birthDate":"1956-01-01"},"request":{"method":"PUT","url":"Patient/31b40acc-ca5f-4d1d-bd83-4b1a14eb822e"}},{"resource":{"resourceType":"MeasureReport","id":"2b356554-5307-4c42-966e-f47a25d65da7","meta":{"profile":["http://hl7.org/fhir/us/cqfmeasures/StructureDefinition/test-case-cqfm"]},"contained":[{"resourceType":"Parameters","id":"52c4ec0a-0a32-4172-9794-cd7185042adf-parameters","parameter":[{"name":"subject","valueString":"31b40acc-ca5f-4d1d-bd83-4b1a14eb822e"}]}],"extension":[{"url":"http://hl7.org/fhir/StructureDefinition/cqf-inputParameters","valueReference":{"reference":"#52c4ec0a-0a32-4172-9794-cd7185042adf-parameters"}},{"url":"http://hl7.org/fhir/us/cqfmeasures/StructureDefinition/cqfm-testCaseDescription","valueMarkdown":"Two separate encounters. Only one meets Numerator. 2nd encounter had opioid but no antagonist."}],"modifierExtension":[{"url":"http://hl7.org/fhir/us/cqfmeasures/StructureDefinition/cqfm-isTestCase","valueBoolean":true}],"status":"complete","type":"individual","measure":"https://madie.cms.gov/Measure/CMS819FHIRHHORAE","period":{"start":"2026-01-01","end":"2026-12-31"},"group":[{"id":"Group_1","population":[{"id":"InitialPopulation_1","code":{"coding":[{"system":"http://terminology.hl7.org/CodeSystem/measure-population","code":"initial-population","display":"Initial Population"}]},"count":2},{"id":"Denominator_1","code":{"coding":[{"system":"http://terminology.hl7.org/CodeSystem/measure-population","code":"denominator","display":"Denominator"}]},"count":2},{"id":"Numerator_1","code":{"coding":[{"system":"http://terminology.hl7.org/CodeSystem/measure-population","code":"numerator","display":"Numerator"}]},"count":1}],"measureScore":{"value":0.0}}],"evaluatedResource":[{"reference":"MedicationAdministration/65546a57-2f4e-434d-8f46-554a8b84977d"},{"reference":"MedicationAdministration/b3114d12-7fd9-4d33-81b8-41f443ea66d9"},{"reference":"MedicationAdministration/019a875e-b81f-4d65-b229-ae0e602f999a"},{"reference":"Encounter/d7d76b21-38e5-4fd0-b43c-f1899d9e9a13"},{"reference":"Encounter/d7d76b21-38e5-4fd0-b43c-f1899d9e9a13"},{"reference":"Patient/31b40acc-ca5f-4d1d-bd83-4b1a14eb822e"}]},"request":{"method":"PUT","url":"MeasureReport/2b356554-5307-4c42-966e-f47a25d65da7"}},{"resource":{"resourceType":"Encounter","id":"d7d76b21-38e5-4fd0-b43c-f1899d9e9a13","meta":{"profile":["http://hl7.org/fhir/us/qicore/StructureDefinition/qicore-encounter"]},"status":"finished","class":{"system":"http://terminology.hl7.org/CodeSystem/v3-ActCode","code":"IMP","display":"inpatient encounter"},"type":[{"coding":[{"system":"http://snomed.info/sct","code":"183452005","display":"Inpatient encounter"}]}],"subject":{"reference":"Patient/31b40acc-ca5f-4d1d-bd83-4b1a14eb822e"},"period":{"start":"2026-07-11T08:00:00.000+00:00","end":"2026-07-14T08:15:00.000+00:00"}},"request":{"method":"PUT","url":"Encounter/d7d76b21-38e5-4fd0-b43c-f1899d9e9a13"}},{"resource":{"resourceType":"Bundle","id":"tests-NUMERPass-TwoEncountersOneNumerator-bundle","type":"transaction","entry":[{"fullUrl":"https://madie.cms.gov/MedicationAdministration/65546a57-2f4e-434d-8f46-554a8b84977d","resource":{"resourceType":"MedicationAdministration","id":"65546a57-2f4e-434d-8f46-554a8b84977d","meta":{"profile":["http://hl7.org/fhir/us/qicore/StructureDefinition/qicore-medicationadministration"]},"status":"completed","medicationCodeableConcept":{"coding":[{"system":"http://www.nlm.nih.gov/research/umls/rxnorm","code":"1010600","display":"Opioids, All"}]},"subject":{"reference":"Patient/31b40acc-ca5f-4d1d-bd83-4b1a14eb822e"},"effectivePeriod":{"start":"2026-07-12T09:00:00.000+00:00","end":"2026-07-13T09:00:00.000+00:00"}},"request":{"method":"PUT","url":"MedicationAdministration/65546a57-2f4e-434d-8f46-554a8b84977d"}},{"fullUrl":"https://madie.cms.gov/MedicationAdministration/b3114d12-7fd9-4d33-81b8-41f443ea66d9","resource":{"resourceType":"MedicationAdministration","id":"b3114d12-7fd9-4d33-81b8-41f443ea66d9","meta":{"profile":["http://hl7.org/fhir/us/qicore/StructureDefinition/qicore-medicationadministration"]},"status":"completed","medicationCodeableConcept":{"coding":[{"system":"http://www.nlm.nih.gov/research/umls/rxnorm","code":"1010600","display":"Opioids"}]},"subject":{"reference":"Patient/31b40acc-ca5f-4d1d-bd83-4b1a14eb822e"},"effectivePeriod":{"start":"2026-10-31T08:00:00.000+00:00","end":"2026-10-31T08:15:00.000+00:00"}},"request":{"method":"PUT","url":"MedicationAdministration/b3114d12-7fd9-4d33-81b8-41f443ea66d9"}},{"fullUrl":"https://madie.cms.gov/MedicationAdministration/019a875e-b81f-4d65-b229-ae0e602f999a","resource":{"resourceType":"MedicationAdministration","id":"019a875e-b81f-4d65-b229-ae0e602f999a","meta":{"profile":["http://hl7.org/fhir/us/qicore/StructureDefinition/qicore-medicationadministration"]},"status":"completed","medicationCodeableConcept":{"coding":[{"system":"http://www.nlm.nih.gov/research/umls/rxnorm","code":"1725059","display":"Naloxone (opioid antagonist)"}]},"subject":{"reference":"Patient/31b40acc-ca5f-4d1d-bd83-4b1a14eb822e"},"effectiveDateTime":"2026-07-13T09:05:00.000+00:00","dosage":{"route":{"coding":[{"system":"http://snomed.info/sct","code":"47625008","display":"Subcutaneous route"}]}}},"request":{"method":"PUT","url":"MedicationAdministration/019a875e-b81f-4d65-b229-ae0e602f999a"}},{"fullUrl":"https://madie.cms.gov/Encounter/d7d76b21-38e5-4fd0-b43c-f1899d9e9a13","resource":{"resourceType":"Encounter","id":"d7d76b21-38e5-4fd0-b43c-f1899d9e9a13","meta":{"profile":["http://hl7.org/fhir/us/qicore/StructureDefinition/qicore-encounter"]},"status":"finished","class":{"system":"http://terminology.hl7.org/CodeSystem/v3-ActCode","code":"IMP","display":"inpatient encounter"},"type":[{"coding":[{"system":"http://snomed.info/sct","code":"183452005","display":"Inpatient encounter"}]}],"subject":{"reference":"Patient/31b40acc-ca5f-4d1d-bd83-4b1a14eb822e"},"period":{"start":"2026-10-30T08:00:00.000+00:00","end":"2026-11-09T08:15:00.000+00:00"}},"request":{"method":"PUT","url":"Encounter/d7d76b21-38e5-4fd0-b43c-f1899d9e9a13"}},{"fullUrl":"https://madie.cms.gov/Encounter/d7d76b21-38e5-4fd0-b43c-f1899d9e9a13","resource":{"resourceType":"Encounter","id":"d7d76b21-38e5-4fd0-b43c-f1899d9e9a13","meta":{"profile":["http://hl7.org/fhir/us/qicore/StructureDefinition/qicore-encounter"]},"status":"finished","class":{"system":"http://terminology.hl7.org/CodeSystem/v3-ActCode","code":"IMP","display":"inpatient encounter"},"type":[{"coding":[{"system":"http://snomed.info/sct","code":"183452005","display":"Inpatient encounter"}]}],"subject":{"reference":"Patient/31b40acc-ca5f-4d1d-bd83-4b1a14eb822e"},"period":{"start":"2026-07-11T08:00:00.000+00:00","end":"2026-07-14T08:15:00.000+00:00"}},"request":{"method":"PUT","url":"Encounter/d7d76b21-38e5-4fd0-b43c-f1899d9e9a13"}},{"fullUrl":"https://madie.cms.gov/Patient/31b40acc-ca5f-4d1d-bd83-4b1a14eb822e","resource":{"resourceType":"Patient","id":"31b40acc-ca5f-4d1d-bd83-4b1a14eb822e","meta":{"profile":["http://hl7.org/fhir/us/qicore/StructureDefinition/qicore-patient"]},"extension":[{"url":"http://hl7.org/fhir/us/core/StructureDefinition/us-core-race","extension":[{"url":"ombCategory","valueCoding":{"system":"urn:oid:2.16.840.1.113883.6.238","code":"2106-3","display":"White"}},{"url":"text","valueString":"White"}]},{"url":"http://hl7.org/fhir/us/core/StructureDefinition/us-core-ethnicity","extension":[{"url":"ombCategory","valueCoding":{"system":"urn:oid:2.16.840.1.113883.6.238","code":"2135-2","display":"Hispanic or Latino"}},{"url":"text","valueString":"Hispanic or Latino"}]},{"url":"http://hl7.org/fhir/us/core/StructureDefinition/us-core-sex","valueCode":"248153007"}],"identifier":[{"system":"http://hospital.smarthealthit.org","value":"999999999"}],"name":[{"family":"Example","given":["Patient"]}],"gender":"female","birthDate":"1956-01-01"},"request":{"method":"PUT","url":"Patient/31b40acc-ca5f-4d1d-bd83-4b1a14eb822e"}},{"fullUrl":"https://madie.cms.gov/MeasureReport/2b356554-5307-4c42-966e-f47a25d65da7","resource":{"resourceType":"MeasureReport","id":"2b356554-5307-4c42-966e-f47a25d65da7","meta":{"profile":["http://hl7.org/fhir/us/cqfmeasures/StructureDefinition/test-case-cqfm"]},"contained":[{"resourceType":"Parameters","id":"52c4ec0a-0a32-4172-9794-cd7185042adf-parameters","parameter":[{"name":"subject","valueString":"31b40acc-ca5f-4d1d-bd83-4b1a14eb822e"}]}],"extension":[{"url":"http://hl7.org/fhir/StructureDefinition/cqf-inputParameters","valueReference":{"reference":"#52c4ec0a-0a32-4172-9794-cd7185042adf-parameters"}},{"url":"http://hl7.org/fhir/us/cqfmeasures/StructureDefinition/cqfm-testCaseDescription","valueMarkdown":"Two separate encounters. Only one meets Numerator. 2nd encounter had opioid but no antagonist."}],"modifierExtension":[{"url":"http://hl7.org/fhir/us/cqfmeasures/StructureDefinition/cqfm-isTestCase","valueBoolean":true}],"status":"complete","type":"individual","measure":"https://madie.cms.gov/Measure/CMS819FHIRHHORAE","period":{"start":"2026-01-01","end":"2026-12-31"},"group":[{"id":"Group_1","population":[{"id":"InitialPopulation_1","code":{"coding":[{"system":"http://terminology.hl7.org/CodeSystem/measure-population","code":"initial-population","display":"Initial Population"}]},"count":2},{"id":"Denominator_1","code":{"coding":[{"system":"http://terminology.hl7.org/CodeSystem/measure-population","code":"denominator","display":"Denominator"}]},"count":2},{"id":"Numerator_1","code":{"coding":[{"system":"http://terminology.hl7.org/CodeSystem/measure-population","code":"numerator","display":"Numerator"}]},"count":1}],"measureScore":{"value":0.0}}],"evaluatedResource":[{"reference":"MedicationAdministration/65546a57-2f4e-434d-8f46-554a8b84977d"},{"reference":"MedicationAdministration/b3114d12-7fd9-4d33-81b8-41f443ea66d9"},{"reference":"MedicationAdministration/019a875e-b81f-4d65-b229-ae0e602f999a"},{"reference":"Encounter/d7d76b21-38e5-4fd0-b43c-f1899d9e9a13"},{"reference":"Encounter/d7d76b21-38e5-4fd0-b43c-f1899d9e9a13"},{"reference":"Patient/31b40acc-ca5f-4d1d-bd83-4b1a14eb822e"}]},"request":{"method":"PUT","url":"MeasureReport/2b356554-5307-4c42-966e-f47a25d65da7"}}]},"request":{"method":"PUT","url":"Bundle/tests-NUMERPass-TwoEncountersOneNumerator-bundle"}},{"resource":{"resourceType":"MedicationAdministration","id":"65546a57-2f4e-434d-8f46-554a8b84977d","meta":{"profile":["http://hl7.org/fhir/us/qicore/StructureDefinition/qicore-medicationadministration"]},"status":"completed","medicationCodeableConcept":{"coding":[{"system":"http://www.nlm.nih.gov/research/umls/rxnorm","code":"1010600","display":"Opioids, All"}]},"subject":{"reference":"Patient/31b40acc-ca5f-4d1d-bd83-4b1a14eb822e"},"effectivePeriod":{"start":"2026-07-12T09:00:00.000+00:00","end":"2026-07-13T09:00:00.000+00:00"}},"request":{"method":"PUT","url":"MedicationAdministration/65546a57-2f4e-434d-8f46-554a8b84977d"}}]}