{
  "resourceType": "Bundle",
  "id": "62bb3859e8081f5ef5e199f5",
  "type": "transaction",
  "entry": [ {
    "fullUrl": "https://madie.cms.gov/Patient/72a0fde9-7145-4b6c-ac08-75d41d04f910",
    "resource": {
      "resourceType": "Patient",
      "id": "72a0fde9-7145-4b6c-ac08-75d41d04f910",
      "meta": {
        "profile": [ "http://hl7.org/fhir/us/qicore/StructureDefinition/qicore-patient" ]
      },
      "extension": [ {
        "url": "http://hl7.org/fhir/us/core/StructureDefinition/us-core-race",
        "extension": [ {
          "url": "ombCategory",
          "valueCoding": {
            "system": "urn:oid:2.16.840.1.113883.6.238",
            "code": "1002-5",
            "display": "American Indian or Alaska Native",
            "userSelected": true
          }
        }, {
          "url": "detailed",
          "valueCoding": {
            "system": "urn:oid:2.16.840.1.113883.6.238",
            "code": "1004-1",
            "display": "American Indian",
            "userSelected": true
          }
        }, {
          "url": "text",
          "valueString": "American Indian"
        } ]
      }, {
        "url": "http://hl7.org/fhir/us/core/StructureDefinition/us-core-ethnicity",
        "extension": [ {
          "url": "ombCategory",
          "valueCoding": {
            "system": "urn:oid:2.16.840.1.113883.6.238",
            "code": "2135-2",
            "display": "Hispanic or Latino",
            "userSelected": true
          }
        }, {
          "url": "detailed",
          "valueCoding": {
            "system": "urn:oid:2.16.840.1.113883.6.238",
            "code": "2153-5",
            "display": "Mexican American Indian",
            "userSelected": true
          }
        }, {
          "url": "text",
          "valueString": "Hispanic or Latino: Mexican American Indian"
        } ]
      } ],
      "identifier": [ {
        "type": {
          "coding": [ {
            "system": "http://terminology.hl7.org/CodeSystem/v2-0203",
            "code": "MR"
          } ]
        },
        "system": "https://bonnie-fhir.healthit.gov/",
        "value": "4161651341613146161"
      } ],
      "name": [ {
        "family": "DENOMPass",
        "given": [ "MedReqEventEndofMP" ]
      } ],
      "gender": "male",
      "birthDate": "1962-07-19"
    },
    "request": {
      "method": "PUT",
      "url": "Patient/72a0fde9-7145-4b6c-ac08-75d41d04f910"
    }
  }, {
    "fullUrl": "https://madie.cms.gov/Encounter/1e93de71-b353-426b-a124-d1fc91e626eb",
    "resource": {
      "resourceType": "Encounter",
      "id": "1e93de71-b353-426b-a124-d1fc91e626eb",
      "meta": {
        "profile": [ "http://hl7.org/fhir/us/qicore/StructureDefinition/qicore-encounter" ]
      },
      "status": "finished",
      "class": {
        "system": "http://terminology.hl7.org/CodeSystem/v3-ActCode",
        "code": "AMB",
        "display": "ambulatory"
      },
      "type": [ {
        "coding": [ {
          "system": "http://snomed.info/sct",
          "version": "http://snomed.info/sct/731000124108/version/20240401",
          "code": "185463005",
          "display": "Visit out of hours (procedure)",
          "userSelected": true
        } ]
      } ],
      "subject": {
        "reference": "Patient/72a0fde9-7145-4b6c-ac08-75d41d04f910"
      },
      "period": {
        "start": "2026-03-03T08:00:00.000+00:00",
        "end": "2026-03-03T08:15:00.000+00:00"
      }
    },
    "request": {
      "method": "PUT",
      "url": "Encounter/1e93de71-b353-426b-a124-d1fc91e626eb"
    }
  }, {
    "fullUrl": "https://madie.cms.gov/Condition/3c0860e7-848c-44f0-9189-c1aa0c1a0896",
    "resource": {
      "resourceType": "Condition",
      "id": "3c0860e7-848c-44f0-9189-c1aa0c1a0896",
      "meta": {
        "profile": [ "http://hl7.org/fhir/us/qicore/StructureDefinition/qicore-condition-problems-health-concerns" ]
      },
      "clinicalStatus": {
        "coding": [ {
          "system": "http://terminology.hl7.org/CodeSystem/condition-clinical",
          "code": "active",
          "display": "Active",
          "userSelected": true
        } ]
      },
      "verificationStatus": {
        "coding": [ {
          "system": "http://terminology.hl7.org/CodeSystem/condition-ver-status",
          "code": "confirmed",
          "display": "Confirmed",
          "userSelected": true
        } ]
      },
      "category": [ {
        "coding": [ {
          "system": "http://terminology.hl7.org/CodeSystem/condition-category",
          "code": "problem-list-item",
          "display": "Problem List Item"
        } ]
      } ],
      "code": {
        "coding": [ {
          "system": "http://snomed.info/sct",
          "version": "http://snomed.info/sct/731000124108/version/20240401",
          "code": "254900004",
          "display": "Carcinoma of prostate (disorder)",
          "userSelected": true
        } ]
      },
      "subject": {
        "reference": "Patient/72a0fde9-7145-4b6c-ac08-75d41d04f910"
      },
      "onsetPeriod": {
        "start": "2026-03-03T08:00:00.000+00:00"
      }
    },
    "request": {
      "method": "PUT",
      "url": "Condition/3c0860e7-848c-44f0-9189-c1aa0c1a0896"
    }
  }, {
    "fullUrl": "https://madie.cms.gov/MedicationRequest/91148cfb-b750-4e5d-b9e4-857b5a7a7c7c",
    "resource": {
      "resourceType": "MedicationRequest",
      "id": "91148cfb-b750-4e5d-b9e4-857b5a7a7c7c",
      "meta": {
        "profile": [ "http://hl7.org/fhir/us/qicore/StructureDefinition/qicore-medicationrequest" ]
      },
      "status": "active",
      "intent": "order",
      "medicationCodeableConcept": {
        "coding": [ {
          "system": "http://www.nlm.nih.gov/research/umls/rxnorm",
          "version": "2025-01",
          "code": "752884",
          "display": "0.375 ML leuprolide acetate 120 MG/ML Prefilled Syringe",
          "userSelected": true
        } ]
      },
      "subject": {
        "reference": "Patient/72a0fde9-7145-4b6c-ac08-75d41d04f910"
      },
      "authoredOn": "2026-03-03T08:00:00.000+00:00",
      "requester": {
        "reference": "http://myGoodHealthcare.com/fhir/Practitioner/646346"
      },
      "dosageInstruction": [ {
        "timing": {
          "event": [ "2027-01-03T08:00:00.000+00:00", "2026-12-03T08:00:00.000+00:00" ]
        }
      } ]
    },
    "request": {
      "method": "PUT",
      "url": "MedicationRequest/91148cfb-b750-4e5d-b9e4-857b5a7a7c7c"
    }
  }, {
    "fullUrl": "https://madie.cms.gov/ServiceRequest/a9939022-56db-4f60-a005-ff710b0f9eab",
    "resource": {
      "resourceType": "ServiceRequest",
      "id": "a9939022-56db-4f60-a005-ff710b0f9eab",
      "meta": {
        "profile": [ "http://hl7.org/fhir/us/qicore/StructureDefinition/qicore-servicerequest" ]
      },
      "status": "active",
      "intent": "order",
      "code": {
        "coding": [ {
          "system": "http://snomed.info/sct",
          "code": "456381000124102",
          "display": "Injection of leuprolide acetate for twelve month period (regime/therapy)"
        } ]
      },
      "subject": {
        "reference": "Patient/72a0fde9-7145-4b6c-ac08-75d41d04f910"
      },
      "authoredOn": "2026-03-03T08:00:00.000+00:00"
    },
    "request": {
      "method": "PUT",
      "url": "ServiceRequest/a9939022-56db-4f60-a005-ff710b0f9eab"
    }
  }, {
    "fullUrl": "https://madie.cms.gov/Coverage/6a753a9e-df40-4b33-b0fd-90d7b1469b64",
    "resource": {
      "resourceType": "Coverage",
      "id": "6a753a9e-df40-4b33-b0fd-90d7b1469b64",
      "meta": {
        "profile": [ "http://hl7.org/fhir/us/qicore/StructureDefinition/qicore-coverage" ]
      },
      "identifier": [ {
        "system": "http://benefitsinc.com/certificate",
        "value": "12345"
      } ],
      "status": "active",
      "type": {
        "coding": [ {
          "system": "https://nahdo.org/sopt",
          "version": "9.2",
          "code": "6",
          "display": "BLUE CROSS/BLUE SHIELD"
        } ]
      },
      "beneficiary": {
        "reference": "Patient/72a0fde9-7145-4b6c-ac08-75d41d04f910"
      },
      "period": {
        "start": "2012-05-23"
      },
      "payor": [ {
        "reference": "Organization/ad5836ba-10fa-4a1b-bccf-e4a81d466958"
      } ]
    },
    "request": {
      "method": "PUT",
      "url": "Coverage/6a753a9e-df40-4b33-b0fd-90d7b1469b64"
    }
  }, {
    "fullUrl": "https://madie.cms.gov/Organization/ad5836ba-10fa-4a1b-bccf-e4a81d466958",
    "resource": {
      "resourceType": "Organization",
      "id": "ad5836ba-10fa-4a1b-bccf-e4a81d466958",
      "meta": {
        "profile": [ "http://hl7.org/fhir/us/qicore/StructureDefinition/qicore-organization" ]
      },
      "identifier": [ {
        "use": "temp",
        "system": "http://hl7.org/fhir/sid/us-npi",
        "value": "BCBST-NPI"
      } ],
      "active": true,
      "name": "Blue Cross Blue Shield Tennessee",
      "telecom": [ {
        "system": "phone",
        "value": "(+1) 800-468-9698"
      } ],
      "address": [ {
        "line": [ "1 Cameron Hill Circle, Suite 0002" ],
        "city": "Chattanooga",
        "state": "TN",
        "postalCode": "37402-0002",
        "country": "USA"
      } ]
    },
    "request": {
      "method": "PUT",
      "url": "Organization/ad5836ba-10fa-4a1b-bccf-e4a81d466958"
    }
  }, {
    "fullUrl": "https://madie.cms.gov/MeasureReport/cda3c35c-e00b-4fcb-8e76-ce4cd6192049",
    "resource": {
      "resourceType": "MeasureReport",
      "id": "cda3c35c-e00b-4fcb-8e76-ce4cd6192049",
      "meta": {
        "profile": [ "http://hl7.org/fhir/us/cqfmeasures/StructureDefinition/test-case-cqfm" ]
      },
      "contained": [ {
        "resourceType": "Parameters",
        "id": "2ec2487f-fb99-4a1c-95c5-4d1a3ba4a0e3-parameters",
        "parameter": [ {
          "name": "subject",
          "valueString": "72a0fde9-7145-4b6c-ac08-75d41d04f910"
        } ]
      } ],
      "extension": [ {
        "url": "http://hl7.org/fhir/StructureDefinition/cqf-inputParameters",
        "valueReference": {
          "reference": "#2ec2487f-fb99-4a1c-95c5-4d1a3ba4a0e3-parameters"
        }
      }, {
        "url": "http://hl7.org/fhir/us/cqfmeasures/StructureDefinition/cqfm-testCaseDescription",
        "valueMarkdown": "Test of FirstADT definition medication request using event dates with order at end of measurement period and PCa with no end date. "
      } ],
      "modifierExtension": [ {
        "url": "http://hl7.org/fhir/us/cqfmeasures/StructureDefinition/cqfm-isTestCase",
        "valueBoolean": true
      } ],
      "status": "complete",
      "type": "individual",
      "measure": "https://madie.cms.gov/Measure/CMS645FHIRBoneDensityProstateCancerAndrogenDeprivationTherapy",
      "period": {
        "start": "2026-01-01",
        "end": "2026-12-31"
      },
      "group": [ {
        "id": "Group_1",
        "population": [ {
          "id": "InitialPopulation_1",
          "code": {
            "coding": [ {
              "system": "http://terminology.hl7.org/CodeSystem/measure-population",
              "code": "initial-population",
              "display": "Initial Population"
            } ]
          },
          "count": 1
        }, {
          "id": "Denominator_1",
          "code": {
            "coding": [ {
              "system": "http://terminology.hl7.org/CodeSystem/measure-population",
              "code": "denominator",
              "display": "Denominator"
            } ]
          },
          "count": 1
        }, {
          "id": "Numerator_1",
          "code": {
            "coding": [ {
              "system": "http://terminology.hl7.org/CodeSystem/measure-population",
              "code": "numerator",
              "display": "Numerator"
            } ]
          },
          "count": 0
        }, {
          "id": "DenominatorException_1",
          "code": {
            "coding": [ {
              "system": "http://terminology.hl7.org/CodeSystem/measure-population",
              "code": "denominator-exception",
              "display": "Denominator Exception"
            } ]
          },
          "count": 0
        } ],
        "measureScore": {
          "value": 1.0
        }
      } ],
      "evaluatedResource": [ {
        "reference": "Patient/72a0fde9-7145-4b6c-ac08-75d41d04f910"
      }, {
        "reference": "Encounter/1e93de71-b353-426b-a124-d1fc91e626eb"
      }, {
        "reference": "Condition/3c0860e7-848c-44f0-9189-c1aa0c1a0896"
      }, {
        "reference": "MedicationRequest/91148cfb-b750-4e5d-b9e4-857b5a7a7c7c"
      }, {
        "reference": "ServiceRequest/a9939022-56db-4f60-a005-ff710b0f9eab"
      }, {
        "reference": "Coverage/6a753a9e-df40-4b33-b0fd-90d7b1469b64"
      }, {
        "reference": "Organization/ad5836ba-10fa-4a1b-bccf-e4a81d466958"
      } ]
    },
    "request": {
      "method": "PUT",
      "url": "MeasureReport/cda3c35c-e00b-4fcb-8e76-ce4cd6192049"
    }
  } ]
}