{
  "resourceType": "Bundle",
  "id": "610965b898086b538055c14c",
  "type": "transaction",
  "entry": [
    {
      "fullUrl": "https://madie.cms.gov/Patient/bec4ad9f-cfdb-4a7c-a058-01e631379632",
      "resource": {
        "resourceType": "Patient",
        "id": "bec4ad9f-cfdb-4a7c-a058-01e631379632",
        "meta": {
          "profile": [
            "http://hl7.org/fhir/us/qicore/StructureDefinition/qicore-patient"
          ]
        },
        "text": {
          "status": "generated",
          "div": "<div xmlns=\"http://www.w3.org/1999/xhtml\"><div class=\"hapiHeaderText\">EncOverlapsMPEnd <b>IPPFAIL </b></div><table class=\"hapiPropertyTable\"><tbody><tr><td>Identifier</td><td>fc7ee32c47e386a4be9d29feaa05e1a314dab3fb336710140e496f897a5de6a9</td></tr><tr><td>Date of birth</td><td><span>31 July 1992</span></td></tr></tbody></table></div>"
        },
        "extension": [
          {
            "url": "http://hl7.org/fhir/us/core/StructureDefinition/us-core-race",
            "extension": [
              {
                "url": "ombCategory",
                "valueCoding": {
                  "system": "urn:oid:2.16.840.1.113883.6.238",
                  "code": "1002-5",
                  "display": "American Indian or Alaska Native",
                  "userSelected": true
                }
              },
              {
                "url": "text",
                "valueString": "American Indian or Alaska Native"
              }
            ]
          },
          {
            "url": "http://hl7.org/fhir/us/core/StructureDefinition/us-core-ethnicity",
            "extension": [
              {
                "url": "ombCategory",
                "valueCoding": {
                  "system": "urn:oid:2.16.840.1.113883.6.238",
                  "code": "2135-2",
                  "display": "Hispanic or Latino",
                  "userSelected": true
                }
              },
              {
                "url": "text",
                "valueString": "Hispanic or Latino"
              }
            ]
          }
        ],
        "identifier": [
          {
            "type": {
              "coding": [
                {
                  "system": "http://terminology.hl7.org/CodeSystem/v2-0203",
                  "code": "MR"
                }
              ]
            },
            "system": "https://bonnie-fhir.healthit.gov/",
            "value": "610965b898086b538055c14c"
          }
        ],
        "active": true,
        "name": [
          {
            "use": "usual",
            "family": "IPPFail",
            "given": [
              "EncOverlapsMPEnd"
            ]
          }
        ],
        "gender": "female",
        "birthDate": "1993-07-31"
      },
      "request": {
        "method": "PUT",
        "url": "Patient/bec4ad9f-cfdb-4a7c-a058-01e631379632"
      }
    },
    {
      "fullUrl": "https://madie.cms.gov/Encounter/79856918-41ac-46d7-b968-9f53098d457b",
      "resource": {
        "resourceType": "Encounter",
        "id": "79856918-41ac-46d7-b968-9f53098d457b",
        "meta": {
          "profile": [
            "http://hl7.org/fhir/us/qicore/StructureDefinition/qicore-encounter"
          ]
        },
        "status": "finished",
        "class": {
          "system": "http://terminology.hl7.org/CodeSystem/v3-ActCode",
          "code": "AMB",
          "display": "ambulatory",
          "userSelected": true
        },
        "type": [
          {
            "coding": [
              {
                "system": "http://www.ama-assn.org/go/cpt",
                "code": "99395"
              }
            ]
          }
        ],
        "subject": {
          "reference": "Patient/bec4ad9f-cfdb-4a7c-a058-01e631379632"
        },
        "period": {
          "start": "2024-10-24T08:00:00.000+00:00",
          "end": "2025-01-01T00:00:00.000+00:00"
        }
      },
      "request": {
        "method": "PUT",
        "url": "Encounter/79856918-41ac-46d7-b968-9f53098d457b"
      }
    },
    {
      "fullUrl": "https://madie.cms.gov/MeasureReport/31182304-e31e-4d22-b3de-96ec1a5137fb",
      "resource": {
        "resourceType": "MeasureReport",
        "id": "31182304-e31e-4d22-b3de-96ec1a5137fb",
        "meta": {
          "profile": [
            "http://hl7.org/fhir/us/cqfmeasures/StructureDefinition/test-case-cqfm"
          ]
        },
        "contained": [
          {
            "resourceType": "Parameters",
            "id": "fcadc1bf-3faf-4ff6-a575-a7c2ffef62b6-parameters",
            "parameter": [
              {
                "name": "subject",
                "valueString": "bec4ad9f-cfdb-4a7c-a058-01e631379632"
              }
            ]
          }
        ],
        "extension": [
          {
            "url": "http://hl7.org/fhir/us/cqfmeasures/StructureDefinition/cqfm-inputParameters",
            "valueReference": {
              "reference": "#fcadc1bf-3faf-4ff6-a575-a7c2ffef62b6-parameters"
            }
          },
          {
            "url": "http://hl7.org/fhir/us/cqfmeasures/StructureDefinition/cqfm-testCaseDescription",
            "valueMarkdown": "Patient qualifies by age but encounter overlaps measurement period end."
          }
        ],
        "modifierExtension": [
          {
            "url": "http://hl7.org/fhir/us/cqfmeasures/StructureDefinition/cqfm-isTestCase",
            "valueBoolean": true
          }
        ],
        "status": "complete",
        "type": "individual",
        "measure": "https://madie.cms.gov/Measure/HIVScreeningFHIR",
        "period": {
          "start": "2025-01-01",
          "end": "2025-12-31"
        },
        "group": [
          {
            "population": [
              {
                "code": {
                  "coding": [
                    {
                      "system": "http://terminology.hl7.org/CodeSystem/measure-population",
                      "code": "initial-population",
                      "display": "Initial Population"
                    }
                  ]
                },
                "count": 0
              },
              {
                "code": {
                  "coding": [
                    {
                      "system": "http://terminology.hl7.org/CodeSystem/measure-population",
                      "code": "denominator",
                      "display": "Denominator"
                    }
                  ]
                },
                "count": 0
              },
              {
                "code": {
                  "coding": [
                    {
                      "system": "http://terminology.hl7.org/CodeSystem/measure-population",
                      "code": "denominator-exclusion",
                      "display": "Denominator Exclusion"
                    }
                  ]
                },
                "count": 0
              },
              {
                "code": {
                  "coding": [
                    {
                      "system": "http://terminology.hl7.org/CodeSystem/measure-population",
                      "code": "numerator",
                      "display": "Numerator"
                    }
                  ]
                },
                "count": 0
              }
            ]
          }
        ],
        "evaluatedResource": [
          {
            "reference": "Patient/bec4ad9f-cfdb-4a7c-a058-01e631379632"
          },
          {
            "reference": "Encounter/79856918-41ac-46d7-b968-9f53098d457b"
          }
        ]
      },
      "request": {
        "method": "PUT",
        "url": "MeasureReport/31182304-e31e-4d22-b3de-96ec1a5137fb"
      }
    }
  ]
}