{
  "resourceType": "Bundle",
  "id": "DENEXPass-HospiceDiagnosisOverlapsMP",
  "type": "transaction",
  "entry": [ {
    "fullUrl": "https://madie.cms.gov/Patient/972c7128-f3c2-401d-89f3-a0752dd02620",
    "resource": {
      "resourceType": "Patient",
      "id": "972c7128-f3c2-401d-89f3-a0752dd02620",
      "meta": {
        "profile": [ "http://hl7.org/fhir/us/qicore/StructureDefinition/qicore-patient" ]
      },
      "extension": [ {
        "url": "http://hl7.org/fhir/us/core/StructureDefinition/us-core-race",
        "extension": [ {
          "url": "ombCategory",
          "valueCoding": {
            "system": "urn:oid:2.16.840.1.113883.6.238",
            "code": "2028-9",
            "display": "Asian"
          }
        }, {
          "url": "text",
          "valueString": "Asian"
        } ]
      }, {
        "url": "http://hl7.org/fhir/us/core/StructureDefinition/us-core-ethnicity",
        "extension": [ {
          "url": "ombCategory",
          "valueCoding": {
            "system": "urn:oid:2.16.840.1.113883.6.238",
            "code": "2135-2",
            "display": "Hispanic or Latino"
          }
        }, {
          "url": "text",
          "valueString": "Hispanic or Latino"
        } ]
      } ],
      "identifier": [ {
        "system": "http://hospital.smarthealthit.org",
        "value": "999999995"
      } ],
      "name": [ {
        "family": "DENEXPass",
        "given": [ "HospiceDiagnosisOverlapsMP" ]
      } ],
      "gender": "female",
      "birthDate": "2007-12-31"
    },
    "request": {
      "method": "PUT",
      "url": "Patient/972c7128-f3c2-401d-89f3-a0752dd02620"
    }
  }, {
    "fullUrl": "https://madie.cms.gov/Encounter/433ea3c7-2715-4ee0-8251-a10e37fbacc4",
    "resource": {
      "resourceType": "Encounter",
      "id": "433ea3c7-2715-4ee0-8251-a10e37fbacc4",
      "meta": {
        "profile": [ "http://hl7.org/fhir/us/qicore/StructureDefinition/qicore-encounter" ]
      },
      "status": "finished",
      "class": {
        "system": "http://terminology.hl7.org/CodeSystem/v3-ActCode",
        "code": "AMB",
        "display": "ambulatory"
      },
      "type": [ {
        "coding": [ {
          "system": "http://snomed.info/sct",
          "code": "3391000175108",
          "display": "Office visit for pediatric care and assessment (procedure)"
        } ]
      } ],
      "subject": {
        "reference": "Patient/972c7128-f3c2-401d-89f3-a0752dd02620"
      },
      "period": {
        "start": "2026-01-01T00:00:00.000+00:00",
        "end": "2026-01-01T01:00:00.000+00:00"
      }
    },
    "request": {
      "method": "PUT",
      "url": "Encounter/433ea3c7-2715-4ee0-8251-a10e37fbacc4"
    }
  }, {
    "fullUrl": "https://madie.cms.gov/Condition/9ce8375c-7627-4840-8491-d7912ab415f2",
    "resource": {
      "resourceType": "Condition",
      "id": "9ce8375c-7627-4840-8491-d7912ab415f2",
      "meta": {
        "profile": [ "http://hl7.org/fhir/us/qicore/StructureDefinition/qicore-condition-problems-health-concerns" ]
      },
      "clinicalStatus": {
        "coding": [ {
          "system": "http://terminology.hl7.org/CodeSystem/condition-clinical",
          "code": "active"
        } ]
      },
      "category": [ {
        "coding": [ {
          "system": "http://terminology.hl7.org/CodeSystem/condition-category",
          "code": "problem-list-item",
          "display": "Problem List Item"
        } ]
      } ],
      "code": {
        "coding": [ {
          "system": "http://snomed.info/sct",
          "code": "371125006",
          "display": "Labile essential hypertension (disorder)"
        } ]
      },
      "subject": {
        "reference": "Patient/972c7128-f3c2-401d-89f3-a0752dd02620"
      },
      "onsetDateTime": "2026-06-30T23:59:59.000+00:00"
    },
    "request": {
      "method": "PUT",
      "url": "Condition/9ce8375c-7627-4840-8491-d7912ab415f2"
    }
  }, {
    "fullUrl": "https://madie.cms.gov/Condition/3e8e017c-92a9-4ae8-b464-94cef379799a",
    "resource": {
      "resourceType": "Condition",
      "id": "3e8e017c-92a9-4ae8-b464-94cef379799a",
      "meta": {
        "profile": [ "http://hl7.org/fhir/us/qicore/StructureDefinition/qicore-condition-problems-health-concerns" ]
      },
      "clinicalStatus": {
        "coding": [ {
          "system": "http://terminology.hl7.org/CodeSystem/condition-clinical",
          "code": "active"
        } ]
      },
      "category": [ {
        "coding": [ {
          "system": "http://terminology.hl7.org/CodeSystem/condition-category",
          "code": "problem-list-item",
          "display": "Problem List Item"
        } ]
      } ],
      "code": {
        "coding": [ {
          "system": "http://snomed.info/sct",
          "code": "170935008",
          "display": "Full care by hospice (finding)"
        } ]
      },
      "subject": {
        "reference": "Patient/972c7128-f3c2-401d-89f3-a0752dd02620"
      },
      "onsetDateTime": "2026-12-31T23:59:59.000+00:00"
    },
    "request": {
      "method": "PUT",
      "url": "Condition/3e8e017c-92a9-4ae8-b464-94cef379799a"
    }
  }, {
    "fullUrl": "https://madie.cms.gov/MeasureReport/a46acd71-6e5a-4c19-9004-d962a27a2a45",
    "resource": {
      "resourceType": "MeasureReport",
      "id": "a46acd71-6e5a-4c19-9004-d962a27a2a45",
      "meta": {
        "profile": [ "http://hl7.org/fhir/us/cqfmeasures/StructureDefinition/test-case-cqfm" ]
      },
      "contained": [ {
        "resourceType": "Parameters",
        "id": "a6753727-a9bc-4eda-ba63-4d6c85cd74b7-parameters",
        "parameter": [ {
          "name": "subject",
          "valueString": "972c7128-f3c2-401d-89f3-a0752dd02620"
        } ]
      } ],
      "extension": [ {
        "url": "http://hl7.org/fhir/StructureDefinition/cqf-inputParameters",
        "valueReference": {
          "reference": "#a6753727-a9bc-4eda-ba63-4d6c85cd74b7-parameters"
        }
      }, {
        "url": "http://hl7.org/fhir/us/cqfmeasures/StructureDefinition/cqfm-testCaseDescription",
        "valueMarkdown": "Hospice diagnosis overlaps MP - ConditionProblemsHealthConcerns"
      } ],
      "modifierExtension": [ {
        "url": "http://hl7.org/fhir/us/cqfmeasures/StructureDefinition/cqfm-isTestCase",
        "valueBoolean": true
      } ],
      "status": "complete",
      "type": "individual",
      "measure": "https://madie.cms.gov/Measure/CMS165FHIRControllingHighBloodPressure",
      "period": {
        "start": "2026-01-01",
        "end": "2026-12-31"
      },
      "group": [ {
        "id": "Group_1",
        "population": [ {
          "id": "InitialPopulation_1",
          "code": {
            "coding": [ {
              "system": "http://terminology.hl7.org/CodeSystem/measure-population",
              "code": "initial-population",
              "display": "Initial Population"
            } ]
          },
          "count": 1
        }, {
          "id": "Denominator_1",
          "code": {
            "coding": [ {
              "system": "http://terminology.hl7.org/CodeSystem/measure-population",
              "code": "denominator",
              "display": "Denominator"
            } ]
          },
          "count": 1
        }, {
          "id": "DenominatorExclusion_1",
          "code": {
            "coding": [ {
              "system": "http://terminology.hl7.org/CodeSystem/measure-population",
              "code": "denominator-exclusion",
              "display": "Denominator Exclusion"
            } ]
          },
          "count": 1
        }, {
          "id": "Numerator_1",
          "code": {
            "coding": [ {
              "system": "http://terminology.hl7.org/CodeSystem/measure-population",
              "code": "numerator",
              "display": "Numerator"
            } ]
          },
          "count": 0
        } ],
        "measureScore": {
          "value": 1.0
        }
      } ],
      "evaluatedResource": [ {
        "reference": "Patient/972c7128-f3c2-401d-89f3-a0752dd02620"
      }, {
        "reference": "Encounter/433ea3c7-2715-4ee0-8251-a10e37fbacc4"
      }, {
        "reference": "Condition/9ce8375c-7627-4840-8491-d7912ab415f2"
      }, {
        "reference": "Condition/3e8e017c-92a9-4ae8-b464-94cef379799a"
      } ]
    },
    "request": {
      "method": "PUT",
      "url": "MeasureReport/a46acd71-6e5a-4c19-9004-d962a27a2a45"
    }
  } ]
}