{
    "entry": [
        {
            "request": {
                "method": "PUT",
                "url": "Patient/15ad723f-b561-4cdd-9a11-7e6619780459"
            },
            "resource": {
                "identifier": [{
                    "system": "https://bonnie-fhir.healthit.gov/",
                    "type": {"coding": [{
                        "system": "http://terminology.hl7.org/CodeSystem/v2-0203",
                        "code": "MR"
                    }]},
                    "value": "62b1e15a3968556e5150cf3b"
                }],
                "extension": [
                    {
                        "extension": [
                            {
                                "valueCoding": {
                                    "system": "urn:oid:2.16.840.1.113883.6.238",
                                    "code": "1002-5",
                                    "userSelected": true,
                                    "display": "American Indian or Alaska Native"
                                },
                                "url": "ombCategory"
                            },
                            {
                                "valueString": "American Indian or Alaska Native",
                                "url": "text"
                            }
                        ],
                        "url": "http://hl7.org/fhir/us/core/StructureDefinition/us-core-race"
                    },
                    {
                        "extension": [
                            {
                                "valueCoding": {
                                    "system": "urn:oid:2.16.840.1.113883.6.238",
                                    "code": "2135-2",
                                    "userSelected": true,
                                    "display": "Hispanic or Latino"
                                },
                                "url": "ombCategory"
                            },
                            {
                                "valueString": "Hispanic or Latino",
                                "url": "text"
                            }
                        ],
                        "url": "http://hl7.org/fhir/us/core/StructureDefinition/us-core-ethnicity"
                    },
                    {
                        "valueCode": "248152002",
                        "url": "http://hl7.org/fhir/us/core/StructureDefinition/us-core-sex"
                    }
                ],
                "gender": "female",
                "meta": {"profile": ["http://hl7.org/fhir/us/qicore/StructureDefinition/qicore-patient"]},
                "name": [{
                    "given": ["AdultHistoryOfBipolarActive"],
                    "family": "DENOMEXPass"
                }],
                "id": "15ad723f-b561-4cdd-9a11-7e6619780459",
                "birthDate": "2008-01-01",
                "resourceType": "Patient"
            },
            "fullUrl": "https://madie.cms.gov/Patient/15ad723f-b561-4cdd-9a11-7e6619780459"
        },
        {
            "request": {
                "method": "PUT",
                "url": "Encounter/0f8f4a23-fb67-4909-bd54-9180e9a23fdb"
            },
            "resource": {
                "period": {
                    "start": "2026-06-21T08:00:00.000+00:00",
                    "end": "2026-06-21T08:15:00.000+00:00"
                },
                "meta": {"profile": ["http://hl7.org/fhir/us/qicore/StructureDefinition/qicore-encounter"]},
                "subject": {"reference": "Patient/15ad723f-b561-4cdd-9a11-7e6619780459"},
                "id": "0f8f4a23-fb67-4909-bd54-9180e9a23fdb",
                "type": [{"coding": [{
                    "system": "http://snomed.info/sct",
                    "code": "10197000",
                    "userSelected": true,
                    "display": "Psychiatric interview and evaluation (procedure)",
                    "version": "2021-09"
                }]}],
                "class": {
                    "system": "http://terminology.hl7.org/CodeSystem/v3-ActCode",
                    "code": "AMB",
                    "display": "ambulatory"
                },
                "resourceType": "Encounter",
                "status": "finished"
            },
            "fullUrl": "https://madie.cms.gov/Encounter/0f8f4a23-fb67-4909-bd54-9180e9a23fdb"
        },
        {
            "request": {
                "method": "PUT",
                "url": "Condition/0eab7013-0907-4aed-85e1-e86d2138bff6"
            },
            "resource": {
                "code": {"coding": [{
                    "system": "http://snomed.info/sct",
                    "code": "10875004",
                    "userSelected": true,
                    "display": "Severe mixed bipolar I disorder with psychotic features, mood-incongruent (disorder)",
                    "version": "2021-09"
                }]},
                "meta": {"profile": ["http://hl7.org/fhir/us/qicore/StructureDefinition/qicore-condition-problems-health-concerns"]},
                "subject": {"reference": "Patient/15ad723f-b561-4cdd-9a11-7e6619780459"},
                "id": "0eab7013-0907-4aed-85e1-e86d2138bff6",
                "clinicalStatus": {"coding": [{
                    "system": "http://terminology.hl7.org/CodeSystem/condition-clinical",
                    "code": "active",
                    "userSelected": true,
                    "display": "active"
                }]},
                "category": [{"coding": [{
                    "system": "http://terminology.hl7.org/CodeSystem/condition-category",
                    "code": "problem-list-item",
                    "display": "Problem List Item"
                }]}],
                "onsetDateTime": "2026-06-15T08:00:00.000+00:00",
                "resourceType": "Condition"
            },
            "fullUrl": "https://madie.cms.gov/Condition/0eab7013-0907-4aed-85e1-e86d2138bff6"
        },
        {
            "request": {
                "method": "PUT",
                "url": "Coverage/e374b26d-3ab4-486f-9c22-beb2291d6a30"
            },
            "resource": {
                "payor": [{"reference": "Organization/49feedd8-9ee6-4b52-8700-1971adb686de"}],
                "beneficiary": {"reference": "Patient/15ad723f-b561-4cdd-9a11-7e6619780459"},
                "meta": {"profile": ["http://hl7.org/fhir/us/qicore/StructureDefinition/qicore-coverage"]},
                "id": "e374b26d-3ab4-486f-9c22-beb2291d6a30",
                "resourceType": "Coverage",
                "status": "active"
            },
            "fullUrl": "https://madie.cms.gov/Coverage/e374b26d-3ab4-486f-9c22-beb2291d6a30"
        },
        {
            "request": {
                "method": "PUT",
                "url": "Organization/49feedd8-9ee6-4b52-8700-1971adb686de"
            },
            "resource": {
                "identifier": [{
                    "system": "urn:oid:2.16.840.1.113883.4.4",
                    "use": "temp",
                    "value": "21-3259825"
                }],
                "address": [{
                    "country": "USA",
                    "city": "Dallas",
                    "use": "billing",
                    "line": ["P.O. Box 660044"],
                    "postalCode": "75266-0044",
                    "state": "TX",
                    "type": "postal"
                }],
                "meta": {"profile": ["http://hl7.org/fhir/us/qicore/StructureDefinition/qicore-organization"]},
                "name": "Blue Cross Blue Shield of Texas",
                "active": true,
                "telecom": [{
                    "system": "phone",
                    "value": "(+1) 972-766-6900"
                }],
                "id": "49feedd8-9ee6-4b52-8700-1971adb686de",
                "type": [{"coding": [{
                    "system": "http://terminology.hl7.org/CodeSystem/organization-type",
                    "code": "pay",
                    "display": "Payer"
                }]}],
                "resourceType": "Organization"
            },
            "fullUrl": "https://madie.cms.gov/Organization/49feedd8-9ee6-4b52-8700-1971adb686de"
        },
        {
            "request": {
                "method": "PUT",
                "url": "Practitioner/a660a8b1-6b84-4764-b2e9-92f471470ccc"
            },
            "resource": {
                "identifier": [{
                    "system": "http://hl7.org/fhir/sid/us-npi",
                    "value": "123456"
                }],
                "meta": {"profile": ["http://hl7.org/fhir/us/qicore/StructureDefinition/qicore-practitioner"]},
                "name": [{
                    "prefix": ["Dr"],
                    "family": "Evil"
                }],
                "id": "a660a8b1-6b84-4764-b2e9-92f471470ccc",
                "resourceType": "Practitioner"
            },
            "fullUrl": "https://madie.cms.gov/Practitioner/a660a8b1-6b84-4764-b2e9-92f471470ccc"
        },
        {
            "request": {
                "method": "PUT",
                "url": "MeasureReport/f4dbf83b-d14a-48a1-a8c4-5a03720d4f23"
            },
            "resource": {
                "contained": [{
                    "parameter": [{
                        "valueString": "15ad723f-b561-4cdd-9a11-7e6619780459",
                        "name": "subject"
                    }],
                    "id": "14924f90-5a3f-467e-b910-5cdb000d6885-parameters",
                    "resourceType": "Parameters"
                }],
                "extension": [
                    {
                        "valueReference": {"reference": "#14924f90-5a3f-467e-b910-5cdb000d6885-parameters"},
                        "url": "http://hl7.org/fhir/StructureDefinition/cqf-inputParameters"
                    },
                    {
                        "valueMarkdown": "18 yo patient with history of bipolar - active",
                        "url": "http://hl7.org/fhir/us/cqfmeasures/StructureDefinition/cqfm-testCaseDescription"
                    }
                ],
                "period": {
                    "start": "2026-01-01",
                    "end": "2026-12-31"
                },
                "measure": "https://madie.cms.gov/Measure/CMS2FHIRPCSDepressionScreenAndFollowUp",
                "meta": {"profile": ["http://hl7.org/fhir/us/cqfmeasures/StructureDefinition/test-case-cqfm"]},
                "modifierExtension": [{
                    "valueBoolean": true,
                    "url": "http://hl7.org/fhir/us/cqfmeasures/StructureDefinition/cqfm-isTestCase"
                }],
                "id": "f4dbf83b-d14a-48a1-a8c4-5a03720d4f23",
                "evaluatedResource": [
                    {"reference": "Patient/15ad723f-b561-4cdd-9a11-7e6619780459"},
                    {"reference": "Encounter/0f8f4a23-fb67-4909-bd54-9180e9a23fdb"},
                    {"reference": "Condition/0eab7013-0907-4aed-85e1-e86d2138bff6"},
                    {"reference": "Coverage/e374b26d-3ab4-486f-9c22-beb2291d6a30"},
                    {"reference": "Organization/49feedd8-9ee6-4b52-8700-1971adb686de"},
                    {"reference": "Practitioner/a660a8b1-6b84-4764-b2e9-92f471470ccc"}
                ],
                "type": "individual",
                "resourceType": "MeasureReport",
                "status": "complete",
                "group": [{
                    "id": "Group_1",
                    "measureScore": {"value": 1},
                    "population": [
                        {
                            "code": {"coding": [{
                                "system": "http://terminology.hl7.org/CodeSystem/measure-population",
                                "code": "initial-population",
                                "display": "Initial Population"
                            }]},
                            "count": 1,
                            "id": "InitialPopulation_1"
                        },
                        {
                            "code": {"coding": [{
                                "system": "http://terminology.hl7.org/CodeSystem/measure-population",
                                "code": "denominator",
                                "display": "Denominator"
                            }]},
                            "count": 1,
                            "id": "Denominator_1"
                        },
                        {
                            "code": {"coding": [{
                                "system": "http://terminology.hl7.org/CodeSystem/measure-population",
                                "code": "denominator-exclusion",
                                "display": "Denominator Exclusion"
                            }]},
                            "count": 1,
                            "id": "DenominatorExclusion_1"
                        },
                        {
                            "code": {"coding": [{
                                "system": "http://terminology.hl7.org/CodeSystem/measure-population",
                                "code": "numerator",
                                "display": "Numerator"
                            }]},
                            "count": 0,
                            "id": "Numerator_1"
                        },
                        {
                            "code": {"coding": [{
                                "system": "http://terminology.hl7.org/CodeSystem/measure-population",
                                "code": "denominator-exception",
                                "display": "Denominator Exception"
                            }]},
                            "count": 0,
                            "id": "DenominatorException_1"
                        }
                    ]
                }]
            },
            "fullUrl": "https://madie.cms.gov/MeasureReport/f4dbf83b-d14a-48a1-a8c4-5a03720d4f23"
        }
    ],
    "id": "62b1e15a3968556e5150cf3b",
    "type": "transaction",
    "resourceType": "Bundle"
}