{
  "resourceType": "Bundle",
  "id": "612e6eb002c62a011f2ef3f8",
  "type": "transaction",
  "entry": [ {
    "fullUrl": "https://madie.cms.gov/Patient/42c84331-3931-4f56-a9d6-93691b6904b9",
    "resource": {
      "resourceType": "Patient",
      "id": "42c84331-3931-4f56-a9d6-93691b6904b9",
      "meta": {
        "profile": [ "http://hl7.org/fhir/us/qicore/StructureDefinition/qicore-patient" ]
      },
      "text": {
        "status": "generated",
        "div": "<div xmlns=\"http://www.w3.org/1999/xhtml\"><div class=\"hapiHeaderText\">ICUAfterEncEnd <b>DENOMFAIL </b></div><table class=\"hapiPropertyTable\"><tbody><tr><td>Identifier</td><td>962f1a519683811d5a51b4b64d8ef3b8</td></tr><tr><td>Date of birth</td><td><span>03 March 1974</span></td></tr></tbody></table></div>"
      },
      "extension": [ {
        "url": "http://hl7.org/fhir/us/core/StructureDefinition/us-core-race",
        "extension": [ {
          "url": "ombCategory",
          "valueCoding": {
            "system": "urn:oid:2.16.840.1.113883.6.238",
            "code": "1002-5",
            "display": "American Indian or Alaska Native",
            "userSelected": true
          }
        }, {
          "url": "text",
          "valueString": "American Indian or Alaska Native"
        } ]
      }, {
        "url": "http://hl7.org/fhir/us/core/StructureDefinition/us-core-ethnicity",
        "extension": [ {
          "url": "ombCategory",
          "valueCoding": {
            "system": "urn:oid:2.16.840.1.113883.6.238",
            "code": "2186-5",
            "display": "Not Hispanic or Latino",
            "userSelected": true
          }
        }, {
          "url": "text",
          "valueString": "Not Hispanic or Latino"
        } ]
      } ],
      "identifier": [ {
        "type": {
          "coding": [ {
            "system": "http://terminology.hl7.org/CodeSystem/v2-0203",
            "code": "MR"
          } ]
        },
        "system": "https://bonnie-fhir.healthit.gov/",
        "value": "612e6eb002c62a011f2ef3f8"
      } ],
      "active": true,
      "name": [ {
        "use": "usual",
        "family": "DENOMFail",
        "given": [ "ICUAfterEncEnd" ]
      } ],
      "gender": "female",
      "birthDate": "1975-03-03"
    },
    "request": {
      "method": "PUT",
      "url": "Patient/42c84331-3931-4f56-a9d6-93691b6904b9"
    }
  }, {
    "fullUrl": "https://madie.cms.gov/Encounter/a466bf30-60e1-45f5-97bd-1dc0a963bb83",
    "resource": {
      "resourceType": "Encounter",
      "id": "a466bf30-60e1-45f5-97bd-1dc0a963bb83",
      "meta": {
        "profile": [ "http://hl7.org/fhir/us/qicore/StructureDefinition/qicore-encounter" ]
      },
      "status": "finished",
      "class": {
        "system": "http://terminology.hl7.org/CodeSystem/v3-ActCode",
        "code": "IMP",
        "display": "inpatient encounter"
      },
      "type": [ {
        "coding": [ {
          "system": "http://snomed.info/sct",
          "code": "8715000"
        } ]
      } ],
      "subject": {
        "reference": "Patient/42c84331-3931-4f56-a9d6-93691b6904b9"
      },
      "period": {
        "start": "2026-12-04T08:00:00.000+00:00",
        "end": "2026-12-15T08:15:00.000+00:00"
      },
      "length": {
        "value": 11.0,
        "unit": "days"
      },
      "location": [ {
        "location": {
          "reference": "Location/ecb8fc19-585e-4f1a-9660-8c38b66f8cb0"
        },
        "period": {
          "start": "2026-12-15T09:00:00.000+00:00",
          "end": "2026-12-16T08:15:00.000+00:00"
        }
      } ]
    },
    "request": {
      "method": "PUT",
      "url": "Encounter/a466bf30-60e1-45f5-97bd-1dc0a963bb83"
    }
  }, {
    "fullUrl": "https://madie.cms.gov/Location/ecb8fc19-585e-4f1a-9660-8c38b66f8cb0",
    "resource": {
      "resourceType": "Location",
      "id": "ecb8fc19-585e-4f1a-9660-8c38b66f8cb0",
      "meta": {
        "profile": [ "http://hl7.org/fhir/us/qicore/StructureDefinition/qicore-location" ]
      },
      "identifier": [ {
        "use": "usual",
        "system": "http://exampleoflocation.com",
        "value": "B1-S.F2"
      } ],
      "name": "Medical Surgical East, first floor",
      "type": [ {
        "coding": [ {
          "system": "https://www.cdc.gov/nhsn/cdaportal/terminology/codesystem/hsloc.html",
          "version": "2020",
          "code": "1025-6",
          "display": "Trauma Critical Care",
          "userSelected": true
        } ]
      } ]
    },
    "request": {
      "method": "PUT",
      "url": "Location/ecb8fc19-585e-4f1a-9660-8c38b66f8cb0"
    }
  }, {
    "fullUrl": "https://madie.cms.gov/Coverage/9fd77f7a-812a-4882-be36-fe548747c7d4",
    "resource": {
      "resourceType": "Coverage",
      "id": "9fd77f7a-812a-4882-be36-fe548747c7d4",
      "status": "active",
      "beneficiary": {
        "reference": "Patient/42c84331-3931-4f56-a9d6-93691b6904b9"
      },
      "period": {
        "start": "1975-03-03T08:00:00.000+00:00"
      },
      "payor": [ {
        "reference": "Organization/facfd8c0-16f9-4c49-a012-65026d92d5f9"
      } ]
    },
    "request": {
      "method": "PUT",
      "url": "Coverage/9fd77f7a-812a-4882-be36-fe548747c7d4"
    }
  }, {
    "fullUrl": "https://madie.cms.gov/Organization/facfd8c0-16f9-4c49-a012-65026d92d5f9",
    "resource": {
      "resourceType": "Organization",
      "id": "facfd8c0-16f9-4c49-a012-65026d92d5f9",
      "meta": {
        "profile": [ "http://hl7.org/fhir/us/qicore/StructureDefinition/qicore-organization" ]
      },
      "identifier": [ {
        "use": "temp",
        "system": "urn:oid:2.16.840.1.113883.4.4",
        "value": "21-3259825"
      } ],
      "active": true,
      "type": [ {
        "coding": [ {
          "system": "http://terminology.hl7.org/CodeSystem/organization-type",
          "code": "pay",
          "display": "Payer"
        } ]
      } ],
      "name": "Blue Cross Blue Shield of Texas",
      "telecom": [ {
        "system": "phone",
        "value": "(+1) 972-766-6900"
      } ],
      "address": [ {
        "use": "billing",
        "type": "postal",
        "line": [ "P.O. Box 660044" ],
        "city": "Dallas",
        "state": "TX",
        "postalCode": "75266-0044",
        "country": "USA"
      } ]
    },
    "request": {
      "method": "PUT",
      "url": "Organization/facfd8c0-16f9-4c49-a012-65026d92d5f9"
    }
  }, {
    "fullUrl": "https://madie.cms.gov/Practitioner/8112f9d0-1965-439c-8c26-3c5283982eaa",
    "resource": {
      "resourceType": "Practitioner",
      "id": "8112f9d0-1965-439c-8c26-3c5283982eaa",
      "identifier": [ {
        "system": "http://hl7.org/fhir/sid/us-npi",
        "value": "123456"
      } ],
      "name": [ {
        "family": "Evil",
        "prefix": [ "Dr" ]
      } ]
    },
    "request": {
      "method": "PUT",
      "url": "Practitioner/8112f9d0-1965-439c-8c26-3c5283982eaa"
    }
  }, {
    "fullUrl": "https://madie.cms.gov/MeasureReport/03e32bd5-7f14-4e32-b028-2d938bfb433c",
    "resource": {
      "resourceType": "MeasureReport",
      "id": "03e32bd5-7f14-4e32-b028-2d938bfb433c",
      "meta": {
        "profile": [ "http://hl7.org/fhir/us/cqfmeasures/StructureDefinition/test-case-cqfm" ]
      },
      "contained": [ {
        "resourceType": "Parameters",
        "id": "86e4a06e-623f-4ec6-9596-8ba188a63fd5-parameters",
        "parameter": [ {
          "name": "subject",
          "valueString": "42c84331-3931-4f56-a9d6-93691b6904b9"
        } ]
      } ],
      "extension": [ {
        "url": "http://hl7.org/fhir/StructureDefinition/cqf-inputParameters",
        "valueReference": {
          "reference": "#86e4a06e-623f-4ec6-9596-8ba188a63fd5-parameters"
        }
      }, {
        "url": "http://hl7.org/fhir/us/cqfmeasures/StructureDefinition/cqfm-testCaseDescription",
        "valueMarkdown": "ICU admission after IP encounter ends\n"
      } ],
      "modifierExtension": [ {
        "url": "http://hl7.org/fhir/us/cqfmeasures/StructureDefinition/cqfm-isTestCase",
        "valueBoolean": true
      } ],
      "status": "complete",
      "type": "individual",
      "measure": "https://madie.cms.gov/Measure/CMS190VTEProphylaxisICUFHIR",
      "period": {
        "start": "2026-01-01",
        "end": "2026-12-31"
      },
      "group": [ {
        "id": "Group_1",
        "population": [ {
          "id": "InitialPopulation_1",
          "code": {
            "coding": [ {
              "system": "http://terminology.hl7.org/CodeSystem/measure-population",
              "code": "initial-population",
              "display": "Initial Population"
            } ]
          },
          "count": 1
        }, {
          "id": "Denominator_1",
          "code": {
            "coding": [ {
              "system": "http://terminology.hl7.org/CodeSystem/measure-population",
              "code": "denominator",
              "display": "Denominator"
            } ]
          },
          "count": 0
        }, {
          "id": "DenominatorExclusion_1",
          "code": {
            "coding": [ {
              "system": "http://terminology.hl7.org/CodeSystem/measure-population",
              "code": "denominator-exclusion",
              "display": "Denominator Exclusion"
            } ]
          },
          "count": 0
        }, {
          "id": "Numerator_1",
          "code": {
            "coding": [ {
              "system": "http://terminology.hl7.org/CodeSystem/measure-population",
              "code": "numerator",
              "display": "Numerator"
            } ]
          },
          "count": 0
        }, {
          "id": "DenominatorException_1",
          "code": {
            "coding": [ {
              "system": "http://terminology.hl7.org/CodeSystem/measure-population",
              "code": "denominator-exception",
              "display": "Denominator Exception"
            } ]
          },
          "count": 0
        } ],
        "measureScore": {
          "value": 0.0
        }
      } ],
      "evaluatedResource": [ {
        "reference": "Patient/42c84331-3931-4f56-a9d6-93691b6904b9"
      }, {
        "reference": "Encounter/a466bf30-60e1-45f5-97bd-1dc0a963bb83"
      }, {
        "reference": "Location/ecb8fc19-585e-4f1a-9660-8c38b66f8cb0"
      }, {
        "reference": "Coverage/9fd77f7a-812a-4882-be36-fe548747c7d4"
      }, {
        "reference": "Organization/facfd8c0-16f9-4c49-a012-65026d92d5f9"
      }, {
        "reference": "Practitioner/8112f9d0-1965-439c-8c26-3c5283982eaa"
      } ]
    },
    "request": {
      "method": "PUT",
      "url": "MeasureReport/03e32bd5-7f14-4e32-b028-2d938bfb433c"
    }
  } ]
}