{"resourceType":"Bundle","id":"tests-9b5e4d84-366b-4082-8409-b7e18e0a3c45-bundle","type":"transaction","entry":[{"fullUrl":"Organization/529eed8a-f5f9-433b-ac04-a543b3e62d4c","resource":{"resourceType":"Organization","id":"529eed8a-f5f9-433b-ac04-a543b3e62d4c","meta":{"profile":["http://hl7.org/fhir/us/qicore/StructureDefinition/qicore-organization"]},"identifier":[{"use":"temp","system":"urn:oid:2.16.840.1.113883.4.4","value":"21-3259825"}],"active":true,"type":[{"coding":[{"system":"http://terminology.hl7.org/CodeSystem/organization-type","code":"pay","display":"Payer"}]}],"name":"Blue Cross Blue Shield of Texas","telecom":[{"system":"phone","value":"(+1) 972-766-6900"}],"address":[{"use":"billing","type":"postal","line":["P.O. Box 660044"],"city":"Dallas","state":"TX","postalCode":"75266-0044","country":"USA"}]},"request":{"method":"PUT","url":"Organization/529eed8a-f5f9-433b-ac04-a543b3e62d4c"}},{"fullUrl":"Condition/82ff7892-5d23-4d01-b3c3-873d88a5a4ac","resource":{"resourceType":"Condition","id":"82ff7892-5d23-4d01-b3c3-873d88a5a4ac","meta":{"profile":["http://hl7.org/fhir/us/qicore/StructureDefinition/qicore-condition-encounter-diagnosis"]},"category":[{"coding":[{"system":"http://terminology.hl7.org/CodeSystem/condition-category","code":"encounter-diagnosis","display":"Encounter Diagnosis"}]}],"code":{"coding":[{"system":"http://snomed.info/sct","version":"2023-09","code":"10349009","display":"Multi-infarct dementia with delirium (disorder)","userSelected":true}]},"subject":{"reference":"Patient/9b5e4d84-366b-4082-8409-b7e18e0a3c45"},"recordedDate":"2027-04-09T08:00:00.000+00:00"},"request":{"method":"PUT","url":"Condition/82ff7892-5d23-4d01-b3c3-873d88a5a4ac"}},{"fullUrl":"Location/550bb43d-a3ef-4b30-b942-4e130813cbaa","resource":{"resourceType":"Location","id":"550bb43d-a3ef-4b30-b942-4e130813cbaa","meta":{"profile":["http://hl7.org/fhir/us/qicore/StructureDefinition/qicore-location"]},"identifier":[{"use":"usual","system":"http://exampleoflocation.com","value":"B1-S.F2"}],"name":"Medical Surgical East, first floor","type":[{"coding":[{"system":"https://www.cdc.gov/nhsn/cdaportal/terminology/codesystem/hsloc.html","version":"2022","code":"1108-0","display":"Emergency Department","userSelected":true}]}]},"request":{"method":"PUT","url":"Location/550bb43d-a3ef-4b30-b942-4e130813cbaa"}},{"fullUrl":"Practitioner/7bdf329b-0af3-4125-9aea-486c8c6ecbde","resource":{"resourceType":"Practitioner","id":"7bdf329b-0af3-4125-9aea-486c8c6ecbde","meta":{"profile":["http://hl7.org/fhir/us/qicore/StructureDefinition/qicore-practitioner"]},"identifier":[{"system":"http://hl7.org/fhir/sid/us-npi","value":"9999999896"}],"name":[{"family":"Evil","prefix":["Dr"]}]},"request":{"method":"PUT","url":"Practitioner/7bdf329b-0af3-4125-9aea-486c8c6ecbde"}},{"fullUrl":"Patient/9b5e4d84-366b-4082-8409-b7e18e0a3c45","resource":{"resourceType":"Patient","id":"9b5e4d84-366b-4082-8409-b7e18e0a3c45","meta":{"profile":["http://hl7.org/fhir/us/qicore/StructureDefinition/qicore-patient"]},"extension":[{"url":"http://hl7.org/fhir/us/core/StructureDefinition/us-core-race","extension":[{"url":"ombCategory","valueCoding":{"system":"urn:oid:2.16.840.1.113883.6.238","code":"1002-5","display":"American Indian or Alaska Native","userSelected":true}},{"url":"text","valueString":"American Indian or Alaska Native"}]},{"url":"http://hl7.org/fhir/us/core/StructureDefinition/us-core-ethnicity","extension":[{"url":"ombCategory","valueCoding":{"system":"urn:oid:2.16.840.1.113883.6.238","code":"2135-2","display":"Hispanic or Latino","userSelected":true}},{"url":"text","valueString":"Hispanic or Latino"}]},{"url":"http://hl7.org/fhir/us/core/StructureDefinition/us-core-sex","valueCode":"248153007"}],"identifier":[{"type":{"coding":[{"system":"http://terminology.hl7.org/CodeSystem/v2-0203","code":"MR"}]},"system":"https://bonnie-fhir.healthit.gov/","value":"661476b015ed5841a5547ebf"}],"name":[{"family":"NUMERStrat4Pass","given":["Boarded241MinOrderAdmit"]}],"gender":"male","birthDate":"2008-01-01"},"request":{"method":"PUT","url":"Patient/9b5e4d84-366b-4082-8409-b7e18e0a3c45"}},{"fullUrl":"ServiceRequest/cfecb134-1f98-4947-b844-9f307932954e","resource":{"resourceType":"ServiceRequest","id":"cfecb134-1f98-4947-b844-9f307932954e","meta":{"profile":["http://hl7.org/fhir/us/qicore/StructureDefinition/qicore-servicerequest"]},"status":"active","intent":"order","code":{"coding":[{"system":"http://snomed.info/sct","version":"2023-09","code":"19951005","display":"Hospital admission, emergency, from emergency room, medical nature (procedure)","userSelected":true}]},"subject":{"reference":"Patient/9b5e4d84-366b-4082-8409-b7e18e0a3c45"},"authoredOn":"2027-05-01T19:58:00.000+00:00"},"request":{"method":"PUT","url":"ServiceRequest/cfecb134-1f98-4947-b844-9f307932954e"}},{"fullUrl":"Bundle/661476b015ed5841a5547ebf","resource":{"resourceType":"Bundle","id":"661476b015ed5841a5547ebf","type":"transaction","entry":[{"fullUrl":"https://madie.cms.gov/Patient/9b5e4d84-366b-4082-8409-b7e18e0a3c45","resource":{"resourceType":"Patient","id":"9b5e4d84-366b-4082-8409-b7e18e0a3c45","meta":{"profile":["http://hl7.org/fhir/us/qicore/StructureDefinition/qicore-patient"]},"extension":[{"url":"http://hl7.org/fhir/us/core/StructureDefinition/us-core-race","extension":[{"url":"ombCategory","valueCoding":{"system":"urn:oid:2.16.840.1.113883.6.238","code":"1002-5","display":"American Indian or Alaska Native","userSelected":true}},{"url":"text","valueString":"American Indian or Alaska Native"}]},{"url":"http://hl7.org/fhir/us/core/StructureDefinition/us-core-ethnicity","extension":[{"url":"ombCategory","valueCoding":{"system":"urn:oid:2.16.840.1.113883.6.238","code":"2135-2","display":"Hispanic or Latino","userSelected":true}},{"url":"text","valueString":"Hispanic or Latino"}]},{"url":"http://hl7.org/fhir/us/core/StructureDefinition/us-core-sex","valueCode":"248153007"}],"identifier":[{"type":{"coding":[{"system":"http://terminology.hl7.org/CodeSystem/v2-0203","code":"MR"}]},"system":"https://bonnie-fhir.healthit.gov/","value":"661476b015ed5841a5547ebf"}],"name":[{"family":"NUMERStrat4Pass","given":["Boarded241MinOrderAdmit"]}],"gender":"male","birthDate":"2008-01-01"},"request":{"method":"PUT","url":"Patient/9b5e4d84-366b-4082-8409-b7e18e0a3c45"}},{"fullUrl":"https://madie.cms.gov/Encounter/2d7410a8-d93c-41f9-8990-14b09a65466c","resource":{"resourceType":"Encounter","id":"2d7410a8-d93c-41f9-8990-14b09a65466c","meta":{"profile":["http://hl7.org/fhir/us/qicore/StructureDefinition/qicore-encounter"]},"status":"finished","class":{"system":"http://terminology.hl7.org/CodeSystem/v3-ActCode","code":"EMER","display":"emergency department"},"type":[{"coding":[{"system":"http://snomed.info/sct","version":"2023-09","code":"4525004","display":"Emergency department patient visit (procedure)","userSelected":true}]}],"subject":{"reference":"Patient/9b5e4d84-366b-4082-8409-b7e18e0a3c45"},"period":{"start":"2027-05-01T19:58:00.000+00:00","end":"2027-05-01T23:59:00.000+00:00"},"diagnosis":[{"condition":{"reference":"Condition/82ff7892-5d23-4d01-b3c3-873d88a5a4ac"},"use":{"coding":[{"system":"http://terminology.hl7.org/CodeSystem/diagnosis-role","code":"billing"}]},"rank":1}],"location":[{"location":{"reference":"Location/550bb43d-a3ef-4b30-b942-4e130813cbaa"},"period":{"start":"2027-05-01T19:58:00.000+00:00","end":"2027-05-01T23:59:00.000+00:00"}}]},"request":{"method":"PUT","url":"Encounter/2d7410a8-d93c-41f9-8990-14b09a65466c"}},{"fullUrl":"https://madie.cms.gov/ServiceRequest/cfecb134-1f98-4947-b844-9f307932954e","resource":{"resourceType":"ServiceRequest","id":"cfecb134-1f98-4947-b844-9f307932954e","meta":{"profile":["http://hl7.org/fhir/us/qicore/StructureDefinition/qicore-servicerequest"]},"status":"active","intent":"order","code":{"coding":[{"system":"http://snomed.info/sct","version":"2023-09","code":"19951005","display":"Hospital admission, emergency, from emergency room, medical nature (procedure)","userSelected":true}]},"subject":{"reference":"Patient/9b5e4d84-366b-4082-8409-b7e18e0a3c45"},"authoredOn":"2027-05-01T19:58:00.000+00:00"},"request":{"method":"PUT","url":"ServiceRequest/cfecb134-1f98-4947-b844-9f307932954e"}},{"fullUrl":"https://madie.cms.gov/Location/550bb43d-a3ef-4b30-b942-4e130813cbaa","resource":{"resourceType":"Location","id":"550bb43d-a3ef-4b30-b942-4e130813cbaa","meta":{"profile":["http://hl7.org/fhir/us/qicore/StructureDefinition/qicore-location"]},"identifier":[{"use":"usual","system":"http://exampleoflocation.com","value":"B1-S.F2"}],"name":"Medical Surgical East, first floor","type":[{"coding":[{"system":"https://www.cdc.gov/nhsn/cdaportal/terminology/codesystem/hsloc.html","version":"2022","code":"1108-0","display":"Emergency Department","userSelected":true}]}]},"request":{"method":"PUT","url":"Location/550bb43d-a3ef-4b30-b942-4e130813cbaa"}},{"fullUrl":"https://madie.cms.gov/Coverage/d38afb67-de78-411f-8bb0-e81857853467","resource":{"resourceType":"Coverage","id":"d38afb67-de78-411f-8bb0-e81857853467","meta":{"profile":["http://hl7.org/fhir/us/qicore/StructureDefinition/qicore-coverage"]},"identifier":[{"type":{"coding":[{"system":"http://terminology.hl7.org/CodeSystem/v2-0203","code":"MB"}]}}],"status":"active","beneficiary":{"reference":"Patient/9b5e4d84-366b-4082-8409-b7e18e0a3c45"},"relationship":{"coding":[{"system":"http://terminology.hl7.org/CodeSystem/subscriber-relationship","code":"self"}]},"payor":[{"reference":"Organization/529eed8a-f5f9-433b-ac04-a543b3e62d4c"}]},"request":{"method":"PUT","url":"Coverage/d38afb67-de78-411f-8bb0-e81857853467"}},{"fullUrl":"https://madie.cms.gov/Condition/82ff7892-5d23-4d01-b3c3-873d88a5a4ac","resource":{"resourceType":"Condition","id":"82ff7892-5d23-4d01-b3c3-873d88a5a4ac","meta":{"profile":["http://hl7.org/fhir/us/qicore/StructureDefinition/qicore-condition-encounter-diagnosis"]},"category":[{"coding":[{"system":"http://terminology.hl7.org/CodeSystem/condition-category","code":"encounter-diagnosis","display":"Encounter Diagnosis"}]}],"code":{"coding":[{"system":"http://snomed.info/sct","version":"2023-09","code":"10349009","display":"Multi-infarct dementia with delirium (disorder)","userSelected":true}]},"subject":{"reference":"Patient/9b5e4d84-366b-4082-8409-b7e18e0a3c45"},"recordedDate":"2027-04-09T08:00:00.000+00:00"},"request":{"method":"PUT","url":"Condition/82ff7892-5d23-4d01-b3c3-873d88a5a4ac"}},{"fullUrl":"https://madie.cms.gov/Encounter/bdd70e07-7744-4437-a6c4-3adf9311273d","resource":{"resourceType":"Encounter","id":"bdd70e07-7744-4437-a6c4-3adf9311273d","meta":{"profile":["http://hl7.org/fhir/us/qicore/StructureDefinition/qicore-encounter"]},"status":"finished","class":{"system":"http://terminology.hl7.org/CodeSystem/v3-ActCode","code":"IMP","display":"inpatient"},"type":[{"coding":[{"system":"http://snomed.info/sct","version":"2023-09","code":"8715000","display":"Hospital admission, elective (procedure)","userSelected":true}]}],"subject":{"reference":"Patient/9b5e4d84-366b-4082-8409-b7e18e0a3c45"},"period":{"start":"2027-05-01T23:59:00.000+00:00","end":"2027-05-03T08:00:00.000+00:00"}},"request":{"method":"PUT","url":"Encounter/bdd70e07-7744-4437-a6c4-3adf9311273d"}},{"fullUrl":"https://madie.cms.gov/claim/ClaimBehavior-NotSubsAbuse","resource":{"resourceType":"Claim","id":"ClaimBehavior-NotSubsAbuse","meta":{"profile":["http://hl7.org/fhir/us/qicore/StructureDefinition/qicore-claim"]},"status":"active","type":{"coding":[{"system":"http://terminology.hl7.org/CodeSystem/claim-type","code":"institutional"}]},"use":"claim","patient":{"reference":"Patient/9b5e4d84-366b-4082-8409-b7e18e0a3c45"},"created":"2027-05-01","provider":{"reference":"Practitioner/7bdf329b-0af3-4125-9aea-486c8c6ecbde"},"priority":{"coding":[{"system":"http://terminology.hl7.org/CodeSystem/processpriority","code":"normal"}]},"diagnosis":[{"sequence":1,"diagnosisReference":{"reference":"Condition/82ff7892-5d23-4d01-b3c3-873d88a5a4ac"},"type":[{"coding":[{"system":"http://terminology.hl7.org/CodeSystem/ex-diagnosistype","code":"principal"}]}]}],"insurance":[{"sequence":1,"focal":true,"coverage":{"reference":"Coverage/d38afb67-de78-411f-8bb0-e81857853467"}}],"item":[{"sequence":1,"diagnosisSequence":[1],"productOrService":{"coding":[{"system":"http://terminology.hl7.org/CodeSystem/ex-USCLS","code":"99555"}]},"encounter":[{"reference":"Encounter/2d7410a8-d93c-41f9-8990-14b09a65466c"}]}]},"request":{"method":"PUT","url":"Claim/ClaimBehavior-NotSubsAbuse"}},{"fullUrl":"https://madie.cms.gov/Organization/529eed8a-f5f9-433b-ac04-a543b3e62d4c","resource":{"resourceType":"Organization","id":"529eed8a-f5f9-433b-ac04-a543b3e62d4c","meta":{"profile":["http://hl7.org/fhir/us/qicore/StructureDefinition/qicore-organization"]},"identifier":[{"use":"temp","system":"urn:oid:2.16.840.1.113883.4.4","value":"21-3259825"}],"active":true,"type":[{"coding":[{"system":"http://terminology.hl7.org/CodeSystem/organization-type","code":"pay","display":"Payer"}]}],"name":"Blue Cross Blue Shield of Texas","telecom":[{"system":"phone","value":"(+1) 972-766-6900"}],"address":[{"use":"billing","type":"postal","line":["P.O. Box 660044"],"city":"Dallas","state":"TX","postalCode":"75266-0044","country":"USA"}]},"request":{"method":"PUT","url":"Organization/529eed8a-f5f9-433b-ac04-a543b3e62d4c"}},{"fullUrl":"https://madie.cms.gov/Practitioner/7bdf329b-0af3-4125-9aea-486c8c6ecbde","resource":{"resourceType":"Practitioner","id":"7bdf329b-0af3-4125-9aea-486c8c6ecbde","meta":{"profile":["http://hl7.org/fhir/us/qicore/StructureDefinition/qicore-practitioner"]},"identifier":[{"system":"http://hl7.org/fhir/sid/us-npi","value":"9999999896"}],"name":[{"family":"Evil","prefix":["Dr"]}]},"request":{"method":"PUT","url":"Practitioner/7bdf329b-0af3-4125-9aea-486c8c6ecbde"}},{"fullUrl":"https://madie.cms.gov/MeasureReport/cbf0163f-4221-4f97-ac25-e1e811d91bd6","resource":{"resourceType":"MeasureReport","id":"cbf0163f-4221-4f97-ac25-e1e811d91bd6","meta":{"profile":["http://hl7.org/fhir/us/cqfmeasures/StructureDefinition/test-case-cqfm"]},"contained":[{"resourceType":"Parameters","id":"78e22b24-ed80-49ca-8661-b29f9cba9bd9-parameters","parameter":[{"name":"subject","valueString":"9b5e4d84-366b-4082-8409-b7e18e0a3c45"}]}],"extension":[{"url":"http://hl7.org/fhir/StructureDefinition/cqf-inputParameters","valueReference":{"reference":"#78e22b24-ed80-49ca-8661-b29f9cba9bd9-parameters"}},{"url":"http://hl7.org/fhir/us/cqfmeasures/StructureDefinition/cqfm-testCaseDescription","valueMarkdown":"Adult, age 18, ED enc, order to admit, boarded 241 minutes (time from decision to admit to departure) , mental illness"}],"modifierExtension":[{"url":"http://hl7.org/fhir/us/cqfmeasures/StructureDefinition/cqfm-isTestCase","valueBoolean":true}],"status":"complete","type":"individual","measure":"https://madie.cms.gov/Measure/CMS1244FHIRECATHOQR","period":{"start":"2027-01-01","end":"2027-12-31"},"group":[{"id":"Group_1","population":[{"id":"InitialPopulation_1","code":{"coding":[{"system":"http://terminology.hl7.org/CodeSystem/measure-population","code":"initial-population","display":"Initial Population"}]},"count":1},{"id":"Denominator_1","code":{"coding":[{"system":"http://terminology.hl7.org/CodeSystem/measure-population","code":"denominator","display":"Denominator"}]},"count":1},{"id":"Numerator_1","code":{"coding":[{"system":"http://terminology.hl7.org/CodeSystem/measure-population","code":"numerator","display":"Numerator"}]},"count":1}],"measureScore":{"value":0.0},"stratifier":[{"id":"Stratification_1_1","code":[{"text":"Strata-1"}],"stratum":[{"value":{"text":"Strata-1"},"population":[{"id":"InitialPopulation_1","code":{"coding":[{"system":"http://terminology.hl7.org/CodeSystem/measure-population","code":"initial-population","display":"Initial Population"}]},"count":0},{"id":"Denominator_1","code":{"coding":[{"system":"http://terminology.hl7.org/CodeSystem/measure-population","code":"denominator","display":"Denominator"}]},"count":0},{"id":"Numerator_1","code":{"coding":[{"system":"http://terminology.hl7.org/CodeSystem/measure-population","code":"numerator","display":"Numerator"}]},"count":0}]}]},{"id":"Stratification_1_2","code":[{"text":"Strata-2"}],"stratum":[{"value":{"text":"Strata-2"},"population":[{"id":"InitialPopulation_1","code":{"coding":[{"system":"http://terminology.hl7.org/CodeSystem/measure-population","code":"initial-population","display":"Initial Population"}]},"count":0},{"id":"Denominator_1","code":{"coding":[{"system":"http://terminology.hl7.org/CodeSystem/measure-population","code":"denominator","display":"Denominator"}]},"count":0},{"id":"Numerator_1","code":{"coding":[{"system":"http://terminology.hl7.org/CodeSystem/measure-population","code":"numerator","display":"Numerator"}]},"count":0}]}]},{"id":"Stratification_1_3","code":[{"text":"Strata-3"}],"stratum":[{"value":{"text":"Strata-3"},"population":[{"id":"InitialPopulation_1","code":{"coding":[{"system":"http://terminology.hl7.org/CodeSystem/measure-population","code":"initial-population","display":"Initial Population"}]},"count":0},{"id":"Denominator_1","code":{"coding":[{"system":"http://terminology.hl7.org/CodeSystem/measure-population","code":"denominator","display":"Denominator"}]},"count":0},{"id":"Numerator_1","code":{"coding":[{"system":"http://terminology.hl7.org/CodeSystem/measure-population","code":"numerator","display":"Numerator"}]},"count":0}]}]},{"id":"Stratification_1_4","code":[{"text":"Strata-4"}],"stratum":[{"value":{"text":"Strata-4"},"population":[{"id":"InitialPopulation_1","code":{"coding":[{"system":"http://terminology.hl7.org/CodeSystem/measure-population","code":"initial-population","display":"Initial Population"}]},"count":1},{"id":"Denominator_1","code":{"coding":[{"system":"http://terminology.hl7.org/CodeSystem/measure-population","code":"denominator","display":"Denominator"}]},"count":1},{"id":"Numerator_1","code":{"coding":[{"system":"http://terminology.hl7.org/CodeSystem/measure-population","code":"numerator","display":"Numerator"}]},"count":1}]}]}]}],"evaluatedResource":[{"reference":"Patient/9b5e4d84-366b-4082-8409-b7e18e0a3c45"},{"reference":"Encounter/2d7410a8-d93c-41f9-8990-14b09a65466c"},{"reference":"ServiceRequest/cfecb134-1f98-4947-b844-9f307932954e"},{"reference":"Location/550bb43d-a3ef-4b30-b942-4e130813cbaa"},{"reference":"Coverage/d38afb67-de78-411f-8bb0-e81857853467"},{"reference":"Condition/82ff7892-5d23-4d01-b3c3-873d88a5a4ac"},{"reference":"Encounter/bdd70e07-7744-4437-a6c4-3adf9311273d"},{"reference":"Claim/ClaimBehavior-NotSubsAbuse"},{"reference":"Organization/529eed8a-f5f9-433b-ac04-a543b3e62d4c"},{"reference":"Practitioner/7bdf329b-0af3-4125-9aea-486c8c6ecbde"}]},"request":{"method":"PUT","url":"MeasureReport/cbf0163f-4221-4f97-ac25-e1e811d91bd6"}}]},"request":{"method":"PUT","url":"Bundle/661476b015ed5841a5547ebf"}},{"fullUrl":"Encounter/2d7410a8-d93c-41f9-8990-14b09a65466c","resource":{"resourceType":"Encounter","id":"2d7410a8-d93c-41f9-8990-14b09a65466c","meta":{"profile":["http://hl7.org/fhir/us/qicore/StructureDefinition/qicore-encounter"]},"status":"finished","class":{"system":"http://terminology.hl7.org/CodeSystem/v3-ActCode","code":"EMER","display":"emergency department"},"type":[{"coding":[{"system":"http://snomed.info/sct","version":"2023-09","code":"4525004","display":"Emergency department patient visit (procedure)","userSelected":true}]}],"subject":{"reference":"Patient/9b5e4d84-366b-4082-8409-b7e18e0a3c45"},"period":{"start":"2027-05-01T19:58:00.000+00:00","end":"2027-05-01T23:59:00.000+00:00"},"diagnosis":[{"condition":{"reference":"Condition/82ff7892-5d23-4d01-b3c3-873d88a5a4ac"},"use":{"coding":[{"system":"http://terminology.hl7.org/CodeSystem/diagnosis-role","code":"billing"}]},"rank":1}],"location":[{"location":{"reference":"Location/550bb43d-a3ef-4b30-b942-4e130813cbaa"},"period":{"start":"2027-05-01T19:58:00.000+00:00","end":"2027-05-01T23:59:00.000+00:00"}}]},"request":{"method":"PUT","url":"Encounter/2d7410a8-d93c-41f9-8990-14b09a65466c"}},{"fullUrl":"Encounter/bdd70e07-7744-4437-a6c4-3adf9311273d","resource":{"resourceType":"Encounter","id":"bdd70e07-7744-4437-a6c4-3adf9311273d","meta":{"profile":["http://hl7.org/fhir/us/qicore/StructureDefinition/qicore-encounter"]},"status":"finished","class":{"system":"http://terminology.hl7.org/CodeSystem/v3-ActCode","code":"IMP","display":"inpatient"},"type":[{"coding":[{"system":"http://snomed.info/sct","version":"2023-09","code":"8715000","display":"Hospital admission, elective (procedure)","userSelected":true}]}],"subject":{"reference":"Patient/9b5e4d84-366b-4082-8409-b7e18e0a3c45"},"period":{"start":"2027-05-01T23:59:00.000+00:00","end":"2027-05-03T08:00:00.000+00:00"}},"request":{"method":"PUT","url":"Encounter/bdd70e07-7744-4437-a6c4-3adf9311273d"}},{"fullUrl":"MeasureReport/cbf0163f-4221-4f97-ac25-e1e811d91bd6","resource":{"resourceType":"MeasureReport","id":"cbf0163f-4221-4f97-ac25-e1e811d91bd6","meta":{"profile":["http://hl7.org/fhir/us/cqfmeasures/StructureDefinition/test-case-cqfm"]},"contained":[{"resourceType":"Parameters","id":"78e22b24-ed80-49ca-8661-b29f9cba9bd9-parameters","parameter":[{"name":"subject","valueString":"9b5e4d84-366b-4082-8409-b7e18e0a3c45"}]}],"extension":[{"url":"http://hl7.org/fhir/StructureDefinition/cqf-inputParameters","valueReference":{"reference":"#78e22b24-ed80-49ca-8661-b29f9cba9bd9-parameters"}},{"url":"http://hl7.org/fhir/us/cqfmeasures/StructureDefinition/cqfm-testCaseDescription","valueMarkdown":"Adult, age 18, ED enc, order to admit, boarded 241 minutes (time from decision to admit to departure) , mental illness"}],"modifierExtension":[{"url":"http://hl7.org/fhir/us/cqfmeasures/StructureDefinition/cqfm-isTestCase","valueBoolean":true}],"status":"complete","type":"individual","measure":"https://madie.cms.gov/Measure/CMS1244FHIRECATHOQR","period":{"start":"2027-01-01","end":"2027-12-31"},"group":[{"id":"Group_1","population":[{"id":"InitialPopulation_1","code":{"coding":[{"system":"http://terminology.hl7.org/CodeSystem/measure-population","code":"initial-population","display":"Initial Population"}]},"count":1},{"id":"Denominator_1","code":{"coding":[{"system":"http://terminology.hl7.org/CodeSystem/measure-population","code":"denominator","display":"Denominator"}]},"count":1},{"id":"Numerator_1","code":{"coding":[{"system":"http://terminology.hl7.org/CodeSystem/measure-population","code":"numerator","display":"Numerator"}]},"count":1}],"measureScore":{"value":0.0},"stratifier":[{"id":"Stratification_1_1","code":[{"text":"Strata-1"}],"stratum":[{"value":{"text":"Strata-1"},"population":[{"id":"InitialPopulation_1","code":{"coding":[{"system":"http://terminology.hl7.org/CodeSystem/measure-population","code":"initial-population","display":"Initial Population"}]},"count":0},{"id":"Denominator_1","code":{"coding":[{"system":"http://terminology.hl7.org/CodeSystem/measure-population","code":"denominator","display":"Denominator"}]},"count":0},{"id":"Numerator_1","code":{"coding":[{"system":"http://terminology.hl7.org/CodeSystem/measure-population","code":"numerator","display":"Numerator"}]},"count":0}]}]},{"id":"Stratification_1_2","code":[{"text":"Strata-2"}],"stratum":[{"value":{"text":"Strata-2"},"population":[{"id":"InitialPopulation_1","code":{"coding":[{"system":"http://terminology.hl7.org/CodeSystem/measure-population","code":"initial-population","display":"Initial Population"}]},"count":0},{"id":"Denominator_1","code":{"coding":[{"system":"http://terminology.hl7.org/CodeSystem/measure-population","code":"denominator","display":"Denominator"}]},"count":0},{"id":"Numerator_1","code":{"coding":[{"system":"http://terminology.hl7.org/CodeSystem/measure-population","code":"numerator","display":"Numerator"}]},"count":0}]}]},{"id":"Stratification_1_3","code":[{"text":"Strata-3"}],"stratum":[{"value":{"text":"Strata-3"},"population":[{"id":"InitialPopulation_1","code":{"coding":[{"system":"http://terminology.hl7.org/CodeSystem/measure-population","code":"initial-population","display":"Initial Population"}]},"count":0},{"id":"Denominator_1","code":{"coding":[{"system":"http://terminology.hl7.org/CodeSystem/measure-population","code":"denominator","display":"Denominator"}]},"count":0},{"id":"Numerator_1","code":{"coding":[{"system":"http://terminology.hl7.org/CodeSystem/measure-population","code":"numerator","display":"Numerator"}]},"count":0}]}]},{"id":"Stratification_1_4","code":[{"text":"Strata-4"}],"stratum":[{"value":{"text":"Strata-4"},"population":[{"id":"InitialPopulation_1","code":{"coding":[{"system":"http://terminology.hl7.org/CodeSystem/measure-population","code":"initial-population","display":"Initial Population"}]},"count":1},{"id":"Denominator_1","code":{"coding":[{"system":"http://terminology.hl7.org/CodeSystem/measure-population","code":"denominator","display":"Denominator"}]},"count":1},{"id":"Numerator_1","code":{"coding":[{"system":"http://terminology.hl7.org/CodeSystem/measure-population","code":"numerator","display":"Numerator"}]},"count":1}]}]}]}],"evaluatedResource":[{"reference":"Patient/9b5e4d84-366b-4082-8409-b7e18e0a3c45"},{"reference":"Encounter/2d7410a8-d93c-41f9-8990-14b09a65466c"},{"reference":"ServiceRequest/cfecb134-1f98-4947-b844-9f307932954e"},{"reference":"Location/550bb43d-a3ef-4b30-b942-4e130813cbaa"},{"reference":"Coverage/d38afb67-de78-411f-8bb0-e81857853467"},{"reference":"Condition/82ff7892-5d23-4d01-b3c3-873d88a5a4ac"},{"reference":"Encounter/bdd70e07-7744-4437-a6c4-3adf9311273d"},{"reference":"Claim/ClaimBehavior-NotSubsAbuse"},{"reference":"Organization/529eed8a-f5f9-433b-ac04-a543b3e62d4c"},{"reference":"Practitioner/7bdf329b-0af3-4125-9aea-486c8c6ecbde"}]},"request":{"method":"PUT","url":"MeasureReport/cbf0163f-4221-4f97-ac25-e1e811d91bd6"}},{"fullUrl":"Coverage/d38afb67-de78-411f-8bb0-e81857853467","resource":{"resourceType":"Coverage","id":"d38afb67-de78-411f-8bb0-e81857853467","meta":{"profile":["http://hl7.org/fhir/us/qicore/StructureDefinition/qicore-coverage"]},"identifier":[{"type":{"coding":[{"system":"http://terminology.hl7.org/CodeSystem/v2-0203","code":"MB"}]}}],"status":"active","beneficiary":{"reference":"Patient/9b5e4d84-366b-4082-8409-b7e18e0a3c45"},"relationship":{"coding":[{"system":"http://terminology.hl7.org/CodeSystem/subscriber-relationship","code":"self"}]},"payor":[{"reference":"Organization/529eed8a-f5f9-433b-ac04-a543b3e62d4c"}]},"request":{"method":"PUT","url":"Coverage/d38afb67-de78-411f-8bb0-e81857853467"}},{"fullUrl":"Claim/ClaimBehavior-NotSubsAbuse","resource":{"resourceType":"Claim","id":"ClaimBehavior-NotSubsAbuse","meta":{"profile":["http://hl7.org/fhir/us/qicore/StructureDefinition/qicore-claim"]},"status":"active","type":{"coding":[{"system":"http://terminology.hl7.org/CodeSystem/claim-type","code":"institutional"}]},"use":"claim","patient":{"reference":"Patient/9b5e4d84-366b-4082-8409-b7e18e0a3c45"},"created":"2027-05-01","provider":{"reference":"Practitioner/7bdf329b-0af3-4125-9aea-486c8c6ecbde"},"priority":{"coding":[{"system":"http://terminology.hl7.org/CodeSystem/processpriority","code":"normal"}]},"diagnosis":[{"sequence":1,"diagnosisReference":{"reference":"Condition/82ff7892-5d23-4d01-b3c3-873d88a5a4ac"},"type":[{"coding":[{"system":"http://terminology.hl7.org/CodeSystem/ex-diagnosistype","code":"principal"}]}]}],"insurance":[{"sequence":1,"focal":true,"coverage":{"reference":"Coverage/d38afb67-de78-411f-8bb0-e81857853467"}}],"item":[{"sequence":1,"diagnosisSequence":[1],"productOrService":{"coding":[{"system":"http://terminology.hl7.org/CodeSystem/ex-USCLS","code":"99555"}]},"encounter":[{"reference":"Encounter/2d7410a8-d93c-41f9-8990-14b09a65466c"}]}]},"request":{"method":"PUT","url":"Claim/ClaimBehavior-NotSubsAbuse"}}]}