{"resourceType":"Bundle","id":"tests-8e43bc64-4242-494d-b47f-fdbbd3372bbe-bundle","type":"transaction","entry":[{"resource":{"resourceType":"Bundle","id":"661476b015ed5841a5547ebf","type":"transaction","entry":[{"fullUrl":"https://madie.cms.gov/Patient/8e43bc64-4242-494d-b47f-fdbbd3372bbe","resource":{"resourceType":"Patient","id":"8e43bc64-4242-494d-b47f-fdbbd3372bbe","meta":{"profile":["http://hl7.org/fhir/us/qicore/StructureDefinition/qicore-patient"]},"extension":[{"url":"http://hl7.org/fhir/us/core/StructureDefinition/us-core-race","extension":[{"url":"ombCategory","valueCoding":{"system":"urn:oid:2.16.840.1.113883.6.238","code":"1002-5","display":"American Indian or Alaska Native","userSelected":true}},{"url":"text","valueString":"American Indian or Alaska Native"}]},{"url":"http://hl7.org/fhir/us/core/StructureDefinition/us-core-ethnicity","extension":[{"url":"ombCategory","valueCoding":{"system":"urn:oid:2.16.840.1.113883.6.238","code":"2135-2","display":"Hispanic or Latino","userSelected":true}},{"url":"text","valueString":"Hispanic or Latino"}]},{"url":"http://hl7.org/fhir/us/core/StructureDefinition/us-core-sex","valueCode":"248153007"}],"identifier":[{"type":{"coding":[{"system":"http://terminology.hl7.org/CodeSystem/v2-0203","code":"MR"}]},"system":"https://bonnie-fhir.healthit.gov/","value":"661476b015ed5841a5547ebf"}],"name":[{"family":"NUMERStrat3Pass","given":["Boarded241MinOrderAdmit"]}],"gender":"male","birthDate":"2011-01-01"},"request":{"method":"PUT","url":"Patient/8e43bc64-4242-494d-b47f-fdbbd3372bbe"}},{"fullUrl":"https://madie.cms.gov/Encounter/80f30435-aeb7-4005-a599-ced602833333","resource":{"resourceType":"Encounter","id":"80f30435-aeb7-4005-a599-ced602833333","meta":{"profile":["http://hl7.org/fhir/us/qicore/StructureDefinition/qicore-encounter"]},"status":"finished","class":{"system":"http://terminology.hl7.org/CodeSystem/v3-ActCode","code":"EMER","display":"emergency department"},"type":[{"coding":[{"system":"http://snomed.info/sct","version":"2023-09","code":"4525004","display":"Emergency department patient visit (procedure)","userSelected":true}]}],"subject":{"reference":"Patient/8e43bc64-4242-494d-b47f-fdbbd3372bbe"},"period":{"start":"2027-05-01T19:58:00.000+00:00","end":"2027-05-01T23:59:00.000+00:00"},"diagnosis":[{"condition":{"reference":"Condition/9e92f03f-ac8a-4776-8af7-fb4e99cd08e1"},"use":{"coding":[{"system":"http://terminology.hl7.org/CodeSystem/diagnosis-role","code":"billing"}]},"rank":1}],"location":[{"location":{"reference":"Location/a82f1096-579b-4af0-aea9-6e5e77630945"},"period":{"start":"2027-05-01T19:58:00.000+00:00","end":"2027-05-01T23:59:00.000+00:00"}}]},"request":{"method":"PUT","url":"Encounter/80f30435-aeb7-4005-a599-ced602833333"}},{"fullUrl":"https://madie.cms.gov/ServiceRequest/ed618b53-17d8-4f96-970b-dbebd2313670","resource":{"resourceType":"ServiceRequest","id":"ed618b53-17d8-4f96-970b-dbebd2313670","meta":{"profile":["http://hl7.org/fhir/us/qicore/StructureDefinition/qicore-servicerequest"]},"status":"active","intent":"order","code":{"coding":[{"system":"http://snomed.info/sct","version":"2023-09","code":"19951005","display":"Hospital admission, emergency, from emergency room, medical nature (procedure)","userSelected":true}]},"subject":{"reference":"Patient/8e43bc64-4242-494d-b47f-fdbbd3372bbe"},"authoredOn":"2027-05-01T19:58:00.000+00:00"},"request":{"method":"PUT","url":"ServiceRequest/ed618b53-17d8-4f96-970b-dbebd2313670"}},{"fullUrl":"https://madie.cms.gov/Location/a82f1096-579b-4af0-aea9-6e5e77630945","resource":{"resourceType":"Location","id":"a82f1096-579b-4af0-aea9-6e5e77630945","meta":{"profile":["http://hl7.org/fhir/us/qicore/StructureDefinition/qicore-location"]},"identifier":[{"use":"usual","system":"http://exampleoflocation.com","value":"B1-S.F2"}],"name":"Medical Surgical East, first floor","type":[{"coding":[{"system":"https://www.cdc.gov/nhsn/cdaportal/terminology/codesystem/hsloc.html","version":"2022","code":"1108-0","display":"Emergency Department","userSelected":true}]}]},"request":{"method":"PUT","url":"Location/a82f1096-579b-4af0-aea9-6e5e77630945"}},{"fullUrl":"https://madie.cms.gov/claim/ClaimBehavior-NotSubsAbuse","resource":{"resourceType":"Claim","id":"ClaimBehavior-NotSubsAbuse","meta":{"profile":["http://hl7.org/fhir/us/qicore/StructureDefinition/qicore-claim"]},"status":"active","type":{"coding":[{"system":"http://terminology.hl7.org/CodeSystem/claim-type","code":"institutional"}]},"use":"claim","patient":{"reference":"Patient/8e43bc64-4242-494d-b47f-fdbbd3372bbe"},"created":"2027-05-01","provider":{"reference":"Practitioner/04ba0d80-596d-4d07-bc81-7eeb0991be7d"},"priority":{"coding":[{"system":"http://terminology.hl7.org/CodeSystem/processpriority","code":"normal"}]},"diagnosis":[{"sequence":1,"diagnosisReference":{"reference":"Condition/9e92f03f-ac8a-4776-8af7-fb4e99cd08e1"},"type":[{"coding":[{"system":"http://terminology.hl7.org/CodeSystem/ex-diagnosistype","code":"principal"}]}]}],"insurance":[{"sequence":1,"focal":true,"coverage":{"reference":"Coverage/bb0dd678-f1b7-48d9-982d-0b49fca29d7a"}}],"item":[{"sequence":1,"diagnosisSequence":[1],"productOrService":{"coding":[{"system":"http://terminology.hl7.org/CodeSystem/ex-USCLS","code":"99555"}]},"encounter":[{"reference":"Encounter/80f30435-aeb7-4005-a599-ced602833333"}]}]},"request":{"method":"PUT","url":"Claim/ClaimBehavior-NotSubsAbuse"}},{"fullUrl":"https://madie.cms.gov/Coverage/bb0dd678-f1b7-48d9-982d-0b49fca29d7a","resource":{"resourceType":"Coverage","id":"bb0dd678-f1b7-48d9-982d-0b49fca29d7a","meta":{"profile":["http://hl7.org/fhir/us/qicore/StructureDefinition/qicore-coverage"]},"identifier":[{"type":{"coding":[{"system":"http://terminology.hl7.org/CodeSystem/v2-0203","code":"MB"}]}}],"status":"active","beneficiary":{"reference":"Patient/8e43bc64-4242-494d-b47f-fdbbd3372bbe"},"relationship":{"coding":[{"system":"http://terminology.hl7.org/CodeSystem/subscriber-relationship","code":"self"}]},"payor":[{"reference":"Organization/78661894-fda1-440f-a024-d01441d84bdc"}]},"request":{"method":"PUT","url":"Coverage/bb0dd678-f1b7-48d9-982d-0b49fca29d7a"}},{"fullUrl":"https://madie.cms.gov/Condition/9e92f03f-ac8a-4776-8af7-fb4e99cd08e1","resource":{"resourceType":"Condition","id":"9e92f03f-ac8a-4776-8af7-fb4e99cd08e1","meta":{"profile":["http://hl7.org/fhir/us/qicore/StructureDefinition/qicore-condition-encounter-diagnosis"]},"category":[{"coding":[{"system":"http://terminology.hl7.org/CodeSystem/condition-category","code":"encounter-diagnosis","display":"Encounter Diagnosis"}]}],"code":{"coding":[{"system":"http://snomed.info/sct","version":"2023-09","code":"10349009","display":"Multi-infarct dementia with delirium (disorder)","userSelected":true}]},"subject":{"reference":"Patient/8e43bc64-4242-494d-b47f-fdbbd3372bbe"},"recordedDate":"2027-04-09T08:00:00.000+00:00"},"request":{"method":"PUT","url":"Condition/9e92f03f-ac8a-4776-8af7-fb4e99cd08e1"}},{"fullUrl":"https://madie.cms.gov/Encounter/3752a763-7a34-40bc-9ff2-799528aa7abf","resource":{"resourceType":"Encounter","id":"3752a763-7a34-40bc-9ff2-799528aa7abf","meta":{"profile":["http://hl7.org/fhir/us/qicore/StructureDefinition/qicore-encounter"]},"status":"finished","class":{"system":"http://terminology.hl7.org/CodeSystem/v3-ActCode","code":"IMP","display":"inpatient"},"type":[{"coding":[{"system":"http://snomed.info/sct","version":"2023-09","code":"8715000","display":"Hospital admission, elective (procedure)","userSelected":true}]}],"subject":{"reference":"Patient/8e43bc64-4242-494d-b47f-fdbbd3372bbe"},"period":{"start":"2027-05-01T23:59:00.000+00:00","end":"2027-05-03T08:00:00.000+00:00"}},"request":{"method":"PUT","url":"Encounter/3752a763-7a34-40bc-9ff2-799528aa7abf"}},{"fullUrl":"https://madie.cms.gov/Organization/78661894-fda1-440f-a024-d01441d84bdc","resource":{"resourceType":"Organization","id":"78661894-fda1-440f-a024-d01441d84bdc","meta":{"profile":["http://hl7.org/fhir/us/qicore/StructureDefinition/qicore-organization"]},"identifier":[{"use":"temp","system":"urn:oid:2.16.840.1.113883.4.4","value":"21-3259825"}],"active":true,"type":[{"coding":[{"system":"http://terminology.hl7.org/CodeSystem/organization-type","code":"pay","display":"Payer"}]}],"name":"Blue Cross Blue Shield of Texas","telecom":[{"system":"phone","value":"(+1) 972-766-6900"}],"address":[{"use":"billing","type":"postal","line":["P.O. Box 660044"],"city":"Dallas","state":"TX","postalCode":"75266-0044","country":"USA"}]},"request":{"method":"PUT","url":"Organization/78661894-fda1-440f-a024-d01441d84bdc"}},{"fullUrl":"https://madie.cms.gov/Practitioner/04ba0d80-596d-4d07-bc81-7eeb0991be7d","resource":{"resourceType":"Practitioner","id":"04ba0d80-596d-4d07-bc81-7eeb0991be7d","meta":{"profile":["http://hl7.org/fhir/us/qicore/StructureDefinition/qicore-practitioner"]},"identifier":[{"system":"http://hl7.org/fhir/sid/us-npi","value":"9999999896"}],"name":[{"family":"Evil","prefix":["Dr"]}]},"request":{"method":"PUT","url":"Practitioner/04ba0d80-596d-4d07-bc81-7eeb0991be7d"}},{"fullUrl":"https://madie.cms.gov/MeasureReport/5bcb6aff-1cae-4008-ad46-eb114e11ac86","resource":{"resourceType":"MeasureReport","id":"5bcb6aff-1cae-4008-ad46-eb114e11ac86","meta":{"profile":["http://hl7.org/fhir/us/cqfmeasures/StructureDefinition/test-case-cqfm"]},"contained":[{"resourceType":"Parameters","id":"0f038d39-38f2-4db1-9fcd-75b6a2f9342c-parameters","parameter":[{"name":"subject","valueString":"8e43bc64-4242-494d-b47f-fdbbd3372bbe"}]}],"extension":[{"url":"http://hl7.org/fhir/StructureDefinition/cqf-inputParameters","valueReference":{"reference":"#0f038d39-38f2-4db1-9fcd-75b6a2f9342c-parameters"}},{"url":"http://hl7.org/fhir/us/cqfmeasures/StructureDefinition/cqfm-testCaseDescription","valueMarkdown":"Child, age 17, ED enc, inpatient admit order same time as start of ED, boarded 241 minutes (time from decision to admit to departure)  boarded until last minute of day, mental illness"}],"modifierExtension":[{"url":"http://hl7.org/fhir/us/cqfmeasures/StructureDefinition/cqfm-isTestCase","valueBoolean":true}],"status":"complete","type":"individual","measure":"https://madie.cms.gov/Measure/CMS1244FHIRECATHOQR","period":{"start":"2027-01-01","end":"2027-12-31"},"group":[{"id":"Group_1","population":[{"id":"InitialPopulation_1","code":{"coding":[{"system":"http://terminology.hl7.org/CodeSystem/measure-population","code":"initial-population","display":"Initial Population"}]},"count":1},{"id":"Denominator_1","code":{"coding":[{"system":"http://terminology.hl7.org/CodeSystem/measure-population","code":"denominator","display":"Denominator"}]},"count":1},{"id":"Numerator_1","code":{"coding":[{"system":"http://terminology.hl7.org/CodeSystem/measure-population","code":"numerator","display":"Numerator"}]},"count":1}],"measureScore":{"value":0.0},"stratifier":[{"id":"Stratification_1_1","code":[{"text":"Strata-1"}],"stratum":[{"value":{"text":"Strata-1"},"population":[{"id":"InitialPopulation_1","code":{"coding":[{"system":"http://terminology.hl7.org/CodeSystem/measure-population","code":"initial-population","display":"Initial Population"}]},"count":0},{"id":"Denominator_1","code":{"coding":[{"system":"http://terminology.hl7.org/CodeSystem/measure-population","code":"denominator","display":"Denominator"}]},"count":0},{"id":"Numerator_1","code":{"coding":[{"system":"http://terminology.hl7.org/CodeSystem/measure-population","code":"numerator","display":"Numerator"}]},"count":0}]}]},{"id":"Stratification_1_2","code":[{"text":"Strata-2"}],"stratum":[{"value":{"text":"Strata-2"},"population":[{"id":"InitialPopulation_1","code":{"coding":[{"system":"http://terminology.hl7.org/CodeSystem/measure-population","code":"initial-population","display":"Initial Population"}]},"count":0},{"id":"Denominator_1","code":{"coding":[{"system":"http://terminology.hl7.org/CodeSystem/measure-population","code":"denominator","display":"Denominator"}]},"count":0},{"id":"Numerator_1","code":{"coding":[{"system":"http://terminology.hl7.org/CodeSystem/measure-population","code":"numerator","display":"Numerator"}]},"count":0}]}]},{"id":"Stratification_1_3","code":[{"text":"Strata-3"}],"stratum":[{"value":{"text":"Strata-3"},"population":[{"id":"InitialPopulation_1","code":{"coding":[{"system":"http://terminology.hl7.org/CodeSystem/measure-population","code":"initial-population","display":"Initial Population"}]},"count":1},{"id":"Denominator_1","code":{"coding":[{"system":"http://terminology.hl7.org/CodeSystem/measure-population","code":"denominator","display":"Denominator"}]},"count":1},{"id":"Numerator_1","code":{"coding":[{"system":"http://terminology.hl7.org/CodeSystem/measure-population","code":"numerator","display":"Numerator"}]},"count":1}]}]},{"id":"Stratification_1_4","code":[{"text":"Strata-4"}],"stratum":[{"value":{"text":"Strata-4"},"population":[{"id":"InitialPopulation_1","code":{"coding":[{"system":"http://terminology.hl7.org/CodeSystem/measure-population","code":"initial-population","display":"Initial Population"}]},"count":0},{"id":"Denominator_1","code":{"coding":[{"system":"http://terminology.hl7.org/CodeSystem/measure-population","code":"denominator","display":"Denominator"}]},"count":0},{"id":"Numerator_1","code":{"coding":[{"system":"http://terminology.hl7.org/CodeSystem/measure-population","code":"numerator","display":"Numerator"}]},"count":0}]}]}]}],"evaluatedResource":[{"reference":"Patient/8e43bc64-4242-494d-b47f-fdbbd3372bbe"},{"reference":"Encounter/80f30435-aeb7-4005-a599-ced602833333"},{"reference":"ServiceRequest/ed618b53-17d8-4f96-970b-dbebd2313670"},{"reference":"Location/a82f1096-579b-4af0-aea9-6e5e77630945"},{"reference":"Claim/ClaimBehavior-NotSubsAbuse"},{"reference":"Coverage/bb0dd678-f1b7-48d9-982d-0b49fca29d7a"},{"reference":"Condition/9e92f03f-ac8a-4776-8af7-fb4e99cd08e1"},{"reference":"Encounter/3752a763-7a34-40bc-9ff2-799528aa7abf"},{"reference":"Organization/78661894-fda1-440f-a024-d01441d84bdc"},{"reference":"Practitioner/04ba0d80-596d-4d07-bc81-7eeb0991be7d"}]},"request":{"method":"PUT","url":"MeasureReport/5bcb6aff-1cae-4008-ad46-eb114e11ac86"}}]},"request":{"method":"PUT","url":"Bundle/661476b015ed5841a5547ebf"}},{"resource":{"resourceType":"Condition","id":"9e92f03f-ac8a-4776-8af7-fb4e99cd08e1","meta":{"profile":["http://hl7.org/fhir/us/qicore/StructureDefinition/qicore-condition-encounter-diagnosis"]},"category":[{"coding":[{"system":"http://terminology.hl7.org/CodeSystem/condition-category","code":"encounter-diagnosis","display":"Encounter Diagnosis"}]}],"code":{"coding":[{"system":"http://snomed.info/sct","version":"2023-09","code":"10349009","display":"Multi-infarct dementia with delirium (disorder)","userSelected":true}]},"subject":{"reference":"Patient/8e43bc64-4242-494d-b47f-fdbbd3372bbe"},"recordedDate":"2027-04-09T08:00:00.000+00:00"},"request":{"method":"PUT","url":"Condition/9e92f03f-ac8a-4776-8af7-fb4e99cd08e1"}},{"resource":{"resourceType":"Location","id":"a82f1096-579b-4af0-aea9-6e5e77630945","meta":{"profile":["http://hl7.org/fhir/us/qicore/StructureDefinition/qicore-location"]},"identifier":[{"use":"usual","system":"http://exampleoflocation.com","value":"B1-S.F2"}],"name":"Medical Surgical East, first floor","type":[{"coding":[{"system":"https://www.cdc.gov/nhsn/cdaportal/terminology/codesystem/hsloc.html","version":"2022","code":"1108-0","display":"Emergency Department","userSelected":true}]}]},"request":{"method":"PUT","url":"Location/a82f1096-579b-4af0-aea9-6e5e77630945"}},{"resource":{"resourceType":"Patient","id":"8e43bc64-4242-494d-b47f-fdbbd3372bbe","meta":{"profile":["http://hl7.org/fhir/us/qicore/StructureDefinition/qicore-patient"]},"extension":[{"url":"http://hl7.org/fhir/us/core/StructureDefinition/us-core-race","extension":[{"url":"ombCategory","valueCoding":{"system":"urn:oid:2.16.840.1.113883.6.238","code":"1002-5","display":"American Indian or Alaska Native","userSelected":true}},{"url":"text","valueString":"American Indian or Alaska Native"}]},{"url":"http://hl7.org/fhir/us/core/StructureDefinition/us-core-ethnicity","extension":[{"url":"ombCategory","valueCoding":{"system":"urn:oid:2.16.840.1.113883.6.238","code":"2135-2","display":"Hispanic or Latino","userSelected":true}},{"url":"text","valueString":"Hispanic or Latino"}]},{"url":"http://hl7.org/fhir/us/core/StructureDefinition/us-core-sex","valueCode":"248153007"}],"identifier":[{"type":{"coding":[{"system":"http://terminology.hl7.org/CodeSystem/v2-0203","code":"MR"}]},"system":"https://bonnie-fhir.healthit.gov/","value":"661476b015ed5841a5547ebf"}],"name":[{"family":"NUMERStrat3Pass","given":["Boarded241MinOrderAdmit"]}],"gender":"male","birthDate":"2011-01-01"},"request":{"method":"PUT","url":"Patient/8e43bc64-4242-494d-b47f-fdbbd3372bbe"}},{"resource":{"resourceType":"Encounter","id":"3752a763-7a34-40bc-9ff2-799528aa7abf","meta":{"profile":["http://hl7.org/fhir/us/qicore/StructureDefinition/qicore-encounter"]},"status":"finished","class":{"system":"http://terminology.hl7.org/CodeSystem/v3-ActCode","code":"IMP","display":"inpatient"},"type":[{"coding":[{"system":"http://snomed.info/sct","version":"2023-09","code":"8715000","display":"Hospital admission, elective (procedure)","userSelected":true}]}],"subject":{"reference":"Patient/8e43bc64-4242-494d-b47f-fdbbd3372bbe"},"period":{"start":"2027-05-01T23:59:00.000+00:00","end":"2027-05-03T08:00:00.000+00:00"}},"request":{"method":"PUT","url":"Encounter/3752a763-7a34-40bc-9ff2-799528aa7abf"}},{"resource":{"resourceType":"Coverage","id":"bb0dd678-f1b7-48d9-982d-0b49fca29d7a","meta":{"profile":["http://hl7.org/fhir/us/qicore/StructureDefinition/qicore-coverage"]},"identifier":[{"type":{"coding":[{"system":"http://terminology.hl7.org/CodeSystem/v2-0203","code":"MB"}]}}],"status":"active","beneficiary":{"reference":"Patient/8e43bc64-4242-494d-b47f-fdbbd3372bbe"},"relationship":{"coding":[{"system":"http://terminology.hl7.org/CodeSystem/subscriber-relationship","code":"self"}]},"payor":[{"reference":"Organization/78661894-fda1-440f-a024-d01441d84bdc"}]},"request":{"method":"PUT","url":"Coverage/bb0dd678-f1b7-48d9-982d-0b49fca29d7a"}},{"resource":{"resourceType":"MeasureReport","id":"5bcb6aff-1cae-4008-ad46-eb114e11ac86","meta":{"profile":["http://hl7.org/fhir/us/cqfmeasures/StructureDefinition/test-case-cqfm"]},"contained":[{"resourceType":"Parameters","id":"0f038d39-38f2-4db1-9fcd-75b6a2f9342c-parameters","parameter":[{"name":"subject","valueString":"8e43bc64-4242-494d-b47f-fdbbd3372bbe"}]}],"extension":[{"url":"http://hl7.org/fhir/StructureDefinition/cqf-inputParameters","valueReference":{"reference":"#0f038d39-38f2-4db1-9fcd-75b6a2f9342c-parameters"}},{"url":"http://hl7.org/fhir/us/cqfmeasures/StructureDefinition/cqfm-testCaseDescription","valueMarkdown":"Child, age 17, ED enc, inpatient admit order same time as start of ED, boarded 241 minutes (time from decision to admit to departure)  boarded until last minute of day, mental illness"}],"modifierExtension":[{"url":"http://hl7.org/fhir/us/cqfmeasures/StructureDefinition/cqfm-isTestCase","valueBoolean":true}],"status":"complete","type":"individual","measure":"https://madie.cms.gov/Measure/CMS1244FHIRECATHOQR","period":{"start":"2027-01-01","end":"2027-12-31"},"group":[{"id":"Group_1","population":[{"id":"InitialPopulation_1","code":{"coding":[{"system":"http://terminology.hl7.org/CodeSystem/measure-population","code":"initial-population","display":"Initial Population"}]},"count":1},{"id":"Denominator_1","code":{"coding":[{"system":"http://terminology.hl7.org/CodeSystem/measure-population","code":"denominator","display":"Denominator"}]},"count":1},{"id":"Numerator_1","code":{"coding":[{"system":"http://terminology.hl7.org/CodeSystem/measure-population","code":"numerator","display":"Numerator"}]},"count":1}],"measureScore":{"value":0.0},"stratifier":[{"id":"Stratification_1_1","code":[{"text":"Strata-1"}],"stratum":[{"value":{"text":"Strata-1"},"population":[{"id":"InitialPopulation_1","code":{"coding":[{"system":"http://terminology.hl7.org/CodeSystem/measure-population","code":"initial-population","display":"Initial Population"}]},"count":0},{"id":"Denominator_1","code":{"coding":[{"system":"http://terminology.hl7.org/CodeSystem/measure-population","code":"denominator","display":"Denominator"}]},"count":0},{"id":"Numerator_1","code":{"coding":[{"system":"http://terminology.hl7.org/CodeSystem/measure-population","code":"numerator","display":"Numerator"}]},"count":0}]}]},{"id":"Stratification_1_2","code":[{"text":"Strata-2"}],"stratum":[{"value":{"text":"Strata-2"},"population":[{"id":"InitialPopulation_1","code":{"coding":[{"system":"http://terminology.hl7.org/CodeSystem/measure-population","code":"initial-population","display":"Initial Population"}]},"count":0},{"id":"Denominator_1","code":{"coding":[{"system":"http://terminology.hl7.org/CodeSystem/measure-population","code":"denominator","display":"Denominator"}]},"count":0},{"id":"Numerator_1","code":{"coding":[{"system":"http://terminology.hl7.org/CodeSystem/measure-population","code":"numerator","display":"Numerator"}]},"count":0}]}]},{"id":"Stratification_1_3","code":[{"text":"Strata-3"}],"stratum":[{"value":{"text":"Strata-3"},"population":[{"id":"InitialPopulation_1","code":{"coding":[{"system":"http://terminology.hl7.org/CodeSystem/measure-population","code":"initial-population","display":"Initial Population"}]},"count":1},{"id":"Denominator_1","code":{"coding":[{"system":"http://terminology.hl7.org/CodeSystem/measure-population","code":"denominator","display":"Denominator"}]},"count":1},{"id":"Numerator_1","code":{"coding":[{"system":"http://terminology.hl7.org/CodeSystem/measure-population","code":"numerator","display":"Numerator"}]},"count":1}]}]},{"id":"Stratification_1_4","code":[{"text":"Strata-4"}],"stratum":[{"value":{"text":"Strata-4"},"population":[{"id":"InitialPopulation_1","code":{"coding":[{"system":"http://terminology.hl7.org/CodeSystem/measure-population","code":"initial-population","display":"Initial Population"}]},"count":0},{"id":"Denominator_1","code":{"coding":[{"system":"http://terminology.hl7.org/CodeSystem/measure-population","code":"denominator","display":"Denominator"}]},"count":0},{"id":"Numerator_1","code":{"coding":[{"system":"http://terminology.hl7.org/CodeSystem/measure-population","code":"numerator","display":"Numerator"}]},"count":0}]}]}]}],"evaluatedResource":[{"reference":"Patient/8e43bc64-4242-494d-b47f-fdbbd3372bbe"},{"reference":"Encounter/80f30435-aeb7-4005-a599-ced602833333"},{"reference":"ServiceRequest/ed618b53-17d8-4f96-970b-dbebd2313670"},{"reference":"Location/a82f1096-579b-4af0-aea9-6e5e77630945"},{"reference":"Claim/ClaimBehavior-NotSubsAbuse"},{"reference":"Coverage/bb0dd678-f1b7-48d9-982d-0b49fca29d7a"},{"reference":"Condition/9e92f03f-ac8a-4776-8af7-fb4e99cd08e1"},{"reference":"Encounter/3752a763-7a34-40bc-9ff2-799528aa7abf"},{"reference":"Organization/78661894-fda1-440f-a024-d01441d84bdc"},{"reference":"Practitioner/04ba0d80-596d-4d07-bc81-7eeb0991be7d"}]},"request":{"method":"PUT","url":"MeasureReport/5bcb6aff-1cae-4008-ad46-eb114e11ac86"}},{"resource":{"resourceType":"Practitioner","id":"04ba0d80-596d-4d07-bc81-7eeb0991be7d","meta":{"profile":["http://hl7.org/fhir/us/qicore/StructureDefinition/qicore-practitioner"]},"identifier":[{"system":"http://hl7.org/fhir/sid/us-npi","value":"9999999896"}],"name":[{"family":"Evil","prefix":["Dr"]}]},"request":{"method":"PUT","url":"Practitioner/04ba0d80-596d-4d07-bc81-7eeb0991be7d"}},{"resource":{"resourceType":"Encounter","id":"80f30435-aeb7-4005-a599-ced602833333","meta":{"profile":["http://hl7.org/fhir/us/qicore/StructureDefinition/qicore-encounter"]},"status":"finished","class":{"system":"http://terminology.hl7.org/CodeSystem/v3-ActCode","code":"EMER","display":"emergency department"},"type":[{"coding":[{"system":"http://snomed.info/sct","version":"2023-09","code":"4525004","display":"Emergency department patient visit (procedure)","userSelected":true}]}],"subject":{"reference":"Patient/8e43bc64-4242-494d-b47f-fdbbd3372bbe"},"period":{"start":"2027-05-01T19:58:00.000+00:00","end":"2027-05-01T23:59:00.000+00:00"},"diagnosis":[{"condition":{"reference":"Condition/9e92f03f-ac8a-4776-8af7-fb4e99cd08e1"},"use":{"coding":[{"system":"http://terminology.hl7.org/CodeSystem/diagnosis-role","code":"billing"}]},"rank":1}],"location":[{"location":{"reference":"Location/a82f1096-579b-4af0-aea9-6e5e77630945"},"period":{"start":"2027-05-01T19:58:00.000+00:00","end":"2027-05-01T23:59:00.000+00:00"}}]},"request":{"method":"PUT","url":"Encounter/80f30435-aeb7-4005-a599-ced602833333"}},{"resource":{"resourceType":"Claim","id":"ClaimBehavior-NotSubsAbuse","meta":{"profile":["http://hl7.org/fhir/us/qicore/StructureDefinition/qicore-claim"]},"status":"active","type":{"coding":[{"system":"http://terminology.hl7.org/CodeSystem/claim-type","code":"institutional"}]},"use":"claim","patient":{"reference":"Patient/8e43bc64-4242-494d-b47f-fdbbd3372bbe"},"created":"2027-05-01","provider":{"reference":"Practitioner/04ba0d80-596d-4d07-bc81-7eeb0991be7d"},"priority":{"coding":[{"system":"http://terminology.hl7.org/CodeSystem/processpriority","code":"normal"}]},"diagnosis":[{"sequence":1,"diagnosisReference":{"reference":"Condition/9e92f03f-ac8a-4776-8af7-fb4e99cd08e1"},"type":[{"coding":[{"system":"http://terminology.hl7.org/CodeSystem/ex-diagnosistype","code":"principal"}]}]}],"insurance":[{"sequence":1,"focal":true,"coverage":{"reference":"Coverage/bb0dd678-f1b7-48d9-982d-0b49fca29d7a"}}],"item":[{"sequence":1,"diagnosisSequence":[1],"productOrService":{"coding":[{"system":"http://terminology.hl7.org/CodeSystem/ex-USCLS","code":"99555"}]},"encounter":[{"reference":"Encounter/80f30435-aeb7-4005-a599-ced602833333"}]}]},"request":{"method":"PUT","url":"Claim/ClaimBehavior-NotSubsAbuse"}},{"resource":{"resourceType":"ServiceRequest","id":"ed618b53-17d8-4f96-970b-dbebd2313670","meta":{"profile":["http://hl7.org/fhir/us/qicore/StructureDefinition/qicore-servicerequest"]},"status":"active","intent":"order","code":{"coding":[{"system":"http://snomed.info/sct","version":"2023-09","code":"19951005","display":"Hospital admission, emergency, from emergency room, medical nature (procedure)","userSelected":true}]},"subject":{"reference":"Patient/8e43bc64-4242-494d-b47f-fdbbd3372bbe"},"authoredOn":"2027-05-01T19:58:00.000+00:00"},"request":{"method":"PUT","url":"ServiceRequest/ed618b53-17d8-4f96-970b-dbebd2313670"}},{"resource":{"resourceType":"Organization","id":"78661894-fda1-440f-a024-d01441d84bdc","meta":{"profile":["http://hl7.org/fhir/us/qicore/StructureDefinition/qicore-organization"]},"identifier":[{"use":"temp","system":"urn:oid:2.16.840.1.113883.4.4","value":"21-3259825"}],"active":true,"type":[{"coding":[{"system":"http://terminology.hl7.org/CodeSystem/organization-type","code":"pay","display":"Payer"}]}],"name":"Blue Cross Blue Shield of Texas","telecom":[{"system":"phone","value":"(+1) 972-766-6900"}],"address":[{"use":"billing","type":"postal","line":["P.O. Box 660044"],"city":"Dallas","state":"TX","postalCode":"75266-0044","country":"USA"}]},"request":{"method":"PUT","url":"Organization/78661894-fda1-440f-a024-d01441d84bdc"}}]}