{"resourceType":"Bundle","id":"tests-8e96f973-9e5d-4c85-9466-83c562f5a2ee-bundle","type":"transaction","entry":[{"fullUrl":"Condition/cf777edb-0f4d-483f-b4c2-8885cd488600","resource":{"resourceType":"Condition","id":"cf777edb-0f4d-483f-b4c2-8885cd488600","meta":{"profile":["http://hl7.org/fhir/us/qicore/StructureDefinition/qicore-condition-encounter-diagnosis"]},"category":[{"coding":[{"system":"http://terminology.hl7.org/CodeSystem/condition-category","code":"encounter-diagnosis","display":"Encounter Diagnosis"}]}],"code":{"coding":[{"system":"http://snomed.info/sct","version":"2023-09","code":"10349009","display":"Multi-infarct dementia with delirium (disorder)","userSelected":true}]},"subject":{"reference":"Patient/8e96f973-9e5d-4c85-9466-83c562f5a2ee"},"recordedDate":"2027-04-09T08:00:00.000+00:00"},"request":{"method":"PUT","url":"Condition/cf777edb-0f4d-483f-b4c2-8885cd488600"}},{"fullUrl":"Location/bf9c9a24-b85a-439b-98bf-3335d2c3e0c3","resource":{"resourceType":"Location","id":"bf9c9a24-b85a-439b-98bf-3335d2c3e0c3","meta":{"profile":["http://hl7.org/fhir/us/qicore/StructureDefinition/qicore-location"]},"identifier":[{"use":"usual","system":"http://exampleoflocation.com","value":"B1-S.F2"}],"name":"Medical Surgical East, first floor","type":[{"coding":[{"system":"https://www.cdc.gov/nhsn/cdaportal/terminology/codesystem/hsloc.html","version":"2022","code":"1209-6","display":"Treatment Room"}]}]},"request":{"method":"PUT","url":"Location/bf9c9a24-b85a-439b-98bf-3335d2c3e0c3"}},{"fullUrl":"Encounter/b538d7fe-0bbf-42b7-a6ec-f0c6a382517c","resource":{"resourceType":"Encounter","id":"b538d7fe-0bbf-42b7-a6ec-f0c6a382517c","meta":{"profile":["http://hl7.org/fhir/us/qicore/StructureDefinition/qicore-encounter"]},"status":"finished","class":{"system":"http://terminology.hl7.org/CodeSystem/v3-ActCode","code":"EMER","display":"emergency"},"type":[{"coding":[{"system":"http://snomed.info/sct","version":"2023-09","code":"4525004","display":"Emergency department patient visit (procedure)","userSelected":true}]}],"subject":{"reference":"Patient/8e96f973-9e5d-4c85-9466-83c562f5a2ee"},"period":{"start":"2027-05-01T08:00:00.000+00:00","end":"2027-05-01T12:15:00.000+00:00"},"diagnosis":[{"condition":{"reference":"Condition/cf777edb-0f4d-483f-b4c2-8885cd488600"},"use":{"coding":[{"system":"http://terminology.hl7.org/CodeSystem/diagnosis-role","code":"billing"}]},"rank":1}],"location":[{"location":{"reference":"Location/85096b04-4154-42d4-b8a3-daff407b5b7c"},"period":{"start":"2027-05-01T07:45:00.000+00:00","end":"2027-05-01T16:31:00.000+00:00"}},{"location":{"reference":"Location/9cbaeebe-7611-4892-91f7-a317ec3d83d1"},"period":{"start":"2027-05-01T09:31:00.000+00:00","end":"2027-05-01T12:15:00.000+00:00"}},{"location":{"reference":"Location/bf9c9a24-b85a-439b-98bf-3335d2c3e0c3"},"period":{"start":"2027-05-01T08:40:00.000+00:00","end":"2027-05-01T12:15:00.000+00:00"}},{"location":{"reference":"Location/18ecc833-1947-4088-b2bf-c9d5959b2a19"},"period":{"start":"2027-05-01T08:30:00.000+00:00","end":"2027-05-01T15:46:00.000+00:00"}}]},"request":{"method":"PUT","url":"Encounter/b538d7fe-0bbf-42b7-a6ec-f0c6a382517c"}},{"fullUrl":"Encounter/4988464e-c3e0-4176-8f4a-084e5a8d7a0d","resource":{"resourceType":"Encounter","id":"4988464e-c3e0-4176-8f4a-084e5a8d7a0d","meta":{"profile":["http://hl7.org/fhir/us/qicore/StructureDefinition/qicore-encounter"]},"status":"finished","class":{"system":"http://terminology.hl7.org/CodeSystem/v3-ActCode","code":"EMER","display":"emergency"},"type":[{"coding":[{"system":"http://snomed.info/sct","version":"2023-09","code":"225390008","display":"Triage (procedure)","userSelected":true}]}],"subject":{"reference":"Patient/8e96f973-9e5d-4c85-9466-83c562f5a2ee"},"period":{"start":"2027-05-01T08:00:00.000+00:00","end":"2027-05-01T08:15:00.000+00:00"}},"request":{"method":"PUT","url":"Encounter/4988464e-c3e0-4176-8f4a-084e5a8d7a0d"}},{"fullUrl":"Location/85096b04-4154-42d4-b8a3-daff407b5b7c","resource":{"resourceType":"Location","id":"85096b04-4154-42d4-b8a3-daff407b5b7c","meta":{"profile":["http://hl7.org/fhir/us/qicore/StructureDefinition/qicore-location"]},"identifier":[{"use":"usual","system":"http://exampleoflocation.com","value":"B1-S.F1"}],"name":"Medical Surgical East, first floor","type":[{"coding":[{"system":"https://www.cdc.gov/nhsn/cdaportal/terminology/codesystem/hsloc.html","version":"2022","code":"1108-0","display":"Emergency Department","userSelected":true}]}]},"request":{"method":"PUT","url":"Location/85096b04-4154-42d4-b8a3-daff407b5b7c"}},{"fullUrl":"Organization/7762bc4d-5282-4260-8478-0b94827bb68a","resource":{"resourceType":"Organization","id":"7762bc4d-5282-4260-8478-0b94827bb68a","meta":{"profile":["http://hl7.org/fhir/us/qicore/StructureDefinition/qicore-organization"]},"identifier":[{"use":"temp","system":"urn:oid:2.16.840.1.113883.4.4","value":"21-3259825"}],"active":true,"type":[{"coding":[{"system":"http://terminology.hl7.org/CodeSystem/organization-type","code":"pay","display":"Payer"}]}],"name":"Blue Cross Blue Shield of Texas","telecom":[{"system":"phone","value":"(+1) 972-766-6900"}],"address":[{"use":"billing","type":"postal","line":["P.O. Box 660044"],"city":"Dallas","state":"TX","postalCode":"75266-0044","country":"USA"}]},"request":{"method":"PUT","url":"Organization/7762bc4d-5282-4260-8478-0b94827bb68a"}},{"fullUrl":"Location/18ecc833-1947-4088-b2bf-c9d5959b2a19","resource":{"resourceType":"Location","id":"18ecc833-1947-4088-b2bf-c9d5959b2a19","meta":{"profile":["http://hl7.org/fhir/us/qicore/StructureDefinition/qicore-location"]},"identifier":[{"use":"usual","system":"http://exampleoflocation.com","value":"B1-S.F2"}],"name":"Medical Surgical East, first floor","type":[{"coding":[{"system":"https://www.cdc.gov/nhsn/cdaportal/terminology/codesystem/hsloc.html","version":"2022","code":"1108-0","display":"Emergency Department","userSelected":true}]}]},"request":{"method":"PUT","url":"Location/18ecc833-1947-4088-b2bf-c9d5959b2a19"}},{"fullUrl":"Location/9cbaeebe-7611-4892-91f7-a317ec3d83d1","resource":{"resourceType":"Location","id":"9cbaeebe-7611-4892-91f7-a317ec3d83d1","meta":{"profile":["http://hl7.org/fhir/us/qicore/StructureDefinition/qicore-location"]},"identifier":[{"use":"usual","system":"http://exampleoflocation.com","value":"B1-S.F2"}],"name":"Medical Surgical East, first floor","type":[{"coding":[{"system":"https://www.cdc.gov/nhsn/cdaportal/terminology/codesystem/hsloc.html","version":"2022","code":"1209-6","display":"Treatment Room","userSelected":true}]}]},"request":{"method":"PUT","url":"Location/9cbaeebe-7611-4892-91f7-a317ec3d83d1"}},{"fullUrl":"Practitioner/2f8c4438-8715-4ed3-a6fc-2b927dd694e7","resource":{"resourceType":"Practitioner","id":"2f8c4438-8715-4ed3-a6fc-2b927dd694e7","meta":{"profile":["http://hl7.org/fhir/us/qicore/StructureDefinition/qicore-practitioner"]},"identifier":[{"system":"http://hl7.org/fhir/sid/us-npi","value":"9999999896"}],"name":[{"family":"Evil","prefix":["Dr"]}]},"request":{"method":"PUT","url":"Practitioner/2f8c4438-8715-4ed3-a6fc-2b927dd694e7"}},{"fullUrl":"Coverage/b513588d-6ac5-4f22-9ce4-d2fe1b896f10","resource":{"resourceType":"Coverage","id":"b513588d-6ac5-4f22-9ce4-d2fe1b896f10","meta":{"profile":["http://hl7.org/fhir/us/qicore/StructureDefinition/qicore-coverage"]},"identifier":[{"type":{"coding":[{"system":"http://terminology.hl7.org/CodeSystem/v2-0203","code":"MB"}]}}],"status":"active","beneficiary":{"reference":"Patient/8e96f973-9e5d-4c85-9466-83c562f5a2ee"},"relationship":{"coding":[{"system":"http://terminology.hl7.org/CodeSystem/subscriber-relationship","code":"self"}]},"payor":[{"reference":"Organization/7762bc4d-5282-4260-8478-0b94827bb68a"}]},"request":{"method":"PUT","url":"Coverage/b513588d-6ac5-4f22-9ce4-d2fe1b896f10"}},{"fullUrl":"Patient/8e96f973-9e5d-4c85-9466-83c562f5a2ee","resource":{"resourceType":"Patient","id":"8e96f973-9e5d-4c85-9466-83c562f5a2ee","meta":{"profile":["http://hl7.org/fhir/us/qicore/StructureDefinition/qicore-patient"]},"extension":[{"url":"http://hl7.org/fhir/us/core/StructureDefinition/us-core-race","extension":[{"url":"ombCategory","valueCoding":{"system":"urn:oid:2.16.840.1.113883.6.238","code":"2076-8","display":"Native Hawaiian or Other Pacific Islander","userSelected":true}},{"url":"text","valueString":"Native Hawaiian or Other Pacific Islander"}]},{"url":"http://hl7.org/fhir/us/core/StructureDefinition/us-core-ethnicity","extension":[{"url":"ombCategory","valueCoding":{"system":"urn:oid:2.16.840.1.113883.6.238","code":"2186-5","display":"Not Hispanic or Latino","userSelected":true}},{"url":"text","valueString":"Not Hispanic or Latino"}]},{"url":"http://hl7.org/fhir/us/core/StructureDefinition/us-core-sex","valueCode":"248152002"}],"identifier":[{"type":{"coding":[{"system":"http://terminology.hl7.org/CodeSystem/v2-0203","code":"MR"}]},"system":"https://bonnie-fhir.healthit.gov/","value":"661579e3db207d74c03b8a54"}],"name":[{"family":"NUMERStrat4Pass","given":["TriageDuringEM"]}],"gender":"female","birthDate":"2008-12-31"},"request":{"method":"PUT","url":"Patient/8e96f973-9e5d-4c85-9466-83c562f5a2ee"}},{"fullUrl":"Claim/ClaimBehavior-NotSubsAbuse","resource":{"resourceType":"Claim","id":"ClaimBehavior-NotSubsAbuse","meta":{"profile":["http://hl7.org/fhir/us/qicore/StructureDefinition/qicore-claim"]},"status":"active","type":{"coding":[{"system":"http://terminology.hl7.org/CodeSystem/claim-type","code":"institutional"}]},"use":"claim","patient":{"reference":"Patient/8e96f973-9e5d-4c85-9466-83c562f5a2ee"},"created":"2027-05-01","provider":{"reference":"Practitioner/2f8c4438-8715-4ed3-a6fc-2b927dd694e7"},"priority":{"coding":[{"system":"http://terminology.hl7.org/CodeSystem/processpriority","code":"normal"}]},"diagnosis":[{"sequence":1,"diagnosisReference":{"reference":"Condition/cf777edb-0f4d-483f-b4c2-8885cd488600"},"type":[{"coding":[{"system":"http://terminology.hl7.org/CodeSystem/ex-diagnosistype","code":"principal"}]}]}],"insurance":[{"sequence":1,"focal":true,"coverage":{"reference":"Coverage/b513588d-6ac5-4f22-9ce4-d2fe1b896f10"}}],"item":[{"sequence":1,"diagnosisSequence":[1],"productOrService":{"coding":[{"system":"http://terminology.hl7.org/CodeSystem/ex-USCLS","code":"99555"}]},"encounter":[{"reference":"Encounter/b538d7fe-0bbf-42b7-a6ec-f0c6a382517c"}]}]},"request":{"method":"PUT","url":"Claim/ClaimBehavior-NotSubsAbuse"}},{"fullUrl":"MeasureReport/cd96a81e-7db9-45ae-96ea-97bbeae7519c","resource":{"resourceType":"MeasureReport","id":"cd96a81e-7db9-45ae-96ea-97bbeae7519c","meta":{"profile":["http://hl7.org/fhir/us/cqfmeasures/StructureDefinition/test-case-cqfm"]},"contained":[{"resourceType":"Parameters","id":"9261b403-bac8-44ab-8e76-9eafd1bd55a3-parameters","parameter":[{"name":"subject","valueString":"8e96f973-9e5d-4c85-9466-83c562f5a2ee"}]}],"extension":[{"url":"http://hl7.org/fhir/StructureDefinition/cqf-inputParameters","valueReference":{"reference":"#9261b403-bac8-44ab-8e76-9eafd1bd55a3-parameters"}},{"url":"http://hl7.org/fhir/us/cqfmeasures/StructureDefinition/cqfm-testCaseDescription","valueMarkdown":"Adult, mental condition, ED arrival to treatment - takes latest location time"}],"modifierExtension":[{"url":"http://hl7.org/fhir/us/cqfmeasures/StructureDefinition/cqfm-isTestCase","valueBoolean":true}],"status":"complete","type":"individual","measure":"https://madie.cms.gov/Measure/CMS1244FHIRECATHOQR","period":{"start":"2027-01-01","end":"2027-12-31"},"group":[{"id":"Group_1","population":[{"id":"InitialPopulation_1","code":{"coding":[{"system":"http://terminology.hl7.org/CodeSystem/measure-population","code":"initial-population","display":"Initial Population"}]},"count":1},{"id":"Denominator_1","code":{"coding":[{"system":"http://terminology.hl7.org/CodeSystem/measure-population","code":"denominator","display":"Denominator"}]},"count":1},{"id":"Numerator_1","code":{"coding":[{"system":"http://terminology.hl7.org/CodeSystem/measure-population","code":"numerator","display":"Numerator"}]},"count":1}],"measureScore":{"value":0.0},"stratifier":[{"id":"Stratification_1_1","code":[{"text":"Strata-1"}],"stratum":[{"value":{"text":"Strata-1"},"population":[{"id":"InitialPopulation_1","code":{"coding":[{"system":"http://terminology.hl7.org/CodeSystem/measure-population","code":"initial-population","display":"Initial Population"}]},"count":0},{"id":"Denominator_1","code":{"coding":[{"system":"http://terminology.hl7.org/CodeSystem/measure-population","code":"denominator","display":"Denominator"}]},"count":0},{"id":"Numerator_1","code":{"coding":[{"system":"http://terminology.hl7.org/CodeSystem/measure-population","code":"numerator","display":"Numerator"}]},"count":0}]}]},{"id":"Stratification_1_2","code":[{"text":"Strata-2"}],"stratum":[{"value":{"text":"Strata-2"},"population":[{"id":"InitialPopulation_1","code":{"coding":[{"system":"http://terminology.hl7.org/CodeSystem/measure-population","code":"initial-population","display":"Initial Population"}]},"count":0},{"id":"Denominator_1","code":{"coding":[{"system":"http://terminology.hl7.org/CodeSystem/measure-population","code":"denominator","display":"Denominator"}]},"count":0},{"id":"Numerator_1","code":{"coding":[{"system":"http://terminology.hl7.org/CodeSystem/measure-population","code":"numerator","display":"Numerator"}]},"count":0}]}]},{"id":"Stratification_1_3","code":[{"text":"Strata-3"}],"stratum":[{"value":{"text":"Strata-3"},"population":[{"id":"InitialPopulation_1","code":{"coding":[{"system":"http://terminology.hl7.org/CodeSystem/measure-population","code":"initial-population","display":"Initial Population"}]},"count":0},{"id":"Denominator_1","code":{"coding":[{"system":"http://terminology.hl7.org/CodeSystem/measure-population","code":"denominator","display":"Denominator"}]},"count":0},{"id":"Numerator_1","code":{"coding":[{"system":"http://terminology.hl7.org/CodeSystem/measure-population","code":"numerator","display":"Numerator"}]},"count":0}]}]},{"id":"Stratification_1_4","code":[{"text":"Strata-4"}],"stratum":[{"value":{"text":"Strata-4"},"population":[{"id":"InitialPopulation_1","code":{"coding":[{"system":"http://terminology.hl7.org/CodeSystem/measure-population","code":"initial-population","display":"Initial Population"}]},"count":1},{"id":"Denominator_1","code":{"coding":[{"system":"http://terminology.hl7.org/CodeSystem/measure-population","code":"denominator","display":"Denominator"}]},"count":1},{"id":"Numerator_1","code":{"coding":[{"system":"http://terminology.hl7.org/CodeSystem/measure-population","code":"numerator","display":"Numerator"}]},"count":1}]}]}]}],"evaluatedResource":[{"reference":"Patient/8e96f973-9e5d-4c85-9466-83c562f5a2ee"},{"reference":"Encounter/4988464e-c3e0-4176-8f4a-084e5a8d7a0d"},{"reference":"Encounter/b538d7fe-0bbf-42b7-a6ec-f0c6a382517c"},{"reference":"Location/85096b04-4154-42d4-b8a3-daff407b5b7c"},{"reference":"Location/9cbaeebe-7611-4892-91f7-a317ec3d83d1"},{"reference":"Condition/cf777edb-0f4d-483f-b4c2-8885cd488600"},{"reference":"Location/18ecc833-1947-4088-b2bf-c9d5959b2a19"},{"reference":"Location/bf9c9a24-b85a-439b-98bf-3335d2c3e0c3"},{"reference":"Claim/ClaimBehavior-NotSubsAbuse"},{"reference":"Coverage/b513588d-6ac5-4f22-9ce4-d2fe1b896f10"},{"reference":"Organization/7762bc4d-5282-4260-8478-0b94827bb68a"},{"reference":"Practitioner/2f8c4438-8715-4ed3-a6fc-2b927dd694e7"}]},"request":{"method":"PUT","url":"MeasureReport/cd96a81e-7db9-45ae-96ea-97bbeae7519c"}},{"fullUrl":"Bundle/661579e3db207d74c03b8a54","resource":{"resourceType":"Bundle","id":"661579e3db207d74c03b8a54","type":"transaction","entry":[{"fullUrl":"https://madie.cms.gov/Patient/8e96f973-9e5d-4c85-9466-83c562f5a2ee","resource":{"resourceType":"Patient","id":"8e96f973-9e5d-4c85-9466-83c562f5a2ee","meta":{"profile":["http://hl7.org/fhir/us/qicore/StructureDefinition/qicore-patient"]},"extension":[{"url":"http://hl7.org/fhir/us/core/StructureDefinition/us-core-race","extension":[{"url":"ombCategory","valueCoding":{"system":"urn:oid:2.16.840.1.113883.6.238","code":"2076-8","display":"Native Hawaiian or Other Pacific Islander","userSelected":true}},{"url":"text","valueString":"Native Hawaiian or Other Pacific Islander"}]},{"url":"http://hl7.org/fhir/us/core/StructureDefinition/us-core-ethnicity","extension":[{"url":"ombCategory","valueCoding":{"system":"urn:oid:2.16.840.1.113883.6.238","code":"2186-5","display":"Not Hispanic or Latino","userSelected":true}},{"url":"text","valueString":"Not Hispanic or Latino"}]},{"url":"http://hl7.org/fhir/us/core/StructureDefinition/us-core-sex","valueCode":"248152002"}],"identifier":[{"type":{"coding":[{"system":"http://terminology.hl7.org/CodeSystem/v2-0203","code":"MR"}]},"system":"https://bonnie-fhir.healthit.gov/","value":"661579e3db207d74c03b8a54"}],"name":[{"family":"NUMERStrat4Pass","given":["TriageDuringEM"]}],"gender":"female","birthDate":"2008-12-31"},"request":{"method":"PUT","url":"Patient/8e96f973-9e5d-4c85-9466-83c562f5a2ee"}},{"fullUrl":"https://madie.cms.gov/Encounter/4988464e-c3e0-4176-8f4a-084e5a8d7a0d","resource":{"resourceType":"Encounter","id":"4988464e-c3e0-4176-8f4a-084e5a8d7a0d","meta":{"profile":["http://hl7.org/fhir/us/qicore/StructureDefinition/qicore-encounter"]},"status":"finished","class":{"system":"http://terminology.hl7.org/CodeSystem/v3-ActCode","code":"EMER","display":"emergency"},"type":[{"coding":[{"system":"http://snomed.info/sct","version":"2023-09","code":"225390008","display":"Triage (procedure)","userSelected":true}]}],"subject":{"reference":"Patient/8e96f973-9e5d-4c85-9466-83c562f5a2ee"},"period":{"start":"2027-05-01T08:00:00.000+00:00","end":"2027-05-01T08:15:00.000+00:00"}},"request":{"method":"PUT","url":"Encounter/4988464e-c3e0-4176-8f4a-084e5a8d7a0d"}},{"fullUrl":"https://madie.cms.gov/Encounter/b538d7fe-0bbf-42b7-a6ec-f0c6a382517c","resource":{"resourceType":"Encounter","id":"b538d7fe-0bbf-42b7-a6ec-f0c6a382517c","meta":{"profile":["http://hl7.org/fhir/us/qicore/StructureDefinition/qicore-encounter"]},"status":"finished","class":{"system":"http://terminology.hl7.org/CodeSystem/v3-ActCode","code":"EMER","display":"emergency"},"type":[{"coding":[{"system":"http://snomed.info/sct","version":"2023-09","code":"4525004","display":"Emergency department patient visit (procedure)","userSelected":true}]}],"subject":{"reference":"Patient/8e96f973-9e5d-4c85-9466-83c562f5a2ee"},"period":{"start":"2027-05-01T08:00:00.000+00:00","end":"2027-05-01T12:15:00.000+00:00"},"diagnosis":[{"condition":{"reference":"Condition/cf777edb-0f4d-483f-b4c2-8885cd488600"},"use":{"coding":[{"system":"http://terminology.hl7.org/CodeSystem/diagnosis-role","code":"billing"}]},"rank":1}],"location":[{"location":{"reference":"Location/85096b04-4154-42d4-b8a3-daff407b5b7c"},"period":{"start":"2027-05-01T07:45:00.000+00:00","end":"2027-05-01T16:31:00.000+00:00"}},{"location":{"reference":"Location/9cbaeebe-7611-4892-91f7-a317ec3d83d1"},"period":{"start":"2027-05-01T09:31:00.000+00:00","end":"2027-05-01T12:15:00.000+00:00"}},{"location":{"reference":"Location/bf9c9a24-b85a-439b-98bf-3335d2c3e0c3"},"period":{"start":"2027-05-01T08:40:00.000+00:00","end":"2027-05-01T12:15:00.000+00:00"}},{"location":{"reference":"Location/18ecc833-1947-4088-b2bf-c9d5959b2a19"},"period":{"start":"2027-05-01T08:30:00.000+00:00","end":"2027-05-01T15:46:00.000+00:00"}}]},"request":{"method":"PUT","url":"Encounter/b538d7fe-0bbf-42b7-a6ec-f0c6a382517c"}},{"fullUrl":"https://madie.cms.gov/Location/85096b04-4154-42d4-b8a3-daff407b5b7c","resource":{"resourceType":"Location","id":"85096b04-4154-42d4-b8a3-daff407b5b7c","meta":{"profile":["http://hl7.org/fhir/us/qicore/StructureDefinition/qicore-location"]},"identifier":[{"use":"usual","system":"http://exampleoflocation.com","value":"B1-S.F1"}],"name":"Medical Surgical East, first floor","type":[{"coding":[{"system":"https://www.cdc.gov/nhsn/cdaportal/terminology/codesystem/hsloc.html","version":"2022","code":"1108-0","display":"Emergency Department","userSelected":true}]}]},"request":{"method":"PUT","url":"Location/85096b04-4154-42d4-b8a3-daff407b5b7c"}},{"fullUrl":"https://madie.cms.gov/Location/9cbaeebe-7611-4892-91f7-a317ec3d83d1","resource":{"resourceType":"Location","id":"9cbaeebe-7611-4892-91f7-a317ec3d83d1","meta":{"profile":["http://hl7.org/fhir/us/qicore/StructureDefinition/qicore-location"]},"identifier":[{"use":"usual","system":"http://exampleoflocation.com","value":"B1-S.F2"}],"name":"Medical Surgical East, first floor","type":[{"coding":[{"system":"https://www.cdc.gov/nhsn/cdaportal/terminology/codesystem/hsloc.html","version":"2022","code":"1209-6","display":"Treatment Room","userSelected":true}]}]},"request":{"method":"PUT","url":"Location/9cbaeebe-7611-4892-91f7-a317ec3d83d1"}},{"fullUrl":"https://madie.cms.gov/Condition/cf777edb-0f4d-483f-b4c2-8885cd488600","resource":{"resourceType":"Condition","id":"cf777edb-0f4d-483f-b4c2-8885cd488600","meta":{"profile":["http://hl7.org/fhir/us/qicore/StructureDefinition/qicore-condition-encounter-diagnosis"]},"category":[{"coding":[{"system":"http://terminology.hl7.org/CodeSystem/condition-category","code":"encounter-diagnosis","display":"Encounter Diagnosis"}]}],"code":{"coding":[{"system":"http://snomed.info/sct","version":"2023-09","code":"10349009","display":"Multi-infarct dementia with delirium (disorder)","userSelected":true}]},"subject":{"reference":"Patient/8e96f973-9e5d-4c85-9466-83c562f5a2ee"},"recordedDate":"2027-04-09T08:00:00.000+00:00"},"request":{"method":"PUT","url":"Condition/cf777edb-0f4d-483f-b4c2-8885cd488600"}},{"fullUrl":"https://madie.cms.gov/Location/18ecc833-1947-4088-b2bf-c9d5959b2a19","resource":{"resourceType":"Location","id":"18ecc833-1947-4088-b2bf-c9d5959b2a19","meta":{"profile":["http://hl7.org/fhir/us/qicore/StructureDefinition/qicore-location"]},"identifier":[{"use":"usual","system":"http://exampleoflocation.com","value":"B1-S.F2"}],"name":"Medical Surgical East, first floor","type":[{"coding":[{"system":"https://www.cdc.gov/nhsn/cdaportal/terminology/codesystem/hsloc.html","version":"2022","code":"1108-0","display":"Emergency Department","userSelected":true}]}]},"request":{"method":"PUT","url":"Location/18ecc833-1947-4088-b2bf-c9d5959b2a19"}},{"fullUrl":"https://madie.cms.gov/Location/bf9c9a24-b85a-439b-98bf-3335d2c3e0c3","resource":{"resourceType":"Location","id":"bf9c9a24-b85a-439b-98bf-3335d2c3e0c3","meta":{"profile":["http://hl7.org/fhir/us/qicore/StructureDefinition/qicore-location"]},"identifier":[{"use":"usual","system":"http://exampleoflocation.com","value":"B1-S.F2"}],"name":"Medical Surgical East, first floor","type":[{"coding":[{"system":"https://www.cdc.gov/nhsn/cdaportal/terminology/codesystem/hsloc.html","version":"2022","code":"1209-6","display":"Treatment Room"}]}]},"request":{"method":"PUT","url":"Location/bf9c9a24-b85a-439b-98bf-3335d2c3e0c3"}},{"fullUrl":"https://madie.cms.gov/claim/ClaimBehavior-NotSubsAbuse","resource":{"resourceType":"Claim","id":"ClaimBehavior-NotSubsAbuse","meta":{"profile":["http://hl7.org/fhir/us/qicore/StructureDefinition/qicore-claim"]},"status":"active","type":{"coding":[{"system":"http://terminology.hl7.org/CodeSystem/claim-type","code":"institutional"}]},"use":"claim","patient":{"reference":"Patient/8e96f973-9e5d-4c85-9466-83c562f5a2ee"},"created":"2027-05-01","provider":{"reference":"Practitioner/2f8c4438-8715-4ed3-a6fc-2b927dd694e7"},"priority":{"coding":[{"system":"http://terminology.hl7.org/CodeSystem/processpriority","code":"normal"}]},"diagnosis":[{"sequence":1,"diagnosisReference":{"reference":"Condition/cf777edb-0f4d-483f-b4c2-8885cd488600"},"type":[{"coding":[{"system":"http://terminology.hl7.org/CodeSystem/ex-diagnosistype","code":"principal"}]}]}],"insurance":[{"sequence":1,"focal":true,"coverage":{"reference":"Coverage/b513588d-6ac5-4f22-9ce4-d2fe1b896f10"}}],"item":[{"sequence":1,"diagnosisSequence":[1],"productOrService":{"coding":[{"system":"http://terminology.hl7.org/CodeSystem/ex-USCLS","code":"99555"}]},"encounter":[{"reference":"Encounter/b538d7fe-0bbf-42b7-a6ec-f0c6a382517c"}]}]},"request":{"method":"PUT","url":"Claim/ClaimBehavior-NotSubsAbuse"}},{"fullUrl":"https://madie.cms.gov/Coverage/b513588d-6ac5-4f22-9ce4-d2fe1b896f10","resource":{"resourceType":"Coverage","id":"b513588d-6ac5-4f22-9ce4-d2fe1b896f10","meta":{"profile":["http://hl7.org/fhir/us/qicore/StructureDefinition/qicore-coverage"]},"identifier":[{"type":{"coding":[{"system":"http://terminology.hl7.org/CodeSystem/v2-0203","code":"MB"}]}}],"status":"active","beneficiary":{"reference":"Patient/8e96f973-9e5d-4c85-9466-83c562f5a2ee"},"relationship":{"coding":[{"system":"http://terminology.hl7.org/CodeSystem/subscriber-relationship","code":"self"}]},"payor":[{"reference":"Organization/7762bc4d-5282-4260-8478-0b94827bb68a"}]},"request":{"method":"PUT","url":"Coverage/b513588d-6ac5-4f22-9ce4-d2fe1b896f10"}},{"fullUrl":"https://madie.cms.gov/Organization/7762bc4d-5282-4260-8478-0b94827bb68a","resource":{"resourceType":"Organization","id":"7762bc4d-5282-4260-8478-0b94827bb68a","meta":{"profile":["http://hl7.org/fhir/us/qicore/StructureDefinition/qicore-organization"]},"identifier":[{"use":"temp","system":"urn:oid:2.16.840.1.113883.4.4","value":"21-3259825"}],"active":true,"type":[{"coding":[{"system":"http://terminology.hl7.org/CodeSystem/organization-type","code":"pay","display":"Payer"}]}],"name":"Blue Cross Blue Shield of Texas","telecom":[{"system":"phone","value":"(+1) 972-766-6900"}],"address":[{"use":"billing","type":"postal","line":["P.O. Box 660044"],"city":"Dallas","state":"TX","postalCode":"75266-0044","country":"USA"}]},"request":{"method":"PUT","url":"Organization/7762bc4d-5282-4260-8478-0b94827bb68a"}},{"fullUrl":"https://madie.cms.gov/Practitioner/2f8c4438-8715-4ed3-a6fc-2b927dd694e7","resource":{"resourceType":"Practitioner","id":"2f8c4438-8715-4ed3-a6fc-2b927dd694e7","meta":{"profile":["http://hl7.org/fhir/us/qicore/StructureDefinition/qicore-practitioner"]},"identifier":[{"system":"http://hl7.org/fhir/sid/us-npi","value":"9999999896"}],"name":[{"family":"Evil","prefix":["Dr"]}]},"request":{"method":"PUT","url":"Practitioner/2f8c4438-8715-4ed3-a6fc-2b927dd694e7"}},{"fullUrl":"https://madie.cms.gov/MeasureReport/cd96a81e-7db9-45ae-96ea-97bbeae7519c","resource":{"resourceType":"MeasureReport","id":"cd96a81e-7db9-45ae-96ea-97bbeae7519c","meta":{"profile":["http://hl7.org/fhir/us/cqfmeasures/StructureDefinition/test-case-cqfm"]},"contained":[{"resourceType":"Parameters","id":"9261b403-bac8-44ab-8e76-9eafd1bd55a3-parameters","parameter":[{"name":"subject","valueString":"8e96f973-9e5d-4c85-9466-83c562f5a2ee"}]}],"extension":[{"url":"http://hl7.org/fhir/StructureDefinition/cqf-inputParameters","valueReference":{"reference":"#9261b403-bac8-44ab-8e76-9eafd1bd55a3-parameters"}},{"url":"http://hl7.org/fhir/us/cqfmeasures/StructureDefinition/cqfm-testCaseDescription","valueMarkdown":"Adult, mental condition, ED arrival to treatment - takes latest location time"}],"modifierExtension":[{"url":"http://hl7.org/fhir/us/cqfmeasures/StructureDefinition/cqfm-isTestCase","valueBoolean":true}],"status":"complete","type":"individual","measure":"https://madie.cms.gov/Measure/CMS1244FHIRECATHOQR","period":{"start":"2027-01-01","end":"2027-12-31"},"group":[{"id":"Group_1","population":[{"id":"InitialPopulation_1","code":{"coding":[{"system":"http://terminology.hl7.org/CodeSystem/measure-population","code":"initial-population","display":"Initial Population"}]},"count":1},{"id":"Denominator_1","code":{"coding":[{"system":"http://terminology.hl7.org/CodeSystem/measure-population","code":"denominator","display":"Denominator"}]},"count":1},{"id":"Numerator_1","code":{"coding":[{"system":"http://terminology.hl7.org/CodeSystem/measure-population","code":"numerator","display":"Numerator"}]},"count":1}],"measureScore":{"value":0.0},"stratifier":[{"id":"Stratification_1_1","code":[{"text":"Strata-1"}],"stratum":[{"value":{"text":"Strata-1"},"population":[{"id":"InitialPopulation_1","code":{"coding":[{"system":"http://terminology.hl7.org/CodeSystem/measure-population","code":"initial-population","display":"Initial Population"}]},"count":0},{"id":"Denominator_1","code":{"coding":[{"system":"http://terminology.hl7.org/CodeSystem/measure-population","code":"denominator","display":"Denominator"}]},"count":0},{"id":"Numerator_1","code":{"coding":[{"system":"http://terminology.hl7.org/CodeSystem/measure-population","code":"numerator","display":"Numerator"}]},"count":0}]}]},{"id":"Stratification_1_2","code":[{"text":"Strata-2"}],"stratum":[{"value":{"text":"Strata-2"},"population":[{"id":"InitialPopulation_1","code":{"coding":[{"system":"http://terminology.hl7.org/CodeSystem/measure-population","code":"initial-population","display":"Initial Population"}]},"count":0},{"id":"Denominator_1","code":{"coding":[{"system":"http://terminology.hl7.org/CodeSystem/measure-population","code":"denominator","display":"Denominator"}]},"count":0},{"id":"Numerator_1","code":{"coding":[{"system":"http://terminology.hl7.org/CodeSystem/measure-population","code":"numerator","display":"Numerator"}]},"count":0}]}]},{"id":"Stratification_1_3","code":[{"text":"Strata-3"}],"stratum":[{"value":{"text":"Strata-3"},"population":[{"id":"InitialPopulation_1","code":{"coding":[{"system":"http://terminology.hl7.org/CodeSystem/measure-population","code":"initial-population","display":"Initial Population"}]},"count":0},{"id":"Denominator_1","code":{"coding":[{"system":"http://terminology.hl7.org/CodeSystem/measure-population","code":"denominator","display":"Denominator"}]},"count":0},{"id":"Numerator_1","code":{"coding":[{"system":"http://terminology.hl7.org/CodeSystem/measure-population","code":"numerator","display":"Numerator"}]},"count":0}]}]},{"id":"Stratification_1_4","code":[{"text":"Strata-4"}],"stratum":[{"value":{"text":"Strata-4"},"population":[{"id":"InitialPopulation_1","code":{"coding":[{"system":"http://terminology.hl7.org/CodeSystem/measure-population","code":"initial-population","display":"Initial Population"}]},"count":1},{"id":"Denominator_1","code":{"coding":[{"system":"http://terminology.hl7.org/CodeSystem/measure-population","code":"denominator","display":"Denominator"}]},"count":1},{"id":"Numerator_1","code":{"coding":[{"system":"http://terminology.hl7.org/CodeSystem/measure-population","code":"numerator","display":"Numerator"}]},"count":1}]}]}]}],"evaluatedResource":[{"reference":"Patient/8e96f973-9e5d-4c85-9466-83c562f5a2ee"},{"reference":"Encounter/4988464e-c3e0-4176-8f4a-084e5a8d7a0d"},{"reference":"Encounter/b538d7fe-0bbf-42b7-a6ec-f0c6a382517c"},{"reference":"Location/85096b04-4154-42d4-b8a3-daff407b5b7c"},{"reference":"Location/9cbaeebe-7611-4892-91f7-a317ec3d83d1"},{"reference":"Condition/cf777edb-0f4d-483f-b4c2-8885cd488600"},{"reference":"Location/18ecc833-1947-4088-b2bf-c9d5959b2a19"},{"reference":"Location/bf9c9a24-b85a-439b-98bf-3335d2c3e0c3"},{"reference":"Claim/ClaimBehavior-NotSubsAbuse"},{"reference":"Coverage/b513588d-6ac5-4f22-9ce4-d2fe1b896f10"},{"reference":"Organization/7762bc4d-5282-4260-8478-0b94827bb68a"},{"reference":"Practitioner/2f8c4438-8715-4ed3-a6fc-2b927dd694e7"}]},"request":{"method":"PUT","url":"MeasureReport/cd96a81e-7db9-45ae-96ea-97bbeae7519c"}}]},"request":{"method":"PUT","url":"Bundle/661579e3db207d74c03b8a54"}}]}