{"resourceType":"Bundle","id":"tests-42be9d46-4c2f-4493-8299-d33dcbb7170e-bundle","type":"transaction","entry":[{"fullUrl":"Encounter/313c620a-f44b-42c9-a65e-01c97a19a2c4","resource":{"resourceType":"Encounter","id":"313c620a-f44b-42c9-a65e-01c97a19a2c4","meta":{"profile":["http://hl7.org/fhir/us/qicore/StructureDefinition/qicore-encounter"]},"status":"finished","class":{"system":"http://terminology.hl7.org/CodeSystem/v3-ActCode","code":"EMER","display":"emergency"},"type":[{"coding":[{"system":"http://snomed.info/sct","code":"448951000124107","display":"Admission to observation unit (procedure)","userSelected":true}]}],"subject":{"reference":"Patient/42be9d46-4c2f-4493-8299-d33dcbb7170e"},"period":{"start":"2027-05-01T01:01:00.000+00:00","end":"2027-05-01T05:59:00.000+00:00"}},"request":{"method":"PUT","url":"Encounter/313c620a-f44b-42c9-a65e-01c97a19a2c4"}},{"fullUrl":"Bundle/661476b015ed5841a5547ebf","resource":{"resourceType":"Bundle","id":"661476b015ed5841a5547ebf","type":"transaction","entry":[{"fullUrl":"https://madie.cms.gov/Patient/42be9d46-4c2f-4493-8299-d33dcbb7170e","resource":{"resourceType":"Patient","id":"42be9d46-4c2f-4493-8299-d33dcbb7170e","meta":{"profile":["http://hl7.org/fhir/us/qicore/StructureDefinition/qicore-patient"]},"extension":[{"url":"http://hl7.org/fhir/us/core/StructureDefinition/us-core-race","extension":[{"url":"ombCategory","valueCoding":{"system":"urn:oid:2.16.840.1.113883.6.238","code":"1002-5","display":"American Indian or Alaska Native","userSelected":true}},{"url":"text","valueString":"American Indian or Alaska Native"}]},{"url":"http://hl7.org/fhir/us/core/StructureDefinition/us-core-ethnicity","extension":[{"url":"ombCategory","valueCoding":{"system":"urn:oid:2.16.840.1.113883.6.238","code":"2135-2","display":"Hispanic or Latino","userSelected":true}},{"url":"text","valueString":"Hispanic or Latino"}]},{"url":"http://hl7.org/fhir/us/core/StructureDefinition/us-core-sex","valueCode":"248153007"}],"identifier":[{"type":{"coding":[{"system":"http://terminology.hl7.org/CodeSystem/v2-0203","code":"MR"}]},"system":"https://bonnie-fhir.healthit.gov/","value":"661476b015ed5841a5547ebf"}],"name":[{"family":"NUMERStrat4Pass","given":["EDObsBoarded"]}],"gender":"male","birthDate":"2009-01-01"},"request":{"method":"PUT","url":"Patient/42be9d46-4c2f-4493-8299-d33dcbb7170e"}},{"fullUrl":"https://madie.cms.gov/Encounter/b435f3d2-8e5d-4cbc-9b35-e7ee0dbb66ff","resource":{"resourceType":"Encounter","id":"b435f3d2-8e5d-4cbc-9b35-e7ee0dbb66ff","meta":{"profile":["http://hl7.org/fhir/us/qicore/StructureDefinition/qicore-encounter"]},"status":"finished","class":{"system":"http://terminology.hl7.org/CodeSystem/v3-ActCode","code":"EMER","display":"emergency department"},"type":[{"coding":[{"system":"http://snomed.info/sct","version":"2023-09","code":"4525004","display":"Emergency department patient visit (procedure)","userSelected":true}]}],"subject":{"reference":"Patient/42be9d46-4c2f-4493-8299-d33dcbb7170e"},"period":{"start":"2027-05-01T00:00:00.000+00:00","end":"2027-05-01T06:02:00.000+00:00"},"diagnosis":[{"condition":{"reference":"Condition/2b2ae596-8c18-4130-a600-8b91bff7a40f"},"use":{"coding":[{"system":"http://terminology.hl7.org/CodeSystem/diagnosis-role","code":"billing"}]},"rank":1}],"location":[{"location":{"reference":"Location/8421ec49-4aab-41f5-ae79-2081c1fa0c58"},"period":{"start":"2027-05-01T00:00:00.000+00:00","end":"2027-05-01T06:02:00.000+00:00"}}]},"request":{"method":"PUT","url":"Encounter/b435f3d2-8e5d-4cbc-9b35-e7ee0dbb66ff"}},{"fullUrl":"https://madie.cms.gov/Encounter/4e358db8-580e-40a5-8acf-274ccfb92a87","resource":{"resourceType":"Encounter","id":"4e358db8-580e-40a5-8acf-274ccfb92a87","meta":{"profile":["http://hl7.org/fhir/us/qicore/StructureDefinition/qicore-encounter"]},"status":"finished","class":{"system":"http://terminology.hl7.org/CodeSystem/v3-ActCode","code":"IMP","display":"inpatient encounter"},"type":[{"coding":[{"system":"http://snomed.info/sct","version":"2023-09","code":"183452005","display":"Emergency hospital admission (procedure)","userSelected":true}]}],"subject":{"reference":"Patient/42be9d46-4c2f-4493-8299-d33dcbb7170e"},"period":{"start":"2027-05-01T05:00:00.000+00:00","end":"2027-05-03T06:15:00.000+00:00"}},"request":{"method":"PUT","url":"Encounter/4e358db8-580e-40a5-8acf-274ccfb92a87"}},{"fullUrl":"https://madie.cms.gov/ServiceRequest/aba9a6be-8665-4193-8894-9cb6de7eb9a9","resource":{"resourceType":"ServiceRequest","id":"aba9a6be-8665-4193-8894-9cb6de7eb9a9","meta":{"profile":["http://hl7.org/fhir/us/qicore/StructureDefinition/qicore-servicerequest"]},"status":"active","intent":"order","code":{"coding":[{"system":"http://snomed.info/sct","code":"5751000175101","display":"Patient bed assigned (finding)","userSelected":true}]},"subject":{"reference":"Patient/42be9d46-4c2f-4493-8299-d33dcbb7170e"},"authoredOn":"2027-05-01T02:00:00.000+00:00"},"request":{"method":"PUT","url":"ServiceRequest/aba9a6be-8665-4193-8894-9cb6de7eb9a9"}},{"fullUrl":"https://madie.cms.gov/Location/8421ec49-4aab-41f5-ae79-2081c1fa0c58","resource":{"resourceType":"Location","id":"8421ec49-4aab-41f5-ae79-2081c1fa0c58","meta":{"profile":["http://hl7.org/fhir/us/qicore/StructureDefinition/qicore-location"]},"identifier":[{"use":"usual","system":"http://exampleoflocation.com","value":"B1-S.F2"}],"name":"Medical Surgical East, first floor","type":[{"coding":[{"system":"https://www.cdc.gov/nhsn/cdaportal/terminology/codesystem/hsloc.html","version":"2022","code":"1108-0","display":"Emergency Department","userSelected":true}]}]},"request":{"method":"PUT","url":"Location/8421ec49-4aab-41f5-ae79-2081c1fa0c58"}},{"fullUrl":"https://madie.cms.gov/claim/ClaimBehavior-NotSubsAbuse","resource":{"resourceType":"Claim","id":"ClaimBehavior-NotSubsAbuse","meta":{"profile":["http://hl7.org/fhir/us/qicore/StructureDefinition/qicore-claim"]},"status":"active","type":{"coding":[{"system":"http://terminology.hl7.org/CodeSystem/claim-type","code":"institutional"}]},"use":"claim","patient":{"reference":"Patient/42be9d46-4c2f-4493-8299-d33dcbb7170e"},"created":"2027-05-01","provider":{"reference":"Practitioner/050d0de9-6333-4550-a8fd-eb0e73fac90e"},"priority":{"coding":[{"system":"http://terminology.hl7.org/CodeSystem/processpriority","code":"normal"}]},"diagnosis":[{"sequence":1,"diagnosisReference":{"reference":"Condition/2b2ae596-8c18-4130-a600-8b91bff7a40f"},"type":[{"coding":[{"system":"http://terminology.hl7.org/CodeSystem/ex-diagnosistype","code":"principal"}]}]}],"insurance":[{"sequence":1,"focal":true,"coverage":{"reference":"Coverage/c301dd2f-746e-4a6f-8125-f8ad1d71f82d"}}],"item":[{"sequence":1,"diagnosisSequence":[1],"productOrService":{"coding":[{"system":"http://terminology.hl7.org/CodeSystem/ex-USCLS","code":"99555"}]},"encounter":[{"reference":"Encounter/b435f3d2-8e5d-4cbc-9b35-e7ee0dbb66ff"}]}]},"request":{"method":"PUT","url":"Claim/ClaimBehavior-NotSubsAbuse"}},{"fullUrl":"https://madie.cms.gov/Coverage/c301dd2f-746e-4a6f-8125-f8ad1d71f82d","resource":{"resourceType":"Coverage","id":"c301dd2f-746e-4a6f-8125-f8ad1d71f82d","meta":{"profile":["http://hl7.org/fhir/us/qicore/StructureDefinition/qicore-coverage"]},"identifier":[{"type":{"coding":[{"system":"http://terminology.hl7.org/CodeSystem/v2-0203","code":"MB"}]}}],"status":"active","beneficiary":{"reference":"Patient/42be9d46-4c2f-4493-8299-d33dcbb7170e"},"relationship":{"coding":[{"system":"http://terminology.hl7.org/CodeSystem/subscriber-relationship","code":"self"}]},"payor":[{"reference":"Organization/f311af4c-c5fa-4b33-9719-0d029eaedb00"}]},"request":{"method":"PUT","url":"Coverage/c301dd2f-746e-4a6f-8125-f8ad1d71f82d"}},{"fullUrl":"https://madie.cms.gov/Condition/2b2ae596-8c18-4130-a600-8b91bff7a40f","resource":{"resourceType":"Condition","id":"2b2ae596-8c18-4130-a600-8b91bff7a40f","meta":{"profile":["http://hl7.org/fhir/us/qicore/StructureDefinition/qicore-condition-encounter-diagnosis"]},"category":[{"coding":[{"system":"http://terminology.hl7.org/CodeSystem/condition-category","code":"encounter-diagnosis","display":"Encounter Diagnosis"}]}],"code":{"coding":[{"system":"http://snomed.info/sct","version":"2023-09","code":"10349009","display":"Multi-infarct dementia with delirium (disorder)","userSelected":true}]},"subject":{"reference":"Patient/42be9d46-4c2f-4493-8299-d33dcbb7170e"},"recordedDate":"2027-05-01T08:00:00.000+00:00"},"request":{"method":"PUT","url":"Condition/2b2ae596-8c18-4130-a600-8b91bff7a40f"}},{"fullUrl":"https://madie.cms.gov/Encounter/313c620a-f44b-42c9-a65e-01c97a19a2c4","resource":{"resourceType":"Encounter","id":"313c620a-f44b-42c9-a65e-01c97a19a2c4","meta":{"profile":["http://hl7.org/fhir/us/qicore/StructureDefinition/qicore-encounter"]},"status":"finished","class":{"system":"http://terminology.hl7.org/CodeSystem/v3-ActCode","code":"EMER","display":"emergency"},"type":[{"coding":[{"system":"http://snomed.info/sct","code":"448951000124107","display":"Admission to observation unit (procedure)","userSelected":true}]}],"subject":{"reference":"Patient/42be9d46-4c2f-4493-8299-d33dcbb7170e"},"period":{"start":"2027-05-01T01:01:00.000+00:00","end":"2027-05-01T05:59:00.000+00:00"}},"request":{"method":"PUT","url":"Encounter/313c620a-f44b-42c9-a65e-01c97a19a2c4"}},{"fullUrl":"https://madie.cms.gov/Organization/f311af4c-c5fa-4b33-9719-0d029eaedb00","resource":{"resourceType":"Organization","id":"f311af4c-c5fa-4b33-9719-0d029eaedb00","meta":{"profile":["http://hl7.org/fhir/us/qicore/StructureDefinition/qicore-organization"]},"identifier":[{"use":"temp","system":"urn:oid:2.16.840.1.113883.4.4","value":"21-3259825"}],"active":true,"type":[{"coding":[{"system":"http://terminology.hl7.org/CodeSystem/organization-type","code":"pay","display":"Payer"}]}],"name":"Blue Cross Blue Shield of Texas","telecom":[{"system":"phone","value":"(+1) 972-766-6900"}],"address":[{"use":"billing","type":"postal","line":["P.O. Box 660044"],"city":"Dallas","state":"TX","postalCode":"75266-0044","country":"USA"}]},"request":{"method":"PUT","url":"Organization/f311af4c-c5fa-4b33-9719-0d029eaedb00"}},{"fullUrl":"https://madie.cms.gov/Practitioner/050d0de9-6333-4550-a8fd-eb0e73fac90e","resource":{"resourceType":"Practitioner","id":"050d0de9-6333-4550-a8fd-eb0e73fac90e","meta":{"profile":["http://hl7.org/fhir/us/qicore/StructureDefinition/qicore-practitioner"]},"identifier":[{"system":"http://hl7.org/fhir/sid/us-npi","value":"9999999896"}],"name":[{"family":"Evil","prefix":["Dr"]}]},"request":{"method":"PUT","url":"Practitioner/050d0de9-6333-4550-a8fd-eb0e73fac90e"}},{"fullUrl":"https://madie.cms.gov/MeasureReport/67dca60a-063e-4f84-bce4-44e6bd00c55b","resource":{"resourceType":"MeasureReport","id":"67dca60a-063e-4f84-bce4-44e6bd00c55b","meta":{"profile":["http://hl7.org/fhir/us/cqfmeasures/StructureDefinition/test-case-cqfm"]},"contained":[{"resourceType":"Parameters","id":"84dfb103-4688-46a7-9085-b0f7d94db9d1-parameters","parameter":[{"name":"subject","valueString":"42be9d46-4c2f-4493-8299-d33dcbb7170e"}]}],"extension":[{"url":"http://hl7.org/fhir/StructureDefinition/cqf-inputParameters","valueReference":{"reference":"#84dfb103-4688-46a7-9085-b0f7d94db9d1-parameters"}},{"url":"http://hl7.org/fhir/us/cqfmeasures/StructureDefinition/cqfm-testCaseDescription","valueMarkdown":"Adult, ED observation during ED enc where patient was boarded 6 hrs 1 min; Enc 8 hrs, enc departure 8 hrs 1 min."}],"modifierExtension":[{"url":"http://hl7.org/fhir/us/cqfmeasures/StructureDefinition/cqfm-isTestCase","valueBoolean":true}],"status":"complete","type":"individual","measure":"https://madie.cms.gov/Measure/CMS1244FHIRECATHOQR","period":{"start":"2027-01-01","end":"2027-12-31"},"group":[{"id":"Group_1","population":[{"id":"InitialPopulation_1","code":{"coding":[{"system":"http://terminology.hl7.org/CodeSystem/measure-population","code":"initial-population","display":"Initial Population"}]},"count":1},{"id":"Denominator_1","code":{"coding":[{"system":"http://terminology.hl7.org/CodeSystem/measure-population","code":"denominator","display":"Denominator"}]},"count":1},{"id":"Numerator_1","code":{"coding":[{"system":"http://terminology.hl7.org/CodeSystem/measure-population","code":"numerator","display":"Numerator"}]},"count":0}],"measureScore":{"value":0.0},"stratifier":[{"id":"Stratification_1_1","code":[{"text":"Strata-1"}],"stratum":[{"value":{"text":"Strata-1"},"population":[{"id":"InitialPopulation_1","code":{"coding":[{"system":"http://terminology.hl7.org/CodeSystem/measure-population","code":"initial-population","display":"Initial Population"}]},"count":0},{"id":"Denominator_1","code":{"coding":[{"system":"http://terminology.hl7.org/CodeSystem/measure-population","code":"denominator","display":"Denominator"}]},"count":0},{"id":"Numerator_1","code":{"coding":[{"system":"http://terminology.hl7.org/CodeSystem/measure-population","code":"numerator","display":"Numerator"}]},"count":0}]}]},{"id":"Stratification_1_2","code":[{"text":"Strata-2"}],"stratum":[{"value":{"text":"Strata-2"},"population":[{"id":"InitialPopulation_1","code":{"coding":[{"system":"http://terminology.hl7.org/CodeSystem/measure-population","code":"initial-population","display":"Initial Population"}]},"count":0},{"id":"Denominator_1","code":{"coding":[{"system":"http://terminology.hl7.org/CodeSystem/measure-population","code":"denominator","display":"Denominator"}]},"count":0},{"id":"Numerator_1","code":{"coding":[{"system":"http://terminology.hl7.org/CodeSystem/measure-population","code":"numerator","display":"Numerator"}]},"count":0}]}]},{"id":"Stratification_1_3","code":[{"text":"Strata-3"}],"stratum":[{"value":{"text":"Strata-3"},"population":[{"id":"InitialPopulation_1","code":{"coding":[{"system":"http://terminology.hl7.org/CodeSystem/measure-population","code":"initial-population","display":"Initial Population"}]},"count":0},{"id":"Denominator_1","code":{"coding":[{"system":"http://terminology.hl7.org/CodeSystem/measure-population","code":"denominator","display":"Denominator"}]},"count":0},{"id":"Numerator_1","code":{"coding":[{"system":"http://terminology.hl7.org/CodeSystem/measure-population","code":"numerator","display":"Numerator"}]},"count":0}]}]},{"id":"Stratification_1_4","code":[{"text":"Strata-4"}],"stratum":[{"value":{"text":"Strata-4"},"population":[{"id":"InitialPopulation_1","code":{"coding":[{"system":"http://terminology.hl7.org/CodeSystem/measure-population","code":"initial-population","display":"Initial Population"}]},"count":1},{"id":"Denominator_1","code":{"coding":[{"system":"http://terminology.hl7.org/CodeSystem/measure-population","code":"denominator","display":"Denominator"}]},"count":1},{"id":"Numerator_1","code":{"coding":[{"system":"http://terminology.hl7.org/CodeSystem/measure-population","code":"numerator","display":"Numerator"}]},"count":0}]}]}]}],"evaluatedResource":[{"reference":"Patient/42be9d46-4c2f-4493-8299-d33dcbb7170e"},{"reference":"Encounter/b435f3d2-8e5d-4cbc-9b35-e7ee0dbb66ff"},{"reference":"Encounter/4e358db8-580e-40a5-8acf-274ccfb92a87"},{"reference":"ServiceRequest/aba9a6be-8665-4193-8894-9cb6de7eb9a9"},{"reference":"Location/8421ec49-4aab-41f5-ae79-2081c1fa0c58"},{"reference":"Claim/ClaimBehavior-NotSubsAbuse"},{"reference":"Coverage/c301dd2f-746e-4a6f-8125-f8ad1d71f82d"},{"reference":"Condition/2b2ae596-8c18-4130-a600-8b91bff7a40f"},{"reference":"Encounter/313c620a-f44b-42c9-a65e-01c97a19a2c4"},{"reference":"Organization/f311af4c-c5fa-4b33-9719-0d029eaedb00"},{"reference":"Practitioner/050d0de9-6333-4550-a8fd-eb0e73fac90e"}]},"request":{"method":"PUT","url":"MeasureReport/67dca60a-063e-4f84-bce4-44e6bd00c55b"}}]},"request":{"method":"PUT","url":"Bundle/661476b015ed5841a5547ebf"}},{"fullUrl":"Practitioner/050d0de9-6333-4550-a8fd-eb0e73fac90e","resource":{"resourceType":"Practitioner","id":"050d0de9-6333-4550-a8fd-eb0e73fac90e","meta":{"profile":["http://hl7.org/fhir/us/qicore/StructureDefinition/qicore-practitioner"]},"identifier":[{"system":"http://hl7.org/fhir/sid/us-npi","value":"9999999896"}],"name":[{"family":"Evil","prefix":["Dr"]}]},"request":{"method":"PUT","url":"Practitioner/050d0de9-6333-4550-a8fd-eb0e73fac90e"}},{"fullUrl":"MeasureReport/67dca60a-063e-4f84-bce4-44e6bd00c55b","resource":{"resourceType":"MeasureReport","id":"67dca60a-063e-4f84-bce4-44e6bd00c55b","meta":{"profile":["http://hl7.org/fhir/us/cqfmeasures/StructureDefinition/test-case-cqfm"]},"contained":[{"resourceType":"Parameters","id":"84dfb103-4688-46a7-9085-b0f7d94db9d1-parameters","parameter":[{"name":"subject","valueString":"42be9d46-4c2f-4493-8299-d33dcbb7170e"}]}],"extension":[{"url":"http://hl7.org/fhir/StructureDefinition/cqf-inputParameters","valueReference":{"reference":"#84dfb103-4688-46a7-9085-b0f7d94db9d1-parameters"}},{"url":"http://hl7.org/fhir/us/cqfmeasures/StructureDefinition/cqfm-testCaseDescription","valueMarkdown":"Adult, ED observation during ED enc where patient was boarded 6 hrs 1 min; Enc 8 hrs, enc departure 8 hrs 1 min."}],"modifierExtension":[{"url":"http://hl7.org/fhir/us/cqfmeasures/StructureDefinition/cqfm-isTestCase","valueBoolean":true}],"status":"complete","type":"individual","measure":"https://madie.cms.gov/Measure/CMS1244FHIRECATHOQR","period":{"start":"2027-01-01","end":"2027-12-31"},"group":[{"id":"Group_1","population":[{"id":"InitialPopulation_1","code":{"coding":[{"system":"http://terminology.hl7.org/CodeSystem/measure-population","code":"initial-population","display":"Initial Population"}]},"count":1},{"id":"Denominator_1","code":{"coding":[{"system":"http://terminology.hl7.org/CodeSystem/measure-population","code":"denominator","display":"Denominator"}]},"count":1},{"id":"Numerator_1","code":{"coding":[{"system":"http://terminology.hl7.org/CodeSystem/measure-population","code":"numerator","display":"Numerator"}]},"count":0}],"measureScore":{"value":0.0},"stratifier":[{"id":"Stratification_1_1","code":[{"text":"Strata-1"}],"stratum":[{"value":{"text":"Strata-1"},"population":[{"id":"InitialPopulation_1","code":{"coding":[{"system":"http://terminology.hl7.org/CodeSystem/measure-population","code":"initial-population","display":"Initial Population"}]},"count":0},{"id":"Denominator_1","code":{"coding":[{"system":"http://terminology.hl7.org/CodeSystem/measure-population","code":"denominator","display":"Denominator"}]},"count":0},{"id":"Numerator_1","code":{"coding":[{"system":"http://terminology.hl7.org/CodeSystem/measure-population","code":"numerator","display":"Numerator"}]},"count":0}]}]},{"id":"Stratification_1_2","code":[{"text":"Strata-2"}],"stratum":[{"value":{"text":"Strata-2"},"population":[{"id":"InitialPopulation_1","code":{"coding":[{"system":"http://terminology.hl7.org/CodeSystem/measure-population","code":"initial-population","display":"Initial Population"}]},"count":0},{"id":"Denominator_1","code":{"coding":[{"system":"http://terminology.hl7.org/CodeSystem/measure-population","code":"denominator","display":"Denominator"}]},"count":0},{"id":"Numerator_1","code":{"coding":[{"system":"http://terminology.hl7.org/CodeSystem/measure-population","code":"numerator","display":"Numerator"}]},"count":0}]}]},{"id":"Stratification_1_3","code":[{"text":"Strata-3"}],"stratum":[{"value":{"text":"Strata-3"},"population":[{"id":"InitialPopulation_1","code":{"coding":[{"system":"http://terminology.hl7.org/CodeSystem/measure-population","code":"initial-population","display":"Initial Population"}]},"count":0},{"id":"Denominator_1","code":{"coding":[{"system":"http://terminology.hl7.org/CodeSystem/measure-population","code":"denominator","display":"Denominator"}]},"count":0},{"id":"Numerator_1","code":{"coding":[{"system":"http://terminology.hl7.org/CodeSystem/measure-population","code":"numerator","display":"Numerator"}]},"count":0}]}]},{"id":"Stratification_1_4","code":[{"text":"Strata-4"}],"stratum":[{"value":{"text":"Strata-4"},"population":[{"id":"InitialPopulation_1","code":{"coding":[{"system":"http://terminology.hl7.org/CodeSystem/measure-population","code":"initial-population","display":"Initial Population"}]},"count":1},{"id":"Denominator_1","code":{"coding":[{"system":"http://terminology.hl7.org/CodeSystem/measure-population","code":"denominator","display":"Denominator"}]},"count":1},{"id":"Numerator_1","code":{"coding":[{"system":"http://terminology.hl7.org/CodeSystem/measure-population","code":"numerator","display":"Numerator"}]},"count":0}]}]}]}],"evaluatedResource":[{"reference":"Patient/42be9d46-4c2f-4493-8299-d33dcbb7170e"},{"reference":"Encounter/b435f3d2-8e5d-4cbc-9b35-e7ee0dbb66ff"},{"reference":"Encounter/4e358db8-580e-40a5-8acf-274ccfb92a87"},{"reference":"ServiceRequest/aba9a6be-8665-4193-8894-9cb6de7eb9a9"},{"reference":"Location/8421ec49-4aab-41f5-ae79-2081c1fa0c58"},{"reference":"Claim/ClaimBehavior-NotSubsAbuse"},{"reference":"Coverage/c301dd2f-746e-4a6f-8125-f8ad1d71f82d"},{"reference":"Condition/2b2ae596-8c18-4130-a600-8b91bff7a40f"},{"reference":"Encounter/313c620a-f44b-42c9-a65e-01c97a19a2c4"},{"reference":"Organization/f311af4c-c5fa-4b33-9719-0d029eaedb00"},{"reference":"Practitioner/050d0de9-6333-4550-a8fd-eb0e73fac90e"}]},"request":{"method":"PUT","url":"MeasureReport/67dca60a-063e-4f84-bce4-44e6bd00c55b"}},{"fullUrl":"Patient/42be9d46-4c2f-4493-8299-d33dcbb7170e","resource":{"resourceType":"Patient","id":"42be9d46-4c2f-4493-8299-d33dcbb7170e","meta":{"profile":["http://hl7.org/fhir/us/qicore/StructureDefinition/qicore-patient"]},"extension":[{"url":"http://hl7.org/fhir/us/core/StructureDefinition/us-core-race","extension":[{"url":"ombCategory","valueCoding":{"system":"urn:oid:2.16.840.1.113883.6.238","code":"1002-5","display":"American Indian or Alaska Native","userSelected":true}},{"url":"text","valueString":"American Indian or Alaska Native"}]},{"url":"http://hl7.org/fhir/us/core/StructureDefinition/us-core-ethnicity","extension":[{"url":"ombCategory","valueCoding":{"system":"urn:oid:2.16.840.1.113883.6.238","code":"2135-2","display":"Hispanic or Latino","userSelected":true}},{"url":"text","valueString":"Hispanic or Latino"}]},{"url":"http://hl7.org/fhir/us/core/StructureDefinition/us-core-sex","valueCode":"248153007"}],"identifier":[{"type":{"coding":[{"system":"http://terminology.hl7.org/CodeSystem/v2-0203","code":"MR"}]},"system":"https://bonnie-fhir.healthit.gov/","value":"661476b015ed5841a5547ebf"}],"name":[{"family":"NUMERStrat4Pass","given":["EDObsBoarded"]}],"gender":"male","birthDate":"2009-01-01"},"request":{"method":"PUT","url":"Patient/42be9d46-4c2f-4493-8299-d33dcbb7170e"}},{"fullUrl":"Location/8421ec49-4aab-41f5-ae79-2081c1fa0c58","resource":{"resourceType":"Location","id":"8421ec49-4aab-41f5-ae79-2081c1fa0c58","meta":{"profile":["http://hl7.org/fhir/us/qicore/StructureDefinition/qicore-location"]},"identifier":[{"use":"usual","system":"http://exampleoflocation.com","value":"B1-S.F2"}],"name":"Medical Surgical East, first floor","type":[{"coding":[{"system":"https://www.cdc.gov/nhsn/cdaportal/terminology/codesystem/hsloc.html","version":"2022","code":"1108-0","display":"Emergency Department","userSelected":true}]}]},"request":{"method":"PUT","url":"Location/8421ec49-4aab-41f5-ae79-2081c1fa0c58"}},{"fullUrl":"Condition/2b2ae596-8c18-4130-a600-8b91bff7a40f","resource":{"resourceType":"Condition","id":"2b2ae596-8c18-4130-a600-8b91bff7a40f","meta":{"profile":["http://hl7.org/fhir/us/qicore/StructureDefinition/qicore-condition-encounter-diagnosis"]},"category":[{"coding":[{"system":"http://terminology.hl7.org/CodeSystem/condition-category","code":"encounter-diagnosis","display":"Encounter Diagnosis"}]}],"code":{"coding":[{"system":"http://snomed.info/sct","version":"2023-09","code":"10349009","display":"Multi-infarct dementia with delirium (disorder)","userSelected":true}]},"subject":{"reference":"Patient/42be9d46-4c2f-4493-8299-d33dcbb7170e"},"recordedDate":"2027-05-01T08:00:00.000+00:00"},"request":{"method":"PUT","url":"Condition/2b2ae596-8c18-4130-a600-8b91bff7a40f"}},{"fullUrl":"Encounter/4e358db8-580e-40a5-8acf-274ccfb92a87","resource":{"resourceType":"Encounter","id":"4e358db8-580e-40a5-8acf-274ccfb92a87","meta":{"profile":["http://hl7.org/fhir/us/qicore/StructureDefinition/qicore-encounter"]},"status":"finished","class":{"system":"http://terminology.hl7.org/CodeSystem/v3-ActCode","code":"IMP","display":"inpatient encounter"},"type":[{"coding":[{"system":"http://snomed.info/sct","version":"2023-09","code":"183452005","display":"Emergency hospital admission (procedure)","userSelected":true}]}],"subject":{"reference":"Patient/42be9d46-4c2f-4493-8299-d33dcbb7170e"},"period":{"start":"2027-05-01T05:00:00.000+00:00","end":"2027-05-03T06:15:00.000+00:00"}},"request":{"method":"PUT","url":"Encounter/4e358db8-580e-40a5-8acf-274ccfb92a87"}},{"fullUrl":"Encounter/b435f3d2-8e5d-4cbc-9b35-e7ee0dbb66ff","resource":{"resourceType":"Encounter","id":"b435f3d2-8e5d-4cbc-9b35-e7ee0dbb66ff","meta":{"profile":["http://hl7.org/fhir/us/qicore/StructureDefinition/qicore-encounter"]},"status":"finished","class":{"system":"http://terminology.hl7.org/CodeSystem/v3-ActCode","code":"EMER","display":"emergency department"},"type":[{"coding":[{"system":"http://snomed.info/sct","version":"2023-09","code":"4525004","display":"Emergency department patient visit (procedure)","userSelected":true}]}],"subject":{"reference":"Patient/42be9d46-4c2f-4493-8299-d33dcbb7170e"},"period":{"start":"2027-05-01T00:00:00.000+00:00","end":"2027-05-01T06:02:00.000+00:00"},"diagnosis":[{"condition":{"reference":"Condition/2b2ae596-8c18-4130-a600-8b91bff7a40f"},"use":{"coding":[{"system":"http://terminology.hl7.org/CodeSystem/diagnosis-role","code":"billing"}]},"rank":1}],"location":[{"location":{"reference":"Location/8421ec49-4aab-41f5-ae79-2081c1fa0c58"},"period":{"start":"2027-05-01T00:00:00.000+00:00","end":"2027-05-01T06:02:00.000+00:00"}}]},"request":{"method":"PUT","url":"Encounter/b435f3d2-8e5d-4cbc-9b35-e7ee0dbb66ff"}},{"fullUrl":"Organization/f311af4c-c5fa-4b33-9719-0d029eaedb00","resource":{"resourceType":"Organization","id":"f311af4c-c5fa-4b33-9719-0d029eaedb00","meta":{"profile":["http://hl7.org/fhir/us/qicore/StructureDefinition/qicore-organization"]},"identifier":[{"use":"temp","system":"urn:oid:2.16.840.1.113883.4.4","value":"21-3259825"}],"active":true,"type":[{"coding":[{"system":"http://terminology.hl7.org/CodeSystem/organization-type","code":"pay","display":"Payer"}]}],"name":"Blue Cross Blue Shield of Texas","telecom":[{"system":"phone","value":"(+1) 972-766-6900"}],"address":[{"use":"billing","type":"postal","line":["P.O. Box 660044"],"city":"Dallas","state":"TX","postalCode":"75266-0044","country":"USA"}]},"request":{"method":"PUT","url":"Organization/f311af4c-c5fa-4b33-9719-0d029eaedb00"}},{"fullUrl":"Claim/ClaimBehavior-NotSubsAbuse","resource":{"resourceType":"Claim","id":"ClaimBehavior-NotSubsAbuse","meta":{"profile":["http://hl7.org/fhir/us/qicore/StructureDefinition/qicore-claim"]},"status":"active","type":{"coding":[{"system":"http://terminology.hl7.org/CodeSystem/claim-type","code":"institutional"}]},"use":"claim","patient":{"reference":"Patient/42be9d46-4c2f-4493-8299-d33dcbb7170e"},"created":"2027-05-01","provider":{"reference":"Practitioner/050d0de9-6333-4550-a8fd-eb0e73fac90e"},"priority":{"coding":[{"system":"http://terminology.hl7.org/CodeSystem/processpriority","code":"normal"}]},"diagnosis":[{"sequence":1,"diagnosisReference":{"reference":"Condition/2b2ae596-8c18-4130-a600-8b91bff7a40f"},"type":[{"coding":[{"system":"http://terminology.hl7.org/CodeSystem/ex-diagnosistype","code":"principal"}]}]}],"insurance":[{"sequence":1,"focal":true,"coverage":{"reference":"Coverage/c301dd2f-746e-4a6f-8125-f8ad1d71f82d"}}],"item":[{"sequence":1,"diagnosisSequence":[1],"productOrService":{"coding":[{"system":"http://terminology.hl7.org/CodeSystem/ex-USCLS","code":"99555"}]},"encounter":[{"reference":"Encounter/b435f3d2-8e5d-4cbc-9b35-e7ee0dbb66ff"}]}]},"request":{"method":"PUT","url":"Claim/ClaimBehavior-NotSubsAbuse"}},{"fullUrl":"Coverage/c301dd2f-746e-4a6f-8125-f8ad1d71f82d","resource":{"resourceType":"Coverage","id":"c301dd2f-746e-4a6f-8125-f8ad1d71f82d","meta":{"profile":["http://hl7.org/fhir/us/qicore/StructureDefinition/qicore-coverage"]},"identifier":[{"type":{"coding":[{"system":"http://terminology.hl7.org/CodeSystem/v2-0203","code":"MB"}]}}],"status":"active","beneficiary":{"reference":"Patient/42be9d46-4c2f-4493-8299-d33dcbb7170e"},"relationship":{"coding":[{"system":"http://terminology.hl7.org/CodeSystem/subscriber-relationship","code":"self"}]},"payor":[{"reference":"Organization/f311af4c-c5fa-4b33-9719-0d029eaedb00"}]},"request":{"method":"PUT","url":"Coverage/c301dd2f-746e-4a6f-8125-f8ad1d71f82d"}},{"fullUrl":"ServiceRequest/aba9a6be-8665-4193-8894-9cb6de7eb9a9","resource":{"resourceType":"ServiceRequest","id":"aba9a6be-8665-4193-8894-9cb6de7eb9a9","meta":{"profile":["http://hl7.org/fhir/us/qicore/StructureDefinition/qicore-servicerequest"]},"status":"active","intent":"order","code":{"coding":[{"system":"http://snomed.info/sct","code":"5751000175101","display":"Patient bed assigned (finding)","userSelected":true}]},"subject":{"reference":"Patient/42be9d46-4c2f-4493-8299-d33dcbb7170e"},"authoredOn":"2027-05-01T02:00:00.000+00:00"},"request":{"method":"PUT","url":"ServiceRequest/aba9a6be-8665-4193-8894-9cb6de7eb9a9"}}]}