{"resourceType":"Bundle","id":"tests-9dc75857-bf5a-492d-81b5-edd5aee29a66-bundle","type":"transaction","entry":[{"resource":{"resourceType":"Bundle","id":"6617e30316793f5a4fae16fe","type":"transaction","entry":[{"fullUrl":"https://madie.cms.gov/Patient/9dc75857-bf5a-492d-81b5-edd5aee29a66","resource":{"resourceType":"Patient","id":"9dc75857-bf5a-492d-81b5-edd5aee29a66","meta":{"profile":["http://hl7.org/fhir/us/qicore/StructureDefinition/qicore-patient"]},"extension":[{"url":"http://hl7.org/fhir/us/core/StructureDefinition/us-core-race","extension":[{"url":"ombCategory","valueCoding":{"system":"urn:oid:2.16.840.1.113883.6.238","code":"1002-5","display":"American Indian or Alaska Native","userSelected":true}},{"url":"text","valueString":"American Indian or Alaska Native"}]},{"url":"http://hl7.org/fhir/us/core/StructureDefinition/us-core-ethnicity","extension":[{"url":"ombCategory","valueCoding":{"system":"urn:oid:2.16.840.1.113883.6.238","code":"2135-2","display":"Hispanic or Latino","userSelected":true}},{"url":"text","valueString":"Hispanic or Latino"}]},{"url":"http://hl7.org/fhir/us/core/StructureDefinition/us-core-sex","valueCode":"248153007"}],"identifier":[{"type":{"coding":[{"system":"http://terminology.hl7.org/CodeSystem/v2-0203","code":"MR"}]},"system":"https://bonnie-fhir.healthit.gov/","value":"6617e30316793f5a4fae16fe"}],"name":[{"family":"NUMERStrat3Pass","given":["DecisionToAdmitUsingOrderBoarded241m"]}],"gender":"male","birthDate":"2010-01-01"},"request":{"method":"PUT","url":"Patient/9dc75857-bf5a-492d-81b5-edd5aee29a66"}},{"fullUrl":"https://madie.cms.gov/Encounter/aca4715b-5433-41ff-a802-e6376673462c","resource":{"resourceType":"Encounter","id":"aca4715b-5433-41ff-a802-e6376673462c","meta":{"profile":["http://hl7.org/fhir/us/qicore/StructureDefinition/qicore-encounter"]},"status":"finished","class":{"system":"http://terminology.hl7.org/CodeSystem/v3-ActCode","code":"EMER","display":"emergency"},"type":[{"coding":[{"system":"http://snomed.info/sct","version":"2023-09","code":"4525004","display":"Emergency department patient visit (procedure)","userSelected":true}]}],"subject":{"reference":"Patient/9dc75857-bf5a-492d-81b5-edd5aee29a66"},"period":{"start":"2027-05-01T00:00:00.000+00:00","end":"2027-05-01T06:00:00.000+00:00"},"diagnosis":[{"condition":{"reference":"Condition/1e7eca41-fc4e-4506-ab59-69c49ec5ecf9"},"use":{"coding":[{"system":"http://terminology.hl7.org/CodeSystem/diagnosis-role","code":"billing"}]},"rank":1}],"location":[{"location":{"reference":"Location/34f12dfe-2745-4ebf-8321-165ecbe8b326"},"period":{"start":"2027-05-01T00:00:00.000+00:00","end":"2027-05-01T06:01:00.000+00:00"}}]},"request":{"method":"PUT","url":"Encounter/aca4715b-5433-41ff-a802-e6376673462c"}},{"fullUrl":"https://madie.cms.gov/Encounter/a2ab6ba0-0cd7-4a0e-b286-52da8eb355c6","resource":{"resourceType":"Encounter","id":"a2ab6ba0-0cd7-4a0e-b286-52da8eb355c6","meta":{"profile":["http://hl7.org/fhir/us/qicore/StructureDefinition/qicore-encounter"]},"status":"finished","class":{"system":"http://terminology.hl7.org/CodeSystem/v3-ActCode","code":"IMP","display":"inpatient"},"type":[{"coding":[{"system":"http://snomed.info/sct","version":"2023-09","code":"183452005","display":"Emergency hospital admission (procedure)","userSelected":true}]}],"subject":{"reference":"Patient/9dc75857-bf5a-492d-81b5-edd5aee29a66"},"period":{"start":"2027-05-01T06:00:00.000+00:00","end":"2027-05-03T06:15:00.000+00:00"}},"request":{"method":"PUT","url":"Encounter/a2ab6ba0-0cd7-4a0e-b286-52da8eb355c6"}},{"fullUrl":"https://madie.cms.gov/Location/34f12dfe-2745-4ebf-8321-165ecbe8b326","resource":{"resourceType":"Location","id":"34f12dfe-2745-4ebf-8321-165ecbe8b326","meta":{"profile":["http://hl7.org/fhir/us/qicore/StructureDefinition/qicore-location"]},"identifier":[{"use":"usual","system":"http://exampleoflocation.com","value":"B1-S.F2"}],"name":"Local ED","type":[{"coding":[{"system":"https://www.cdc.gov/nhsn/cdaportal/terminology/codesystem/hsloc.html","version":"2022","code":"1108-0","display":"Emergency Department","userSelected":true}]}]},"request":{"method":"PUT","url":"Location/34f12dfe-2745-4ebf-8321-165ecbe8b326"}},{"fullUrl":"https://madie.cms.gov/ServiceRequest/8117f388-4b1d-455b-93e4-861a5f7d5228","resource":{"resourceType":"ServiceRequest","id":"8117f388-4b1d-455b-93e4-861a5f7d5228","meta":{"profile":["http://hl7.org/fhir/us/qicore/StructureDefinition/qicore-servicerequest"]},"status":"active","intent":"order","code":{"coding":[{"system":"http://snomed.info/sct","version":"2023-09","code":"10378005","display":"Hospital admission, emergency, from emergency room, accidental injury (procedure)","userSelected":true}]},"subject":{"reference":"Patient/9dc75857-bf5a-492d-81b5-edd5aee29a66"},"authoredOn":"2027-05-01T02:00:00.000+00:00"},"request":{"method":"PUT","url":"ServiceRequest/8117f388-4b1d-455b-93e4-861a5f7d5228"}},{"fullUrl":"https://madie.cms.gov/Condition/1e7eca41-fc4e-4506-ab59-69c49ec5ecf9","resource":{"resourceType":"Condition","id":"1e7eca41-fc4e-4506-ab59-69c49ec5ecf9","meta":{"profile":["http://hl7.org/fhir/us/qicore/StructureDefinition/qicore-condition-encounter-diagnosis"]},"category":[{"coding":[{"system":"http://terminology.hl7.org/CodeSystem/condition-category","code":"encounter-diagnosis","display":"Encounter Diagnosis"}]}],"code":{"coding":[{"system":"http://snomed.info/sct","version":"2023-09","code":"10349009","display":"Multi-infarct dementia with delirium (disorder)","userSelected":true}]},"subject":{"reference":"Patient/9dc75857-bf5a-492d-81b5-edd5aee29a66"},"recordedDate":"2026-04-18T08:00:00.000+00:00"},"request":{"method":"PUT","url":"Condition/1e7eca41-fc4e-4506-ab59-69c49ec5ecf9"}},{"fullUrl":"https://madie.cms.gov/claim/ClaimBehavior-NotSubsAbuse","resource":{"resourceType":"Claim","id":"ClaimBehavior-NotSubsAbuse","meta":{"profile":["http://hl7.org/fhir/us/qicore/StructureDefinition/qicore-claim"]},"status":"active","type":{"coding":[{"system":"http://terminology.hl7.org/CodeSystem/claim-type","code":"institutional"}]},"use":"claim","patient":{"reference":"Patient/9dc75857-bf5a-492d-81b5-edd5aee29a66"},"created":"2027-05-01","provider":{"reference":"Practitioner/d7a6f45c-a309-4f8d-869a-848d23d9609a"},"priority":{"coding":[{"system":"http://terminology.hl7.org/CodeSystem/processpriority","code":"normal"}]},"diagnosis":[{"sequence":1,"diagnosisReference":{"reference":"Condition/1e7eca41-fc4e-4506-ab59-69c49ec5ecf9"},"type":[{"coding":[{"system":"http://terminology.hl7.org/CodeSystem/ex-diagnosistype","code":"principal"}]}]}],"insurance":[{"sequence":1,"focal":true,"coverage":{"reference":"Coverage/ba7a2667-4a54-4115-ab85-4aaf5b707884"}}],"item":[{"sequence":1,"diagnosisSequence":[1],"productOrService":{"coding":[{"system":"http://terminology.hl7.org/CodeSystem/ex-USCLS","code":"99555"}]},"encounter":[{"reference":"Encounter/aca4715b-5433-41ff-a802-e6376673462c"}]}]},"request":{"method":"PUT","url":"Claim/ClaimBehavior-NotSubsAbuse"}},{"fullUrl":"https://madie.cms.gov/Coverage/ba7a2667-4a54-4115-ab85-4aaf5b707884","resource":{"resourceType":"Coverage","id":"ba7a2667-4a54-4115-ab85-4aaf5b707884","meta":{"profile":["http://hl7.org/fhir/us/qicore/StructureDefinition/qicore-coverage"]},"identifier":[{"type":{"coding":[{"system":"http://terminology.hl7.org/CodeSystem/v2-0203","code":"MB"}]}}],"status":"active","beneficiary":{"reference":"Patient/9dc75857-bf5a-492d-81b5-edd5aee29a66"},"relationship":{"coding":[{"system":"http://terminology.hl7.org/CodeSystem/subscriber-relationship","code":"self"}]},"payor":[{"reference":"Organization/0bfce122-59f8-4b61-97ee-eeb8eb2c0819"}]},"request":{"method":"PUT","url":"Coverage/ba7a2667-4a54-4115-ab85-4aaf5b707884"}},{"fullUrl":"https://madie.cms.gov/Organization/0bfce122-59f8-4b61-97ee-eeb8eb2c0819","resource":{"resourceType":"Organization","id":"0bfce122-59f8-4b61-97ee-eeb8eb2c0819","meta":{"profile":["http://hl7.org/fhir/us/qicore/StructureDefinition/qicore-organization"]},"identifier":[{"use":"temp","system":"urn:oid:2.16.840.1.113883.4.4","value":"21-3259825"}],"active":true,"type":[{"coding":[{"system":"http://terminology.hl7.org/CodeSystem/organization-type","code":"pay","display":"Payer"}]}],"name":"Blue Cross Blue Shield of Texas","telecom":[{"system":"phone","value":"(+1) 972-766-6900"}],"address":[{"use":"billing","type":"postal","line":["P.O. Box 660044"],"city":"Dallas","state":"TX","postalCode":"75266-0044","country":"USA"}]},"request":{"method":"PUT","url":"Organization/0bfce122-59f8-4b61-97ee-eeb8eb2c0819"}},{"fullUrl":"https://madie.cms.gov/Practitioner/d7a6f45c-a309-4f8d-869a-848d23d9609a","resource":{"resourceType":"Practitioner","id":"d7a6f45c-a309-4f8d-869a-848d23d9609a","meta":{"profile":["http://hl7.org/fhir/us/qicore/StructureDefinition/qicore-practitioner"]},"identifier":[{"system":"http://hl7.org/fhir/sid/us-npi","value":"9999999896"}],"name":[{"family":"Evil","prefix":["Dr"]}]},"request":{"method":"PUT","url":"Practitioner/d7a6f45c-a309-4f8d-869a-848d23d9609a"}},{"fullUrl":"https://madie.cms.gov/MeasureReport/3a58727f-90e0-480b-872a-08e3f74fc482","resource":{"resourceType":"MeasureReport","id":"3a58727f-90e0-480b-872a-08e3f74fc482","meta":{"profile":["http://hl7.org/fhir/us/cqfmeasures/StructureDefinition/test-case-cqfm"]},"contained":[{"resourceType":"Parameters","id":"690e5c67-52bb-402d-8e07-131a7d99d326-parameters","parameter":[{"name":"subject","valueString":"9dc75857-bf5a-492d-81b5-edd5aee29a66"}]}],"extension":[{"url":"http://hl7.org/fhir/StructureDefinition/cqf-inputParameters","valueReference":{"reference":"#690e5c67-52bb-402d-8e07-131a7d99d326-parameters"}},{"url":"http://hl7.org/fhir/us/cqfmeasures/StructureDefinition/cqfm-testCaseDescription","valueMarkdown":"ED enc first minute of MP, 6 hrs (start to end), behavioral health dx, "}],"modifierExtension":[{"url":"http://hl7.org/fhir/us/cqfmeasures/StructureDefinition/cqfm-isTestCase","valueBoolean":true}],"status":"complete","type":"individual","measure":"https://madie.cms.gov/Measure/CMS1244FHIRECATHOQR","period":{"start":"2027-01-01","end":"2027-12-31"},"group":[{"id":"Group_1","population":[{"id":"InitialPopulation_1","code":{"coding":[{"system":"http://terminology.hl7.org/CodeSystem/measure-population","code":"initial-population","display":"Initial Population"}]},"count":1},{"id":"Denominator_1","code":{"coding":[{"system":"http://terminology.hl7.org/CodeSystem/measure-population","code":"denominator","display":"Denominator"}]},"count":1},{"id":"Numerator_1","code":{"coding":[{"system":"http://terminology.hl7.org/CodeSystem/measure-population","code":"numerator","display":"Numerator"}]},"count":1}],"measureScore":{"value":0.0},"stratifier":[{"id":"Stratification_1_1","code":[{"text":"Strata-1"}],"stratum":[{"value":{"text":"Strata-1"},"population":[{"id":"InitialPopulation_1","code":{"coding":[{"system":"http://terminology.hl7.org/CodeSystem/measure-population","code":"initial-population","display":"Initial Population"}]},"count":0},{"id":"Denominator_1","code":{"coding":[{"system":"http://terminology.hl7.org/CodeSystem/measure-population","code":"denominator","display":"Denominator"}]},"count":0},{"id":"Numerator_1","code":{"coding":[{"system":"http://terminology.hl7.org/CodeSystem/measure-population","code":"numerator","display":"Numerator"}]},"count":0}]}]},{"id":"Stratification_1_2","code":[{"text":"Strata-2"}],"stratum":[{"value":{"text":"Strata-2"},"population":[{"id":"InitialPopulation_1","code":{"coding":[{"system":"http://terminology.hl7.org/CodeSystem/measure-population","code":"initial-population","display":"Initial Population"}]},"count":0},{"id":"Denominator_1","code":{"coding":[{"system":"http://terminology.hl7.org/CodeSystem/measure-population","code":"denominator","display":"Denominator"}]},"count":0},{"id":"Numerator_1","code":{"coding":[{"system":"http://terminology.hl7.org/CodeSystem/measure-population","code":"numerator","display":"Numerator"}]},"count":0}]}]},{"id":"Stratification_1_3","code":[{"text":"Strata-3"}],"stratum":[{"value":{"text":"Strata-3"},"population":[{"id":"InitialPopulation_1","code":{"coding":[{"system":"http://terminology.hl7.org/CodeSystem/measure-population","code":"initial-population","display":"Initial Population"}]},"count":1},{"id":"Denominator_1","code":{"coding":[{"system":"http://terminology.hl7.org/CodeSystem/measure-population","code":"denominator","display":"Denominator"}]},"count":1},{"id":"Numerator_1","code":{"coding":[{"system":"http://terminology.hl7.org/CodeSystem/measure-population","code":"numerator","display":"Numerator"}]},"count":1}]}]},{"id":"Stratification_1_4","code":[{"text":"Strata-4"}],"stratum":[{"value":{"text":"Strata-4"},"population":[{"id":"InitialPopulation_1","code":{"coding":[{"system":"http://terminology.hl7.org/CodeSystem/measure-population","code":"initial-population","display":"Initial Population"}]},"count":0},{"id":"Denominator_1","code":{"coding":[{"system":"http://terminology.hl7.org/CodeSystem/measure-population","code":"denominator","display":"Denominator"}]},"count":0},{"id":"Numerator_1","code":{"coding":[{"system":"http://terminology.hl7.org/CodeSystem/measure-population","code":"numerator","display":"Numerator"}]},"count":0}]}]}]}],"evaluatedResource":[{"reference":"Patient/9dc75857-bf5a-492d-81b5-edd5aee29a66"},{"reference":"Encounter/aca4715b-5433-41ff-a802-e6376673462c"},{"reference":"Encounter/a2ab6ba0-0cd7-4a0e-b286-52da8eb355c6"},{"reference":"Location/34f12dfe-2745-4ebf-8321-165ecbe8b326"},{"reference":"ServiceRequest/8117f388-4b1d-455b-93e4-861a5f7d5228"},{"reference":"Condition/1e7eca41-fc4e-4506-ab59-69c49ec5ecf9"},{"reference":"Claim/ClaimBehavior-NotSubsAbuse"},{"reference":"Coverage/ba7a2667-4a54-4115-ab85-4aaf5b707884"},{"reference":"Organization/0bfce122-59f8-4b61-97ee-eeb8eb2c0819"},{"reference":"Practitioner/d7a6f45c-a309-4f8d-869a-848d23d9609a"}]},"request":{"method":"PUT","url":"MeasureReport/3a58727f-90e0-480b-872a-08e3f74fc482"}}]},"request":{"method":"PUT","url":"Bundle/6617e30316793f5a4fae16fe"}},{"resource":{"resourceType":"Encounter","id":"a2ab6ba0-0cd7-4a0e-b286-52da8eb355c6","meta":{"profile":["http://hl7.org/fhir/us/qicore/StructureDefinition/qicore-encounter"]},"status":"finished","class":{"system":"http://terminology.hl7.org/CodeSystem/v3-ActCode","code":"IMP","display":"inpatient"},"type":[{"coding":[{"system":"http://snomed.info/sct","version":"2023-09","code":"183452005","display":"Emergency hospital admission (procedure)","userSelected":true}]}],"subject":{"reference":"Patient/9dc75857-bf5a-492d-81b5-edd5aee29a66"},"period":{"start":"2027-05-01T06:00:00.000+00:00","end":"2027-05-03T06:15:00.000+00:00"}},"request":{"method":"PUT","url":"Encounter/a2ab6ba0-0cd7-4a0e-b286-52da8eb355c6"}},{"resource":{"resourceType":"Practitioner","id":"d7a6f45c-a309-4f8d-869a-848d23d9609a","meta":{"profile":["http://hl7.org/fhir/us/qicore/StructureDefinition/qicore-practitioner"]},"identifier":[{"system":"http://hl7.org/fhir/sid/us-npi","value":"9999999896"}],"name":[{"family":"Evil","prefix":["Dr"]}]},"request":{"method":"PUT","url":"Practitioner/d7a6f45c-a309-4f8d-869a-848d23d9609a"}},{"resource":{"resourceType":"Encounter","id":"aca4715b-5433-41ff-a802-e6376673462c","meta":{"profile":["http://hl7.org/fhir/us/qicore/StructureDefinition/qicore-encounter"]},"status":"finished","class":{"system":"http://terminology.hl7.org/CodeSystem/v3-ActCode","code":"EMER","display":"emergency"},"type":[{"coding":[{"system":"http://snomed.info/sct","version":"2023-09","code":"4525004","display":"Emergency department patient visit (procedure)","userSelected":true}]}],"subject":{"reference":"Patient/9dc75857-bf5a-492d-81b5-edd5aee29a66"},"period":{"start":"2027-05-01T00:00:00.000+00:00","end":"2027-05-01T06:00:00.000+00:00"},"diagnosis":[{"condition":{"reference":"Condition/1e7eca41-fc4e-4506-ab59-69c49ec5ecf9"},"use":{"coding":[{"system":"http://terminology.hl7.org/CodeSystem/diagnosis-role","code":"billing"}]},"rank":1}],"location":[{"location":{"reference":"Location/34f12dfe-2745-4ebf-8321-165ecbe8b326"},"period":{"start":"2027-05-01T00:00:00.000+00:00","end":"2027-05-01T06:01:00.000+00:00"}}]},"request":{"method":"PUT","url":"Encounter/aca4715b-5433-41ff-a802-e6376673462c"}},{"resource":{"resourceType":"ServiceRequest","id":"8117f388-4b1d-455b-93e4-861a5f7d5228","meta":{"profile":["http://hl7.org/fhir/us/qicore/StructureDefinition/qicore-servicerequest"]},"status":"active","intent":"order","code":{"coding":[{"system":"http://snomed.info/sct","version":"2023-09","code":"10378005","display":"Hospital admission, emergency, from emergency room, accidental injury (procedure)","userSelected":true}]},"subject":{"reference":"Patient/9dc75857-bf5a-492d-81b5-edd5aee29a66"},"authoredOn":"2027-05-01T02:00:00.000+00:00"},"request":{"method":"PUT","url":"ServiceRequest/8117f388-4b1d-455b-93e4-861a5f7d5228"}},{"resource":{"resourceType":"MeasureReport","id":"3a58727f-90e0-480b-872a-08e3f74fc482","meta":{"profile":["http://hl7.org/fhir/us/cqfmeasures/StructureDefinition/test-case-cqfm"]},"contained":[{"resourceType":"Parameters","id":"690e5c67-52bb-402d-8e07-131a7d99d326-parameters","parameter":[{"name":"subject","valueString":"9dc75857-bf5a-492d-81b5-edd5aee29a66"}]}],"extension":[{"url":"http://hl7.org/fhir/StructureDefinition/cqf-inputParameters","valueReference":{"reference":"#690e5c67-52bb-402d-8e07-131a7d99d326-parameters"}},{"url":"http://hl7.org/fhir/us/cqfmeasures/StructureDefinition/cqfm-testCaseDescription","valueMarkdown":"ED enc first minute of MP, 6 hrs (start to end), behavioral health dx, "}],"modifierExtension":[{"url":"http://hl7.org/fhir/us/cqfmeasures/StructureDefinition/cqfm-isTestCase","valueBoolean":true}],"status":"complete","type":"individual","measure":"https://madie.cms.gov/Measure/CMS1244FHIRECATHOQR","period":{"start":"2027-01-01","end":"2027-12-31"},"group":[{"id":"Group_1","population":[{"id":"InitialPopulation_1","code":{"coding":[{"system":"http://terminology.hl7.org/CodeSystem/measure-population","code":"initial-population","display":"Initial Population"}]},"count":1},{"id":"Denominator_1","code":{"coding":[{"system":"http://terminology.hl7.org/CodeSystem/measure-population","code":"denominator","display":"Denominator"}]},"count":1},{"id":"Numerator_1","code":{"coding":[{"system":"http://terminology.hl7.org/CodeSystem/measure-population","code":"numerator","display":"Numerator"}]},"count":1}],"measureScore":{"value":0.0},"stratifier":[{"id":"Stratification_1_1","code":[{"text":"Strata-1"}],"stratum":[{"value":{"text":"Strata-1"},"population":[{"id":"InitialPopulation_1","code":{"coding":[{"system":"http://terminology.hl7.org/CodeSystem/measure-population","code":"initial-population","display":"Initial Population"}]},"count":0},{"id":"Denominator_1","code":{"coding":[{"system":"http://terminology.hl7.org/CodeSystem/measure-population","code":"denominator","display":"Denominator"}]},"count":0},{"id":"Numerator_1","code":{"coding":[{"system":"http://terminology.hl7.org/CodeSystem/measure-population","code":"numerator","display":"Numerator"}]},"count":0}]}]},{"id":"Stratification_1_2","code":[{"text":"Strata-2"}],"stratum":[{"value":{"text":"Strata-2"},"population":[{"id":"InitialPopulation_1","code":{"coding":[{"system":"http://terminology.hl7.org/CodeSystem/measure-population","code":"initial-population","display":"Initial Population"}]},"count":0},{"id":"Denominator_1","code":{"coding":[{"system":"http://terminology.hl7.org/CodeSystem/measure-population","code":"denominator","display":"Denominator"}]},"count":0},{"id":"Numerator_1","code":{"coding":[{"system":"http://terminology.hl7.org/CodeSystem/measure-population","code":"numerator","display":"Numerator"}]},"count":0}]}]},{"id":"Stratification_1_3","code":[{"text":"Strata-3"}],"stratum":[{"value":{"text":"Strata-3"},"population":[{"id":"InitialPopulation_1","code":{"coding":[{"system":"http://terminology.hl7.org/CodeSystem/measure-population","code":"initial-population","display":"Initial Population"}]},"count":1},{"id":"Denominator_1","code":{"coding":[{"system":"http://terminology.hl7.org/CodeSystem/measure-population","code":"denominator","display":"Denominator"}]},"count":1},{"id":"Numerator_1","code":{"coding":[{"system":"http://terminology.hl7.org/CodeSystem/measure-population","code":"numerator","display":"Numerator"}]},"count":1}]}]},{"id":"Stratification_1_4","code":[{"text":"Strata-4"}],"stratum":[{"value":{"text":"Strata-4"},"population":[{"id":"InitialPopulation_1","code":{"coding":[{"system":"http://terminology.hl7.org/CodeSystem/measure-population","code":"initial-population","display":"Initial Population"}]},"count":0},{"id":"Denominator_1","code":{"coding":[{"system":"http://terminology.hl7.org/CodeSystem/measure-population","code":"denominator","display":"Denominator"}]},"count":0},{"id":"Numerator_1","code":{"coding":[{"system":"http://terminology.hl7.org/CodeSystem/measure-population","code":"numerator","display":"Numerator"}]},"count":0}]}]}]}],"evaluatedResource":[{"reference":"Patient/9dc75857-bf5a-492d-81b5-edd5aee29a66"},{"reference":"Encounter/aca4715b-5433-41ff-a802-e6376673462c"},{"reference":"Encounter/a2ab6ba0-0cd7-4a0e-b286-52da8eb355c6"},{"reference":"Location/34f12dfe-2745-4ebf-8321-165ecbe8b326"},{"reference":"ServiceRequest/8117f388-4b1d-455b-93e4-861a5f7d5228"},{"reference":"Condition/1e7eca41-fc4e-4506-ab59-69c49ec5ecf9"},{"reference":"Claim/ClaimBehavior-NotSubsAbuse"},{"reference":"Coverage/ba7a2667-4a54-4115-ab85-4aaf5b707884"},{"reference":"Organization/0bfce122-59f8-4b61-97ee-eeb8eb2c0819"},{"reference":"Practitioner/d7a6f45c-a309-4f8d-869a-848d23d9609a"}]},"request":{"method":"PUT","url":"MeasureReport/3a58727f-90e0-480b-872a-08e3f74fc482"}},{"resource":{"resourceType":"Patient","id":"9dc75857-bf5a-492d-81b5-edd5aee29a66","meta":{"profile":["http://hl7.org/fhir/us/qicore/StructureDefinition/qicore-patient"]},"extension":[{"url":"http://hl7.org/fhir/us/core/StructureDefinition/us-core-race","extension":[{"url":"ombCategory","valueCoding":{"system":"urn:oid:2.16.840.1.113883.6.238","code":"1002-5","display":"American Indian or Alaska Native","userSelected":true}},{"url":"text","valueString":"American Indian or Alaska Native"}]},{"url":"http://hl7.org/fhir/us/core/StructureDefinition/us-core-ethnicity","extension":[{"url":"ombCategory","valueCoding":{"system":"urn:oid:2.16.840.1.113883.6.238","code":"2135-2","display":"Hispanic or Latino","userSelected":true}},{"url":"text","valueString":"Hispanic or Latino"}]},{"url":"http://hl7.org/fhir/us/core/StructureDefinition/us-core-sex","valueCode":"248153007"}],"identifier":[{"type":{"coding":[{"system":"http://terminology.hl7.org/CodeSystem/v2-0203","code":"MR"}]},"system":"https://bonnie-fhir.healthit.gov/","value":"6617e30316793f5a4fae16fe"}],"name":[{"family":"NUMERStrat3Pass","given":["DecisionToAdmitUsingOrderBoarded241m"]}],"gender":"male","birthDate":"2010-01-01"},"request":{"method":"PUT","url":"Patient/9dc75857-bf5a-492d-81b5-edd5aee29a66"}},{"resource":{"resourceType":"Organization","id":"0bfce122-59f8-4b61-97ee-eeb8eb2c0819","meta":{"profile":["http://hl7.org/fhir/us/qicore/StructureDefinition/qicore-organization"]},"identifier":[{"use":"temp","system":"urn:oid:2.16.840.1.113883.4.4","value":"21-3259825"}],"active":true,"type":[{"coding":[{"system":"http://terminology.hl7.org/CodeSystem/organization-type","code":"pay","display":"Payer"}]}],"name":"Blue Cross Blue Shield of Texas","telecom":[{"system":"phone","value":"(+1) 972-766-6900"}],"address":[{"use":"billing","type":"postal","line":["P.O. Box 660044"],"city":"Dallas","state":"TX","postalCode":"75266-0044","country":"USA"}]},"request":{"method":"PUT","url":"Organization/0bfce122-59f8-4b61-97ee-eeb8eb2c0819"}},{"resource":{"resourceType":"Condition","id":"1e7eca41-fc4e-4506-ab59-69c49ec5ecf9","meta":{"profile":["http://hl7.org/fhir/us/qicore/StructureDefinition/qicore-condition-encounter-diagnosis"]},"category":[{"coding":[{"system":"http://terminology.hl7.org/CodeSystem/condition-category","code":"encounter-diagnosis","display":"Encounter Diagnosis"}]}],"code":{"coding":[{"system":"http://snomed.info/sct","version":"2023-09","code":"10349009","display":"Multi-infarct dementia with delirium (disorder)","userSelected":true}]},"subject":{"reference":"Patient/9dc75857-bf5a-492d-81b5-edd5aee29a66"},"recordedDate":"2026-04-18T08:00:00.000+00:00"},"request":{"method":"PUT","url":"Condition/1e7eca41-fc4e-4506-ab59-69c49ec5ecf9"}},{"resource":{"resourceType":"Location","id":"34f12dfe-2745-4ebf-8321-165ecbe8b326","meta":{"profile":["http://hl7.org/fhir/us/qicore/StructureDefinition/qicore-location"]},"identifier":[{"use":"usual","system":"http://exampleoflocation.com","value":"B1-S.F2"}],"name":"Local ED","type":[{"coding":[{"system":"https://www.cdc.gov/nhsn/cdaportal/terminology/codesystem/hsloc.html","version":"2022","code":"1108-0","display":"Emergency Department","userSelected":true}]}]},"request":{"method":"PUT","url":"Location/34f12dfe-2745-4ebf-8321-165ecbe8b326"}},{"resource":{"resourceType":"Claim","id":"ClaimBehavior-NotSubsAbuse","meta":{"profile":["http://hl7.org/fhir/us/qicore/StructureDefinition/qicore-claim"]},"status":"active","type":{"coding":[{"system":"http://terminology.hl7.org/CodeSystem/claim-type","code":"institutional"}]},"use":"claim","patient":{"reference":"Patient/9dc75857-bf5a-492d-81b5-edd5aee29a66"},"created":"2027-05-01","provider":{"reference":"Practitioner/d7a6f45c-a309-4f8d-869a-848d23d9609a"},"priority":{"coding":[{"system":"http://terminology.hl7.org/CodeSystem/processpriority","code":"normal"}]},"diagnosis":[{"sequence":1,"diagnosisReference":{"reference":"Condition/1e7eca41-fc4e-4506-ab59-69c49ec5ecf9"},"type":[{"coding":[{"system":"http://terminology.hl7.org/CodeSystem/ex-diagnosistype","code":"principal"}]}]}],"insurance":[{"sequence":1,"focal":true,"coverage":{"reference":"Coverage/ba7a2667-4a54-4115-ab85-4aaf5b707884"}}],"item":[{"sequence":1,"diagnosisSequence":[1],"productOrService":{"coding":[{"system":"http://terminology.hl7.org/CodeSystem/ex-USCLS","code":"99555"}]},"encounter":[{"reference":"Encounter/aca4715b-5433-41ff-a802-e6376673462c"}]}]},"request":{"method":"PUT","url":"Claim/ClaimBehavior-NotSubsAbuse"}},{"resource":{"resourceType":"Coverage","id":"ba7a2667-4a54-4115-ab85-4aaf5b707884","meta":{"profile":["http://hl7.org/fhir/us/qicore/StructureDefinition/qicore-coverage"]},"identifier":[{"type":{"coding":[{"system":"http://terminology.hl7.org/CodeSystem/v2-0203","code":"MB"}]}}],"status":"active","beneficiary":{"reference":"Patient/9dc75857-bf5a-492d-81b5-edd5aee29a66"},"relationship":{"coding":[{"system":"http://terminology.hl7.org/CodeSystem/subscriber-relationship","code":"self"}]},"payor":[{"reference":"Organization/0bfce122-59f8-4b61-97ee-eeb8eb2c0819"}]},"request":{"method":"PUT","url":"Coverage/ba7a2667-4a54-4115-ab85-4aaf5b707884"}}]}