{"resourceType":"Bundle","id":"tests-9bac5045-01af-4350-b54f-63ab17f3ba9f-bundle","type":"transaction","entry":[{"fullUrl":"MeasureReport/dfd7bfea-4085-4e3f-8243-1b1330526220","resource":{"resourceType":"MeasureReport","id":"dfd7bfea-4085-4e3f-8243-1b1330526220","meta":{"profile":["http://hl7.org/fhir/us/cqfmeasures/StructureDefinition/test-case-cqfm"]},"contained":[{"resourceType":"Parameters","id":"44600e0e-3bb7-4896-a73d-551ad2555d84-parameters","parameter":[{"name":"subject","valueString":"9bac5045-01af-4350-b54f-63ab17f3ba9f"}]}],"extension":[{"url":"http://hl7.org/fhir/StructureDefinition/cqf-inputParameters","valueReference":{"reference":"#44600e0e-3bb7-4896-a73d-551ad2555d84-parameters"}},{"url":"http://hl7.org/fhir/us/cqfmeasures/StructureDefinition/cqfm-testCaseDescription","valueMarkdown":"12/29/20XX - 12/31/XX Enc starts and ends day before MP. "}],"modifierExtension":[{"url":"http://hl7.org/fhir/us/cqfmeasures/StructureDefinition/cqfm-isTestCase","valueBoolean":true}],"status":"complete","type":"individual","measure":"https://madie.cms.gov/Measure/CMS1244FHIRECATHOQR","period":{"start":"2027-01-01","end":"2027-12-31"},"group":[{"id":"Group_1","population":[{"id":"InitialPopulation_1","code":{"coding":[{"system":"http://terminology.hl7.org/CodeSystem/measure-population","code":"initial-population","display":"Initial Population"}]},"count":0},{"id":"Denominator_1","code":{"coding":[{"system":"http://terminology.hl7.org/CodeSystem/measure-population","code":"denominator","display":"Denominator"}]},"count":0},{"id":"Numerator_1","code":{"coding":[{"system":"http://terminology.hl7.org/CodeSystem/measure-population","code":"numerator","display":"Numerator"}]},"count":0}],"measureScore":{"value":0.0},"stratifier":[{"id":"Stratification_1_1","code":[{"text":"Strata-1"}],"stratum":[{"value":{"text":"Strata-1"},"population":[{"id":"InitialPopulation_1","code":{"coding":[{"system":"http://terminology.hl7.org/CodeSystem/measure-population","code":"initial-population","display":"Initial Population"}]},"count":0},{"id":"Denominator_1","code":{"coding":[{"system":"http://terminology.hl7.org/CodeSystem/measure-population","code":"denominator","display":"Denominator"}]},"count":0},{"id":"Numerator_1","code":{"coding":[{"system":"http://terminology.hl7.org/CodeSystem/measure-population","code":"numerator","display":"Numerator"}]},"count":0}]}]},{"id":"Stratification_1_2","code":[{"text":"Strata-2"}],"stratum":[{"value":{"text":"Strata-2"},"population":[{"id":"InitialPopulation_1","code":{"coding":[{"system":"http://terminology.hl7.org/CodeSystem/measure-population","code":"initial-population","display":"Initial Population"}]},"count":0},{"id":"Denominator_1","code":{"coding":[{"system":"http://terminology.hl7.org/CodeSystem/measure-population","code":"denominator","display":"Denominator"}]},"count":0},{"id":"Numerator_1","code":{"coding":[{"system":"http://terminology.hl7.org/CodeSystem/measure-population","code":"numerator","display":"Numerator"}]},"count":0}]}]},{"id":"Stratification_1_3","code":[{"text":"Strata-3"}],"stratum":[{"value":{"text":"Strata-3"},"population":[{"id":"InitialPopulation_1","code":{"coding":[{"system":"http://terminology.hl7.org/CodeSystem/measure-population","code":"initial-population","display":"Initial Population"}]},"count":0},{"id":"Denominator_1","code":{"coding":[{"system":"http://terminology.hl7.org/CodeSystem/measure-population","code":"denominator","display":"Denominator"}]},"count":0},{"id":"Numerator_1","code":{"coding":[{"system":"http://terminology.hl7.org/CodeSystem/measure-population","code":"numerator","display":"Numerator"}]},"count":0}]}]},{"id":"Stratification_1_4","code":[{"text":"Strata-4"}],"stratum":[{"value":{"text":"Strata-4"},"population":[{"id":"InitialPopulation_1","code":{"coding":[{"system":"http://terminology.hl7.org/CodeSystem/measure-population","code":"initial-population","display":"Initial Population"}]},"count":0},{"id":"Denominator_1","code":{"coding":[{"system":"http://terminology.hl7.org/CodeSystem/measure-population","code":"denominator","display":"Denominator"}]},"count":0},{"id":"Numerator_1","code":{"coding":[{"system":"http://terminology.hl7.org/CodeSystem/measure-population","code":"numerator","display":"Numerator"}]},"count":0}]}]}]}],"evaluatedResource":[{"reference":"Patient/9bac5045-01af-4350-b54f-63ab17f3ba9f"},{"reference":"Encounter/9dd0a2a8-cea9-4cde-bdd7-ad8f0345f3aa"},{"reference":"Location/6ff9242e-d0d5-4be0-b0a5-936b507e87a5"},{"reference":"Location/826f1b8b-a904-4c86-9311-e13e3a1e9bec"},{"reference":"Condition/33265220-5825-465f-91ab-1a0d783944c3"},{"reference":"Location/8eaf7700-5bde-45c2-b288-9ec7e99389f4"},{"reference":"Location/8f2a9063-c5bd-4a7d-a909-491f45d0c6d7"},{"reference":"Claim/ClaimBehavior-NotSubsAbuse"},{"reference":"Coverage/a2e0b200-1bcd-4585-b3c3-8bd0e96157d0"},{"reference":"Organization/7468dd02-7aeb-46cd-922b-ed29a04d407e"},{"reference":"Practitioner/d77b115c-ea0d-4334-9696-a28cec8645f3"}]},"request":{"method":"PUT","url":"MeasureReport/dfd7bfea-4085-4e3f-8243-1b1330526220"}},{"fullUrl":"Practitioner/d77b115c-ea0d-4334-9696-a28cec8645f3","resource":{"resourceType":"Practitioner","id":"d77b115c-ea0d-4334-9696-a28cec8645f3","meta":{"profile":["http://hl7.org/fhir/us/qicore/StructureDefinition/qicore-practitioner"]},"identifier":[{"system":"http://hl7.org/fhir/sid/us-npi","value":"9999999896"}],"name":[{"family":"Evil","prefix":["Dr"]}]},"request":{"method":"PUT","url":"Practitioner/d77b115c-ea0d-4334-9696-a28cec8645f3"}},{"fullUrl":"Location/8eaf7700-5bde-45c2-b288-9ec7e99389f4","resource":{"resourceType":"Location","id":"8eaf7700-5bde-45c2-b288-9ec7e99389f4","meta":{"profile":["http://hl7.org/fhir/us/qicore/StructureDefinition/qicore-location"]},"identifier":[{"use":"usual","system":"http://exampleoflocation.com","value":"B1-S.F2"}],"name":"Medical Surgical East, first floor","type":[{"coding":[{"system":"https://www.cdc.gov/nhsn/cdaportal/terminology/codesystem/hsloc.html","version":"2022","code":"1108-0","display":"Emergency Department","userSelected":true}]}]},"request":{"method":"PUT","url":"Location/8eaf7700-5bde-45c2-b288-9ec7e99389f4"}},{"fullUrl":"Patient/9bac5045-01af-4350-b54f-63ab17f3ba9f","resource":{"resourceType":"Patient","id":"9bac5045-01af-4350-b54f-63ab17f3ba9f","meta":{"profile":["http://hl7.org/fhir/us/qicore/StructureDefinition/qicore-patient"]},"extension":[{"url":"http://hl7.org/fhir/us/core/StructureDefinition/us-core-race","extension":[{"url":"ombCategory","valueCoding":{"system":"urn:oid:2.16.840.1.113883.6.238","code":"2076-8","display":"Native Hawaiian or Other Pacific Islander","userSelected":true}},{"url":"text","valueString":"Native Hawaiian or Other Pacific Islander"}]},{"url":"http://hl7.org/fhir/us/core/StructureDefinition/us-core-ethnicity","extension":[{"url":"ombCategory","valueCoding":{"system":"urn:oid:2.16.840.1.113883.6.238","code":"2186-5","display":"Not Hispanic or Latino","userSelected":true}},{"url":"text","valueString":"Not Hispanic or Latino"}]},{"url":"http://hl7.org/fhir/us/core/StructureDefinition/us-core-sex","valueCode":"248152002"}],"identifier":[{"type":{"coding":[{"system":"http://terminology.hl7.org/CodeSystem/v2-0203","code":"MR"}]},"system":"https://bonnie-fhir.healthit.gov/","value":"661579e3db207d74c03b8a54"}],"name":[{"family":"NUMERStrat4Pass","given":["EncStartsB4MP"]}],"gender":"female","birthDate":"2008-12-31"},"request":{"method":"PUT","url":"Patient/9bac5045-01af-4350-b54f-63ab17f3ba9f"}},{"fullUrl":"Encounter/9dd0a2a8-cea9-4cde-bdd7-ad8f0345f3aa","resource":{"resourceType":"Encounter","id":"9dd0a2a8-cea9-4cde-bdd7-ad8f0345f3aa","meta":{"profile":["http://hl7.org/fhir/us/qicore/StructureDefinition/qicore-encounter"]},"status":"finished","class":{"system":"http://terminology.hl7.org/CodeSystem/v3-ActCode","code":"EMER","display":"emergency"},"type":[{"coding":[{"system":"http://snomed.info/sct","version":"2023-09","code":"4525004","display":"Emergency department patient visit (procedure)","userSelected":true}]}],"subject":{"reference":"Patient/9bac5045-01af-4350-b54f-63ab17f3ba9f"},"period":{"start":"2026-12-29T08:00:00.000+00:00","end":"2026-12-31T12:15:00.000+00:00"},"diagnosis":[{"condition":{"reference":"Condition/33265220-5825-465f-91ab-1a0d783944c3"},"use":{"coding":[{"system":"http://terminology.hl7.org/CodeSystem/diagnosis-role","code":"billing"}]},"rank":1}],"location":[{"location":{"reference":"Location/6ff9242e-d0d5-4be0-b0a5-936b507e87a5"},"period":{"start":"2026-12-29T07:45:00.000+00:00","end":"2026-12-31T12:15:00.000+00:00"}},{"location":{"reference":"Location/826f1b8b-a904-4c86-9311-e13e3a1e9bec"},"period":{"start":"2026-12-29T09:01:00.000+00:00","end":"2026-12-31T12:15:00.000+00:00"}}]},"request":{"method":"PUT","url":"Encounter/9dd0a2a8-cea9-4cde-bdd7-ad8f0345f3aa"}},{"fullUrl":"Location/826f1b8b-a904-4c86-9311-e13e3a1e9bec","resource":{"resourceType":"Location","id":"826f1b8b-a904-4c86-9311-e13e3a1e9bec","meta":{"profile":["http://hl7.org/fhir/us/qicore/StructureDefinition/qicore-location"]},"identifier":[{"use":"usual","system":"http://exampleoflocation.com","value":"B1-S.F2"}],"name":"Medical Surgical East, first floor","type":[{"coding":[{"system":"https://www.cdc.gov/nhsn/cdaportal/terminology/codesystem/hsloc.html","version":"2022","code":"1209-6","display":"Treatment Room","userSelected":true}]}]},"request":{"method":"PUT","url":"Location/826f1b8b-a904-4c86-9311-e13e3a1e9bec"}},{"fullUrl":"Location/8f2a9063-c5bd-4a7d-a909-491f45d0c6d7","resource":{"resourceType":"Location","id":"8f2a9063-c5bd-4a7d-a909-491f45d0c6d7","meta":{"profile":["http://hl7.org/fhir/us/qicore/StructureDefinition/qicore-location"]},"identifier":[{"use":"usual","system":"http://exampleoflocation.com","value":"B1-S.F2"}],"name":"Medical Surgical East, first floor","type":[{"coding":[{"system":"https://www.cdc.gov/nhsn/cdaportal/terminology/codesystem/hsloc.html","version":"2022","code":"1209-6","display":"Treatment Room"}]}]},"request":{"method":"PUT","url":"Location/8f2a9063-c5bd-4a7d-a909-491f45d0c6d7"}},{"fullUrl":"Organization/7468dd02-7aeb-46cd-922b-ed29a04d407e","resource":{"resourceType":"Organization","id":"7468dd02-7aeb-46cd-922b-ed29a04d407e","meta":{"profile":["http://hl7.org/fhir/us/qicore/StructureDefinition/qicore-organization"]},"identifier":[{"use":"temp","system":"urn:oid:2.16.840.1.113883.4.4","value":"21-3259825"}],"active":true,"type":[{"coding":[{"system":"http://terminology.hl7.org/CodeSystem/organization-type","code":"pay","display":"Payer"}]}],"name":"Blue Cross Blue Shield of Texas","telecom":[{"system":"phone","value":"(+1) 972-766-6900"}],"address":[{"use":"billing","type":"postal","line":["P.O. Box 660044"],"city":"Dallas","state":"TX","postalCode":"75266-0044","country":"USA"}]},"request":{"method":"PUT","url":"Organization/7468dd02-7aeb-46cd-922b-ed29a04d407e"}},{"fullUrl":"Coverage/a2e0b200-1bcd-4585-b3c3-8bd0e96157d0","resource":{"resourceType":"Coverage","id":"a2e0b200-1bcd-4585-b3c3-8bd0e96157d0","meta":{"profile":["http://hl7.org/fhir/us/qicore/StructureDefinition/qicore-coverage"]},"identifier":[{"type":{"coding":[{"system":"http://terminology.hl7.org/CodeSystem/v2-0203","code":"MB"}]}}],"status":"active","beneficiary":{"reference":"Patient/9bac5045-01af-4350-b54f-63ab17f3ba9f"},"relationship":{"coding":[{"system":"http://terminology.hl7.org/CodeSystem/subscriber-relationship","code":"self"}]},"payor":[{"reference":"Organization/7468dd02-7aeb-46cd-922b-ed29a04d407e"}]},"request":{"method":"PUT","url":"Coverage/a2e0b200-1bcd-4585-b3c3-8bd0e96157d0"}},{"fullUrl":"Claim/ClaimBehavior-NotSubsAbuse","resource":{"resourceType":"Claim","id":"ClaimBehavior-NotSubsAbuse","meta":{"profile":["http://hl7.org/fhir/us/qicore/StructureDefinition/qicore-claim"]},"status":"active","type":{"coding":[{"system":"http://terminology.hl7.org/CodeSystem/claim-type","code":"institutional"}]},"use":"claim","patient":{"reference":"Patient/9bac5045-01af-4350-b54f-63ab17f3ba9f"},"created":"2027-01-01","provider":{"reference":"Practitioner/d77b115c-ea0d-4334-9696-a28cec8645f3"},"priority":{"coding":[{"system":"http://terminology.hl7.org/CodeSystem/processpriority","code":"normal"}]},"diagnosis":[{"sequence":1,"diagnosisReference":{"reference":"Condition/33265220-5825-465f-91ab-1a0d783944c3"},"type":[{"coding":[{"system":"http://terminology.hl7.org/CodeSystem/ex-diagnosistype","code":"principal"}]}]}],"insurance":[{"sequence":1,"focal":true,"coverage":{"reference":"Coverage/a2e0b200-1bcd-4585-b3c3-8bd0e96157d0"}}],"item":[{"sequence":1,"diagnosisSequence":[1],"productOrService":{"coding":[{"system":"http://terminology.hl7.org/CodeSystem/ex-USCLS","code":"99555"}]},"encounter":[{"reference":"Encounter/9dd0a2a8-cea9-4cde-bdd7-ad8f0345f3aa"}]}]},"request":{"method":"PUT","url":"Claim/ClaimBehavior-NotSubsAbuse"}},{"fullUrl":"Location/6ff9242e-d0d5-4be0-b0a5-936b507e87a5","resource":{"resourceType":"Location","id":"6ff9242e-d0d5-4be0-b0a5-936b507e87a5","meta":{"profile":["http://hl7.org/fhir/us/qicore/StructureDefinition/qicore-location"]},"identifier":[{"use":"usual","system":"http://exampleoflocation.com","value":"B1-S.F1"}],"name":"Medical Surgical East, first floor","type":[{"coding":[{"system":"https://www.cdc.gov/nhsn/cdaportal/terminology/codesystem/hsloc.html","version":"2022","code":"1108-0","display":"Emergency Department","userSelected":true}]}]},"request":{"method":"PUT","url":"Location/6ff9242e-d0d5-4be0-b0a5-936b507e87a5"}},{"fullUrl":"Bundle/661579e3db207d74c03b8a54","resource":{"resourceType":"Bundle","id":"661579e3db207d74c03b8a54","type":"transaction","entry":[{"fullUrl":"https://madie.cms.gov/Patient/9bac5045-01af-4350-b54f-63ab17f3ba9f","resource":{"resourceType":"Patient","id":"9bac5045-01af-4350-b54f-63ab17f3ba9f","meta":{"profile":["http://hl7.org/fhir/us/qicore/StructureDefinition/qicore-patient"]},"extension":[{"url":"http://hl7.org/fhir/us/core/StructureDefinition/us-core-race","extension":[{"url":"ombCategory","valueCoding":{"system":"urn:oid:2.16.840.1.113883.6.238","code":"2076-8","display":"Native Hawaiian or Other Pacific Islander","userSelected":true}},{"url":"text","valueString":"Native Hawaiian or Other Pacific Islander"}]},{"url":"http://hl7.org/fhir/us/core/StructureDefinition/us-core-ethnicity","extension":[{"url":"ombCategory","valueCoding":{"system":"urn:oid:2.16.840.1.113883.6.238","code":"2186-5","display":"Not Hispanic or Latino","userSelected":true}},{"url":"text","valueString":"Not Hispanic or Latino"}]},{"url":"http://hl7.org/fhir/us/core/StructureDefinition/us-core-sex","valueCode":"248152002"}],"identifier":[{"type":{"coding":[{"system":"http://terminology.hl7.org/CodeSystem/v2-0203","code":"MR"}]},"system":"https://bonnie-fhir.healthit.gov/","value":"661579e3db207d74c03b8a54"}],"name":[{"family":"NUMERStrat4Pass","given":["EncStartsB4MP"]}],"gender":"female","birthDate":"2008-12-31"},"request":{"method":"PUT","url":"Patient/9bac5045-01af-4350-b54f-63ab17f3ba9f"}},{"fullUrl":"https://madie.cms.gov/Encounter/9dd0a2a8-cea9-4cde-bdd7-ad8f0345f3aa","resource":{"resourceType":"Encounter","id":"9dd0a2a8-cea9-4cde-bdd7-ad8f0345f3aa","meta":{"profile":["http://hl7.org/fhir/us/qicore/StructureDefinition/qicore-encounter"]},"status":"finished","class":{"system":"http://terminology.hl7.org/CodeSystem/v3-ActCode","code":"EMER","display":"emergency"},"type":[{"coding":[{"system":"http://snomed.info/sct","version":"2023-09","code":"4525004","display":"Emergency department patient visit (procedure)","userSelected":true}]}],"subject":{"reference":"Patient/9bac5045-01af-4350-b54f-63ab17f3ba9f"},"period":{"start":"2026-12-29T08:00:00.000+00:00","end":"2026-12-31T12:15:00.000+00:00"},"diagnosis":[{"condition":{"reference":"Condition/33265220-5825-465f-91ab-1a0d783944c3"},"use":{"coding":[{"system":"http://terminology.hl7.org/CodeSystem/diagnosis-role","code":"billing"}]},"rank":1}],"location":[{"location":{"reference":"Location/6ff9242e-d0d5-4be0-b0a5-936b507e87a5"},"period":{"start":"2026-12-29T07:45:00.000+00:00","end":"2026-12-31T12:15:00.000+00:00"}},{"location":{"reference":"Location/826f1b8b-a904-4c86-9311-e13e3a1e9bec"},"period":{"start":"2026-12-29T09:01:00.000+00:00","end":"2026-12-31T12:15:00.000+00:00"}}]},"request":{"method":"PUT","url":"Encounter/9dd0a2a8-cea9-4cde-bdd7-ad8f0345f3aa"}},{"fullUrl":"https://madie.cms.gov/Location/6ff9242e-d0d5-4be0-b0a5-936b507e87a5","resource":{"resourceType":"Location","id":"6ff9242e-d0d5-4be0-b0a5-936b507e87a5","meta":{"profile":["http://hl7.org/fhir/us/qicore/StructureDefinition/qicore-location"]},"identifier":[{"use":"usual","system":"http://exampleoflocation.com","value":"B1-S.F1"}],"name":"Medical Surgical East, first floor","type":[{"coding":[{"system":"https://www.cdc.gov/nhsn/cdaportal/terminology/codesystem/hsloc.html","version":"2022","code":"1108-0","display":"Emergency Department","userSelected":true}]}]},"request":{"method":"PUT","url":"Location/6ff9242e-d0d5-4be0-b0a5-936b507e87a5"}},{"fullUrl":"https://madie.cms.gov/Location/826f1b8b-a904-4c86-9311-e13e3a1e9bec","resource":{"resourceType":"Location","id":"826f1b8b-a904-4c86-9311-e13e3a1e9bec","meta":{"profile":["http://hl7.org/fhir/us/qicore/StructureDefinition/qicore-location"]},"identifier":[{"use":"usual","system":"http://exampleoflocation.com","value":"B1-S.F2"}],"name":"Medical Surgical East, first floor","type":[{"coding":[{"system":"https://www.cdc.gov/nhsn/cdaportal/terminology/codesystem/hsloc.html","version":"2022","code":"1209-6","display":"Treatment Room","userSelected":true}]}]},"request":{"method":"PUT","url":"Location/826f1b8b-a904-4c86-9311-e13e3a1e9bec"}},{"fullUrl":"https://madie.cms.gov/Condition/33265220-5825-465f-91ab-1a0d783944c3","resource":{"resourceType":"Condition","id":"33265220-5825-465f-91ab-1a0d783944c3","meta":{"profile":["http://hl7.org/fhir/us/qicore/StructureDefinition/qicore-condition-encounter-diagnosis"]},"category":[{"coding":[{"system":"http://terminology.hl7.org/CodeSystem/condition-category","code":"encounter-diagnosis","display":"Encounter Diagnosis"}]}],"code":{"coding":[{"system":"http://snomed.info/sct","version":"2023-09","code":"10349009","display":"Multi-infarct dementia with delirium (disorder)","userSelected":true}]},"subject":{"reference":"Patient/9bac5045-01af-4350-b54f-63ab17f3ba9f"},"recordedDate":"2027-04-09T08:00:00.000+00:00"},"request":{"method":"PUT","url":"Condition/33265220-5825-465f-91ab-1a0d783944c3"}},{"fullUrl":"https://madie.cms.gov/Location/8eaf7700-5bde-45c2-b288-9ec7e99389f4","resource":{"resourceType":"Location","id":"8eaf7700-5bde-45c2-b288-9ec7e99389f4","meta":{"profile":["http://hl7.org/fhir/us/qicore/StructureDefinition/qicore-location"]},"identifier":[{"use":"usual","system":"http://exampleoflocation.com","value":"B1-S.F2"}],"name":"Medical Surgical East, first floor","type":[{"coding":[{"system":"https://www.cdc.gov/nhsn/cdaportal/terminology/codesystem/hsloc.html","version":"2022","code":"1108-0","display":"Emergency Department","userSelected":true}]}]},"request":{"method":"PUT","url":"Location/8eaf7700-5bde-45c2-b288-9ec7e99389f4"}},{"fullUrl":"https://madie.cms.gov/Location/8f2a9063-c5bd-4a7d-a909-491f45d0c6d7","resource":{"resourceType":"Location","id":"8f2a9063-c5bd-4a7d-a909-491f45d0c6d7","meta":{"profile":["http://hl7.org/fhir/us/qicore/StructureDefinition/qicore-location"]},"identifier":[{"use":"usual","system":"http://exampleoflocation.com","value":"B1-S.F2"}],"name":"Medical Surgical East, first floor","type":[{"coding":[{"system":"https://www.cdc.gov/nhsn/cdaportal/terminology/codesystem/hsloc.html","version":"2022","code":"1209-6","display":"Treatment Room"}]}]},"request":{"method":"PUT","url":"Location/8f2a9063-c5bd-4a7d-a909-491f45d0c6d7"}},{"fullUrl":"https://madie.cms.gov/claim/ClaimBehavior-NotSubsAbuse","resource":{"resourceType":"Claim","id":"ClaimBehavior-NotSubsAbuse","meta":{"profile":["http://hl7.org/fhir/us/qicore/StructureDefinition/qicore-claim"]},"status":"active","type":{"coding":[{"system":"http://terminology.hl7.org/CodeSystem/claim-type","code":"institutional"}]},"use":"claim","patient":{"reference":"Patient/9bac5045-01af-4350-b54f-63ab17f3ba9f"},"created":"2027-01-01","provider":{"reference":"Practitioner/d77b115c-ea0d-4334-9696-a28cec8645f3"},"priority":{"coding":[{"system":"http://terminology.hl7.org/CodeSystem/processpriority","code":"normal"}]},"diagnosis":[{"sequence":1,"diagnosisReference":{"reference":"Condition/33265220-5825-465f-91ab-1a0d783944c3"},"type":[{"coding":[{"system":"http://terminology.hl7.org/CodeSystem/ex-diagnosistype","code":"principal"}]}]}],"insurance":[{"sequence":1,"focal":true,"coverage":{"reference":"Coverage/a2e0b200-1bcd-4585-b3c3-8bd0e96157d0"}}],"item":[{"sequence":1,"diagnosisSequence":[1],"productOrService":{"coding":[{"system":"http://terminology.hl7.org/CodeSystem/ex-USCLS","code":"99555"}]},"encounter":[{"reference":"Encounter/9dd0a2a8-cea9-4cde-bdd7-ad8f0345f3aa"}]}]},"request":{"method":"PUT","url":"Claim/ClaimBehavior-NotSubsAbuse"}},{"fullUrl":"https://madie.cms.gov/Coverage/a2e0b200-1bcd-4585-b3c3-8bd0e96157d0","resource":{"resourceType":"Coverage","id":"a2e0b200-1bcd-4585-b3c3-8bd0e96157d0","meta":{"profile":["http://hl7.org/fhir/us/qicore/StructureDefinition/qicore-coverage"]},"identifier":[{"type":{"coding":[{"system":"http://terminology.hl7.org/CodeSystem/v2-0203","code":"MB"}]}}],"status":"active","beneficiary":{"reference":"Patient/9bac5045-01af-4350-b54f-63ab17f3ba9f"},"relationship":{"coding":[{"system":"http://terminology.hl7.org/CodeSystem/subscriber-relationship","code":"self"}]},"payor":[{"reference":"Organization/7468dd02-7aeb-46cd-922b-ed29a04d407e"}]},"request":{"method":"PUT","url":"Coverage/a2e0b200-1bcd-4585-b3c3-8bd0e96157d0"}},{"fullUrl":"https://madie.cms.gov/Organization/7468dd02-7aeb-46cd-922b-ed29a04d407e","resource":{"resourceType":"Organization","id":"7468dd02-7aeb-46cd-922b-ed29a04d407e","meta":{"profile":["http://hl7.org/fhir/us/qicore/StructureDefinition/qicore-organization"]},"identifier":[{"use":"temp","system":"urn:oid:2.16.840.1.113883.4.4","value":"21-3259825"}],"active":true,"type":[{"coding":[{"system":"http://terminology.hl7.org/CodeSystem/organization-type","code":"pay","display":"Payer"}]}],"name":"Blue Cross Blue Shield of Texas","telecom":[{"system":"phone","value":"(+1) 972-766-6900"}],"address":[{"use":"billing","type":"postal","line":["P.O. Box 660044"],"city":"Dallas","state":"TX","postalCode":"75266-0044","country":"USA"}]},"request":{"method":"PUT","url":"Organization/7468dd02-7aeb-46cd-922b-ed29a04d407e"}},{"fullUrl":"https://madie.cms.gov/Practitioner/d77b115c-ea0d-4334-9696-a28cec8645f3","resource":{"resourceType":"Practitioner","id":"d77b115c-ea0d-4334-9696-a28cec8645f3","meta":{"profile":["http://hl7.org/fhir/us/qicore/StructureDefinition/qicore-practitioner"]},"identifier":[{"system":"http://hl7.org/fhir/sid/us-npi","value":"9999999896"}],"name":[{"family":"Evil","prefix":["Dr"]}]},"request":{"method":"PUT","url":"Practitioner/d77b115c-ea0d-4334-9696-a28cec8645f3"}},{"fullUrl":"https://madie.cms.gov/MeasureReport/dfd7bfea-4085-4e3f-8243-1b1330526220","resource":{"resourceType":"MeasureReport","id":"dfd7bfea-4085-4e3f-8243-1b1330526220","meta":{"profile":["http://hl7.org/fhir/us/cqfmeasures/StructureDefinition/test-case-cqfm"]},"contained":[{"resourceType":"Parameters","id":"44600e0e-3bb7-4896-a73d-551ad2555d84-parameters","parameter":[{"name":"subject","valueString":"9bac5045-01af-4350-b54f-63ab17f3ba9f"}]}],"extension":[{"url":"http://hl7.org/fhir/StructureDefinition/cqf-inputParameters","valueReference":{"reference":"#44600e0e-3bb7-4896-a73d-551ad2555d84-parameters"}},{"url":"http://hl7.org/fhir/us/cqfmeasures/StructureDefinition/cqfm-testCaseDescription","valueMarkdown":"12/29/20XX - 12/31/XX Enc starts and ends day before MP. "}],"modifierExtension":[{"url":"http://hl7.org/fhir/us/cqfmeasures/StructureDefinition/cqfm-isTestCase","valueBoolean":true}],"status":"complete","type":"individual","measure":"https://madie.cms.gov/Measure/CMS1244FHIRECATHOQR","period":{"start":"2027-01-01","end":"2027-12-31"},"group":[{"id":"Group_1","population":[{"id":"InitialPopulation_1","code":{"coding":[{"system":"http://terminology.hl7.org/CodeSystem/measure-population","code":"initial-population","display":"Initial Population"}]},"count":0},{"id":"Denominator_1","code":{"coding":[{"system":"http://terminology.hl7.org/CodeSystem/measure-population","code":"denominator","display":"Denominator"}]},"count":0},{"id":"Numerator_1","code":{"coding":[{"system":"http://terminology.hl7.org/CodeSystem/measure-population","code":"numerator","display":"Numerator"}]},"count":0}],"measureScore":{"value":0.0},"stratifier":[{"id":"Stratification_1_1","code":[{"text":"Strata-1"}],"stratum":[{"value":{"text":"Strata-1"},"population":[{"id":"InitialPopulation_1","code":{"coding":[{"system":"http://terminology.hl7.org/CodeSystem/measure-population","code":"initial-population","display":"Initial Population"}]},"count":0},{"id":"Denominator_1","code":{"coding":[{"system":"http://terminology.hl7.org/CodeSystem/measure-population","code":"denominator","display":"Denominator"}]},"count":0},{"id":"Numerator_1","code":{"coding":[{"system":"http://terminology.hl7.org/CodeSystem/measure-population","code":"numerator","display":"Numerator"}]},"count":0}]}]},{"id":"Stratification_1_2","code":[{"text":"Strata-2"}],"stratum":[{"value":{"text":"Strata-2"},"population":[{"id":"InitialPopulation_1","code":{"coding":[{"system":"http://terminology.hl7.org/CodeSystem/measure-population","code":"initial-population","display":"Initial Population"}]},"count":0},{"id":"Denominator_1","code":{"coding":[{"system":"http://terminology.hl7.org/CodeSystem/measure-population","code":"denominator","display":"Denominator"}]},"count":0},{"id":"Numerator_1","code":{"coding":[{"system":"http://terminology.hl7.org/CodeSystem/measure-population","code":"numerator","display":"Numerator"}]},"count":0}]}]},{"id":"Stratification_1_3","code":[{"text":"Strata-3"}],"stratum":[{"value":{"text":"Strata-3"},"population":[{"id":"InitialPopulation_1","code":{"coding":[{"system":"http://terminology.hl7.org/CodeSystem/measure-population","code":"initial-population","display":"Initial Population"}]},"count":0},{"id":"Denominator_1","code":{"coding":[{"system":"http://terminology.hl7.org/CodeSystem/measure-population","code":"denominator","display":"Denominator"}]},"count":0},{"id":"Numerator_1","code":{"coding":[{"system":"http://terminology.hl7.org/CodeSystem/measure-population","code":"numerator","display":"Numerator"}]},"count":0}]}]},{"id":"Stratification_1_4","code":[{"text":"Strata-4"}],"stratum":[{"value":{"text":"Strata-4"},"population":[{"id":"InitialPopulation_1","code":{"coding":[{"system":"http://terminology.hl7.org/CodeSystem/measure-population","code":"initial-population","display":"Initial Population"}]},"count":0},{"id":"Denominator_1","code":{"coding":[{"system":"http://terminology.hl7.org/CodeSystem/measure-population","code":"denominator","display":"Denominator"}]},"count":0},{"id":"Numerator_1","code":{"coding":[{"system":"http://terminology.hl7.org/CodeSystem/measure-population","code":"numerator","display":"Numerator"}]},"count":0}]}]}]}],"evaluatedResource":[{"reference":"Patient/9bac5045-01af-4350-b54f-63ab17f3ba9f"},{"reference":"Encounter/9dd0a2a8-cea9-4cde-bdd7-ad8f0345f3aa"},{"reference":"Location/6ff9242e-d0d5-4be0-b0a5-936b507e87a5"},{"reference":"Location/826f1b8b-a904-4c86-9311-e13e3a1e9bec"},{"reference":"Condition/33265220-5825-465f-91ab-1a0d783944c3"},{"reference":"Location/8eaf7700-5bde-45c2-b288-9ec7e99389f4"},{"reference":"Location/8f2a9063-c5bd-4a7d-a909-491f45d0c6d7"},{"reference":"Claim/ClaimBehavior-NotSubsAbuse"},{"reference":"Coverage/a2e0b200-1bcd-4585-b3c3-8bd0e96157d0"},{"reference":"Organization/7468dd02-7aeb-46cd-922b-ed29a04d407e"},{"reference":"Practitioner/d77b115c-ea0d-4334-9696-a28cec8645f3"}]},"request":{"method":"PUT","url":"MeasureReport/dfd7bfea-4085-4e3f-8243-1b1330526220"}}]},"request":{"method":"PUT","url":"Bundle/661579e3db207d74c03b8a54"}},{"fullUrl":"Condition/33265220-5825-465f-91ab-1a0d783944c3","resource":{"resourceType":"Condition","id":"33265220-5825-465f-91ab-1a0d783944c3","meta":{"profile":["http://hl7.org/fhir/us/qicore/StructureDefinition/qicore-condition-encounter-diagnosis"]},"category":[{"coding":[{"system":"http://terminology.hl7.org/CodeSystem/condition-category","code":"encounter-diagnosis","display":"Encounter Diagnosis"}]}],"code":{"coding":[{"system":"http://snomed.info/sct","version":"2023-09","code":"10349009","display":"Multi-infarct dementia with delirium (disorder)","userSelected":true}]},"subject":{"reference":"Patient/9bac5045-01af-4350-b54f-63ab17f3ba9f"},"recordedDate":"2027-04-09T08:00:00.000+00:00"},"request":{"method":"PUT","url":"Condition/33265220-5825-465f-91ab-1a0d783944c3"}}]}