{"resourceType":"Bundle","id":"tests-eabe386d-5bca-4fdd-acb0-8228b4df83c0-bundle","type":"transaction","entry":[{"fullUrl":"Organization/e0039eb9-bc26-4272-a831-832a0ce9cace","resource":{"resourceType":"Organization","id":"e0039eb9-bc26-4272-a831-832a0ce9cace","meta":{"profile":["http://hl7.org/fhir/us/qicore/StructureDefinition/qicore-organization"]},"identifier":[{"use":"temp","system":"urn:oid:2.16.840.1.113883.4.4","value":"21-3259825"}],"active":true,"type":[{"coding":[{"system":"http://terminology.hl7.org/CodeSystem/organization-type","code":"pay","display":"Payer"}]}],"name":"Blue Cross Blue Shield of Texas","telecom":[{"system":"phone","value":"(+1) 972-766-6900"}],"address":[{"use":"billing","type":"postal","line":["P.O. Box 660044"],"city":"Dallas","state":"TX","postalCode":"75266-0044","country":"USA"}]},"request":{"method":"PUT","url":"Organization/e0039eb9-bc26-4272-a831-832a0ce9cace"}},{"fullUrl":"Practitioner/03ccc023-c66e-4d41-a09a-46611510444a","resource":{"resourceType":"Practitioner","id":"03ccc023-c66e-4d41-a09a-46611510444a","meta":{"profile":["http://hl7.org/fhir/us/qicore/StructureDefinition/qicore-practitioner"]},"identifier":[{"system":"http://hl7.org/fhir/sid/us-npi","value":"9999999896"}],"name":[{"family":"Evil","prefix":["Dr"]}]},"request":{"method":"PUT","url":"Practitioner/03ccc023-c66e-4d41-a09a-46611510444a"}},{"fullUrl":"Encounter/8cdc9a88-1a30-453e-9b15-396d082e1265","resource":{"resourceType":"Encounter","id":"8cdc9a88-1a30-453e-9b15-396d082e1265","meta":{"profile":["http://hl7.org/fhir/us/qicore/StructureDefinition/qicore-encounter"]},"status":"finished","class":{"system":"http://terminology.hl7.org/CodeSystem/v3-ActCode","code":"EMER","display":"emergency department"},"type":[{"coding":[{"system":"http://snomed.info/sct","version":"2023-09","code":"4525004","display":"Emergency department patient visit (procedure)","userSelected":true}]}],"subject":{"reference":"Patient/eabe386d-5bca-4fdd-acb0-8228b4df83c0"},"period":{"start":"2027-05-01T19:58:00.000+00:00","end":"2027-05-01T23:59:00.000+00:00"},"diagnosis":[{"condition":{"reference":"Condition/1ef8e10e-7f0a-456a-b2f3-05bd93fc24b8"},"use":{"coding":[{"system":"http://terminology.hl7.org/CodeSystem/diagnosis-role","code":"billing"}]},"rank":1}],"location":[{"location":{"reference":"Location/358795d7-cda1-4dbc-a70c-62e07942ea93"},"period":{"start":"2027-05-01T19:58:00.000+00:00","end":"2027-05-01T23:59:00.000+00:00"}}]},"request":{"method":"PUT","url":"Encounter/8cdc9a88-1a30-453e-9b15-396d082e1265"}},{"fullUrl":"ServiceRequest/2d6812e8-6da2-4f9a-bc0e-f8d8cae30702","resource":{"resourceType":"ServiceRequest","id":"2d6812e8-6da2-4f9a-bc0e-f8d8cae30702","meta":{"profile":["http://hl7.org/fhir/us/qicore/StructureDefinition/qicore-servicerequest"]},"status":"active","intent":"plan","code":{"coding":[{"system":"http://snomed.info/sct","version":"2023-09","code":"19951005","display":"Hospital admission, emergency, from emergency room, medical nature (procedure)","userSelected":true}]},"subject":{"reference":"Patient/eabe386d-5bca-4fdd-acb0-8228b4df83c0"},"authoredOn":"2027-05-01T19:58:00.000+00:00"},"request":{"method":"PUT","url":"ServiceRequest/2d6812e8-6da2-4f9a-bc0e-f8d8cae30702"}},{"fullUrl":"MeasureReport/0babfeb9-fa37-43a4-ac56-ab0c98acbe3b","resource":{"resourceType":"MeasureReport","id":"0babfeb9-fa37-43a4-ac56-ab0c98acbe3b","meta":{"profile":["http://hl7.org/fhir/us/cqfmeasures/StructureDefinition/test-case-cqfm"]},"contained":[{"resourceType":"Parameters","id":"8a18b118-7e57-44f5-af91-f40d52cba3a9-parameters","parameter":[{"name":"subject","valueString":"eabe386d-5bca-4fdd-acb0-8228b4df83c0"}]}],"extension":[{"url":"http://hl7.org/fhir/StructureDefinition/cqf-inputParameters","valueReference":{"reference":"#8a18b118-7e57-44f5-af91-f40d52cba3a9-parameters"}},{"url":"http://hl7.org/fhir/us/cqfmeasures/StructureDefinition/cqfm-testCaseDescription","valueMarkdown":"Encounter first day of MP; decision to admit with intent as planned instead of order"}],"modifierExtension":[{"url":"http://hl7.org/fhir/us/cqfmeasures/StructureDefinition/cqfm-isTestCase","valueBoolean":true}],"status":"complete","type":"individual","measure":"https://madie.cms.gov/Measure/CMS1244FHIRECATHOQR","period":{"start":"2027-01-01","end":"2027-12-31"},"group":[{"id":"Group_1","population":[{"id":"InitialPopulation_1","code":{"coding":[{"system":"http://terminology.hl7.org/CodeSystem/measure-population","code":"initial-population","display":"Initial Population"}]},"count":1},{"id":"Denominator_1","code":{"coding":[{"system":"http://terminology.hl7.org/CodeSystem/measure-population","code":"denominator","display":"Denominator"}]},"count":1},{"id":"Numerator_1","code":{"coding":[{"system":"http://terminology.hl7.org/CodeSystem/measure-population","code":"numerator","display":"Numerator"}]},"count":0}],"measureScore":{"value":0.0},"stratifier":[{"id":"Stratification_1_1","code":[{"text":"Strata-1"}],"stratum":[{"value":{"text":"Strata-1"},"population":[{"id":"InitialPopulation_1","code":{"coding":[{"system":"http://terminology.hl7.org/CodeSystem/measure-population","code":"initial-population","display":"Initial Population"}]},"count":0},{"id":"Denominator_1","code":{"coding":[{"system":"http://terminology.hl7.org/CodeSystem/measure-population","code":"denominator","display":"Denominator"}]},"count":0},{"id":"Numerator_1","code":{"coding":[{"system":"http://terminology.hl7.org/CodeSystem/measure-population","code":"numerator","display":"Numerator"}]},"count":0}]}]},{"id":"Stratification_1_2","code":[{"text":"Strata-2"}],"stratum":[{"value":{"text":"Strata-2"},"population":[{"id":"InitialPopulation_1","code":{"coding":[{"system":"http://terminology.hl7.org/CodeSystem/measure-population","code":"initial-population","display":"Initial Population"}]},"count":0},{"id":"Denominator_1","code":{"coding":[{"system":"http://terminology.hl7.org/CodeSystem/measure-population","code":"denominator","display":"Denominator"}]},"count":0},{"id":"Numerator_1","code":{"coding":[{"system":"http://terminology.hl7.org/CodeSystem/measure-population","code":"numerator","display":"Numerator"}]},"count":0}]}]},{"id":"Stratification_1_3","code":[{"text":"Strata-3"}],"stratum":[{"value":{"text":"Strata-3"},"population":[{"id":"InitialPopulation_1","code":{"coding":[{"system":"http://terminology.hl7.org/CodeSystem/measure-population","code":"initial-population","display":"Initial Population"}]},"count":0},{"id":"Denominator_1","code":{"coding":[{"system":"http://terminology.hl7.org/CodeSystem/measure-population","code":"denominator","display":"Denominator"}]},"count":0},{"id":"Numerator_1","code":{"coding":[{"system":"http://terminology.hl7.org/CodeSystem/measure-population","code":"numerator","display":"Numerator"}]},"count":0}]}]},{"id":"Stratification_1_4","code":[{"text":"Strata-4"}],"stratum":[{"value":{"text":"Strata-4"},"population":[{"id":"InitialPopulation_1","code":{"coding":[{"system":"http://terminology.hl7.org/CodeSystem/measure-population","code":"initial-population","display":"Initial Population"}]},"count":1},{"id":"Denominator_1","code":{"coding":[{"system":"http://terminology.hl7.org/CodeSystem/measure-population","code":"denominator","display":"Denominator"}]},"count":1},{"id":"Numerator_1","code":{"coding":[{"system":"http://terminology.hl7.org/CodeSystem/measure-population","code":"numerator","display":"Numerator"}]},"count":0}]}]}]}],"evaluatedResource":[{"reference":"Patient/eabe386d-5bca-4fdd-acb0-8228b4df83c0"},{"reference":"Encounter/8cdc9a88-1a30-453e-9b15-396d082e1265"},{"reference":"ServiceRequest/2d6812e8-6da2-4f9a-bc0e-f8d8cae30702"},{"reference":"Location/358795d7-cda1-4dbc-a70c-62e07942ea93"},{"reference":"Claim/ClaimBehavior-NotSubsAbuse"},{"reference":"Coverage/cf7a3144-b0ba-4b5a-976b-dc52f756a60e"},{"reference":"Condition/1ef8e10e-7f0a-456a-b2f3-05bd93fc24b8"},{"reference":"Encounter/fcbe8326-6c54-4459-b9d2-6fd2140f7c5d"},{"reference":"Organization/e0039eb9-bc26-4272-a831-832a0ce9cace"},{"reference":"Practitioner/03ccc023-c66e-4d41-a09a-46611510444a"}]},"request":{"method":"PUT","url":"MeasureReport/0babfeb9-fa37-43a4-ac56-ab0c98acbe3b"}},{"fullUrl":"Encounter/fcbe8326-6c54-4459-b9d2-6fd2140f7c5d","resource":{"resourceType":"Encounter","id":"fcbe8326-6c54-4459-b9d2-6fd2140f7c5d","meta":{"profile":["http://hl7.org/fhir/us/qicore/StructureDefinition/qicore-encounter"]},"status":"finished","class":{"system":"http://terminology.hl7.org/CodeSystem/v3-ActCode","code":"IMP","display":"inpatient"},"type":[{"coding":[{"system":"http://snomed.info/sct","version":"2023-09","code":"8715000","display":"Hospital admission, elective (procedure)","userSelected":true}]}],"subject":{"reference":"Patient/eabe386d-5bca-4fdd-acb0-8228b4df83c0"},"period":{"start":"2027-05-01T23:59:00.000+00:00","end":"2027-05-03T08:00:00.000+00:00"}},"request":{"method":"PUT","url":"Encounter/fcbe8326-6c54-4459-b9d2-6fd2140f7c5d"}},{"fullUrl":"Condition/1ef8e10e-7f0a-456a-b2f3-05bd93fc24b8","resource":{"resourceType":"Condition","id":"1ef8e10e-7f0a-456a-b2f3-05bd93fc24b8","meta":{"profile":["http://hl7.org/fhir/us/qicore/StructureDefinition/qicore-condition-encounter-diagnosis"]},"category":[{"coding":[{"system":"http://terminology.hl7.org/CodeSystem/condition-category","code":"encounter-diagnosis","display":"Encounter Diagnosis"}]}],"code":{"coding":[{"system":"http://snomed.info/sct","version":"2023-09","code":"10349009","display":"Multi-infarct dementia with delirium (disorder)","userSelected":true}]},"subject":{"reference":"Patient/eabe386d-5bca-4fdd-acb0-8228b4df83c0"},"recordedDate":"2027-04-09T08:00:00.000+00:00"},"request":{"method":"PUT","url":"Condition/1ef8e10e-7f0a-456a-b2f3-05bd93fc24b8"}},{"fullUrl":"Patient/eabe386d-5bca-4fdd-acb0-8228b4df83c0","resource":{"resourceType":"Patient","id":"eabe386d-5bca-4fdd-acb0-8228b4df83c0","meta":{"profile":["http://hl7.org/fhir/us/qicore/StructureDefinition/qicore-patient"]},"extension":[{"url":"http://hl7.org/fhir/us/core/StructureDefinition/us-core-race","extension":[{"url":"ombCategory","valueCoding":{"system":"urn:oid:2.16.840.1.113883.6.238","code":"1002-5","display":"American Indian or Alaska Native","userSelected":true}},{"url":"text","valueString":"American Indian or Alaska Native"}]},{"url":"http://hl7.org/fhir/us/core/StructureDefinition/us-core-ethnicity","extension":[{"url":"ombCategory","valueCoding":{"system":"urn:oid:2.16.840.1.113883.6.238","code":"2135-2","display":"Hispanic or Latino","userSelected":true}},{"url":"text","valueString":"Hispanic or Latino"}]},{"url":"http://hl7.org/fhir/us/core/StructureDefinition/us-core-sex","valueCode":"248153007"}],"identifier":[{"type":{"coding":[{"system":"http://terminology.hl7.org/CodeSystem/v2-0203","code":"MR"}]},"system":"https://bonnie-fhir.healthit.gov/","value":"661476b015ed5841a5547ebf"}],"name":[{"family":"DENOMStrat4Pass","given":["EncDuringMP"]}],"gender":"male","birthDate":"2008-01-01"},"request":{"method":"PUT","url":"Patient/eabe386d-5bca-4fdd-acb0-8228b4df83c0"}},{"fullUrl":"Claim/ClaimBehavior-NotSubsAbuse","resource":{"resourceType":"Claim","id":"ClaimBehavior-NotSubsAbuse","meta":{"profile":["http://hl7.org/fhir/us/qicore/StructureDefinition/qicore-claim"]},"status":"active","type":{"coding":[{"system":"http://terminology.hl7.org/CodeSystem/claim-type","code":"institutional"}]},"use":"claim","patient":{"reference":"Patient/eabe386d-5bca-4fdd-acb0-8228b4df83c0"},"created":"2027-05-01","provider":{"reference":"Practitioner/03ccc023-c66e-4d41-a09a-46611510444a"},"priority":{"coding":[{"system":"http://terminology.hl7.org/CodeSystem/processpriority","code":"normal"}]},"diagnosis":[{"sequence":1,"diagnosisReference":{"reference":"Condition/1ef8e10e-7f0a-456a-b2f3-05bd93fc24b8"},"type":[{"coding":[{"system":"http://terminology.hl7.org/CodeSystem/ex-diagnosistype","code":"principal"}]}]}],"insurance":[{"sequence":1,"focal":true,"coverage":{"reference":"Coverage/cf7a3144-b0ba-4b5a-976b-dc52f756a60e"}}],"item":[{"sequence":1,"diagnosisSequence":[1],"productOrService":{"coding":[{"system":"http://terminology.hl7.org/CodeSystem/ex-USCLS","code":"99555"}]},"encounter":[{"reference":"Encounter/8cdc9a88-1a30-453e-9b15-396d082e1265"}]}]},"request":{"method":"PUT","url":"Claim/ClaimBehavior-NotSubsAbuse"}},{"fullUrl":"Location/358795d7-cda1-4dbc-a70c-62e07942ea93","resource":{"resourceType":"Location","id":"358795d7-cda1-4dbc-a70c-62e07942ea93","meta":{"profile":["http://hl7.org/fhir/us/qicore/StructureDefinition/qicore-location"]},"identifier":[{"use":"usual","system":"http://exampleoflocation.com","value":"B1-S.F2"}],"name":"Medical Surgical East, first floor","type":[{"coding":[{"system":"https://www.cdc.gov/nhsn/cdaportal/terminology/codesystem/hsloc.html","version":"2022","code":"1108-0","display":"Emergency Department","userSelected":true}]}]},"request":{"method":"PUT","url":"Location/358795d7-cda1-4dbc-a70c-62e07942ea93"}},{"fullUrl":"Coverage/cf7a3144-b0ba-4b5a-976b-dc52f756a60e","resource":{"resourceType":"Coverage","id":"cf7a3144-b0ba-4b5a-976b-dc52f756a60e","meta":{"profile":["http://hl7.org/fhir/us/qicore/StructureDefinition/qicore-coverage"]},"identifier":[{"type":{"coding":[{"system":"http://terminology.hl7.org/CodeSystem/v2-0203","code":"MB"}]}}],"status":"active","beneficiary":{"reference":"Patient/eabe386d-5bca-4fdd-acb0-8228b4df83c0"},"relationship":{"coding":[{"system":"http://terminology.hl7.org/CodeSystem/subscriber-relationship","code":"self"}]},"payor":[{"reference":"Organization/e0039eb9-bc26-4272-a831-832a0ce9cace"}]},"request":{"method":"PUT","url":"Coverage/cf7a3144-b0ba-4b5a-976b-dc52f756a60e"}},{"fullUrl":"Bundle/661476b015ed5841a5547ebf","resource":{"resourceType":"Bundle","id":"661476b015ed5841a5547ebf","type":"transaction","entry":[{"fullUrl":"https://madie.cms.gov/Patient/eabe386d-5bca-4fdd-acb0-8228b4df83c0","resource":{"resourceType":"Patient","id":"eabe386d-5bca-4fdd-acb0-8228b4df83c0","meta":{"profile":["http://hl7.org/fhir/us/qicore/StructureDefinition/qicore-patient"]},"extension":[{"url":"http://hl7.org/fhir/us/core/StructureDefinition/us-core-race","extension":[{"url":"ombCategory","valueCoding":{"system":"urn:oid:2.16.840.1.113883.6.238","code":"1002-5","display":"American Indian or Alaska Native","userSelected":true}},{"url":"text","valueString":"American Indian or Alaska Native"}]},{"url":"http://hl7.org/fhir/us/core/StructureDefinition/us-core-ethnicity","extension":[{"url":"ombCategory","valueCoding":{"system":"urn:oid:2.16.840.1.113883.6.238","code":"2135-2","display":"Hispanic or Latino","userSelected":true}},{"url":"text","valueString":"Hispanic or Latino"}]},{"url":"http://hl7.org/fhir/us/core/StructureDefinition/us-core-sex","valueCode":"248153007"}],"identifier":[{"type":{"coding":[{"system":"http://terminology.hl7.org/CodeSystem/v2-0203","code":"MR"}]},"system":"https://bonnie-fhir.healthit.gov/","value":"661476b015ed5841a5547ebf"}],"name":[{"family":"DENOMStrat4Pass","given":["EncDuringMP"]}],"gender":"male","birthDate":"2008-01-01"},"request":{"method":"PUT","url":"Patient/eabe386d-5bca-4fdd-acb0-8228b4df83c0"}},{"fullUrl":"https://madie.cms.gov/Encounter/8cdc9a88-1a30-453e-9b15-396d082e1265","resource":{"resourceType":"Encounter","id":"8cdc9a88-1a30-453e-9b15-396d082e1265","meta":{"profile":["http://hl7.org/fhir/us/qicore/StructureDefinition/qicore-encounter"]},"status":"finished","class":{"system":"http://terminology.hl7.org/CodeSystem/v3-ActCode","code":"EMER","display":"emergency department"},"type":[{"coding":[{"system":"http://snomed.info/sct","version":"2023-09","code":"4525004","display":"Emergency department patient visit (procedure)","userSelected":true}]}],"subject":{"reference":"Patient/eabe386d-5bca-4fdd-acb0-8228b4df83c0"},"period":{"start":"2027-05-01T19:58:00.000+00:00","end":"2027-05-01T23:59:00.000+00:00"},"diagnosis":[{"condition":{"reference":"Condition/1ef8e10e-7f0a-456a-b2f3-05bd93fc24b8"},"use":{"coding":[{"system":"http://terminology.hl7.org/CodeSystem/diagnosis-role","code":"billing"}]},"rank":1}],"location":[{"location":{"reference":"Location/358795d7-cda1-4dbc-a70c-62e07942ea93"},"period":{"start":"2027-05-01T19:58:00.000+00:00","end":"2027-05-01T23:59:00.000+00:00"}}]},"request":{"method":"PUT","url":"Encounter/8cdc9a88-1a30-453e-9b15-396d082e1265"}},{"fullUrl":"https://madie.cms.gov/ServiceRequest/2d6812e8-6da2-4f9a-bc0e-f8d8cae30702","resource":{"resourceType":"ServiceRequest","id":"2d6812e8-6da2-4f9a-bc0e-f8d8cae30702","meta":{"profile":["http://hl7.org/fhir/us/qicore/StructureDefinition/qicore-servicerequest"]},"status":"active","intent":"plan","code":{"coding":[{"system":"http://snomed.info/sct","version":"2023-09","code":"19951005","display":"Hospital admission, emergency, from emergency room, medical nature (procedure)","userSelected":true}]},"subject":{"reference":"Patient/eabe386d-5bca-4fdd-acb0-8228b4df83c0"},"authoredOn":"2027-05-01T19:58:00.000+00:00"},"request":{"method":"PUT","url":"ServiceRequest/2d6812e8-6da2-4f9a-bc0e-f8d8cae30702"}},{"fullUrl":"https://madie.cms.gov/Location/358795d7-cda1-4dbc-a70c-62e07942ea93","resource":{"resourceType":"Location","id":"358795d7-cda1-4dbc-a70c-62e07942ea93","meta":{"profile":["http://hl7.org/fhir/us/qicore/StructureDefinition/qicore-location"]},"identifier":[{"use":"usual","system":"http://exampleoflocation.com","value":"B1-S.F2"}],"name":"Medical Surgical East, first floor","type":[{"coding":[{"system":"https://www.cdc.gov/nhsn/cdaportal/terminology/codesystem/hsloc.html","version":"2022","code":"1108-0","display":"Emergency Department","userSelected":true}]}]},"request":{"method":"PUT","url":"Location/358795d7-cda1-4dbc-a70c-62e07942ea93"}},{"fullUrl":"https://madie.cms.gov/claim/ClaimBehavior-NotSubsAbuse","resource":{"resourceType":"Claim","id":"ClaimBehavior-NotSubsAbuse","meta":{"profile":["http://hl7.org/fhir/us/qicore/StructureDefinition/qicore-claim"]},"status":"active","type":{"coding":[{"system":"http://terminology.hl7.org/CodeSystem/claim-type","code":"institutional"}]},"use":"claim","patient":{"reference":"Patient/eabe386d-5bca-4fdd-acb0-8228b4df83c0"},"created":"2027-05-01","provider":{"reference":"Practitioner/03ccc023-c66e-4d41-a09a-46611510444a"},"priority":{"coding":[{"system":"http://terminology.hl7.org/CodeSystem/processpriority","code":"normal"}]},"diagnosis":[{"sequence":1,"diagnosisReference":{"reference":"Condition/1ef8e10e-7f0a-456a-b2f3-05bd93fc24b8"},"type":[{"coding":[{"system":"http://terminology.hl7.org/CodeSystem/ex-diagnosistype","code":"principal"}]}]}],"insurance":[{"sequence":1,"focal":true,"coverage":{"reference":"Coverage/cf7a3144-b0ba-4b5a-976b-dc52f756a60e"}}],"item":[{"sequence":1,"diagnosisSequence":[1],"productOrService":{"coding":[{"system":"http://terminology.hl7.org/CodeSystem/ex-USCLS","code":"99555"}]},"encounter":[{"reference":"Encounter/8cdc9a88-1a30-453e-9b15-396d082e1265"}]}]},"request":{"method":"PUT","url":"Claim/ClaimBehavior-NotSubsAbuse"}},{"fullUrl":"https://madie.cms.gov/Coverage/cf7a3144-b0ba-4b5a-976b-dc52f756a60e","resource":{"resourceType":"Coverage","id":"cf7a3144-b0ba-4b5a-976b-dc52f756a60e","meta":{"profile":["http://hl7.org/fhir/us/qicore/StructureDefinition/qicore-coverage"]},"identifier":[{"type":{"coding":[{"system":"http://terminology.hl7.org/CodeSystem/v2-0203","code":"MB"}]}}],"status":"active","beneficiary":{"reference":"Patient/eabe386d-5bca-4fdd-acb0-8228b4df83c0"},"relationship":{"coding":[{"system":"http://terminology.hl7.org/CodeSystem/subscriber-relationship","code":"self"}]},"payor":[{"reference":"Organization/e0039eb9-bc26-4272-a831-832a0ce9cace"}]},"request":{"method":"PUT","url":"Coverage/cf7a3144-b0ba-4b5a-976b-dc52f756a60e"}},{"fullUrl":"https://madie.cms.gov/Condition/1ef8e10e-7f0a-456a-b2f3-05bd93fc24b8","resource":{"resourceType":"Condition","id":"1ef8e10e-7f0a-456a-b2f3-05bd93fc24b8","meta":{"profile":["http://hl7.org/fhir/us/qicore/StructureDefinition/qicore-condition-encounter-diagnosis"]},"category":[{"coding":[{"system":"http://terminology.hl7.org/CodeSystem/condition-category","code":"encounter-diagnosis","display":"Encounter Diagnosis"}]}],"code":{"coding":[{"system":"http://snomed.info/sct","version":"2023-09","code":"10349009","display":"Multi-infarct dementia with delirium (disorder)","userSelected":true}]},"subject":{"reference":"Patient/eabe386d-5bca-4fdd-acb0-8228b4df83c0"},"recordedDate":"2027-04-09T08:00:00.000+00:00"},"request":{"method":"PUT","url":"Condition/1ef8e10e-7f0a-456a-b2f3-05bd93fc24b8"}},{"fullUrl":"https://madie.cms.gov/Encounter/fcbe8326-6c54-4459-b9d2-6fd2140f7c5d","resource":{"resourceType":"Encounter","id":"fcbe8326-6c54-4459-b9d2-6fd2140f7c5d","meta":{"profile":["http://hl7.org/fhir/us/qicore/StructureDefinition/qicore-encounter"]},"status":"finished","class":{"system":"http://terminology.hl7.org/CodeSystem/v3-ActCode","code":"IMP","display":"inpatient"},"type":[{"coding":[{"system":"http://snomed.info/sct","version":"2023-09","code":"8715000","display":"Hospital admission, elective (procedure)","userSelected":true}]}],"subject":{"reference":"Patient/eabe386d-5bca-4fdd-acb0-8228b4df83c0"},"period":{"start":"2027-05-01T23:59:00.000+00:00","end":"2027-05-03T08:00:00.000+00:00"}},"request":{"method":"PUT","url":"Encounter/fcbe8326-6c54-4459-b9d2-6fd2140f7c5d"}},{"fullUrl":"https://madie.cms.gov/Organization/e0039eb9-bc26-4272-a831-832a0ce9cace","resource":{"resourceType":"Organization","id":"e0039eb9-bc26-4272-a831-832a0ce9cace","meta":{"profile":["http://hl7.org/fhir/us/qicore/StructureDefinition/qicore-organization"]},"identifier":[{"use":"temp","system":"urn:oid:2.16.840.1.113883.4.4","value":"21-3259825"}],"active":true,"type":[{"coding":[{"system":"http://terminology.hl7.org/CodeSystem/organization-type","code":"pay","display":"Payer"}]}],"name":"Blue Cross Blue Shield of Texas","telecom":[{"system":"phone","value":"(+1) 972-766-6900"}],"address":[{"use":"billing","type":"postal","line":["P.O. Box 660044"],"city":"Dallas","state":"TX","postalCode":"75266-0044","country":"USA"}]},"request":{"method":"PUT","url":"Organization/e0039eb9-bc26-4272-a831-832a0ce9cace"}},{"fullUrl":"https://madie.cms.gov/Practitioner/03ccc023-c66e-4d41-a09a-46611510444a","resource":{"resourceType":"Practitioner","id":"03ccc023-c66e-4d41-a09a-46611510444a","meta":{"profile":["http://hl7.org/fhir/us/qicore/StructureDefinition/qicore-practitioner"]},"identifier":[{"system":"http://hl7.org/fhir/sid/us-npi","value":"9999999896"}],"name":[{"family":"Evil","prefix":["Dr"]}]},"request":{"method":"PUT","url":"Practitioner/03ccc023-c66e-4d41-a09a-46611510444a"}},{"fullUrl":"https://madie.cms.gov/MeasureReport/0babfeb9-fa37-43a4-ac56-ab0c98acbe3b","resource":{"resourceType":"MeasureReport","id":"0babfeb9-fa37-43a4-ac56-ab0c98acbe3b","meta":{"profile":["http://hl7.org/fhir/us/cqfmeasures/StructureDefinition/test-case-cqfm"]},"contained":[{"resourceType":"Parameters","id":"8a18b118-7e57-44f5-af91-f40d52cba3a9-parameters","parameter":[{"name":"subject","valueString":"eabe386d-5bca-4fdd-acb0-8228b4df83c0"}]}],"extension":[{"url":"http://hl7.org/fhir/StructureDefinition/cqf-inputParameters","valueReference":{"reference":"#8a18b118-7e57-44f5-af91-f40d52cba3a9-parameters"}},{"url":"http://hl7.org/fhir/us/cqfmeasures/StructureDefinition/cqfm-testCaseDescription","valueMarkdown":"Encounter first day of MP; decision to admit with intent as planned instead of order"}],"modifierExtension":[{"url":"http://hl7.org/fhir/us/cqfmeasures/StructureDefinition/cqfm-isTestCase","valueBoolean":true}],"status":"complete","type":"individual","measure":"https://madie.cms.gov/Measure/CMS1244FHIRECATHOQR","period":{"start":"2027-01-01","end":"2027-12-31"},"group":[{"id":"Group_1","population":[{"id":"InitialPopulation_1","code":{"coding":[{"system":"http://terminology.hl7.org/CodeSystem/measure-population","code":"initial-population","display":"Initial Population"}]},"count":1},{"id":"Denominator_1","code":{"coding":[{"system":"http://terminology.hl7.org/CodeSystem/measure-population","code":"denominator","display":"Denominator"}]},"count":1},{"id":"Numerator_1","code":{"coding":[{"system":"http://terminology.hl7.org/CodeSystem/measure-population","code":"numerator","display":"Numerator"}]},"count":0}],"measureScore":{"value":0.0},"stratifier":[{"id":"Stratification_1_1","code":[{"text":"Strata-1"}],"stratum":[{"value":{"text":"Strata-1"},"population":[{"id":"InitialPopulation_1","code":{"coding":[{"system":"http://terminology.hl7.org/CodeSystem/measure-population","code":"initial-population","display":"Initial Population"}]},"count":0},{"id":"Denominator_1","code":{"coding":[{"system":"http://terminology.hl7.org/CodeSystem/measure-population","code":"denominator","display":"Denominator"}]},"count":0},{"id":"Numerator_1","code":{"coding":[{"system":"http://terminology.hl7.org/CodeSystem/measure-population","code":"numerator","display":"Numerator"}]},"count":0}]}]},{"id":"Stratification_1_2","code":[{"text":"Strata-2"}],"stratum":[{"value":{"text":"Strata-2"},"population":[{"id":"InitialPopulation_1","code":{"coding":[{"system":"http://terminology.hl7.org/CodeSystem/measure-population","code":"initial-population","display":"Initial Population"}]},"count":0},{"id":"Denominator_1","code":{"coding":[{"system":"http://terminology.hl7.org/CodeSystem/measure-population","code":"denominator","display":"Denominator"}]},"count":0},{"id":"Numerator_1","code":{"coding":[{"system":"http://terminology.hl7.org/CodeSystem/measure-population","code":"numerator","display":"Numerator"}]},"count":0}]}]},{"id":"Stratification_1_3","code":[{"text":"Strata-3"}],"stratum":[{"value":{"text":"Strata-3"},"population":[{"id":"InitialPopulation_1","code":{"coding":[{"system":"http://terminology.hl7.org/CodeSystem/measure-population","code":"initial-population","display":"Initial Population"}]},"count":0},{"id":"Denominator_1","code":{"coding":[{"system":"http://terminology.hl7.org/CodeSystem/measure-population","code":"denominator","display":"Denominator"}]},"count":0},{"id":"Numerator_1","code":{"coding":[{"system":"http://terminology.hl7.org/CodeSystem/measure-population","code":"numerator","display":"Numerator"}]},"count":0}]}]},{"id":"Stratification_1_4","code":[{"text":"Strata-4"}],"stratum":[{"value":{"text":"Strata-4"},"population":[{"id":"InitialPopulation_1","code":{"coding":[{"system":"http://terminology.hl7.org/CodeSystem/measure-population","code":"initial-population","display":"Initial Population"}]},"count":1},{"id":"Denominator_1","code":{"coding":[{"system":"http://terminology.hl7.org/CodeSystem/measure-population","code":"denominator","display":"Denominator"}]},"count":1},{"id":"Numerator_1","code":{"coding":[{"system":"http://terminology.hl7.org/CodeSystem/measure-population","code":"numerator","display":"Numerator"}]},"count":0}]}]}]}],"evaluatedResource":[{"reference":"Patient/eabe386d-5bca-4fdd-acb0-8228b4df83c0"},{"reference":"Encounter/8cdc9a88-1a30-453e-9b15-396d082e1265"},{"reference":"ServiceRequest/2d6812e8-6da2-4f9a-bc0e-f8d8cae30702"},{"reference":"Location/358795d7-cda1-4dbc-a70c-62e07942ea93"},{"reference":"Claim/ClaimBehavior-NotSubsAbuse"},{"reference":"Coverage/cf7a3144-b0ba-4b5a-976b-dc52f756a60e"},{"reference":"Condition/1ef8e10e-7f0a-456a-b2f3-05bd93fc24b8"},{"reference":"Encounter/fcbe8326-6c54-4459-b9d2-6fd2140f7c5d"},{"reference":"Organization/e0039eb9-bc26-4272-a831-832a0ce9cace"},{"reference":"Practitioner/03ccc023-c66e-4d41-a09a-46611510444a"}]},"request":{"method":"PUT","url":"MeasureReport/0babfeb9-fa37-43a4-ac56-ab0c98acbe3b"}}]},"request":{"method":"PUT","url":"Bundle/661476b015ed5841a5547ebf"}}]}