{"resourceType":"Bundle","id":"tests-024c02ed-8819-45da-a027-ed5fa4369c90-bundle","type":"transaction","entry":[{"fullUrl":"Coverage/c847f2fb-05cd-4490-8eda-b58267cf59f3","resource":{"resourceType":"Coverage","id":"c847f2fb-05cd-4490-8eda-b58267cf59f3","meta":{"profile":["http://hl7.org/fhir/us/qicore/StructureDefinition/qicore-coverage"]},"identifier":[{"type":{"coding":[{"system":"http://terminology.hl7.org/CodeSystem/v2-0203","code":"MB"}]}}],"status":"active","beneficiary":{"reference":"Patient/024c02ed-8819-45da-a027-ed5fa4369c90"},"relationship":{"coding":[{"system":"http://terminology.hl7.org/CodeSystem/subscriber-relationship","code":"self"}]},"payor":[{"reference":"Organization/e826b008-932b-48ae-b623-bcfd35457642"}]},"request":{"method":"PUT","url":"Coverage/c847f2fb-05cd-4490-8eda-b58267cf59f3"}},{"fullUrl":"MeasureReport/2d51abd3-c5ee-4129-bfea-610304161cdf","resource":{"resourceType":"MeasureReport","id":"2d51abd3-c5ee-4129-bfea-610304161cdf","meta":{"profile":["http://hl7.org/fhir/us/cqfmeasures/StructureDefinition/test-case-cqfm"]},"contained":[{"resourceType":"Parameters","id":"6cf7b62e-1496-4ed7-9cc0-a5a327f230fb-parameters","parameter":[{"name":"subject","valueString":"024c02ed-8819-45da-a027-ed5fa4369c90"}]}],"extension":[{"url":"http://hl7.org/fhir/StructureDefinition/cqf-inputParameters","valueReference":{"reference":"#6cf7b62e-1496-4ed7-9cc0-a5a327f230fb-parameters"}},{"url":"http://hl7.org/fhir/us/cqfmeasures/StructureDefinition/cqfm-testCaseDescription","valueMarkdown":"Adult, age 18, ED enc first day of MP,  admitted to inpatient (resource: encounter) without psych dx"}],"modifierExtension":[{"url":"http://hl7.org/fhir/us/cqfmeasures/StructureDefinition/cqfm-isTestCase","valueBoolean":true}],"status":"complete","type":"individual","measure":"https://madie.cms.gov/Measure/CMS1244FHIRECATHOQR","period":{"start":"2027-01-01","end":"2027-12-31"},"group":[{"id":"Group_1","population":[{"id":"InitialPopulation_1","code":{"coding":[{"system":"http://terminology.hl7.org/CodeSystem/measure-population","code":"initial-population","display":"Initial Population"}]},"count":1},{"id":"Denominator_1","code":{"coding":[{"system":"http://terminology.hl7.org/CodeSystem/measure-population","code":"denominator","display":"Denominator"}]},"count":1},{"id":"Numerator_1","code":{"coding":[{"system":"http://terminology.hl7.org/CodeSystem/measure-population","code":"numerator","display":"Numerator"}]},"count":1}],"measureScore":{"value":0.0},"stratifier":[{"id":"Stratification_1_1","code":[{"text":"Strata-1"}],"stratum":[{"value":{"text":"Strata-1"},"population":[{"id":"InitialPopulation_1","code":{"coding":[{"system":"http://terminology.hl7.org/CodeSystem/measure-population","code":"initial-population","display":"Initial Population"}]},"count":0},{"id":"Denominator_1","code":{"coding":[{"system":"http://terminology.hl7.org/CodeSystem/measure-population","code":"denominator","display":"Denominator"}]},"count":0},{"id":"Numerator_1","code":{"coding":[{"system":"http://terminology.hl7.org/CodeSystem/measure-population","code":"numerator","display":"Numerator"}]},"count":0}]}]},{"id":"Stratification_1_2","code":[{"text":"Strata-2"}],"stratum":[{"value":{"text":"Strata-2"},"population":[{"id":"InitialPopulation_1","code":{"coding":[{"system":"http://terminology.hl7.org/CodeSystem/measure-population","code":"initial-population","display":"Initial Population"}]},"count":1},{"id":"Denominator_1","code":{"coding":[{"system":"http://terminology.hl7.org/CodeSystem/measure-population","code":"denominator","display":"Denominator"}]},"count":1},{"id":"Numerator_1","code":{"coding":[{"system":"http://terminology.hl7.org/CodeSystem/measure-population","code":"numerator","display":"Numerator"}]},"count":1}]}]},{"id":"Stratification_1_3","code":[{"text":"Strata-3"}],"stratum":[{"value":{"text":"Strata-3"},"population":[{"id":"InitialPopulation_1","code":{"coding":[{"system":"http://terminology.hl7.org/CodeSystem/measure-population","code":"initial-population","display":"Initial Population"}]},"count":0},{"id":"Denominator_1","code":{"coding":[{"system":"http://terminology.hl7.org/CodeSystem/measure-population","code":"denominator","display":"Denominator"}]},"count":0},{"id":"Numerator_1","code":{"coding":[{"system":"http://terminology.hl7.org/CodeSystem/measure-population","code":"numerator","display":"Numerator"}]},"count":0}]}]},{"id":"Stratification_1_4","code":[{"text":"Strata-4"}],"stratum":[{"value":{"text":"Strata-4"},"population":[{"id":"InitialPopulation_1","code":{"coding":[{"system":"http://terminology.hl7.org/CodeSystem/measure-population","code":"initial-population","display":"Initial Population"}]},"count":0},{"id":"Denominator_1","code":{"coding":[{"system":"http://terminology.hl7.org/CodeSystem/measure-population","code":"denominator","display":"Denominator"}]},"count":0},{"id":"Numerator_1","code":{"coding":[{"system":"http://terminology.hl7.org/CodeSystem/measure-population","code":"numerator","display":"Numerator"}]},"count":0}]}]}]}],"evaluatedResource":[{"reference":"Patient/024c02ed-8819-45da-a027-ed5fa4369c90"},{"reference":"Encounter/e8b779c9-b875-4fe4-9071-11517e9be920"},{"reference":"Condition/f3e5f95a-19e1-48fb-9707-789d1d301bf8"},{"reference":"Encounter/a6f60527-446c-414d-b1f9-c326afc88d02"},{"reference":"Location/e8edb4b1-99e4-4b10-8ef1-432fd8e8311f"},{"reference":"Claim/ClaimBehavior-NotSubsAbuse"},{"reference":"Coverage/c847f2fb-05cd-4490-8eda-b58267cf59f3"},{"reference":"Organization/e826b008-932b-48ae-b623-bcfd35457642"},{"reference":"Practitioner/3971d175-4aab-4ddd-8056-de64bd8aa189"}]},"request":{"method":"PUT","url":"MeasureReport/2d51abd3-c5ee-4129-bfea-610304161cdf"}},{"fullUrl":"Encounter/e8b779c9-b875-4fe4-9071-11517e9be920","resource":{"resourceType":"Encounter","id":"e8b779c9-b875-4fe4-9071-11517e9be920","meta":{"profile":["http://hl7.org/fhir/us/qicore/StructureDefinition/qicore-encounter"]},"status":"finished","class":{"system":"http://terminology.hl7.org/CodeSystem/v3-ActCode","code":"EMER","display":"emergency department"},"type":[{"coding":[{"system":"http://snomed.info/sct","version":"2023-09","code":"4525004","display":"Emergency department patient visit (procedure)","userSelected":true}]}],"subject":{"reference":"Patient/024c02ed-8819-45da-a027-ed5fa4369c90"},"period":{"start":"2027-05-01T06:00:00.000+00:00","end":"2027-05-01T13:15:00.000+00:00"},"diagnosis":[{"condition":{"reference":"Condition/f3e5f95a-19e1-48fb-9707-789d1d301bf8"},"use":{"coding":[{"system":"http://terminology.hl7.org/CodeSystem/diagnosis-role","code":"billing"}]},"rank":1}],"location":[{"location":{"reference":"Location/e8edb4b1-99e4-4b10-8ef1-432fd8e8311f"},"period":{"start":"2027-05-01T06:00:00.000+00:00","end":"2027-05-01T13:15:00.000+00:00"}}]},"request":{"method":"PUT","url":"Encounter/e8b779c9-b875-4fe4-9071-11517e9be920"}},{"fullUrl":"Condition/f3e5f95a-19e1-48fb-9707-789d1d301bf8","resource":{"resourceType":"Condition","id":"f3e5f95a-19e1-48fb-9707-789d1d301bf8","meta":{"profile":["http://hl7.org/fhir/us/qicore/StructureDefinition/qicore-condition-encounter-diagnosis"]},"category":[{"coding":[{"system":"http://terminology.hl7.org/CodeSystem/condition-category","code":"encounter-diagnosis","display":"Encounter Diagnosis"}]}],"code":{"coding":[{"system":"http://snomed.info/sct","version":"2023-09","code":"10660471000119109","display":"Ulcer of left foot due to type 2 diabetes mellitus (disorder)","userSelected":true}]},"subject":{"reference":"Patient/024c02ed-8819-45da-a027-ed5fa4369c90"},"recordedDate":"2027-05-01T08:00:00.000+00:00"},"request":{"method":"PUT","url":"Condition/f3e5f95a-19e1-48fb-9707-789d1d301bf8"}},{"fullUrl":"Encounter/a6f60527-446c-414d-b1f9-c326afc88d02","resource":{"resourceType":"Encounter","id":"a6f60527-446c-414d-b1f9-c326afc88d02","meta":{"profile":["http://hl7.org/fhir/us/qicore/StructureDefinition/qicore-encounter"]},"status":"finished","class":{"system":"http://terminology.hl7.org/CodeSystem/v3-ActCode","code":"IMP","display":"inpatient encounter"},"type":[{"coding":[{"system":"http://snomed.info/sct","version":"2023-09","code":"183452005","display":"Emergency hospital admission (procedure)","userSelected":true}]}],"subject":{"reference":"Patient/024c02ed-8819-45da-a027-ed5fa4369c90"},"period":{"start":"2027-05-01T09:00:00.000+00:00","end":"2027-05-03T06:15:00.000+00:00"}},"request":{"method":"PUT","url":"Encounter/a6f60527-446c-414d-b1f9-c326afc88d02"}},{"fullUrl":"Organization/e826b008-932b-48ae-b623-bcfd35457642","resource":{"resourceType":"Organization","id":"e826b008-932b-48ae-b623-bcfd35457642","meta":{"profile":["http://hl7.org/fhir/us/qicore/StructureDefinition/qicore-organization"]},"identifier":[{"use":"temp","system":"urn:oid:2.16.840.1.113883.4.4","value":"21-3259825"}],"active":true,"type":[{"coding":[{"system":"http://terminology.hl7.org/CodeSystem/organization-type","code":"pay","display":"Payer"}]}],"name":"Blue Cross Blue Shield of Texas","telecom":[{"system":"phone","value":"(+1) 972-766-6900"}],"address":[{"use":"billing","type":"postal","line":["P.O. Box 660044"],"city":"Dallas","state":"TX","postalCode":"75266-0044","country":"USA"}]},"request":{"method":"PUT","url":"Organization/e826b008-932b-48ae-b623-bcfd35457642"}},{"fullUrl":"Location/e8edb4b1-99e4-4b10-8ef1-432fd8e8311f","resource":{"resourceType":"Location","id":"e8edb4b1-99e4-4b10-8ef1-432fd8e8311f","meta":{"profile":["http://hl7.org/fhir/us/qicore/StructureDefinition/qicore-location"]},"identifier":[{"use":"usual","system":"http://exampleoflocation.com","value":"B1-S.F2"}],"name":"Medical Surgical East, first floor","type":[{"coding":[{"system":"https://www.cdc.gov/nhsn/cdaportal/terminology/codesystem/hsloc.html","version":"2022","code":"1108-0","display":"Emergency Department","userSelected":true}]}]},"request":{"method":"PUT","url":"Location/e8edb4b1-99e4-4b10-8ef1-432fd8e8311f"}},{"fullUrl":"Patient/024c02ed-8819-45da-a027-ed5fa4369c90","resource":{"resourceType":"Patient","id":"024c02ed-8819-45da-a027-ed5fa4369c90","meta":{"profile":["http://hl7.org/fhir/us/qicore/StructureDefinition/qicore-patient"]},"extension":[{"url":"http://hl7.org/fhir/us/core/StructureDefinition/us-core-race","extension":[{"url":"ombCategory","valueCoding":{"system":"urn:oid:2.16.840.1.113883.6.238","code":"1002-5","display":"American Indian or Alaska Native","userSelected":true}},{"url":"text","valueString":"American Indian or Alaska Native"}]},{"url":"http://hl7.org/fhir/us/core/StructureDefinition/us-core-ethnicity","extension":[{"url":"ombCategory","valueCoding":{"system":"urn:oid:2.16.840.1.113883.6.238","code":"2135-2","display":"Hispanic or Latino","userSelected":true}},{"url":"text","valueString":"Hispanic or Latino"}]},{"url":"http://hl7.org/fhir/us/core/StructureDefinition/us-core-sex","valueCode":"248153007"}],"identifier":[{"type":{"coding":[{"system":"http://terminology.hl7.org/CodeSystem/v2-0203","code":"MR"}]},"system":"https://bonnie-fhir.healthit.gov/","value":"661476b015ed5841a5547ebf"}],"name":[{"family":"NUMERStrat2Pass","given":["AdmittedInpatient"]}],"gender":"male","birthDate":"2009-01-01"},"request":{"method":"PUT","url":"Patient/024c02ed-8819-45da-a027-ed5fa4369c90"}},{"fullUrl":"Practitioner/3971d175-4aab-4ddd-8056-de64bd8aa189","resource":{"resourceType":"Practitioner","id":"3971d175-4aab-4ddd-8056-de64bd8aa189","meta":{"profile":["http://hl7.org/fhir/us/qicore/StructureDefinition/qicore-practitioner"]},"identifier":[{"system":"http://hl7.org/fhir/sid/us-npi","value":"9999999896"}],"name":[{"family":"Evil","prefix":["Dr"]}]},"request":{"method":"PUT","url":"Practitioner/3971d175-4aab-4ddd-8056-de64bd8aa189"}},{"fullUrl":"Bundle/661476b015ed5841a5547ebf","resource":{"resourceType":"Bundle","id":"661476b015ed5841a5547ebf","type":"transaction","entry":[{"fullUrl":"https://madie.cms.gov/Patient/024c02ed-8819-45da-a027-ed5fa4369c90","resource":{"resourceType":"Patient","id":"024c02ed-8819-45da-a027-ed5fa4369c90","meta":{"profile":["http://hl7.org/fhir/us/qicore/StructureDefinition/qicore-patient"]},"extension":[{"url":"http://hl7.org/fhir/us/core/StructureDefinition/us-core-race","extension":[{"url":"ombCategory","valueCoding":{"system":"urn:oid:2.16.840.1.113883.6.238","code":"1002-5","display":"American Indian or Alaska Native","userSelected":true}},{"url":"text","valueString":"American Indian or Alaska Native"}]},{"url":"http://hl7.org/fhir/us/core/StructureDefinition/us-core-ethnicity","extension":[{"url":"ombCategory","valueCoding":{"system":"urn:oid:2.16.840.1.113883.6.238","code":"2135-2","display":"Hispanic or Latino","userSelected":true}},{"url":"text","valueString":"Hispanic or Latino"}]},{"url":"http://hl7.org/fhir/us/core/StructureDefinition/us-core-sex","valueCode":"248153007"}],"identifier":[{"type":{"coding":[{"system":"http://terminology.hl7.org/CodeSystem/v2-0203","code":"MR"}]},"system":"https://bonnie-fhir.healthit.gov/","value":"661476b015ed5841a5547ebf"}],"name":[{"family":"NUMERStrat2Pass","given":["AdmittedInpatient"]}],"gender":"male","birthDate":"2009-01-01"},"request":{"method":"PUT","url":"Patient/024c02ed-8819-45da-a027-ed5fa4369c90"}},{"fullUrl":"https://madie.cms.gov/Encounter/e8b779c9-b875-4fe4-9071-11517e9be920","resource":{"resourceType":"Encounter","id":"e8b779c9-b875-4fe4-9071-11517e9be920","meta":{"profile":["http://hl7.org/fhir/us/qicore/StructureDefinition/qicore-encounter"]},"status":"finished","class":{"system":"http://terminology.hl7.org/CodeSystem/v3-ActCode","code":"EMER","display":"emergency department"},"type":[{"coding":[{"system":"http://snomed.info/sct","version":"2023-09","code":"4525004","display":"Emergency department patient visit (procedure)","userSelected":true}]}],"subject":{"reference":"Patient/024c02ed-8819-45da-a027-ed5fa4369c90"},"period":{"start":"2027-05-01T06:00:00.000+00:00","end":"2027-05-01T13:15:00.000+00:00"},"diagnosis":[{"condition":{"reference":"Condition/f3e5f95a-19e1-48fb-9707-789d1d301bf8"},"use":{"coding":[{"system":"http://terminology.hl7.org/CodeSystem/diagnosis-role","code":"billing"}]},"rank":1}],"location":[{"location":{"reference":"Location/e8edb4b1-99e4-4b10-8ef1-432fd8e8311f"},"period":{"start":"2027-05-01T06:00:00.000+00:00","end":"2027-05-01T13:15:00.000+00:00"}}]},"request":{"method":"PUT","url":"Encounter/e8b779c9-b875-4fe4-9071-11517e9be920"}},{"fullUrl":"https://madie.cms.gov/Condition/f3e5f95a-19e1-48fb-9707-789d1d301bf8","resource":{"resourceType":"Condition","id":"f3e5f95a-19e1-48fb-9707-789d1d301bf8","meta":{"profile":["http://hl7.org/fhir/us/qicore/StructureDefinition/qicore-condition-encounter-diagnosis"]},"category":[{"coding":[{"system":"http://terminology.hl7.org/CodeSystem/condition-category","code":"encounter-diagnosis","display":"Encounter Diagnosis"}]}],"code":{"coding":[{"system":"http://snomed.info/sct","version":"2023-09","code":"10660471000119109","display":"Ulcer of left foot due to type 2 diabetes mellitus (disorder)","userSelected":true}]},"subject":{"reference":"Patient/024c02ed-8819-45da-a027-ed5fa4369c90"},"recordedDate":"2027-05-01T08:00:00.000+00:00"},"request":{"method":"PUT","url":"Condition/f3e5f95a-19e1-48fb-9707-789d1d301bf8"}},{"fullUrl":"https://madie.cms.gov/Encounter/a6f60527-446c-414d-b1f9-c326afc88d02","resource":{"resourceType":"Encounter","id":"a6f60527-446c-414d-b1f9-c326afc88d02","meta":{"profile":["http://hl7.org/fhir/us/qicore/StructureDefinition/qicore-encounter"]},"status":"finished","class":{"system":"http://terminology.hl7.org/CodeSystem/v3-ActCode","code":"IMP","display":"inpatient encounter"},"type":[{"coding":[{"system":"http://snomed.info/sct","version":"2023-09","code":"183452005","display":"Emergency hospital admission (procedure)","userSelected":true}]}],"subject":{"reference":"Patient/024c02ed-8819-45da-a027-ed5fa4369c90"},"period":{"start":"2027-05-01T09:00:00.000+00:00","end":"2027-05-03T06:15:00.000+00:00"}},"request":{"method":"PUT","url":"Encounter/a6f60527-446c-414d-b1f9-c326afc88d02"}},{"fullUrl":"https://madie.cms.gov/Location/e8edb4b1-99e4-4b10-8ef1-432fd8e8311f","resource":{"resourceType":"Location","id":"e8edb4b1-99e4-4b10-8ef1-432fd8e8311f","meta":{"profile":["http://hl7.org/fhir/us/qicore/StructureDefinition/qicore-location"]},"identifier":[{"use":"usual","system":"http://exampleoflocation.com","value":"B1-S.F2"}],"name":"Medical Surgical East, first floor","type":[{"coding":[{"system":"https://www.cdc.gov/nhsn/cdaportal/terminology/codesystem/hsloc.html","version":"2022","code":"1108-0","display":"Emergency Department","userSelected":true}]}]},"request":{"method":"PUT","url":"Location/e8edb4b1-99e4-4b10-8ef1-432fd8e8311f"}},{"fullUrl":"https://madie.cms.gov/claim/ClaimBehavior-NotSubsAbuse","resource":{"resourceType":"Claim","id":"ClaimBehavior-NotSubsAbuse","meta":{"profile":["http://hl7.org/fhir/us/qicore/StructureDefinition/qicore-claim"]},"status":"active","type":{"coding":[{"system":"http://terminology.hl7.org/CodeSystem/claim-type","code":"institutional"}]},"use":"claim","patient":{"reference":"Patient/024c02ed-8819-45da-a027-ed5fa4369c90"},"created":"2027-05-01","provider":{"reference":"Practitioner/3971d175-4aab-4ddd-8056-de64bd8aa189"},"priority":{"coding":[{"system":"http://terminology.hl7.org/CodeSystem/processpriority","code":"normal"}]},"diagnosis":[{"sequence":1,"diagnosisReference":{"reference":"Condition/f3e5f95a-19e1-48fb-9707-789d1d301bf8"},"type":[{"coding":[{"system":"http://terminology.hl7.org/CodeSystem/ex-diagnosistype","code":"principal"}]}]}],"insurance":[{"sequence":1,"focal":true,"coverage":{"reference":"Coverage/c847f2fb-05cd-4490-8eda-b58267cf59f3"}}],"item":[{"sequence":1,"diagnosisSequence":[1],"productOrService":{"coding":[{"system":"http://terminology.hl7.org/CodeSystem/ex-USCLS","code":"99555"}]},"encounter":[{"reference":"Encounter/e8b779c9-b875-4fe4-9071-11517e9be920"}]}]},"request":{"method":"PUT","url":"Claim/ClaimBehavior-NotSubsAbuse"}},{"fullUrl":"https://madie.cms.gov/Coverage/c847f2fb-05cd-4490-8eda-b58267cf59f3","resource":{"resourceType":"Coverage","id":"c847f2fb-05cd-4490-8eda-b58267cf59f3","meta":{"profile":["http://hl7.org/fhir/us/qicore/StructureDefinition/qicore-coverage"]},"identifier":[{"type":{"coding":[{"system":"http://terminology.hl7.org/CodeSystem/v2-0203","code":"MB"}]}}],"status":"active","beneficiary":{"reference":"Patient/024c02ed-8819-45da-a027-ed5fa4369c90"},"relationship":{"coding":[{"system":"http://terminology.hl7.org/CodeSystem/subscriber-relationship","code":"self"}]},"payor":[{"reference":"Organization/e826b008-932b-48ae-b623-bcfd35457642"}]},"request":{"method":"PUT","url":"Coverage/c847f2fb-05cd-4490-8eda-b58267cf59f3"}},{"fullUrl":"https://madie.cms.gov/Organization/e826b008-932b-48ae-b623-bcfd35457642","resource":{"resourceType":"Organization","id":"e826b008-932b-48ae-b623-bcfd35457642","meta":{"profile":["http://hl7.org/fhir/us/qicore/StructureDefinition/qicore-organization"]},"identifier":[{"use":"temp","system":"urn:oid:2.16.840.1.113883.4.4","value":"21-3259825"}],"active":true,"type":[{"coding":[{"system":"http://terminology.hl7.org/CodeSystem/organization-type","code":"pay","display":"Payer"}]}],"name":"Blue Cross Blue Shield of Texas","telecom":[{"system":"phone","value":"(+1) 972-766-6900"}],"address":[{"use":"billing","type":"postal","line":["P.O. Box 660044"],"city":"Dallas","state":"TX","postalCode":"75266-0044","country":"USA"}]},"request":{"method":"PUT","url":"Organization/e826b008-932b-48ae-b623-bcfd35457642"}},{"fullUrl":"https://madie.cms.gov/Practitioner/3971d175-4aab-4ddd-8056-de64bd8aa189","resource":{"resourceType":"Practitioner","id":"3971d175-4aab-4ddd-8056-de64bd8aa189","meta":{"profile":["http://hl7.org/fhir/us/qicore/StructureDefinition/qicore-practitioner"]},"identifier":[{"system":"http://hl7.org/fhir/sid/us-npi","value":"9999999896"}],"name":[{"family":"Evil","prefix":["Dr"]}]},"request":{"method":"PUT","url":"Practitioner/3971d175-4aab-4ddd-8056-de64bd8aa189"}},{"fullUrl":"https://madie.cms.gov/MeasureReport/2d51abd3-c5ee-4129-bfea-610304161cdf","resource":{"resourceType":"MeasureReport","id":"2d51abd3-c5ee-4129-bfea-610304161cdf","meta":{"profile":["http://hl7.org/fhir/us/cqfmeasures/StructureDefinition/test-case-cqfm"]},"contained":[{"resourceType":"Parameters","id":"6cf7b62e-1496-4ed7-9cc0-a5a327f230fb-parameters","parameter":[{"name":"subject","valueString":"024c02ed-8819-45da-a027-ed5fa4369c90"}]}],"extension":[{"url":"http://hl7.org/fhir/StructureDefinition/cqf-inputParameters","valueReference":{"reference":"#6cf7b62e-1496-4ed7-9cc0-a5a327f230fb-parameters"}},{"url":"http://hl7.org/fhir/us/cqfmeasures/StructureDefinition/cqfm-testCaseDescription","valueMarkdown":"Adult, age 18, ED enc first day of MP,  admitted to inpatient (resource: encounter) without psych dx"}],"modifierExtension":[{"url":"http://hl7.org/fhir/us/cqfmeasures/StructureDefinition/cqfm-isTestCase","valueBoolean":true}],"status":"complete","type":"individual","measure":"https://madie.cms.gov/Measure/CMS1244FHIRECATHOQR","period":{"start":"2027-01-01","end":"2027-12-31"},"group":[{"id":"Group_1","population":[{"id":"InitialPopulation_1","code":{"coding":[{"system":"http://terminology.hl7.org/CodeSystem/measure-population","code":"initial-population","display":"Initial Population"}]},"count":1},{"id":"Denominator_1","code":{"coding":[{"system":"http://terminology.hl7.org/CodeSystem/measure-population","code":"denominator","display":"Denominator"}]},"count":1},{"id":"Numerator_1","code":{"coding":[{"system":"http://terminology.hl7.org/CodeSystem/measure-population","code":"numerator","display":"Numerator"}]},"count":1}],"measureScore":{"value":0.0},"stratifier":[{"id":"Stratification_1_1","code":[{"text":"Strata-1"}],"stratum":[{"value":{"text":"Strata-1"},"population":[{"id":"InitialPopulation_1","code":{"coding":[{"system":"http://terminology.hl7.org/CodeSystem/measure-population","code":"initial-population","display":"Initial Population"}]},"count":0},{"id":"Denominator_1","code":{"coding":[{"system":"http://terminology.hl7.org/CodeSystem/measure-population","code":"denominator","display":"Denominator"}]},"count":0},{"id":"Numerator_1","code":{"coding":[{"system":"http://terminology.hl7.org/CodeSystem/measure-population","code":"numerator","display":"Numerator"}]},"count":0}]}]},{"id":"Stratification_1_2","code":[{"text":"Strata-2"}],"stratum":[{"value":{"text":"Strata-2"},"population":[{"id":"InitialPopulation_1","code":{"coding":[{"system":"http://terminology.hl7.org/CodeSystem/measure-population","code":"initial-population","display":"Initial Population"}]},"count":1},{"id":"Denominator_1","code":{"coding":[{"system":"http://terminology.hl7.org/CodeSystem/measure-population","code":"denominator","display":"Denominator"}]},"count":1},{"id":"Numerator_1","code":{"coding":[{"system":"http://terminology.hl7.org/CodeSystem/measure-population","code":"numerator","display":"Numerator"}]},"count":1}]}]},{"id":"Stratification_1_3","code":[{"text":"Strata-3"}],"stratum":[{"value":{"text":"Strata-3"},"population":[{"id":"InitialPopulation_1","code":{"coding":[{"system":"http://terminology.hl7.org/CodeSystem/measure-population","code":"initial-population","display":"Initial Population"}]},"count":0},{"id":"Denominator_1","code":{"coding":[{"system":"http://terminology.hl7.org/CodeSystem/measure-population","code":"denominator","display":"Denominator"}]},"count":0},{"id":"Numerator_1","code":{"coding":[{"system":"http://terminology.hl7.org/CodeSystem/measure-population","code":"numerator","display":"Numerator"}]},"count":0}]}]},{"id":"Stratification_1_4","code":[{"text":"Strata-4"}],"stratum":[{"value":{"text":"Strata-4"},"population":[{"id":"InitialPopulation_1","code":{"coding":[{"system":"http://terminology.hl7.org/CodeSystem/measure-population","code":"initial-population","display":"Initial Population"}]},"count":0},{"id":"Denominator_1","code":{"coding":[{"system":"http://terminology.hl7.org/CodeSystem/measure-population","code":"denominator","display":"Denominator"}]},"count":0},{"id":"Numerator_1","code":{"coding":[{"system":"http://terminology.hl7.org/CodeSystem/measure-population","code":"numerator","display":"Numerator"}]},"count":0}]}]}]}],"evaluatedResource":[{"reference":"Patient/024c02ed-8819-45da-a027-ed5fa4369c90"},{"reference":"Encounter/e8b779c9-b875-4fe4-9071-11517e9be920"},{"reference":"Condition/f3e5f95a-19e1-48fb-9707-789d1d301bf8"},{"reference":"Encounter/a6f60527-446c-414d-b1f9-c326afc88d02"},{"reference":"Location/e8edb4b1-99e4-4b10-8ef1-432fd8e8311f"},{"reference":"Claim/ClaimBehavior-NotSubsAbuse"},{"reference":"Coverage/c847f2fb-05cd-4490-8eda-b58267cf59f3"},{"reference":"Organization/e826b008-932b-48ae-b623-bcfd35457642"},{"reference":"Practitioner/3971d175-4aab-4ddd-8056-de64bd8aa189"}]},"request":{"method":"PUT","url":"MeasureReport/2d51abd3-c5ee-4129-bfea-610304161cdf"}}]},"request":{"method":"PUT","url":"Bundle/661476b015ed5841a5547ebf"}},{"fullUrl":"Claim/ClaimBehavior-NotSubsAbuse","resource":{"resourceType":"Claim","id":"ClaimBehavior-NotSubsAbuse","meta":{"profile":["http://hl7.org/fhir/us/qicore/StructureDefinition/qicore-claim"]},"status":"active","type":{"coding":[{"system":"http://terminology.hl7.org/CodeSystem/claim-type","code":"institutional"}]},"use":"claim","patient":{"reference":"Patient/024c02ed-8819-45da-a027-ed5fa4369c90"},"created":"2027-05-01","provider":{"reference":"Practitioner/3971d175-4aab-4ddd-8056-de64bd8aa189"},"priority":{"coding":[{"system":"http://terminology.hl7.org/CodeSystem/processpriority","code":"normal"}]},"diagnosis":[{"sequence":1,"diagnosisReference":{"reference":"Condition/f3e5f95a-19e1-48fb-9707-789d1d301bf8"},"type":[{"coding":[{"system":"http://terminology.hl7.org/CodeSystem/ex-diagnosistype","code":"principal"}]}]}],"insurance":[{"sequence":1,"focal":true,"coverage":{"reference":"Coverage/c847f2fb-05cd-4490-8eda-b58267cf59f3"}}],"item":[{"sequence":1,"diagnosisSequence":[1],"productOrService":{"coding":[{"system":"http://terminology.hl7.org/CodeSystem/ex-USCLS","code":"99555"}]},"encounter":[{"reference":"Encounter/e8b779c9-b875-4fe4-9071-11517e9be920"}]}]},"request":{"method":"PUT","url":"Claim/ClaimBehavior-NotSubsAbuse"}}]}