{"resourceType":"Bundle","id":"tests-404c928b-a752-4792-91c4-8a1fd0656759-bundle","type":"transaction","entry":[{"fullUrl":"Location/47cf36b6-eec1-48eb-be99-fe220a3bf29b","resource":{"resourceType":"Location","id":"47cf36b6-eec1-48eb-be99-fe220a3bf29b","meta":{"profile":["http://hl7.org/fhir/us/qicore/StructureDefinition/qicore-location"]},"identifier":[{"use":"usual","system":"http://exampleoflocation.com","value":"B1-S.F2"}],"name":"Medical Surgical East, first floor","type":[{"coding":[{"system":"https://www.cdc.gov/nhsn/cdaportal/terminology/codesystem/hsloc.html","version":"2022","code":"1108-0","display":"Emergency Department","userSelected":true}]}]},"request":{"method":"PUT","url":"Location/47cf36b6-eec1-48eb-be99-fe220a3bf29b"}},{"fullUrl":"Practitioner/4e6f156b-af52-47ba-96cb-bb7e4c9f59f6","resource":{"resourceType":"Practitioner","id":"4e6f156b-af52-47ba-96cb-bb7e4c9f59f6","meta":{"profile":["http://hl7.org/fhir/us/qicore/StructureDefinition/qicore-practitioner"]},"identifier":[{"system":"http://hl7.org/fhir/sid/us-npi","value":"9999999896"}],"name":[{"family":"Evil","prefix":["Dr"]}]},"request":{"method":"PUT","url":"Practitioner/4e6f156b-af52-47ba-96cb-bb7e4c9f59f6"}},{"fullUrl":"Location/c00bb3af-ce96-45ec-a53a-298232a476b0","resource":{"resourceType":"Location","id":"c00bb3af-ce96-45ec-a53a-298232a476b0","meta":{"profile":["http://hl7.org/fhir/us/qicore/StructureDefinition/qicore-location"]},"identifier":[{"use":"usual","system":"http://exampleoflocation.com","value":"B1-S.F1"}],"name":"Medical Surgical East, first floor","type":[{"coding":[{"system":"https://www.cdc.gov/nhsn/cdaportal/terminology/codesystem/hsloc.html","version":"2022","code":"1108-0","display":"Emergency Department","userSelected":true}]}]},"request":{"method":"PUT","url":"Location/c00bb3af-ce96-45ec-a53a-298232a476b0"}},{"fullUrl":"Organization/78f411bd-1570-4e75-897f-c63826c90e6f","resource":{"resourceType":"Organization","id":"78f411bd-1570-4e75-897f-c63826c90e6f","meta":{"profile":["http://hl7.org/fhir/us/qicore/StructureDefinition/qicore-organization"]},"identifier":[{"use":"temp","system":"urn:oid:2.16.840.1.113883.4.4","value":"21-3259825"}],"active":true,"type":[{"coding":[{"system":"http://terminology.hl7.org/CodeSystem/organization-type","code":"pay","display":"Payer"}]}],"name":"Blue Cross Blue Shield of Texas","telecom":[{"system":"phone","value":"(+1) 972-766-6900"}],"address":[{"use":"billing","type":"postal","line":["P.O. Box 660044"],"city":"Dallas","state":"TX","postalCode":"75266-0044","country":"USA"}]},"request":{"method":"PUT","url":"Organization/78f411bd-1570-4e75-897f-c63826c90e6f"}},{"fullUrl":"Condition/855904a0-d84f-4887-89ca-5448a6fa8f23","resource":{"resourceType":"Condition","id":"855904a0-d84f-4887-89ca-5448a6fa8f23","meta":{"profile":["http://hl7.org/fhir/us/qicore/StructureDefinition/qicore-condition-encounter-diagnosis"]},"category":[{"coding":[{"system":"http://terminology.hl7.org/CodeSystem/condition-category","code":"encounter-diagnosis","display":"Encounter Diagnosis"}]}],"code":{"coding":[{"system":"http://snomed.info/sct","version":"2023-09","code":"10349009","display":"Multi-infarct dementia with delirium (disorder)","userSelected":true}]},"subject":{"reference":"Patient/404c928b-a752-4792-91c4-8a1fd0656759"},"encounter":{"reference":"Encounter/901029ea-ce85-457d-9b03-7fb62072bfeb"},"recordedDate":"2027-04-09T08:00:00.000+00:00"},"request":{"method":"PUT","url":"Condition/855904a0-d84f-4887-89ca-5448a6fa8f23"}},{"fullUrl":"MeasureReport/8189ede7-2aa4-4136-90a9-0365d5197bdc","resource":{"resourceType":"MeasureReport","id":"8189ede7-2aa4-4136-90a9-0365d5197bdc","meta":{"profile":["http://hl7.org/fhir/us/cqfmeasures/StructureDefinition/test-case-cqfm"]},"contained":[{"resourceType":"Parameters","id":"2e8c00b8-38c2-40c3-95df-a1f79c09f08a-parameters","parameter":[{"name":"subject","valueString":"404c928b-a752-4792-91c4-8a1fd0656759"}]}],"extension":[{"url":"http://hl7.org/fhir/StructureDefinition/cqf-inputParameters","valueReference":{"reference":"#2e8c00b8-38c2-40c3-95df-a1f79c09f08a-parameters"}},{"url":"http://hl7.org/fhir/us/cqfmeasures/StructureDefinition/cqfm-testCaseDescription","valueMarkdown":"Enc 1st day of MP, in ED only 40 mins. "}],"modifierExtension":[{"url":"http://hl7.org/fhir/us/cqfmeasures/StructureDefinition/cqfm-isTestCase","valueBoolean":true}],"status":"complete","type":"individual","measure":"https://madie.cms.gov/Measure/CMS1244FHIRECATHOQR","period":{"start":"2027-01-01","end":"2027-12-31"},"group":[{"id":"Group_1","population":[{"id":"InitialPopulation_1","code":{"coding":[{"system":"http://terminology.hl7.org/CodeSystem/measure-population","code":"initial-population","display":"Initial Population"}]},"count":1},{"id":"Denominator_1","code":{"coding":[{"system":"http://terminology.hl7.org/CodeSystem/measure-population","code":"denominator","display":"Denominator"}]},"count":1},{"id":"Numerator_1","code":{"coding":[{"system":"http://terminology.hl7.org/CodeSystem/measure-population","code":"numerator","display":"Numerator"}]},"count":0}],"measureScore":{"value":0.0},"stratifier":[{"id":"Stratification_1_1","code":[{"text":"Strata-1"}],"stratum":[{"value":{"text":"Strata-1"},"population":[{"id":"InitialPopulation_1","code":{"coding":[{"system":"http://terminology.hl7.org/CodeSystem/measure-population","code":"initial-population","display":"Initial Population"}]},"count":0},{"id":"Denominator_1","code":{"coding":[{"system":"http://terminology.hl7.org/CodeSystem/measure-population","code":"denominator","display":"Denominator"}]},"count":0},{"id":"Numerator_1","code":{"coding":[{"system":"http://terminology.hl7.org/CodeSystem/measure-population","code":"numerator","display":"Numerator"}]},"count":0}]}]},{"id":"Stratification_1_2","code":[{"text":"Strata-2"}],"stratum":[{"value":{"text":"Strata-2"},"population":[{"id":"InitialPopulation_1","code":{"coding":[{"system":"http://terminology.hl7.org/CodeSystem/measure-population","code":"initial-population","display":"Initial Population"}]},"count":0},{"id":"Denominator_1","code":{"coding":[{"system":"http://terminology.hl7.org/CodeSystem/measure-population","code":"denominator","display":"Denominator"}]},"count":0},{"id":"Numerator_1","code":{"coding":[{"system":"http://terminology.hl7.org/CodeSystem/measure-population","code":"numerator","display":"Numerator"}]},"count":0}]}]},{"id":"Stratification_1_3","code":[{"text":"Strata-3"}],"stratum":[{"value":{"text":"Strata-3"},"population":[{"id":"InitialPopulation_1","code":{"coding":[{"system":"http://terminology.hl7.org/CodeSystem/measure-population","code":"initial-population","display":"Initial Population"}]},"count":0},{"id":"Denominator_1","code":{"coding":[{"system":"http://terminology.hl7.org/CodeSystem/measure-population","code":"denominator","display":"Denominator"}]},"count":0},{"id":"Numerator_1","code":{"coding":[{"system":"http://terminology.hl7.org/CodeSystem/measure-population","code":"numerator","display":"Numerator"}]},"count":0}]}]},{"id":"Stratification_1_4","code":[{"text":"Strata-4"}],"stratum":[{"value":{"text":"Strata-4"},"population":[{"id":"InitialPopulation_1","code":{"coding":[{"system":"http://terminology.hl7.org/CodeSystem/measure-population","code":"initial-population","display":"Initial Population"}]},"count":1},{"id":"Denominator_1","code":{"coding":[{"system":"http://terminology.hl7.org/CodeSystem/measure-population","code":"denominator","display":"Denominator"}]},"count":1},{"id":"Numerator_1","code":{"coding":[{"system":"http://terminology.hl7.org/CodeSystem/measure-population","code":"numerator","display":"Numerator"}]},"count":0}]}]}]}],"evaluatedResource":[{"reference":"Patient/404c928b-a752-4792-91c4-8a1fd0656759"},{"reference":"Encounter/901029ea-ce85-457d-9b03-7fb62072bfeb"},{"reference":"Location/c00bb3af-ce96-45ec-a53a-298232a476b0"},{"reference":"Location/df544583-da49-4c11-a584-54fb813ff34e"},{"reference":"Condition/855904a0-d84f-4887-89ca-5448a6fa8f23"},{"reference":"Location/47cf36b6-eec1-48eb-be99-fe220a3bf29b"},{"reference":"Location/343fec07-186a-4faf-babb-646167c6b346"},{"reference":"Claim/ClaimBehavior-NotSubsAbuse"},{"reference":"Coverage/517adcab-c971-460b-a368-452a9bd7f695"},{"reference":"Organization/78f411bd-1570-4e75-897f-c63826c90e6f"},{"reference":"Practitioner/4e6f156b-af52-47ba-96cb-bb7e4c9f59f6"}]},"request":{"method":"PUT","url":"MeasureReport/8189ede7-2aa4-4136-90a9-0365d5197bdc"}},{"fullUrl":"Patient/404c928b-a752-4792-91c4-8a1fd0656759","resource":{"resourceType":"Patient","id":"404c928b-a752-4792-91c4-8a1fd0656759","meta":{"profile":["http://hl7.org/fhir/us/qicore/StructureDefinition/qicore-patient"]},"extension":[{"url":"http://hl7.org/fhir/us/core/StructureDefinition/us-core-race","extension":[{"url":"ombCategory","valueCoding":{"system":"urn:oid:2.16.840.1.113883.6.238","code":"2076-8","display":"Native Hawaiian or Other Pacific Islander","userSelected":true}},{"url":"text","valueString":"Native Hawaiian or Other Pacific Islander"}]},{"url":"http://hl7.org/fhir/us/core/StructureDefinition/us-core-ethnicity","extension":[{"url":"ombCategory","valueCoding":{"system":"urn:oid:2.16.840.1.113883.6.238","code":"2186-5","display":"Not Hispanic or Latino","userSelected":true}},{"url":"text","valueString":"Not Hispanic or Latino"}]},{"url":"http://hl7.org/fhir/us/core/StructureDefinition/us-core-sex","valueCode":"248152002"}],"identifier":[{"type":{"coding":[{"system":"http://terminology.hl7.org/CodeSystem/v2-0203","code":"MR"}]},"system":"https://bonnie-fhir.healthit.gov/","value":"661579e3db207d74c03b8a54"}],"name":[{"family":"NUMERStrat4Pass","given":["EDEncounterStatusFinished"]}],"gender":"female","birthDate":"2008-12-31"},"request":{"method":"PUT","url":"Patient/404c928b-a752-4792-91c4-8a1fd0656759"}},{"fullUrl":"Coverage/517adcab-c971-460b-a368-452a9bd7f695","resource":{"resourceType":"Coverage","id":"517adcab-c971-460b-a368-452a9bd7f695","meta":{"profile":["http://hl7.org/fhir/us/qicore/StructureDefinition/qicore-coverage"]},"identifier":[{"type":{"coding":[{"system":"http://terminology.hl7.org/CodeSystem/v2-0203","code":"MB"}]}}],"status":"active","beneficiary":{"reference":"Patient/404c928b-a752-4792-91c4-8a1fd0656759"},"relationship":{"coding":[{"system":"http://terminology.hl7.org/CodeSystem/subscriber-relationship","code":"self"}]},"payor":[{"reference":"Organization/78f411bd-1570-4e75-897f-c63826c90e6f"}]},"request":{"method":"PUT","url":"Coverage/517adcab-c971-460b-a368-452a9bd7f695"}},{"fullUrl":"Encounter/901029ea-ce85-457d-9b03-7fb62072bfeb","resource":{"resourceType":"Encounter","id":"901029ea-ce85-457d-9b03-7fb62072bfeb","meta":{"profile":["http://hl7.org/fhir/us/qicore/StructureDefinition/qicore-encounter"]},"status":"finished","class":{"system":"http://terminology.hl7.org/CodeSystem/v3-ActCode","code":"EMER","display":"emergency"},"type":[{"coding":[{"system":"http://snomed.info/sct","version":"2023-09","code":"4525004","display":"Emergency department patient visit (procedure)","userSelected":true}]}],"subject":{"reference":"Patient/404c928b-a752-4792-91c4-8a1fd0656759"},"period":{"start":"2027-05-01T08:00:00.000+00:00","end":"2027-05-01T10:15:00.000+00:00"},"reasonReference":[{"reference":"Condition/855904a0-d84f-4887-89ca-5448a6fa8f23"}],"diagnosis":[{"condition":{"reference":"Condition/855904a0-d84f-4887-89ca-5448a6fa8f23"},"use":{"coding":[{"system":"http://terminology.hl7.org/CodeSystem/diagnosis-role","code":"billing"}]},"rank":1}],"location":[{"location":{"reference":"Location/c00bb3af-ce96-45ec-a53a-298232a476b0"},"period":{"start":"2027-05-01T07:45:00.000+00:00","end":"2027-05-01T08:15:00.000+00:00"}},{"location":{"reference":"Location/df544583-da49-4c11-a584-54fb813ff34e"},"period":{"start":"2027-05-01T08:30:00.000+00:00","end":"2027-05-01T08:40:00.000+00:00"}}]},"request":{"method":"PUT","url":"Encounter/901029ea-ce85-457d-9b03-7fb62072bfeb"}},{"fullUrl":"Location/df544583-da49-4c11-a584-54fb813ff34e","resource":{"resourceType":"Location","id":"df544583-da49-4c11-a584-54fb813ff34e","meta":{"profile":["http://hl7.org/fhir/us/qicore/StructureDefinition/qicore-location"]},"identifier":[{"use":"usual","system":"http://exampleoflocation.com","value":"B1-S.F2"}],"name":"Medical Surgical East, first floor","type":[{"coding":[{"system":"https://www.cdc.gov/nhsn/cdaportal/terminology/codesystem/hsloc.html","version":"2022","code":"1209-6","display":"Treatment Room","userSelected":true}]}]},"request":{"method":"PUT","url":"Location/df544583-da49-4c11-a584-54fb813ff34e"}},{"fullUrl":"Claim/ClaimBehavior-NotSubsAbuse","resource":{"resourceType":"Claim","id":"ClaimBehavior-NotSubsAbuse","meta":{"profile":["http://hl7.org/fhir/us/qicore/StructureDefinition/qicore-claim"]},"status":"active","type":{"coding":[{"system":"http://terminology.hl7.org/CodeSystem/claim-type","code":"institutional"}]},"use":"claim","patient":{"reference":"Patient/404c928b-a752-4792-91c4-8a1fd0656759"},"created":"2027-05-01","provider":{"reference":"Practitioner/4e6f156b-af52-47ba-96cb-bb7e4c9f59f6"},"priority":{"coding":[{"system":"http://terminology.hl7.org/CodeSystem/processpriority","code":"normal"}]},"diagnosis":[{"sequence":1,"diagnosisReference":{"reference":"Condition/855904a0-d84f-4887-89ca-5448a6fa8f23"},"type":[{"coding":[{"system":"http://terminology.hl7.org/CodeSystem/ex-diagnosistype","code":"principal"}]}]}],"insurance":[{"sequence":1,"focal":true,"coverage":{"reference":"Coverage/517adcab-c971-460b-a368-452a9bd7f695"}}],"item":[{"sequence":1,"diagnosisSequence":[1],"productOrService":{"coding":[{"system":"http://terminology.hl7.org/CodeSystem/ex-USCLS","code":"99555"}]},"encounter":[{"reference":"Encounter/901029ea-ce85-457d-9b03-7fb62072bfeb"}]}]},"request":{"method":"PUT","url":"Claim/ClaimBehavior-NotSubsAbuse"}},{"fullUrl":"Bundle/661579e3db207d74c03b8a54","resource":{"resourceType":"Bundle","id":"661579e3db207d74c03b8a54","type":"transaction","entry":[{"fullUrl":"https://madie.cms.gov/Patient/404c928b-a752-4792-91c4-8a1fd0656759","resource":{"resourceType":"Patient","id":"404c928b-a752-4792-91c4-8a1fd0656759","meta":{"profile":["http://hl7.org/fhir/us/qicore/StructureDefinition/qicore-patient"]},"extension":[{"url":"http://hl7.org/fhir/us/core/StructureDefinition/us-core-race","extension":[{"url":"ombCategory","valueCoding":{"system":"urn:oid:2.16.840.1.113883.6.238","code":"2076-8","display":"Native Hawaiian or Other Pacific Islander","userSelected":true}},{"url":"text","valueString":"Native Hawaiian or Other Pacific Islander"}]},{"url":"http://hl7.org/fhir/us/core/StructureDefinition/us-core-ethnicity","extension":[{"url":"ombCategory","valueCoding":{"system":"urn:oid:2.16.840.1.113883.6.238","code":"2186-5","display":"Not Hispanic or Latino","userSelected":true}},{"url":"text","valueString":"Not Hispanic or Latino"}]},{"url":"http://hl7.org/fhir/us/core/StructureDefinition/us-core-sex","valueCode":"248152002"}],"identifier":[{"type":{"coding":[{"system":"http://terminology.hl7.org/CodeSystem/v2-0203","code":"MR"}]},"system":"https://bonnie-fhir.healthit.gov/","value":"661579e3db207d74c03b8a54"}],"name":[{"family":"NUMERStrat4Pass","given":["EDEncounterStatusFinished"]}],"gender":"female","birthDate":"2008-12-31"},"request":{"method":"PUT","url":"Patient/404c928b-a752-4792-91c4-8a1fd0656759"}},{"fullUrl":"https://madie.cms.gov/Encounter/901029ea-ce85-457d-9b03-7fb62072bfeb","resource":{"resourceType":"Encounter","id":"901029ea-ce85-457d-9b03-7fb62072bfeb","meta":{"profile":["http://hl7.org/fhir/us/qicore/StructureDefinition/qicore-encounter"]},"status":"finished","class":{"system":"http://terminology.hl7.org/CodeSystem/v3-ActCode","code":"EMER","display":"emergency"},"type":[{"coding":[{"system":"http://snomed.info/sct","version":"2023-09","code":"4525004","display":"Emergency department patient visit (procedure)","userSelected":true}]}],"subject":{"reference":"Patient/404c928b-a752-4792-91c4-8a1fd0656759"},"period":{"start":"2027-05-01T08:00:00.000+00:00","end":"2027-05-01T10:15:00.000+00:00"},"reasonReference":[{"reference":"Condition/855904a0-d84f-4887-89ca-5448a6fa8f23"}],"diagnosis":[{"condition":{"reference":"Condition/855904a0-d84f-4887-89ca-5448a6fa8f23"},"use":{"coding":[{"system":"http://terminology.hl7.org/CodeSystem/diagnosis-role","code":"billing"}]},"rank":1}],"location":[{"location":{"reference":"Location/c00bb3af-ce96-45ec-a53a-298232a476b0"},"period":{"start":"2027-05-01T07:45:00.000+00:00","end":"2027-05-01T08:15:00.000+00:00"}},{"location":{"reference":"Location/df544583-da49-4c11-a584-54fb813ff34e"},"period":{"start":"2027-05-01T08:30:00.000+00:00","end":"2027-05-01T08:40:00.000+00:00"}}]},"request":{"method":"PUT","url":"Encounter/901029ea-ce85-457d-9b03-7fb62072bfeb"}},{"fullUrl":"https://madie.cms.gov/Location/c00bb3af-ce96-45ec-a53a-298232a476b0","resource":{"resourceType":"Location","id":"c00bb3af-ce96-45ec-a53a-298232a476b0","meta":{"profile":["http://hl7.org/fhir/us/qicore/StructureDefinition/qicore-location"]},"identifier":[{"use":"usual","system":"http://exampleoflocation.com","value":"B1-S.F1"}],"name":"Medical Surgical East, first floor","type":[{"coding":[{"system":"https://www.cdc.gov/nhsn/cdaportal/terminology/codesystem/hsloc.html","version":"2022","code":"1108-0","display":"Emergency Department","userSelected":true}]}]},"request":{"method":"PUT","url":"Location/c00bb3af-ce96-45ec-a53a-298232a476b0"}},{"fullUrl":"https://madie.cms.gov/Location/df544583-da49-4c11-a584-54fb813ff34e","resource":{"resourceType":"Location","id":"df544583-da49-4c11-a584-54fb813ff34e","meta":{"profile":["http://hl7.org/fhir/us/qicore/StructureDefinition/qicore-location"]},"identifier":[{"use":"usual","system":"http://exampleoflocation.com","value":"B1-S.F2"}],"name":"Medical Surgical East, first floor","type":[{"coding":[{"system":"https://www.cdc.gov/nhsn/cdaportal/terminology/codesystem/hsloc.html","version":"2022","code":"1209-6","display":"Treatment Room","userSelected":true}]}]},"request":{"method":"PUT","url":"Location/df544583-da49-4c11-a584-54fb813ff34e"}},{"fullUrl":"https://madie.cms.gov/Condition/855904a0-d84f-4887-89ca-5448a6fa8f23","resource":{"resourceType":"Condition","id":"855904a0-d84f-4887-89ca-5448a6fa8f23","meta":{"profile":["http://hl7.org/fhir/us/qicore/StructureDefinition/qicore-condition-encounter-diagnosis"]},"category":[{"coding":[{"system":"http://terminology.hl7.org/CodeSystem/condition-category","code":"encounter-diagnosis","display":"Encounter Diagnosis"}]}],"code":{"coding":[{"system":"http://snomed.info/sct","version":"2023-09","code":"10349009","display":"Multi-infarct dementia with delirium (disorder)","userSelected":true}]},"subject":{"reference":"Patient/404c928b-a752-4792-91c4-8a1fd0656759"},"encounter":{"reference":"Encounter/901029ea-ce85-457d-9b03-7fb62072bfeb"},"recordedDate":"2027-04-09T08:00:00.000+00:00"},"request":{"method":"PUT","url":"Condition/855904a0-d84f-4887-89ca-5448a6fa8f23"}},{"fullUrl":"https://madie.cms.gov/Location/47cf36b6-eec1-48eb-be99-fe220a3bf29b","resource":{"resourceType":"Location","id":"47cf36b6-eec1-48eb-be99-fe220a3bf29b","meta":{"profile":["http://hl7.org/fhir/us/qicore/StructureDefinition/qicore-location"]},"identifier":[{"use":"usual","system":"http://exampleoflocation.com","value":"B1-S.F2"}],"name":"Medical Surgical East, first floor","type":[{"coding":[{"system":"https://www.cdc.gov/nhsn/cdaportal/terminology/codesystem/hsloc.html","version":"2022","code":"1108-0","display":"Emergency Department","userSelected":true}]}]},"request":{"method":"PUT","url":"Location/47cf36b6-eec1-48eb-be99-fe220a3bf29b"}},{"fullUrl":"https://madie.cms.gov/Location/343fec07-186a-4faf-babb-646167c6b346","resource":{"resourceType":"Location","id":"343fec07-186a-4faf-babb-646167c6b346","meta":{"profile":["http://hl7.org/fhir/us/qicore/StructureDefinition/qicore-location"]},"identifier":[{"use":"usual","system":"http://exampleoflocation.com","value":"B1-S.F2"}],"name":"Medical Surgical East, first floor","type":[{"coding":[{"system":"https://www.cdc.gov/nhsn/cdaportal/terminology/codesystem/hsloc.html","version":"2022","code":"1209-6","display":"Treatment Room"}]}]},"request":{"method":"PUT","url":"Location/343fec07-186a-4faf-babb-646167c6b346"}},{"fullUrl":"https://madie.cms.gov/claim/ClaimBehavior-NotSubsAbuse","resource":{"resourceType":"Claim","id":"ClaimBehavior-NotSubsAbuse","meta":{"profile":["http://hl7.org/fhir/us/qicore/StructureDefinition/qicore-claim"]},"status":"active","type":{"coding":[{"system":"http://terminology.hl7.org/CodeSystem/claim-type","code":"institutional"}]},"use":"claim","patient":{"reference":"Patient/404c928b-a752-4792-91c4-8a1fd0656759"},"created":"2027-05-01","provider":{"reference":"Practitioner/4e6f156b-af52-47ba-96cb-bb7e4c9f59f6"},"priority":{"coding":[{"system":"http://terminology.hl7.org/CodeSystem/processpriority","code":"normal"}]},"diagnosis":[{"sequence":1,"diagnosisReference":{"reference":"Condition/855904a0-d84f-4887-89ca-5448a6fa8f23"},"type":[{"coding":[{"system":"http://terminology.hl7.org/CodeSystem/ex-diagnosistype","code":"principal"}]}]}],"insurance":[{"sequence":1,"focal":true,"coverage":{"reference":"Coverage/517adcab-c971-460b-a368-452a9bd7f695"}}],"item":[{"sequence":1,"diagnosisSequence":[1],"productOrService":{"coding":[{"system":"http://terminology.hl7.org/CodeSystem/ex-USCLS","code":"99555"}]},"encounter":[{"reference":"Encounter/901029ea-ce85-457d-9b03-7fb62072bfeb"}]}]},"request":{"method":"PUT","url":"Claim/ClaimBehavior-NotSubsAbuse"}},{"fullUrl":"https://madie.cms.gov/Coverage/517adcab-c971-460b-a368-452a9bd7f695","resource":{"resourceType":"Coverage","id":"517adcab-c971-460b-a368-452a9bd7f695","meta":{"profile":["http://hl7.org/fhir/us/qicore/StructureDefinition/qicore-coverage"]},"identifier":[{"type":{"coding":[{"system":"http://terminology.hl7.org/CodeSystem/v2-0203","code":"MB"}]}}],"status":"active","beneficiary":{"reference":"Patient/404c928b-a752-4792-91c4-8a1fd0656759"},"relationship":{"coding":[{"system":"http://terminology.hl7.org/CodeSystem/subscriber-relationship","code":"self"}]},"payor":[{"reference":"Organization/78f411bd-1570-4e75-897f-c63826c90e6f"}]},"request":{"method":"PUT","url":"Coverage/517adcab-c971-460b-a368-452a9bd7f695"}},{"fullUrl":"https://madie.cms.gov/Organization/78f411bd-1570-4e75-897f-c63826c90e6f","resource":{"resourceType":"Organization","id":"78f411bd-1570-4e75-897f-c63826c90e6f","meta":{"profile":["http://hl7.org/fhir/us/qicore/StructureDefinition/qicore-organization"]},"identifier":[{"use":"temp","system":"urn:oid:2.16.840.1.113883.4.4","value":"21-3259825"}],"active":true,"type":[{"coding":[{"system":"http://terminology.hl7.org/CodeSystem/organization-type","code":"pay","display":"Payer"}]}],"name":"Blue Cross Blue Shield of Texas","telecom":[{"system":"phone","value":"(+1) 972-766-6900"}],"address":[{"use":"billing","type":"postal","line":["P.O. Box 660044"],"city":"Dallas","state":"TX","postalCode":"75266-0044","country":"USA"}]},"request":{"method":"PUT","url":"Organization/78f411bd-1570-4e75-897f-c63826c90e6f"}},{"fullUrl":"https://madie.cms.gov/Practitioner/4e6f156b-af52-47ba-96cb-bb7e4c9f59f6","resource":{"resourceType":"Practitioner","id":"4e6f156b-af52-47ba-96cb-bb7e4c9f59f6","meta":{"profile":["http://hl7.org/fhir/us/qicore/StructureDefinition/qicore-practitioner"]},"identifier":[{"system":"http://hl7.org/fhir/sid/us-npi","value":"9999999896"}],"name":[{"family":"Evil","prefix":["Dr"]}]},"request":{"method":"PUT","url":"Practitioner/4e6f156b-af52-47ba-96cb-bb7e4c9f59f6"}},{"fullUrl":"https://madie.cms.gov/MeasureReport/8189ede7-2aa4-4136-90a9-0365d5197bdc","resource":{"resourceType":"MeasureReport","id":"8189ede7-2aa4-4136-90a9-0365d5197bdc","meta":{"profile":["http://hl7.org/fhir/us/cqfmeasures/StructureDefinition/test-case-cqfm"]},"contained":[{"resourceType":"Parameters","id":"2e8c00b8-38c2-40c3-95df-a1f79c09f08a-parameters","parameter":[{"name":"subject","valueString":"404c928b-a752-4792-91c4-8a1fd0656759"}]}],"extension":[{"url":"http://hl7.org/fhir/StructureDefinition/cqf-inputParameters","valueReference":{"reference":"#2e8c00b8-38c2-40c3-95df-a1f79c09f08a-parameters"}},{"url":"http://hl7.org/fhir/us/cqfmeasures/StructureDefinition/cqfm-testCaseDescription","valueMarkdown":"Enc 1st day of MP, in ED only 40 mins. "}],"modifierExtension":[{"url":"http://hl7.org/fhir/us/cqfmeasures/StructureDefinition/cqfm-isTestCase","valueBoolean":true}],"status":"complete","type":"individual","measure":"https://madie.cms.gov/Measure/CMS1244FHIRECATHOQR","period":{"start":"2027-01-01","end":"2027-12-31"},"group":[{"id":"Group_1","population":[{"id":"InitialPopulation_1","code":{"coding":[{"system":"http://terminology.hl7.org/CodeSystem/measure-population","code":"initial-population","display":"Initial Population"}]},"count":1},{"id":"Denominator_1","code":{"coding":[{"system":"http://terminology.hl7.org/CodeSystem/measure-population","code":"denominator","display":"Denominator"}]},"count":1},{"id":"Numerator_1","code":{"coding":[{"system":"http://terminology.hl7.org/CodeSystem/measure-population","code":"numerator","display":"Numerator"}]},"count":0}],"measureScore":{"value":0.0},"stratifier":[{"id":"Stratification_1_1","code":[{"text":"Strata-1"}],"stratum":[{"value":{"text":"Strata-1"},"population":[{"id":"InitialPopulation_1","code":{"coding":[{"system":"http://terminology.hl7.org/CodeSystem/measure-population","code":"initial-population","display":"Initial Population"}]},"count":0},{"id":"Denominator_1","code":{"coding":[{"system":"http://terminology.hl7.org/CodeSystem/measure-population","code":"denominator","display":"Denominator"}]},"count":0},{"id":"Numerator_1","code":{"coding":[{"system":"http://terminology.hl7.org/CodeSystem/measure-population","code":"numerator","display":"Numerator"}]},"count":0}]}]},{"id":"Stratification_1_2","code":[{"text":"Strata-2"}],"stratum":[{"value":{"text":"Strata-2"},"population":[{"id":"InitialPopulation_1","code":{"coding":[{"system":"http://terminology.hl7.org/CodeSystem/measure-population","code":"initial-population","display":"Initial Population"}]},"count":0},{"id":"Denominator_1","code":{"coding":[{"system":"http://terminology.hl7.org/CodeSystem/measure-population","code":"denominator","display":"Denominator"}]},"count":0},{"id":"Numerator_1","code":{"coding":[{"system":"http://terminology.hl7.org/CodeSystem/measure-population","code":"numerator","display":"Numerator"}]},"count":0}]}]},{"id":"Stratification_1_3","code":[{"text":"Strata-3"}],"stratum":[{"value":{"text":"Strata-3"},"population":[{"id":"InitialPopulation_1","code":{"coding":[{"system":"http://terminology.hl7.org/CodeSystem/measure-population","code":"initial-population","display":"Initial Population"}]},"count":0},{"id":"Denominator_1","code":{"coding":[{"system":"http://terminology.hl7.org/CodeSystem/measure-population","code":"denominator","display":"Denominator"}]},"count":0},{"id":"Numerator_1","code":{"coding":[{"system":"http://terminology.hl7.org/CodeSystem/measure-population","code":"numerator","display":"Numerator"}]},"count":0}]}]},{"id":"Stratification_1_4","code":[{"text":"Strata-4"}],"stratum":[{"value":{"text":"Strata-4"},"population":[{"id":"InitialPopulation_1","code":{"coding":[{"system":"http://terminology.hl7.org/CodeSystem/measure-population","code":"initial-population","display":"Initial Population"}]},"count":1},{"id":"Denominator_1","code":{"coding":[{"system":"http://terminology.hl7.org/CodeSystem/measure-population","code":"denominator","display":"Denominator"}]},"count":1},{"id":"Numerator_1","code":{"coding":[{"system":"http://terminology.hl7.org/CodeSystem/measure-population","code":"numerator","display":"Numerator"}]},"count":0}]}]}]}],"evaluatedResource":[{"reference":"Patient/404c928b-a752-4792-91c4-8a1fd0656759"},{"reference":"Encounter/901029ea-ce85-457d-9b03-7fb62072bfeb"},{"reference":"Location/c00bb3af-ce96-45ec-a53a-298232a476b0"},{"reference":"Location/df544583-da49-4c11-a584-54fb813ff34e"},{"reference":"Condition/855904a0-d84f-4887-89ca-5448a6fa8f23"},{"reference":"Location/47cf36b6-eec1-48eb-be99-fe220a3bf29b"},{"reference":"Location/343fec07-186a-4faf-babb-646167c6b346"},{"reference":"Claim/ClaimBehavior-NotSubsAbuse"},{"reference":"Coverage/517adcab-c971-460b-a368-452a9bd7f695"},{"reference":"Organization/78f411bd-1570-4e75-897f-c63826c90e6f"},{"reference":"Practitioner/4e6f156b-af52-47ba-96cb-bb7e4c9f59f6"}]},"request":{"method":"PUT","url":"MeasureReport/8189ede7-2aa4-4136-90a9-0365d5197bdc"}}]},"request":{"method":"PUT","url":"Bundle/661579e3db207d74c03b8a54"}},{"fullUrl":"Location/343fec07-186a-4faf-babb-646167c6b346","resource":{"resourceType":"Location","id":"343fec07-186a-4faf-babb-646167c6b346","meta":{"profile":["http://hl7.org/fhir/us/qicore/StructureDefinition/qicore-location"]},"identifier":[{"use":"usual","system":"http://exampleoflocation.com","value":"B1-S.F2"}],"name":"Medical Surgical East, first floor","type":[{"coding":[{"system":"https://www.cdc.gov/nhsn/cdaportal/terminology/codesystem/hsloc.html","version":"2022","code":"1209-6","display":"Treatment Room"}]}]},"request":{"method":"PUT","url":"Location/343fec07-186a-4faf-babb-646167c6b346"}}]}