{"resourceType":"Bundle","id":"tests-ee13a2d8-61d9-4d2f-8f13-1423bd271950-bundle","type":"transaction","entry":[{"fullUrl":"Condition/bdb5e34b-9bcd-4587-afc2-b7992f8395d7","resource":{"resourceType":"Condition","id":"bdb5e34b-9bcd-4587-afc2-b7992f8395d7","meta":{"profile":["http://hl7.org/fhir/us/qicore/StructureDefinition/qicore-condition-encounter-diagnosis"]},"category":[{"coding":[{"system":"http://terminology.hl7.org/CodeSystem/condition-category","code":"encounter-diagnosis","display":"Encounter Diagnosis"}]}],"code":{"coding":[{"system":"http://snomed.info/sct","version":"2023-09","code":"10349009","display":"Multi-infarct dementia with delirium (disorder)","userSelected":true}]},"subject":{"reference":"Patient/ee13a2d8-61d9-4d2f-8f13-1423bd271950"},"recordedDate":"2027-04-09T08:00:00.000+00:00"},"request":{"method":"PUT","url":"Condition/bdb5e34b-9bcd-4587-afc2-b7992f8395d7"}},{"fullUrl":"ServiceRequest/f48ae714-a2b8-415b-8bc9-09ec21e24821","resource":{"resourceType":"ServiceRequest","id":"f48ae714-a2b8-415b-8bc9-09ec21e24821","meta":{"profile":["http://hl7.org/fhir/us/qicore/StructureDefinition/qicore-servicerequest"]},"status":"revoked","intent":"order","code":{"coding":[{"system":"http://snomed.info/sct","version":"2023-09","code":"19951005","display":"Hospital admission, emergency, from emergency room, medical nature (procedure)","userSelected":true}]},"subject":{"reference":"Patient/ee13a2d8-61d9-4d2f-8f13-1423bd271950"},"authoredOn":"2027-05-01T19:58:00.000+00:00"},"request":{"method":"PUT","url":"ServiceRequest/f48ae714-a2b8-415b-8bc9-09ec21e24821"}},{"fullUrl":"Organization/d3c05aed-a3c2-4d32-be70-56605de74bd6","resource":{"resourceType":"Organization","id":"d3c05aed-a3c2-4d32-be70-56605de74bd6","meta":{"profile":["http://hl7.org/fhir/us/qicore/StructureDefinition/qicore-organization"]},"identifier":[{"use":"temp","system":"urn:oid:2.16.840.1.113883.4.4","value":"21-3259825"}],"active":true,"type":[{"coding":[{"system":"http://terminology.hl7.org/CodeSystem/organization-type","code":"pay","display":"Payer"}]}],"name":"Blue Cross Blue Shield of Texas","telecom":[{"system":"phone","value":"(+1) 972-766-6900"}],"address":[{"use":"billing","type":"postal","line":["P.O. Box 660044"],"city":"Dallas","state":"TX","postalCode":"75266-0044","country":"USA"}]},"request":{"method":"PUT","url":"Organization/d3c05aed-a3c2-4d32-be70-56605de74bd6"}},{"fullUrl":"Encounter/bf4c4c13-8b9f-463a-ac9c-dde080fdd139","resource":{"resourceType":"Encounter","id":"bf4c4c13-8b9f-463a-ac9c-dde080fdd139","meta":{"profile":["http://hl7.org/fhir/us/qicore/StructureDefinition/qicore-encounter"]},"status":"finished","class":{"system":"http://terminology.hl7.org/CodeSystem/v3-ActCode","code":"EMER","display":"emergency department"},"type":[{"coding":[{"system":"http://snomed.info/sct","version":"2023-09","code":"4525004","display":"Emergency department patient visit (procedure)","userSelected":true}]}],"subject":{"reference":"Patient/ee13a2d8-61d9-4d2f-8f13-1423bd271950"},"period":{"start":"2027-05-01T19:58:00.000+00:00","end":"2027-05-01T23:59:00.000+00:00"},"diagnosis":[{"condition":{"reference":"Condition/bdb5e34b-9bcd-4587-afc2-b7992f8395d7"},"use":{"coding":[{"system":"http://terminology.hl7.org/CodeSystem/diagnosis-role","code":"billing"}]},"rank":1}],"location":[{"location":{"reference":"Location/bc878a50-ba74-4f8a-b100-6ccbf0e222e1"},"period":{"start":"2027-05-01T19:58:00.000+00:00","end":"2027-05-01T23:59:00.000+00:00"}}]},"request":{"method":"PUT","url":"Encounter/bf4c4c13-8b9f-463a-ac9c-dde080fdd139"}},{"fullUrl":"MeasureReport/6dd58ac8-7879-42fd-9ec4-a752524eb147","resource":{"resourceType":"MeasureReport","id":"6dd58ac8-7879-42fd-9ec4-a752524eb147","meta":{"profile":["http://hl7.org/fhir/us/cqfmeasures/StructureDefinition/test-case-cqfm"]},"contained":[{"resourceType":"Parameters","id":"49191bc2-4d98-43d1-8fb6-c16520e60bb1-parameters","parameter":[{"name":"subject","valueString":"ee13a2d8-61d9-4d2f-8f13-1423bd271950"}]}],"extension":[{"url":"http://hl7.org/fhir/StructureDefinition/cqf-inputParameters","valueReference":{"reference":"#49191bc2-4d98-43d1-8fb6-c16520e60bb1-parameters"}},{"url":"http://hl7.org/fhir/us/cqfmeasures/StructureDefinition/cqfm-testCaseDescription","valueMarkdown":"Enc first day of MP, ends 1 min before midnight, decision to admit order, decision to admit order status is inactive"}],"modifierExtension":[{"url":"http://hl7.org/fhir/us/cqfmeasures/StructureDefinition/cqfm-isTestCase","valueBoolean":true}],"status":"complete","type":"individual","measure":"https://madie.cms.gov/Measure/CMS1244FHIRECATHOQR","period":{"start":"2027-01-01","end":"2027-12-31"},"group":[{"id":"Group_1","population":[{"id":"InitialPopulation_1","code":{"coding":[{"system":"http://terminology.hl7.org/CodeSystem/measure-population","code":"initial-population","display":"Initial Population"}]},"count":1},{"id":"Denominator_1","code":{"coding":[{"system":"http://terminology.hl7.org/CodeSystem/measure-population","code":"denominator","display":"Denominator"}]},"count":1},{"id":"Numerator_1","code":{"coding":[{"system":"http://terminology.hl7.org/CodeSystem/measure-population","code":"numerator","display":"Numerator"}]},"count":0}],"measureScore":{"value":0.0},"stratifier":[{"id":"Stratification_1_1","code":[{"text":"Strata-1"}],"stratum":[{"value":{"text":"Strata-1"},"population":[{"id":"InitialPopulation_1","code":{"coding":[{"system":"http://terminology.hl7.org/CodeSystem/measure-population","code":"initial-population","display":"Initial Population"}]},"count":0},{"id":"Denominator_1","code":{"coding":[{"system":"http://terminology.hl7.org/CodeSystem/measure-population","code":"denominator","display":"Denominator"}]},"count":0},{"id":"Numerator_1","code":{"coding":[{"system":"http://terminology.hl7.org/CodeSystem/measure-population","code":"numerator","display":"Numerator"}]},"count":0}]}]},{"id":"Stratification_1_2","code":[{"text":"Strata-2"}],"stratum":[{"value":{"text":"Strata-2"},"population":[{"id":"InitialPopulation_1","code":{"coding":[{"system":"http://terminology.hl7.org/CodeSystem/measure-population","code":"initial-population","display":"Initial Population"}]},"count":0},{"id":"Denominator_1","code":{"coding":[{"system":"http://terminology.hl7.org/CodeSystem/measure-population","code":"denominator","display":"Denominator"}]},"count":0},{"id":"Numerator_1","code":{"coding":[{"system":"http://terminology.hl7.org/CodeSystem/measure-population","code":"numerator","display":"Numerator"}]},"count":0}]}]},{"id":"Stratification_1_3","code":[{"text":"Strata-3"}],"stratum":[{"value":{"text":"Strata-3"},"population":[{"id":"InitialPopulation_1","code":{"coding":[{"system":"http://terminology.hl7.org/CodeSystem/measure-population","code":"initial-population","display":"Initial Population"}]},"count":0},{"id":"Denominator_1","code":{"coding":[{"system":"http://terminology.hl7.org/CodeSystem/measure-population","code":"denominator","display":"Denominator"}]},"count":0},{"id":"Numerator_1","code":{"coding":[{"system":"http://terminology.hl7.org/CodeSystem/measure-population","code":"numerator","display":"Numerator"}]},"count":0}]}]},{"id":"Stratification_1_4","code":[{"text":"Strata-4"}],"stratum":[{"value":{"text":"Strata-4"},"population":[{"id":"InitialPopulation_1","code":{"coding":[{"system":"http://terminology.hl7.org/CodeSystem/measure-population","code":"initial-population","display":"Initial Population"}]},"count":1},{"id":"Denominator_1","code":{"coding":[{"system":"http://terminology.hl7.org/CodeSystem/measure-population","code":"denominator","display":"Denominator"}]},"count":1},{"id":"Numerator_1","code":{"coding":[{"system":"http://terminology.hl7.org/CodeSystem/measure-population","code":"numerator","display":"Numerator"}]},"count":0}]}]}]}],"evaluatedResource":[{"reference":"Patient/ee13a2d8-61d9-4d2f-8f13-1423bd271950"},{"reference":"Encounter/bf4c4c13-8b9f-463a-ac9c-dde080fdd139"},{"reference":"ServiceRequest/f48ae714-a2b8-415b-8bc9-09ec21e24821"},{"reference":"Location/bc878a50-ba74-4f8a-b100-6ccbf0e222e1"},{"reference":"Claim/ClaimBehavior-NotSubsAbuse"},{"reference":"Coverage/a8d8c9a6-45c4-4782-8c9d-72415a0f1c2b"},{"reference":"Condition/bdb5e34b-9bcd-4587-afc2-b7992f8395d7"},{"reference":"Encounter/f20f50df-5925-44cb-8ac7-3f434c72ebb5"},{"reference":"Organization/d3c05aed-a3c2-4d32-be70-56605de74bd6"},{"reference":"Practitioner/b21b9ae2-73a9-4fca-81cf-9ddfe26093cf"}]},"request":{"method":"PUT","url":"MeasureReport/6dd58ac8-7879-42fd-9ec4-a752524eb147"}},{"fullUrl":"Practitioner/b21b9ae2-73a9-4fca-81cf-9ddfe26093cf","resource":{"resourceType":"Practitioner","id":"b21b9ae2-73a9-4fca-81cf-9ddfe26093cf","meta":{"profile":["http://hl7.org/fhir/us/qicore/StructureDefinition/qicore-practitioner"]},"identifier":[{"system":"http://hl7.org/fhir/sid/us-npi","value":"9999999896"}],"name":[{"family":"Evil","prefix":["Dr"]}]},"request":{"method":"PUT","url":"Practitioner/b21b9ae2-73a9-4fca-81cf-9ddfe26093cf"}},{"fullUrl":"Bundle/661476b015ed5841a5547ebf","resource":{"resourceType":"Bundle","id":"661476b015ed5841a5547ebf","type":"transaction","entry":[{"fullUrl":"https://madie.cms.gov/Patient/ee13a2d8-61d9-4d2f-8f13-1423bd271950","resource":{"resourceType":"Patient","id":"ee13a2d8-61d9-4d2f-8f13-1423bd271950","meta":{"profile":["http://hl7.org/fhir/us/qicore/StructureDefinition/qicore-patient"]},"extension":[{"url":"http://hl7.org/fhir/us/core/StructureDefinition/us-core-race","extension":[{"url":"ombCategory","valueCoding":{"system":"urn:oid:2.16.840.1.113883.6.238","code":"1002-5","display":"American Indian or Alaska Native","userSelected":true}},{"url":"text","valueString":"American Indian or Alaska Native"}]},{"url":"http://hl7.org/fhir/us/core/StructureDefinition/us-core-ethnicity","extension":[{"url":"ombCategory","valueCoding":{"system":"urn:oid:2.16.840.1.113883.6.238","code":"2135-2","display":"Hispanic or Latino","userSelected":true}},{"url":"text","valueString":"Hispanic or Latino"}]},{"url":"http://hl7.org/fhir/us/core/StructureDefinition/us-core-sex","valueCode":"248153007"}],"identifier":[{"type":{"coding":[{"system":"http://terminology.hl7.org/CodeSystem/v2-0203","code":"MR"}]},"system":"https://bonnie-fhir.healthit.gov/","value":"661476b015ed5841a5547ebf"}],"name":[{"family":"DENOMFail","given":["StatusRevoked"]}],"gender":"male","birthDate":"2008-01-01"},"request":{"method":"PUT","url":"Patient/ee13a2d8-61d9-4d2f-8f13-1423bd271950"}},{"fullUrl":"https://madie.cms.gov/Encounter/bf4c4c13-8b9f-463a-ac9c-dde080fdd139","resource":{"resourceType":"Encounter","id":"bf4c4c13-8b9f-463a-ac9c-dde080fdd139","meta":{"profile":["http://hl7.org/fhir/us/qicore/StructureDefinition/qicore-encounter"]},"status":"finished","class":{"system":"http://terminology.hl7.org/CodeSystem/v3-ActCode","code":"EMER","display":"emergency department"},"type":[{"coding":[{"system":"http://snomed.info/sct","version":"2023-09","code":"4525004","display":"Emergency department patient visit (procedure)","userSelected":true}]}],"subject":{"reference":"Patient/ee13a2d8-61d9-4d2f-8f13-1423bd271950"},"period":{"start":"2027-05-01T19:58:00.000+00:00","end":"2027-05-01T23:59:00.000+00:00"},"diagnosis":[{"condition":{"reference":"Condition/bdb5e34b-9bcd-4587-afc2-b7992f8395d7"},"use":{"coding":[{"system":"http://terminology.hl7.org/CodeSystem/diagnosis-role","code":"billing"}]},"rank":1}],"location":[{"location":{"reference":"Location/bc878a50-ba74-4f8a-b100-6ccbf0e222e1"},"period":{"start":"2027-05-01T19:58:00.000+00:00","end":"2027-05-01T23:59:00.000+00:00"}}]},"request":{"method":"PUT","url":"Encounter/bf4c4c13-8b9f-463a-ac9c-dde080fdd139"}},{"fullUrl":"https://madie.cms.gov/ServiceRequest/f48ae714-a2b8-415b-8bc9-09ec21e24821","resource":{"resourceType":"ServiceRequest","id":"f48ae714-a2b8-415b-8bc9-09ec21e24821","meta":{"profile":["http://hl7.org/fhir/us/qicore/StructureDefinition/qicore-servicerequest"]},"status":"revoked","intent":"order","code":{"coding":[{"system":"http://snomed.info/sct","version":"2023-09","code":"19951005","display":"Hospital admission, emergency, from emergency room, medical nature (procedure)","userSelected":true}]},"subject":{"reference":"Patient/ee13a2d8-61d9-4d2f-8f13-1423bd271950"},"authoredOn":"2027-05-01T19:58:00.000+00:00"},"request":{"method":"PUT","url":"ServiceRequest/f48ae714-a2b8-415b-8bc9-09ec21e24821"}},{"fullUrl":"https://madie.cms.gov/Location/bc878a50-ba74-4f8a-b100-6ccbf0e222e1","resource":{"resourceType":"Location","id":"bc878a50-ba74-4f8a-b100-6ccbf0e222e1","meta":{"profile":["http://hl7.org/fhir/us/qicore/StructureDefinition/qicore-location"]},"identifier":[{"use":"usual","system":"http://exampleoflocation.com","value":"B1-S.F2"}],"name":"Medical Surgical East, first floor","type":[{"coding":[{"system":"https://www.cdc.gov/nhsn/cdaportal/terminology/codesystem/hsloc.html","version":"2022","code":"1108-0","display":"Emergency Department","userSelected":true}]}]},"request":{"method":"PUT","url":"Location/bc878a50-ba74-4f8a-b100-6ccbf0e222e1"}},{"fullUrl":"https://madie.cms.gov/claim/ClaimBehavior-NotSubsAbuse","resource":{"resourceType":"Claim","id":"ClaimBehavior-NotSubsAbuse","meta":{"profile":["http://hl7.org/fhir/us/qicore/StructureDefinition/qicore-claim"]},"status":"active","type":{"coding":[{"system":"http://terminology.hl7.org/CodeSystem/claim-type","code":"institutional"}]},"use":"claim","patient":{"reference":"Patient/ee13a2d8-61d9-4d2f-8f13-1423bd271950"},"created":"2027-05-01","provider":{"reference":"Practitioner/b21b9ae2-73a9-4fca-81cf-9ddfe26093cf"},"priority":{"coding":[{"system":"http://terminology.hl7.org/CodeSystem/processpriority","code":"normal"}]},"diagnosis":[{"sequence":1,"diagnosisReference":{"reference":"Condition/bdb5e34b-9bcd-4587-afc2-b7992f8395d7"},"type":[{"coding":[{"system":"http://terminology.hl7.org/CodeSystem/ex-diagnosistype","code":"principal"}]}]}],"insurance":[{"sequence":1,"focal":true,"coverage":{"reference":"Coverage/a8d8c9a6-45c4-4782-8c9d-72415a0f1c2b"}}],"item":[{"sequence":1,"diagnosisSequence":[1],"productOrService":{"coding":[{"system":"http://terminology.hl7.org/CodeSystem/ex-USCLS","code":"99555"}]},"encounter":[{"reference":"Encounter/bf4c4c13-8b9f-463a-ac9c-dde080fdd139"}]}]},"request":{"method":"PUT","url":"Claim/ClaimBehavior-NotSubsAbuse"}},{"fullUrl":"https://madie.cms.gov/Coverage/a8d8c9a6-45c4-4782-8c9d-72415a0f1c2b","resource":{"resourceType":"Coverage","id":"a8d8c9a6-45c4-4782-8c9d-72415a0f1c2b","meta":{"profile":["http://hl7.org/fhir/us/qicore/StructureDefinition/qicore-coverage"]},"identifier":[{"type":{"coding":[{"system":"http://terminology.hl7.org/CodeSystem/v2-0203","code":"MB"}]}}],"status":"active","beneficiary":{"reference":"Patient/ee13a2d8-61d9-4d2f-8f13-1423bd271950"},"relationship":{"coding":[{"system":"http://terminology.hl7.org/CodeSystem/subscriber-relationship","code":"self"}]},"payor":[{"reference":"Organization/d3c05aed-a3c2-4d32-be70-56605de74bd6"}]},"request":{"method":"PUT","url":"Coverage/a8d8c9a6-45c4-4782-8c9d-72415a0f1c2b"}},{"fullUrl":"https://madie.cms.gov/Condition/bdb5e34b-9bcd-4587-afc2-b7992f8395d7","resource":{"resourceType":"Condition","id":"bdb5e34b-9bcd-4587-afc2-b7992f8395d7","meta":{"profile":["http://hl7.org/fhir/us/qicore/StructureDefinition/qicore-condition-encounter-diagnosis"]},"category":[{"coding":[{"system":"http://terminology.hl7.org/CodeSystem/condition-category","code":"encounter-diagnosis","display":"Encounter Diagnosis"}]}],"code":{"coding":[{"system":"http://snomed.info/sct","version":"2023-09","code":"10349009","display":"Multi-infarct dementia with delirium (disorder)","userSelected":true}]},"subject":{"reference":"Patient/ee13a2d8-61d9-4d2f-8f13-1423bd271950"},"recordedDate":"2027-04-09T08:00:00.000+00:00"},"request":{"method":"PUT","url":"Condition/bdb5e34b-9bcd-4587-afc2-b7992f8395d7"}},{"fullUrl":"https://madie.cms.gov/Encounter/f20f50df-5925-44cb-8ac7-3f434c72ebb5","resource":{"resourceType":"Encounter","id":"f20f50df-5925-44cb-8ac7-3f434c72ebb5","meta":{"profile":["http://hl7.org/fhir/us/qicore/StructureDefinition/qicore-encounter"]},"status":"finished","class":{"system":"http://terminology.hl7.org/CodeSystem/v3-ActCode","code":"IMP","display":"inpatient"},"type":[{"coding":[{"system":"http://snomed.info/sct","version":"2023-09","code":"8715000","display":"Hospital admission, elective (procedure)","userSelected":true}]}],"subject":{"reference":"Patient/ee13a2d8-61d9-4d2f-8f13-1423bd271950"},"period":{"start":"2027-05-01T23:59:00.000+00:00","end":"2027-05-03T08:00:00.000+00:00"}},"request":{"method":"PUT","url":"Encounter/f20f50df-5925-44cb-8ac7-3f434c72ebb5"}},{"fullUrl":"https://madie.cms.gov/Organization/d3c05aed-a3c2-4d32-be70-56605de74bd6","resource":{"resourceType":"Organization","id":"d3c05aed-a3c2-4d32-be70-56605de74bd6","meta":{"profile":["http://hl7.org/fhir/us/qicore/StructureDefinition/qicore-organization"]},"identifier":[{"use":"temp","system":"urn:oid:2.16.840.1.113883.4.4","value":"21-3259825"}],"active":true,"type":[{"coding":[{"system":"http://terminology.hl7.org/CodeSystem/organization-type","code":"pay","display":"Payer"}]}],"name":"Blue Cross Blue Shield of Texas","telecom":[{"system":"phone","value":"(+1) 972-766-6900"}],"address":[{"use":"billing","type":"postal","line":["P.O. Box 660044"],"city":"Dallas","state":"TX","postalCode":"75266-0044","country":"USA"}]},"request":{"method":"PUT","url":"Organization/d3c05aed-a3c2-4d32-be70-56605de74bd6"}},{"fullUrl":"https://madie.cms.gov/Practitioner/b21b9ae2-73a9-4fca-81cf-9ddfe26093cf","resource":{"resourceType":"Practitioner","id":"b21b9ae2-73a9-4fca-81cf-9ddfe26093cf","meta":{"profile":["http://hl7.org/fhir/us/qicore/StructureDefinition/qicore-practitioner"]},"identifier":[{"system":"http://hl7.org/fhir/sid/us-npi","value":"9999999896"}],"name":[{"family":"Evil","prefix":["Dr"]}]},"request":{"method":"PUT","url":"Practitioner/b21b9ae2-73a9-4fca-81cf-9ddfe26093cf"}},{"fullUrl":"https://madie.cms.gov/MeasureReport/6dd58ac8-7879-42fd-9ec4-a752524eb147","resource":{"resourceType":"MeasureReport","id":"6dd58ac8-7879-42fd-9ec4-a752524eb147","meta":{"profile":["http://hl7.org/fhir/us/cqfmeasures/StructureDefinition/test-case-cqfm"]},"contained":[{"resourceType":"Parameters","id":"49191bc2-4d98-43d1-8fb6-c16520e60bb1-parameters","parameter":[{"name":"subject","valueString":"ee13a2d8-61d9-4d2f-8f13-1423bd271950"}]}],"extension":[{"url":"http://hl7.org/fhir/StructureDefinition/cqf-inputParameters","valueReference":{"reference":"#49191bc2-4d98-43d1-8fb6-c16520e60bb1-parameters"}},{"url":"http://hl7.org/fhir/us/cqfmeasures/StructureDefinition/cqfm-testCaseDescription","valueMarkdown":"Enc first day of MP, ends 1 min before midnight, decision to admit order, decision to admit order status is inactive"}],"modifierExtension":[{"url":"http://hl7.org/fhir/us/cqfmeasures/StructureDefinition/cqfm-isTestCase","valueBoolean":true}],"status":"complete","type":"individual","measure":"https://madie.cms.gov/Measure/CMS1244FHIRECATHOQR","period":{"start":"2027-01-01","end":"2027-12-31"},"group":[{"id":"Group_1","population":[{"id":"InitialPopulation_1","code":{"coding":[{"system":"http://terminology.hl7.org/CodeSystem/measure-population","code":"initial-population","display":"Initial Population"}]},"count":1},{"id":"Denominator_1","code":{"coding":[{"system":"http://terminology.hl7.org/CodeSystem/measure-population","code":"denominator","display":"Denominator"}]},"count":1},{"id":"Numerator_1","code":{"coding":[{"system":"http://terminology.hl7.org/CodeSystem/measure-population","code":"numerator","display":"Numerator"}]},"count":0}],"measureScore":{"value":0.0},"stratifier":[{"id":"Stratification_1_1","code":[{"text":"Strata-1"}],"stratum":[{"value":{"text":"Strata-1"},"population":[{"id":"InitialPopulation_1","code":{"coding":[{"system":"http://terminology.hl7.org/CodeSystem/measure-population","code":"initial-population","display":"Initial Population"}]},"count":0},{"id":"Denominator_1","code":{"coding":[{"system":"http://terminology.hl7.org/CodeSystem/measure-population","code":"denominator","display":"Denominator"}]},"count":0},{"id":"Numerator_1","code":{"coding":[{"system":"http://terminology.hl7.org/CodeSystem/measure-population","code":"numerator","display":"Numerator"}]},"count":0}]}]},{"id":"Stratification_1_2","code":[{"text":"Strata-2"}],"stratum":[{"value":{"text":"Strata-2"},"population":[{"id":"InitialPopulation_1","code":{"coding":[{"system":"http://terminology.hl7.org/CodeSystem/measure-population","code":"initial-population","display":"Initial Population"}]},"count":0},{"id":"Denominator_1","code":{"coding":[{"system":"http://terminology.hl7.org/CodeSystem/measure-population","code":"denominator","display":"Denominator"}]},"count":0},{"id":"Numerator_1","code":{"coding":[{"system":"http://terminology.hl7.org/CodeSystem/measure-population","code":"numerator","display":"Numerator"}]},"count":0}]}]},{"id":"Stratification_1_3","code":[{"text":"Strata-3"}],"stratum":[{"value":{"text":"Strata-3"},"population":[{"id":"InitialPopulation_1","code":{"coding":[{"system":"http://terminology.hl7.org/CodeSystem/measure-population","code":"initial-population","display":"Initial Population"}]},"count":0},{"id":"Denominator_1","code":{"coding":[{"system":"http://terminology.hl7.org/CodeSystem/measure-population","code":"denominator","display":"Denominator"}]},"count":0},{"id":"Numerator_1","code":{"coding":[{"system":"http://terminology.hl7.org/CodeSystem/measure-population","code":"numerator","display":"Numerator"}]},"count":0}]}]},{"id":"Stratification_1_4","code":[{"text":"Strata-4"}],"stratum":[{"value":{"text":"Strata-4"},"population":[{"id":"InitialPopulation_1","code":{"coding":[{"system":"http://terminology.hl7.org/CodeSystem/measure-population","code":"initial-population","display":"Initial Population"}]},"count":1},{"id":"Denominator_1","code":{"coding":[{"system":"http://terminology.hl7.org/CodeSystem/measure-population","code":"denominator","display":"Denominator"}]},"count":1},{"id":"Numerator_1","code":{"coding":[{"system":"http://terminology.hl7.org/CodeSystem/measure-population","code":"numerator","display":"Numerator"}]},"count":0}]}]}]}],"evaluatedResource":[{"reference":"Patient/ee13a2d8-61d9-4d2f-8f13-1423bd271950"},{"reference":"Encounter/bf4c4c13-8b9f-463a-ac9c-dde080fdd139"},{"reference":"ServiceRequest/f48ae714-a2b8-415b-8bc9-09ec21e24821"},{"reference":"Location/bc878a50-ba74-4f8a-b100-6ccbf0e222e1"},{"reference":"Claim/ClaimBehavior-NotSubsAbuse"},{"reference":"Coverage/a8d8c9a6-45c4-4782-8c9d-72415a0f1c2b"},{"reference":"Condition/bdb5e34b-9bcd-4587-afc2-b7992f8395d7"},{"reference":"Encounter/f20f50df-5925-44cb-8ac7-3f434c72ebb5"},{"reference":"Organization/d3c05aed-a3c2-4d32-be70-56605de74bd6"},{"reference":"Practitioner/b21b9ae2-73a9-4fca-81cf-9ddfe26093cf"}]},"request":{"method":"PUT","url":"MeasureReport/6dd58ac8-7879-42fd-9ec4-a752524eb147"}}]},"request":{"method":"PUT","url":"Bundle/661476b015ed5841a5547ebf"}},{"fullUrl":"Location/bc878a50-ba74-4f8a-b100-6ccbf0e222e1","resource":{"resourceType":"Location","id":"bc878a50-ba74-4f8a-b100-6ccbf0e222e1","meta":{"profile":["http://hl7.org/fhir/us/qicore/StructureDefinition/qicore-location"]},"identifier":[{"use":"usual","system":"http://exampleoflocation.com","value":"B1-S.F2"}],"name":"Medical Surgical East, first floor","type":[{"coding":[{"system":"https://www.cdc.gov/nhsn/cdaportal/terminology/codesystem/hsloc.html","version":"2022","code":"1108-0","display":"Emergency Department","userSelected":true}]}]},"request":{"method":"PUT","url":"Location/bc878a50-ba74-4f8a-b100-6ccbf0e222e1"}},{"fullUrl":"Coverage/a8d8c9a6-45c4-4782-8c9d-72415a0f1c2b","resource":{"resourceType":"Coverage","id":"a8d8c9a6-45c4-4782-8c9d-72415a0f1c2b","meta":{"profile":["http://hl7.org/fhir/us/qicore/StructureDefinition/qicore-coverage"]},"identifier":[{"type":{"coding":[{"system":"http://terminology.hl7.org/CodeSystem/v2-0203","code":"MB"}]}}],"status":"active","beneficiary":{"reference":"Patient/ee13a2d8-61d9-4d2f-8f13-1423bd271950"},"relationship":{"coding":[{"system":"http://terminology.hl7.org/CodeSystem/subscriber-relationship","code":"self"}]},"payor":[{"reference":"Organization/d3c05aed-a3c2-4d32-be70-56605de74bd6"}]},"request":{"method":"PUT","url":"Coverage/a8d8c9a6-45c4-4782-8c9d-72415a0f1c2b"}},{"fullUrl":"Claim/ClaimBehavior-NotSubsAbuse","resource":{"resourceType":"Claim","id":"ClaimBehavior-NotSubsAbuse","meta":{"profile":["http://hl7.org/fhir/us/qicore/StructureDefinition/qicore-claim"]},"status":"active","type":{"coding":[{"system":"http://terminology.hl7.org/CodeSystem/claim-type","code":"institutional"}]},"use":"claim","patient":{"reference":"Patient/ee13a2d8-61d9-4d2f-8f13-1423bd271950"},"created":"2027-05-01","provider":{"reference":"Practitioner/b21b9ae2-73a9-4fca-81cf-9ddfe26093cf"},"priority":{"coding":[{"system":"http://terminology.hl7.org/CodeSystem/processpriority","code":"normal"}]},"diagnosis":[{"sequence":1,"diagnosisReference":{"reference":"Condition/bdb5e34b-9bcd-4587-afc2-b7992f8395d7"},"type":[{"coding":[{"system":"http://terminology.hl7.org/CodeSystem/ex-diagnosistype","code":"principal"}]}]}],"insurance":[{"sequence":1,"focal":true,"coverage":{"reference":"Coverage/a8d8c9a6-45c4-4782-8c9d-72415a0f1c2b"}}],"item":[{"sequence":1,"diagnosisSequence":[1],"productOrService":{"coding":[{"system":"http://terminology.hl7.org/CodeSystem/ex-USCLS","code":"99555"}]},"encounter":[{"reference":"Encounter/bf4c4c13-8b9f-463a-ac9c-dde080fdd139"}]}]},"request":{"method":"PUT","url":"Claim/ClaimBehavior-NotSubsAbuse"}},{"fullUrl":"Encounter/f20f50df-5925-44cb-8ac7-3f434c72ebb5","resource":{"resourceType":"Encounter","id":"f20f50df-5925-44cb-8ac7-3f434c72ebb5","meta":{"profile":["http://hl7.org/fhir/us/qicore/StructureDefinition/qicore-encounter"]},"status":"finished","class":{"system":"http://terminology.hl7.org/CodeSystem/v3-ActCode","code":"IMP","display":"inpatient"},"type":[{"coding":[{"system":"http://snomed.info/sct","version":"2023-09","code":"8715000","display":"Hospital admission, elective (procedure)","userSelected":true}]}],"subject":{"reference":"Patient/ee13a2d8-61d9-4d2f-8f13-1423bd271950"},"period":{"start":"2027-05-01T23:59:00.000+00:00","end":"2027-05-03T08:00:00.000+00:00"}},"request":{"method":"PUT","url":"Encounter/f20f50df-5925-44cb-8ac7-3f434c72ebb5"}},{"fullUrl":"Patient/ee13a2d8-61d9-4d2f-8f13-1423bd271950","resource":{"resourceType":"Patient","id":"ee13a2d8-61d9-4d2f-8f13-1423bd271950","meta":{"profile":["http://hl7.org/fhir/us/qicore/StructureDefinition/qicore-patient"]},"extension":[{"url":"http://hl7.org/fhir/us/core/StructureDefinition/us-core-race","extension":[{"url":"ombCategory","valueCoding":{"system":"urn:oid:2.16.840.1.113883.6.238","code":"1002-5","display":"American Indian or Alaska Native","userSelected":true}},{"url":"text","valueString":"American Indian or Alaska Native"}]},{"url":"http://hl7.org/fhir/us/core/StructureDefinition/us-core-ethnicity","extension":[{"url":"ombCategory","valueCoding":{"system":"urn:oid:2.16.840.1.113883.6.238","code":"2135-2","display":"Hispanic or Latino","userSelected":true}},{"url":"text","valueString":"Hispanic or Latino"}]},{"url":"http://hl7.org/fhir/us/core/StructureDefinition/us-core-sex","valueCode":"248153007"}],"identifier":[{"type":{"coding":[{"system":"http://terminology.hl7.org/CodeSystem/v2-0203","code":"MR"}]},"system":"https://bonnie-fhir.healthit.gov/","value":"661476b015ed5841a5547ebf"}],"name":[{"family":"DENOMFail","given":["StatusRevoked"]}],"gender":"male","birthDate":"2008-01-01"},"request":{"method":"PUT","url":"Patient/ee13a2d8-61d9-4d2f-8f13-1423bd271950"}}]}