{"resourceType":"Bundle","id":"tests-ae6b86ec-3d29-4e35-88dc-57f997814f47-bundle","type":"transaction","entry":[{"resource":{"resourceType":"Patient","id":"ae6b86ec-3d29-4e35-88dc-57f997814f47","meta":{"profile":["http://hl7.org/fhir/us/qicore/StructureDefinition/qicore-patient"]},"extension":[{"url":"http://hl7.org/fhir/us/core/StructureDefinition/us-core-race","extension":[{"url":"ombCategory","valueCoding":{"system":"urn:oid:2.16.840.1.113883.6.238","code":"2076-8","display":"Native Hawaiian or Other Pacific Islander","userSelected":true}},{"url":"text","valueString":"Native Hawaiian or Other Pacific Islander"}]},{"url":"http://hl7.org/fhir/us/core/StructureDefinition/us-core-ethnicity","extension":[{"url":"ombCategory","valueCoding":{"system":"urn:oid:2.16.840.1.113883.6.238","code":"2186-5","display":"Not Hispanic or Latino","userSelected":true}},{"url":"text","valueString":"Not Hispanic or Latino"}]},{"url":"http://hl7.org/fhir/us/core/StructureDefinition/us-core-sex","valueCode":"248153007"}],"identifier":[{"type":{"coding":[{"system":"http://terminology.hl7.org/CodeSystem/v2-0203","code":"MR"}]},"system":"https://bonnie-fhir.healthit.gov/","value":"661579e3db207d74c03b8a54"}],"name":[{"family":"NUMERStrat4Pass","given":["EncOverlapsEndOfMP"]}],"gender":"female","birthDate":"2008-12-31"},"request":{"method":"PUT","url":"Patient/ae6b86ec-3d29-4e35-88dc-57f997814f47"}},{"resource":{"resourceType":"Bundle","id":"661579e3db207d74c03b8a54","type":"transaction","entry":[{"fullUrl":"https://madie.cms.gov/Patient/ae6b86ec-3d29-4e35-88dc-57f997814f47","resource":{"resourceType":"Patient","id":"ae6b86ec-3d29-4e35-88dc-57f997814f47","meta":{"profile":["http://hl7.org/fhir/us/qicore/StructureDefinition/qicore-patient"]},"extension":[{"url":"http://hl7.org/fhir/us/core/StructureDefinition/us-core-race","extension":[{"url":"ombCategory","valueCoding":{"system":"urn:oid:2.16.840.1.113883.6.238","code":"2076-8","display":"Native Hawaiian or Other Pacific Islander","userSelected":true}},{"url":"text","valueString":"Native Hawaiian or Other Pacific Islander"}]},{"url":"http://hl7.org/fhir/us/core/StructureDefinition/us-core-ethnicity","extension":[{"url":"ombCategory","valueCoding":{"system":"urn:oid:2.16.840.1.113883.6.238","code":"2186-5","display":"Not Hispanic or Latino","userSelected":true}},{"url":"text","valueString":"Not Hispanic or Latino"}]},{"url":"http://hl7.org/fhir/us/core/StructureDefinition/us-core-sex","valueCode":"248153007"}],"identifier":[{"type":{"coding":[{"system":"http://terminology.hl7.org/CodeSystem/v2-0203","code":"MR"}]},"system":"https://bonnie-fhir.healthit.gov/","value":"661579e3db207d74c03b8a54"}],"name":[{"family":"NUMERStrat4Pass","given":["EncOverlapsEndOfMP"]}],"gender":"female","birthDate":"2008-12-31"},"request":{"method":"PUT","url":"Patient/ae6b86ec-3d29-4e35-88dc-57f997814f47"}},{"fullUrl":"https://madie.cms.gov/Encounter/6019dd32-ce6e-4d70-86bd-b44bfc68a5e2","resource":{"resourceType":"Encounter","id":"6019dd32-ce6e-4d70-86bd-b44bfc68a5e2","meta":{"profile":["http://hl7.org/fhir/us/qicore/StructureDefinition/qicore-encounter"]},"status":"finished","class":{"system":"http://terminology.hl7.org/CodeSystem/v3-ActCode","code":"EMER","display":"emergency"},"type":[{"coding":[{"system":"http://snomed.info/sct","version":"2023-09","code":"4525004","display":"Emergency department patient visit (procedure)","userSelected":true}]}],"subject":{"reference":"Patient/ae6b86ec-3d29-4e35-88dc-57f997814f47"},"period":{"start":"2027-12-31T08:00:00.000+00:00","end":"2028-01-01T12:15:00.000+00:00"},"diagnosis":[{"condition":{"reference":"Condition/2eeeeb56-82ec-4e67-a473-61f614143286"},"use":{"coding":[{"system":"http://terminology.hl7.org/CodeSystem/diagnosis-role","code":"billing"}]},"rank":1}],"location":[{"location":{"reference":"Location/03cc738b-eea2-4d60-8ae5-b4bc8edc5637"},"period":{"start":"2027-01-01T07:45:00.000+00:00","end":"2027-01-01T12:15:00.000+00:00"}},{"location":{"reference":"Location/65615f65-d5ab-4f29-a9c5-dfcbf2824e82"},"period":{"start":"2027-01-01T09:01:00.000+00:00","end":"2027-01-01T12:15:00.000+00:00"}}]},"request":{"method":"PUT","url":"Encounter/6019dd32-ce6e-4d70-86bd-b44bfc68a5e2"}},{"fullUrl":"https://madie.cms.gov/Location/03cc738b-eea2-4d60-8ae5-b4bc8edc5637","resource":{"resourceType":"Location","id":"03cc738b-eea2-4d60-8ae5-b4bc8edc5637","meta":{"profile":["http://hl7.org/fhir/us/qicore/StructureDefinition/qicore-location"]},"identifier":[{"use":"usual","system":"http://exampleoflocation.com","value":"B1-S.F1"}],"name":"Medical Surgical East, first floor","type":[{"coding":[{"system":"https://www.cdc.gov/nhsn/cdaportal/terminology/codesystem/hsloc.html","version":"2022","code":"1108-0","display":"Emergency Department","userSelected":true}]}]},"request":{"method":"PUT","url":"Location/03cc738b-eea2-4d60-8ae5-b4bc8edc5637"}},{"fullUrl":"https://madie.cms.gov/Location/65615f65-d5ab-4f29-a9c5-dfcbf2824e82","resource":{"resourceType":"Location","id":"65615f65-d5ab-4f29-a9c5-dfcbf2824e82","meta":{"profile":["http://hl7.org/fhir/us/qicore/StructureDefinition/qicore-location"]},"identifier":[{"use":"usual","system":"http://exampleoflocation.com","value":"B1-S.F2"}],"name":"Medical Surgical East, first floor","type":[{"coding":[{"system":"https://www.cdc.gov/nhsn/cdaportal/terminology/codesystem/hsloc.html","version":"2022","code":"1209-6","display":"Treatment Room","userSelected":true}]}]},"request":{"method":"PUT","url":"Location/65615f65-d5ab-4f29-a9c5-dfcbf2824e82"}},{"fullUrl":"https://madie.cms.gov/Condition/2eeeeb56-82ec-4e67-a473-61f614143286","resource":{"resourceType":"Condition","id":"2eeeeb56-82ec-4e67-a473-61f614143286","meta":{"profile":["http://hl7.org/fhir/us/qicore/StructureDefinition/qicore-condition-encounter-diagnosis"]},"category":[{"coding":[{"system":"http://terminology.hl7.org/CodeSystem/condition-category","code":"encounter-diagnosis","display":"Encounter Diagnosis"}]}],"code":{"coding":[{"system":"http://snomed.info/sct","version":"2023-09","code":"10349009","display":"Multi-infarct dementia with delirium (disorder)","userSelected":true}]},"subject":{"reference":"Patient/ae6b86ec-3d29-4e35-88dc-57f997814f47"},"recordedDate":"2027-04-09T08:00:00.000+00:00"},"request":{"method":"PUT","url":"Condition/2eeeeb56-82ec-4e67-a473-61f614143286"}},{"fullUrl":"https://madie.cms.gov/Location/d4ec692a-e792-48df-82b9-0c5f677f6c82","resource":{"resourceType":"Location","id":"d4ec692a-e792-48df-82b9-0c5f677f6c82","meta":{"profile":["http://hl7.org/fhir/us/qicore/StructureDefinition/qicore-location"]},"identifier":[{"use":"usual","system":"http://exampleoflocation.com","value":"B1-S.F2"}],"name":"Medical Surgical East, first floor","type":[{"coding":[{"system":"https://www.cdc.gov/nhsn/cdaportal/terminology/codesystem/hsloc.html","version":"2022","code":"1108-0","display":"Emergency Department","userSelected":true}]}]},"request":{"method":"PUT","url":"Location/d4ec692a-e792-48df-82b9-0c5f677f6c82"}},{"fullUrl":"https://madie.cms.gov/Location/05783b86-db5e-4746-b8f8-69b527241216","resource":{"resourceType":"Location","id":"05783b86-db5e-4746-b8f8-69b527241216","meta":{"profile":["http://hl7.org/fhir/us/qicore/StructureDefinition/qicore-location"]},"identifier":[{"use":"usual","system":"http://exampleoflocation.com","value":"B1-S.F2"}],"name":"Medical Surgical East, first floor","type":[{"coding":[{"system":"https://www.cdc.gov/nhsn/cdaportal/terminology/codesystem/hsloc.html","version":"2022","code":"1209-6","display":"Treatment Room"}]}]},"request":{"method":"PUT","url":"Location/05783b86-db5e-4746-b8f8-69b527241216"}},{"fullUrl":"https://madie.cms.gov/claim/ClaimBehavior-NotSubsAbuse","resource":{"resourceType":"Claim","id":"ClaimBehavior-NotSubsAbuse","meta":{"profile":["http://hl7.org/fhir/us/qicore/StructureDefinition/qicore-claim"]},"status":"active","type":{"coding":[{"system":"http://terminology.hl7.org/CodeSystem/claim-type","code":"institutional"}]},"use":"claim","patient":{"reference":"Patient/ae6b86ec-3d29-4e35-88dc-57f997814f47"},"created":"2027-01-01","provider":{"reference":"Practitioner/be9dea43-e44f-4190-ae72-c9b63d2fc28e"},"priority":{"coding":[{"system":"http://terminology.hl7.org/CodeSystem/processpriority","code":"normal"}]},"diagnosis":[{"sequence":1,"diagnosisReference":{"reference":"Condition/2eeeeb56-82ec-4e67-a473-61f614143286"},"type":[{"coding":[{"system":"http://terminology.hl7.org/CodeSystem/ex-diagnosistype","code":"principal"}]}]}],"insurance":[{"sequence":1,"focal":true,"coverage":{"reference":"Coverage/a538109b-f334-44f5-870a-22fa19a29238"}}],"item":[{"sequence":1,"diagnosisSequence":[1],"productOrService":{"coding":[{"system":"http://terminology.hl7.org/CodeSystem/ex-USCLS","code":"99555"}]},"encounter":[{"reference":"Encounter/6019dd32-ce6e-4d70-86bd-b44bfc68a5e2"}]}]},"request":{"method":"PUT","url":"Claim/ClaimBehavior-NotSubsAbuse"}},{"fullUrl":"https://madie.cms.gov/Coverage/a538109b-f334-44f5-870a-22fa19a29238","resource":{"resourceType":"Coverage","id":"a538109b-f334-44f5-870a-22fa19a29238","meta":{"profile":["http://hl7.org/fhir/us/qicore/StructureDefinition/qicore-coverage"]},"identifier":[{"type":{"coding":[{"system":"http://terminology.hl7.org/CodeSystem/v2-0203","code":"MB"}]}}],"status":"active","beneficiary":{"reference":"Patient/ae6b86ec-3d29-4e35-88dc-57f997814f47"},"relationship":{"coding":[{"system":"http://terminology.hl7.org/CodeSystem/subscriber-relationship","code":"self"}]},"payor":[{"reference":"Organization/e4d962e8-01fb-4cdc-bcff-d5fe2ff4fd4a"}]},"request":{"method":"PUT","url":"Coverage/a538109b-f334-44f5-870a-22fa19a29238"}},{"fullUrl":"https://madie.cms.gov/Organization/e4d962e8-01fb-4cdc-bcff-d5fe2ff4fd4a","resource":{"resourceType":"Organization","id":"e4d962e8-01fb-4cdc-bcff-d5fe2ff4fd4a","meta":{"profile":["http://hl7.org/fhir/us/qicore/StructureDefinition/qicore-organization"]},"identifier":[{"use":"temp","system":"urn:oid:2.16.840.1.113883.4.4","value":"21-3259825"}],"active":true,"type":[{"coding":[{"system":"http://terminology.hl7.org/CodeSystem/organization-type","code":"pay","display":"Payer"}]}],"name":"Blue Cross Blue Shield of Texas","telecom":[{"system":"phone","value":"(+1) 972-766-6900"}],"address":[{"use":"billing","type":"postal","line":["P.O. Box 660044"],"city":"Dallas","state":"TX","postalCode":"75266-0044","country":"USA"}]},"request":{"method":"PUT","url":"Organization/e4d962e8-01fb-4cdc-bcff-d5fe2ff4fd4a"}},{"fullUrl":"https://madie.cms.gov/Practitioner/be9dea43-e44f-4190-ae72-c9b63d2fc28e","resource":{"resourceType":"Practitioner","id":"be9dea43-e44f-4190-ae72-c9b63d2fc28e","meta":{"profile":["http://hl7.org/fhir/us/qicore/StructureDefinition/qicore-practitioner"]},"identifier":[{"system":"http://hl7.org/fhir/sid/us-npi","value":"9999999896"}],"name":[{"family":"Evil","prefix":["Dr"]}]},"request":{"method":"PUT","url":"Practitioner/be9dea43-e44f-4190-ae72-c9b63d2fc28e"}},{"fullUrl":"https://madie.cms.gov/MeasureReport/bd6fff04-e96f-4c77-a2ca-a68c01da5f8b","resource":{"resourceType":"MeasureReport","id":"bd6fff04-e96f-4c77-a2ca-a68c01da5f8b","meta":{"profile":["http://hl7.org/fhir/us/cqfmeasures/StructureDefinition/test-case-cqfm"]},"contained":[{"resourceType":"Parameters","id":"c17b8a33-e608-4ccb-abec-c2a3e3abd911-parameters","parameter":[{"name":"subject","valueString":"ae6b86ec-3d29-4e35-88dc-57f997814f47"}]}],"extension":[{"url":"http://hl7.org/fhir/StructureDefinition/cqf-inputParameters","valueReference":{"reference":"#c17b8a33-e608-4ccb-abec-c2a3e3abd911-parameters"}},{"url":"http://hl7.org/fhir/us/cqfmeasures/StructureDefinition/cqfm-testCaseDescription","valueMarkdown":"Enc starts last day of MP but ends first day of following year. "}],"modifierExtension":[{"url":"http://hl7.org/fhir/us/cqfmeasures/StructureDefinition/cqfm-isTestCase","valueBoolean":true}],"status":"complete","type":"individual","measure":"https://madie.cms.gov/Measure/CMS1244FHIRECATHOQR","period":{"start":"2027-01-01","end":"2027-12-31"},"group":[{"id":"Group_1","population":[{"id":"InitialPopulation_1","code":{"coding":[{"system":"http://terminology.hl7.org/CodeSystem/measure-population","code":"initial-population","display":"Initial Population"}]},"count":0},{"id":"Denominator_1","code":{"coding":[{"system":"http://terminology.hl7.org/CodeSystem/measure-population","code":"denominator","display":"Denominator"}]},"count":0},{"id":"Numerator_1","code":{"coding":[{"system":"http://terminology.hl7.org/CodeSystem/measure-population","code":"numerator","display":"Numerator"}]},"count":0}],"measureScore":{"value":0.0},"stratifier":[{"id":"Stratification_1_1","code":[{"text":"Strata-1"}],"stratum":[{"value":{"text":"Strata-1"},"population":[{"id":"InitialPopulation_1","code":{"coding":[{"system":"http://terminology.hl7.org/CodeSystem/measure-population","code":"initial-population","display":"Initial Population"}]},"count":0},{"id":"Denominator_1","code":{"coding":[{"system":"http://terminology.hl7.org/CodeSystem/measure-population","code":"denominator","display":"Denominator"}]},"count":0},{"id":"Numerator_1","code":{"coding":[{"system":"http://terminology.hl7.org/CodeSystem/measure-population","code":"numerator","display":"Numerator"}]},"count":0}]}]},{"id":"Stratification_1_2","code":[{"text":"Strata-2"}],"stratum":[{"value":{"text":"Strata-2"},"population":[{"id":"InitialPopulation_1","code":{"coding":[{"system":"http://terminology.hl7.org/CodeSystem/measure-population","code":"initial-population","display":"Initial Population"}]},"count":0},{"id":"Denominator_1","code":{"coding":[{"system":"http://terminology.hl7.org/CodeSystem/measure-population","code":"denominator","display":"Denominator"}]},"count":0},{"id":"Numerator_1","code":{"coding":[{"system":"http://terminology.hl7.org/CodeSystem/measure-population","code":"numerator","display":"Numerator"}]},"count":0}]}]},{"id":"Stratification_1_3","code":[{"text":"Strata-3"}],"stratum":[{"value":{"text":"Strata-3"},"population":[{"id":"InitialPopulation_1","code":{"coding":[{"system":"http://terminology.hl7.org/CodeSystem/measure-population","code":"initial-population","display":"Initial Population"}]},"count":0},{"id":"Denominator_1","code":{"coding":[{"system":"http://terminology.hl7.org/CodeSystem/measure-population","code":"denominator","display":"Denominator"}]},"count":0},{"id":"Numerator_1","code":{"coding":[{"system":"http://terminology.hl7.org/CodeSystem/measure-population","code":"numerator","display":"Numerator"}]},"count":0}]}]},{"id":"Stratification_1_4","code":[{"text":"Strata-4"}],"stratum":[{"value":{"text":"Strata-4"},"population":[{"id":"InitialPopulation_1","code":{"coding":[{"system":"http://terminology.hl7.org/CodeSystem/measure-population","code":"initial-population","display":"Initial Population"}]},"count":0},{"id":"Denominator_1","code":{"coding":[{"system":"http://terminology.hl7.org/CodeSystem/measure-population","code":"denominator","display":"Denominator"}]},"count":0},{"id":"Numerator_1","code":{"coding":[{"system":"http://terminology.hl7.org/CodeSystem/measure-population","code":"numerator","display":"Numerator"}]},"count":0}]}]}]}],"evaluatedResource":[{"reference":"Patient/ae6b86ec-3d29-4e35-88dc-57f997814f47"},{"reference":"Encounter/6019dd32-ce6e-4d70-86bd-b44bfc68a5e2"},{"reference":"Location/03cc738b-eea2-4d60-8ae5-b4bc8edc5637"},{"reference":"Location/65615f65-d5ab-4f29-a9c5-dfcbf2824e82"},{"reference":"Condition/2eeeeb56-82ec-4e67-a473-61f614143286"},{"reference":"Location/d4ec692a-e792-48df-82b9-0c5f677f6c82"},{"reference":"Location/05783b86-db5e-4746-b8f8-69b527241216"},{"reference":"Claim/ClaimBehavior-NotSubsAbuse"},{"reference":"Coverage/a538109b-f334-44f5-870a-22fa19a29238"},{"reference":"Organization/e4d962e8-01fb-4cdc-bcff-d5fe2ff4fd4a"},{"reference":"Practitioner/be9dea43-e44f-4190-ae72-c9b63d2fc28e"}]},"request":{"method":"PUT","url":"MeasureReport/bd6fff04-e96f-4c77-a2ca-a68c01da5f8b"}}]},"request":{"method":"PUT","url":"Bundle/661579e3db207d74c03b8a54"}},{"resource":{"resourceType":"Location","id":"03cc738b-eea2-4d60-8ae5-b4bc8edc5637","meta":{"profile":["http://hl7.org/fhir/us/qicore/StructureDefinition/qicore-location"]},"identifier":[{"use":"usual","system":"http://exampleoflocation.com","value":"B1-S.F1"}],"name":"Medical Surgical East, first floor","type":[{"coding":[{"system":"https://www.cdc.gov/nhsn/cdaportal/terminology/codesystem/hsloc.html","version":"2022","code":"1108-0","display":"Emergency Department","userSelected":true}]}]},"request":{"method":"PUT","url":"Location/03cc738b-eea2-4d60-8ae5-b4bc8edc5637"}},{"resource":{"resourceType":"Coverage","id":"a538109b-f334-44f5-870a-22fa19a29238","meta":{"profile":["http://hl7.org/fhir/us/qicore/StructureDefinition/qicore-coverage"]},"identifier":[{"type":{"coding":[{"system":"http://terminology.hl7.org/CodeSystem/v2-0203","code":"MB"}]}}],"status":"active","beneficiary":{"reference":"Patient/ae6b86ec-3d29-4e35-88dc-57f997814f47"},"relationship":{"coding":[{"system":"http://terminology.hl7.org/CodeSystem/subscriber-relationship","code":"self"}]},"payor":[{"reference":"Organization/e4d962e8-01fb-4cdc-bcff-d5fe2ff4fd4a"}]},"request":{"method":"PUT","url":"Coverage/a538109b-f334-44f5-870a-22fa19a29238"}},{"resource":{"resourceType":"Condition","id":"2eeeeb56-82ec-4e67-a473-61f614143286","meta":{"profile":["http://hl7.org/fhir/us/qicore/StructureDefinition/qicore-condition-encounter-diagnosis"]},"category":[{"coding":[{"system":"http://terminology.hl7.org/CodeSystem/condition-category","code":"encounter-diagnosis","display":"Encounter Diagnosis"}]}],"code":{"coding":[{"system":"http://snomed.info/sct","version":"2023-09","code":"10349009","display":"Multi-infarct dementia with delirium (disorder)","userSelected":true}]},"subject":{"reference":"Patient/ae6b86ec-3d29-4e35-88dc-57f997814f47"},"recordedDate":"2027-04-09T08:00:00.000+00:00"},"request":{"method":"PUT","url":"Condition/2eeeeb56-82ec-4e67-a473-61f614143286"}},{"resource":{"resourceType":"Location","id":"05783b86-db5e-4746-b8f8-69b527241216","meta":{"profile":["http://hl7.org/fhir/us/qicore/StructureDefinition/qicore-location"]},"identifier":[{"use":"usual","system":"http://exampleoflocation.com","value":"B1-S.F2"}],"name":"Medical Surgical East, first floor","type":[{"coding":[{"system":"https://www.cdc.gov/nhsn/cdaportal/terminology/codesystem/hsloc.html","version":"2022","code":"1209-6","display":"Treatment Room"}]}]},"request":{"method":"PUT","url":"Location/05783b86-db5e-4746-b8f8-69b527241216"}},{"resource":{"resourceType":"Practitioner","id":"be9dea43-e44f-4190-ae72-c9b63d2fc28e","meta":{"profile":["http://hl7.org/fhir/us/qicore/StructureDefinition/qicore-practitioner"]},"identifier":[{"system":"http://hl7.org/fhir/sid/us-npi","value":"9999999896"}],"name":[{"family":"Evil","prefix":["Dr"]}]},"request":{"method":"PUT","url":"Practitioner/be9dea43-e44f-4190-ae72-c9b63d2fc28e"}},{"resource":{"resourceType":"Organization","id":"e4d962e8-01fb-4cdc-bcff-d5fe2ff4fd4a","meta":{"profile":["http://hl7.org/fhir/us/qicore/StructureDefinition/qicore-organization"]},"identifier":[{"use":"temp","system":"urn:oid:2.16.840.1.113883.4.4","value":"21-3259825"}],"active":true,"type":[{"coding":[{"system":"http://terminology.hl7.org/CodeSystem/organization-type","code":"pay","display":"Payer"}]}],"name":"Blue Cross Blue Shield of Texas","telecom":[{"system":"phone","value":"(+1) 972-766-6900"}],"address":[{"use":"billing","type":"postal","line":["P.O. Box 660044"],"city":"Dallas","state":"TX","postalCode":"75266-0044","country":"USA"}]},"request":{"method":"PUT","url":"Organization/e4d962e8-01fb-4cdc-bcff-d5fe2ff4fd4a"}},{"resource":{"resourceType":"MeasureReport","id":"bd6fff04-e96f-4c77-a2ca-a68c01da5f8b","meta":{"profile":["http://hl7.org/fhir/us/cqfmeasures/StructureDefinition/test-case-cqfm"]},"contained":[{"resourceType":"Parameters","id":"c17b8a33-e608-4ccb-abec-c2a3e3abd911-parameters","parameter":[{"name":"subject","valueString":"ae6b86ec-3d29-4e35-88dc-57f997814f47"}]}],"extension":[{"url":"http://hl7.org/fhir/StructureDefinition/cqf-inputParameters","valueReference":{"reference":"#c17b8a33-e608-4ccb-abec-c2a3e3abd911-parameters"}},{"url":"http://hl7.org/fhir/us/cqfmeasures/StructureDefinition/cqfm-testCaseDescription","valueMarkdown":"Enc starts last day of MP but ends first day of following year. "}],"modifierExtension":[{"url":"http://hl7.org/fhir/us/cqfmeasures/StructureDefinition/cqfm-isTestCase","valueBoolean":true}],"status":"complete","type":"individual","measure":"https://madie.cms.gov/Measure/CMS1244FHIRECATHOQR","period":{"start":"2027-01-01","end":"2027-12-31"},"group":[{"id":"Group_1","population":[{"id":"InitialPopulation_1","code":{"coding":[{"system":"http://terminology.hl7.org/CodeSystem/measure-population","code":"initial-population","display":"Initial Population"}]},"count":0},{"id":"Denominator_1","code":{"coding":[{"system":"http://terminology.hl7.org/CodeSystem/measure-population","code":"denominator","display":"Denominator"}]},"count":0},{"id":"Numerator_1","code":{"coding":[{"system":"http://terminology.hl7.org/CodeSystem/measure-population","code":"numerator","display":"Numerator"}]},"count":0}],"measureScore":{"value":0.0},"stratifier":[{"id":"Stratification_1_1","code":[{"text":"Strata-1"}],"stratum":[{"value":{"text":"Strata-1"},"population":[{"id":"InitialPopulation_1","code":{"coding":[{"system":"http://terminology.hl7.org/CodeSystem/measure-population","code":"initial-population","display":"Initial Population"}]},"count":0},{"id":"Denominator_1","code":{"coding":[{"system":"http://terminology.hl7.org/CodeSystem/measure-population","code":"denominator","display":"Denominator"}]},"count":0},{"id":"Numerator_1","code":{"coding":[{"system":"http://terminology.hl7.org/CodeSystem/measure-population","code":"numerator","display":"Numerator"}]},"count":0}]}]},{"id":"Stratification_1_2","code":[{"text":"Strata-2"}],"stratum":[{"value":{"text":"Strata-2"},"population":[{"id":"InitialPopulation_1","code":{"coding":[{"system":"http://terminology.hl7.org/CodeSystem/measure-population","code":"initial-population","display":"Initial Population"}]},"count":0},{"id":"Denominator_1","code":{"coding":[{"system":"http://terminology.hl7.org/CodeSystem/measure-population","code":"denominator","display":"Denominator"}]},"count":0},{"id":"Numerator_1","code":{"coding":[{"system":"http://terminology.hl7.org/CodeSystem/measure-population","code":"numerator","display":"Numerator"}]},"count":0}]}]},{"id":"Stratification_1_3","code":[{"text":"Strata-3"}],"stratum":[{"value":{"text":"Strata-3"},"population":[{"id":"InitialPopulation_1","code":{"coding":[{"system":"http://terminology.hl7.org/CodeSystem/measure-population","code":"initial-population","display":"Initial Population"}]},"count":0},{"id":"Denominator_1","code":{"coding":[{"system":"http://terminology.hl7.org/CodeSystem/measure-population","code":"denominator","display":"Denominator"}]},"count":0},{"id":"Numerator_1","code":{"coding":[{"system":"http://terminology.hl7.org/CodeSystem/measure-population","code":"numerator","display":"Numerator"}]},"count":0}]}]},{"id":"Stratification_1_4","code":[{"text":"Strata-4"}],"stratum":[{"value":{"text":"Strata-4"},"population":[{"id":"InitialPopulation_1","code":{"coding":[{"system":"http://terminology.hl7.org/CodeSystem/measure-population","code":"initial-population","display":"Initial Population"}]},"count":0},{"id":"Denominator_1","code":{"coding":[{"system":"http://terminology.hl7.org/CodeSystem/measure-population","code":"denominator","display":"Denominator"}]},"count":0},{"id":"Numerator_1","code":{"coding":[{"system":"http://terminology.hl7.org/CodeSystem/measure-population","code":"numerator","display":"Numerator"}]},"count":0}]}]}]}],"evaluatedResource":[{"reference":"Patient/ae6b86ec-3d29-4e35-88dc-57f997814f47"},{"reference":"Encounter/6019dd32-ce6e-4d70-86bd-b44bfc68a5e2"},{"reference":"Location/03cc738b-eea2-4d60-8ae5-b4bc8edc5637"},{"reference":"Location/65615f65-d5ab-4f29-a9c5-dfcbf2824e82"},{"reference":"Condition/2eeeeb56-82ec-4e67-a473-61f614143286"},{"reference":"Location/d4ec692a-e792-48df-82b9-0c5f677f6c82"},{"reference":"Location/05783b86-db5e-4746-b8f8-69b527241216"},{"reference":"Claim/ClaimBehavior-NotSubsAbuse"},{"reference":"Coverage/a538109b-f334-44f5-870a-22fa19a29238"},{"reference":"Organization/e4d962e8-01fb-4cdc-bcff-d5fe2ff4fd4a"},{"reference":"Practitioner/be9dea43-e44f-4190-ae72-c9b63d2fc28e"}]},"request":{"method":"PUT","url":"MeasureReport/bd6fff04-e96f-4c77-a2ca-a68c01da5f8b"}},{"resource":{"resourceType":"Location","id":"65615f65-d5ab-4f29-a9c5-dfcbf2824e82","meta":{"profile":["http://hl7.org/fhir/us/qicore/StructureDefinition/qicore-location"]},"identifier":[{"use":"usual","system":"http://exampleoflocation.com","value":"B1-S.F2"}],"name":"Medical Surgical East, first floor","type":[{"coding":[{"system":"https://www.cdc.gov/nhsn/cdaportal/terminology/codesystem/hsloc.html","version":"2022","code":"1209-6","display":"Treatment Room","userSelected":true}]}]},"request":{"method":"PUT","url":"Location/65615f65-d5ab-4f29-a9c5-dfcbf2824e82"}},{"resource":{"resourceType":"Location","id":"d4ec692a-e792-48df-82b9-0c5f677f6c82","meta":{"profile":["http://hl7.org/fhir/us/qicore/StructureDefinition/qicore-location"]},"identifier":[{"use":"usual","system":"http://exampleoflocation.com","value":"B1-S.F2"}],"name":"Medical Surgical East, first floor","type":[{"coding":[{"system":"https://www.cdc.gov/nhsn/cdaportal/terminology/codesystem/hsloc.html","version":"2022","code":"1108-0","display":"Emergency Department","userSelected":true}]}]},"request":{"method":"PUT","url":"Location/d4ec692a-e792-48df-82b9-0c5f677f6c82"}},{"resource":{"resourceType":"Encounter","id":"6019dd32-ce6e-4d70-86bd-b44bfc68a5e2","meta":{"profile":["http://hl7.org/fhir/us/qicore/StructureDefinition/qicore-encounter"]},"status":"finished","class":{"system":"http://terminology.hl7.org/CodeSystem/v3-ActCode","code":"EMER","display":"emergency"},"type":[{"coding":[{"system":"http://snomed.info/sct","version":"2023-09","code":"4525004","display":"Emergency department patient visit (procedure)","userSelected":true}]}],"subject":{"reference":"Patient/ae6b86ec-3d29-4e35-88dc-57f997814f47"},"period":{"start":"2027-12-31T08:00:00.000+00:00","end":"2028-01-01T12:15:00.000+00:00"},"diagnosis":[{"condition":{"reference":"Condition/2eeeeb56-82ec-4e67-a473-61f614143286"},"use":{"coding":[{"system":"http://terminology.hl7.org/CodeSystem/diagnosis-role","code":"billing"}]},"rank":1}],"location":[{"location":{"reference":"Location/03cc738b-eea2-4d60-8ae5-b4bc8edc5637"},"period":{"start":"2027-01-01T07:45:00.000+00:00","end":"2027-01-01T12:15:00.000+00:00"}},{"location":{"reference":"Location/65615f65-d5ab-4f29-a9c5-dfcbf2824e82"},"period":{"start":"2027-01-01T09:01:00.000+00:00","end":"2027-01-01T12:15:00.000+00:00"}}]},"request":{"method":"PUT","url":"Encounter/6019dd32-ce6e-4d70-86bd-b44bfc68a5e2"}},{"resource":{"resourceType":"Claim","id":"ClaimBehavior-NotSubsAbuse","meta":{"profile":["http://hl7.org/fhir/us/qicore/StructureDefinition/qicore-claim"]},"status":"active","type":{"coding":[{"system":"http://terminology.hl7.org/CodeSystem/claim-type","code":"institutional"}]},"use":"claim","patient":{"reference":"Patient/ae6b86ec-3d29-4e35-88dc-57f997814f47"},"created":"2027-01-01","provider":{"reference":"Practitioner/be9dea43-e44f-4190-ae72-c9b63d2fc28e"},"priority":{"coding":[{"system":"http://terminology.hl7.org/CodeSystem/processpriority","code":"normal"}]},"diagnosis":[{"sequence":1,"diagnosisReference":{"reference":"Condition/2eeeeb56-82ec-4e67-a473-61f614143286"},"type":[{"coding":[{"system":"http://terminology.hl7.org/CodeSystem/ex-diagnosistype","code":"principal"}]}]}],"insurance":[{"sequence":1,"focal":true,"coverage":{"reference":"Coverage/a538109b-f334-44f5-870a-22fa19a29238"}}],"item":[{"sequence":1,"diagnosisSequence":[1],"productOrService":{"coding":[{"system":"http://terminology.hl7.org/CodeSystem/ex-USCLS","code":"99555"}]},"encounter":[{"reference":"Encounter/6019dd32-ce6e-4d70-86bd-b44bfc68a5e2"}]}]},"request":{"method":"PUT","url":"Claim/ClaimBehavior-NotSubsAbuse"}}]}