{"resourceType":"Bundle","id":"tests-c8b6fa9c-0072-45ab-90dc-0b8be521fae4-bundle","type":"transaction","entry":[{"resource":{"resourceType":"Encounter","id":"1f4d1882-a7b3-47ae-aa2a-3d012608f066","meta":{"profile":["http://hl7.org/fhir/us/qicore/StructureDefinition/qicore-encounter"]},"status":"finished","class":{"system":"http://terminology.hl7.org/CodeSystem/v3-ActCode","code":"EMER","display":"emergency"},"type":[{"coding":[{"system":"http://snomed.info/sct","version":"2023-09","code":"4525004","display":"Emergency department patient visit (procedure)","userSelected":true}]}],"subject":{"reference":"Patient/c8b6fa9c-0072-45ab-90dc-0b8be521fae4"},"period":{"start":"2027-05-01T00:00:00.000+00:00","end":"2027-05-01T06:00:00.000+00:00"},"diagnosis":[{"condition":{"reference":"Condition/behavioral-health-diagnosis-without-substance-use-disorders-9d16"},"use":{"coding":[{"system":"http://terminology.hl7.org/CodeSystem/diagnosis-role","code":"billing"}]},"rank":1}],"location":[{"location":{"reference":"Location/3370a976-cd3c-4b7d-b915-4bea66cbeb88"},"period":{"start":"2027-05-01T00:00:00.000+00:00","end":"2027-05-01T06:01:00.000+00:00"}}]},"request":{"method":"PUT","url":"Encounter/1f4d1882-a7b3-47ae-aa2a-3d012608f066"}},{"resource":{"resourceType":"Location","id":"3370a976-cd3c-4b7d-b915-4bea66cbeb88","meta":{"profile":["http://hl7.org/fhir/us/qicore/StructureDefinition/qicore-location"]},"identifier":[{"use":"usual","system":"http://exampleoflocation.com","value":"B1-S.F2"}],"name":"Local ED","type":[{"coding":[{"system":"https://www.cdc.gov/nhsn/cdaportal/terminology/codesystem/hsloc.html","version":"2022","code":"1108-0","display":"Emergency Department","userSelected":true}]}]},"request":{"method":"PUT","url":"Location/3370a976-cd3c-4b7d-b915-4bea66cbeb88"}},{"resource":{"resourceType":"Coverage","id":"db26d6fb-cf54-4adf-8d64-a1b82d6a87cf","meta":{"profile":["http://hl7.org/fhir/us/qicore/StructureDefinition/qicore-coverage"]},"identifier":[{"type":{"coding":[{"system":"http://terminology.hl7.org/CodeSystem/v2-0203","code":"MB"}]}}],"status":"active","beneficiary":{"reference":"Patient/c8b6fa9c-0072-45ab-90dc-0b8be521fae4"},"relationship":{"coding":[{"system":"http://terminology.hl7.org/CodeSystem/subscriber-relationship","code":"self"}]},"payor":[{"reference":"Organization/f370e339-4e20-4533-9446-e042d9b18f0c"}]},"request":{"method":"PUT","url":"Coverage/db26d6fb-cf54-4adf-8d64-a1b82d6a87cf"}},{"resource":{"resourceType":"Organization","id":"f370e339-4e20-4533-9446-e042d9b18f0c","meta":{"profile":["http://hl7.org/fhir/us/qicore/StructureDefinition/qicore-organization"]},"identifier":[{"use":"temp","system":"urn:oid:2.16.840.1.113883.4.4","value":"21-3259825"}],"active":true,"type":[{"coding":[{"system":"http://terminology.hl7.org/CodeSystem/organization-type","code":"pay","display":"Payer"}]}],"name":"Blue Cross Blue Shield of Texas","telecom":[{"system":"phone","value":"(+1) 972-766-6900"}],"address":[{"use":"billing","type":"postal","line":["P.O. Box 660044"],"city":"Dallas","state":"TX","postalCode":"75266-0044","country":"USA"}]},"request":{"method":"PUT","url":"Organization/f370e339-4e20-4533-9446-e042d9b18f0c"}},{"resource":{"resourceType":"Observation","id":"8ca5e9fe-c4d9-4a0b-8eb9-29c756e413cb","meta":{"profile":["http://hl7.org/fhir/us/qicore/StructureDefinition/qicore-simple-observation"]},"status":"final","category":[{"coding":[{"system":"http://terminology.hl7.org/CodeSystem/observation-category","code":"survey","display":"Survey"}]}],"code":{"coding":[{"system":"http://loinc.org","version":"2.76","code":"28568-4","display":"Physician Emergency department Note","userSelected":true}]},"subject":{"reference":"Patient/c8b6fa9c-0072-45ab-90dc-0b8be521fae4"},"effectiveDateTime":"2027-05-01T01:00:00.000+00:00","valueCodeableConcept":{"coding":[{"system":"http://snomed.info/sct","code":"434081000124108","display":"Patient requires hospitalization (finding)","userSelected":true}]}},"request":{"method":"PUT","url":"Observation/8ca5e9fe-c4d9-4a0b-8eb9-29c756e413cb"}},{"resource":{"resourceType":"Condition","id":"75dd8cd4-b9b6-4257-8b1c-bd13a5bc13af","meta":{"profile":["http://hl7.org/fhir/us/qicore/StructureDefinition/qicore-condition-encounter-diagnosis"]},"category":[{"coding":[{"system":"http://terminology.hl7.org/CodeSystem/condition-category","code":"encounter-diagnosis","display":"Encounter Diagnosis"}]}],"code":{"coding":[{"system":"http://snomed.info/sct","version":"2023-09","code":"10674711000119105","display":"Acute severe exacerbation of asthma co-occurrent with allergic rhinitis (disorder)","userSelected":true}]},"subject":{"reference":"Patient/c8b6fa9c-0072-45ab-90dc-0b8be521fae4"},"recordedDate":"2026-04-18T08:00:00.000+00:00"},"request":{"method":"PUT","url":"Condition/75dd8cd4-b9b6-4257-8b1c-bd13a5bc13af"}},{"resource":{"resourceType":"MeasureReport","id":"637fd3e4-c733-4c76-b870-fa42a89c32ee","meta":{"profile":["http://hl7.org/fhir/us/cqfmeasures/StructureDefinition/test-case-cqfm"]},"contained":[{"resourceType":"Parameters","id":"e59039ce-0125-4696-91c6-f8465b57b5ce-parameters","parameter":[{"name":"subject","valueString":"c8b6fa9c-0072-45ab-90dc-0b8be521fae4"}]}],"extension":[{"url":"http://hl7.org/fhir/StructureDefinition/cqf-inputParameters","valueReference":{"reference":"#e59039ce-0125-4696-91c6-f8465b57b5ce-parameters"}},{"url":"http://hl7.org/fhir/us/cqfmeasures/StructureDefinition/cqfm-testCaseDescription","valueMarkdown":"Adult, Enc 1st day of MP, asthma, arrived at midnight of 01/01, 241 minutes decision to admit with simple observation and departure"}],"modifierExtension":[{"url":"http://hl7.org/fhir/us/cqfmeasures/StructureDefinition/cqfm-isTestCase","valueBoolean":true}],"status":"complete","type":"individual","measure":"https://madie.cms.gov/Measure/CMS1244FHIRECATHOQR","period":{"start":"2027-01-01","end":"2027-12-31"},"group":[{"id":"Group_1","population":[{"id":"InitialPopulation_1","code":{"coding":[{"system":"http://terminology.hl7.org/CodeSystem/measure-population","code":"initial-population","display":"Initial Population"}]},"count":1},{"id":"Denominator_1","code":{"coding":[{"system":"http://terminology.hl7.org/CodeSystem/measure-population","code":"denominator","display":"Denominator"}]},"count":1},{"id":"Numerator_1","code":{"coding":[{"system":"http://terminology.hl7.org/CodeSystem/measure-population","code":"numerator","display":"Numerator"}]},"count":1}],"measureScore":{"value":0.0},"stratifier":[{"id":"Stratification_1_1","code":[{"text":"Strata-1"}],"stratum":[{"value":{"text":"Strata-1"},"population":[{"id":"InitialPopulation_1","code":{"coding":[{"system":"http://terminology.hl7.org/CodeSystem/measure-population","code":"initial-population","display":"Initial Population"}]},"count":0},{"id":"Denominator_1","code":{"coding":[{"system":"http://terminology.hl7.org/CodeSystem/measure-population","code":"denominator","display":"Denominator"}]},"count":0},{"id":"Numerator_1","code":{"coding":[{"system":"http://terminology.hl7.org/CodeSystem/measure-population","code":"numerator","display":"Numerator"}]},"count":0}]}]},{"id":"Stratification_1_2","code":[{"text":"Strata-2"}],"stratum":[{"value":{"text":"Strata-2"},"population":[{"id":"InitialPopulation_1","code":{"coding":[{"system":"http://terminology.hl7.org/CodeSystem/measure-population","code":"initial-population","display":"Initial Population"}]},"count":1},{"id":"Denominator_1","code":{"coding":[{"system":"http://terminology.hl7.org/CodeSystem/measure-population","code":"denominator","display":"Denominator"}]},"count":1},{"id":"Numerator_1","code":{"coding":[{"system":"http://terminology.hl7.org/CodeSystem/measure-population","code":"numerator","display":"Numerator"}]},"count":1}]}]},{"id":"Stratification_1_3","code":[{"text":"Strata-3"}],"stratum":[{"value":{"text":"Strata-3"},"population":[{"id":"InitialPopulation_1","code":{"coding":[{"system":"http://terminology.hl7.org/CodeSystem/measure-population","code":"initial-population","display":"Initial Population"}]},"count":0},{"id":"Denominator_1","code":{"coding":[{"system":"http://terminology.hl7.org/CodeSystem/measure-population","code":"denominator","display":"Denominator"}]},"count":0},{"id":"Numerator_1","code":{"coding":[{"system":"http://terminology.hl7.org/CodeSystem/measure-population","code":"numerator","display":"Numerator"}]},"count":0}]}]},{"id":"Stratification_1_4","code":[{"text":"Strata-4"}],"stratum":[{"value":{"text":"Strata-4"},"population":[{"id":"InitialPopulation_1","code":{"coding":[{"system":"http://terminology.hl7.org/CodeSystem/measure-population","code":"initial-population","display":"Initial Population"}]},"count":0},{"id":"Denominator_1","code":{"coding":[{"system":"http://terminology.hl7.org/CodeSystem/measure-population","code":"denominator","display":"Denominator"}]},"count":0},{"id":"Numerator_1","code":{"coding":[{"system":"http://terminology.hl7.org/CodeSystem/measure-population","code":"numerator","display":"Numerator"}]},"count":0}]}]}]}],"evaluatedResource":[{"reference":"Patient/c8b6fa9c-0072-45ab-90dc-0b8be521fae4"},{"reference":"Encounter/1f4d1882-a7b3-47ae-aa2a-3d012608f066"},{"reference":"Encounter/c6bab719-a431-4294-8183-6df0cf674cb2"},{"reference":"Location/3370a976-cd3c-4b7d-b915-4bea66cbeb88"},{"reference":"Observation/8ca5e9fe-c4d9-4a0b-8eb9-29c756e413cb"},{"reference":"Condition/75dd8cd4-b9b6-4257-8b1c-bd13a5bc13af"},{"reference":"Claim/ClaimBehavior-NotSubsAbuse"},{"reference":"Coverage/db26d6fb-cf54-4adf-8d64-a1b82d6a87cf"},{"reference":"Organization/f370e339-4e20-4533-9446-e042d9b18f0c"},{"reference":"Practitioner/131d9bd7-63da-494c-9c3f-cfff1999de86"}]},"request":{"method":"PUT","url":"MeasureReport/637fd3e4-c733-4c76-b870-fa42a89c32ee"}},{"resource":{"resourceType":"Encounter","id":"c6bab719-a431-4294-8183-6df0cf674cb2","meta":{"profile":["http://hl7.org/fhir/us/qicore/StructureDefinition/qicore-encounter"]},"status":"finished","class":{"system":"http://terminology.hl7.org/CodeSystem/v3-ActCode","code":"IMP","display":"inpatient"},"type":[{"coding":[{"system":"http://snomed.info/sct","version":"2023-09","code":"183452005","display":"Emergency hospital admission (procedure)","userSelected":true}]}],"subject":{"reference":"Patient/c8b6fa9c-0072-45ab-90dc-0b8be521fae4"},"period":{"start":"2027-05-01T06:00:00.000+00:00","end":"2027-05-03T06:15:00.000+00:00"}},"request":{"method":"PUT","url":"Encounter/c6bab719-a431-4294-8183-6df0cf674cb2"}},{"resource":{"resourceType":"Practitioner","id":"131d9bd7-63da-494c-9c3f-cfff1999de86","meta":{"profile":["http://hl7.org/fhir/us/qicore/StructureDefinition/qicore-practitioner"]},"identifier":[{"system":"http://hl7.org/fhir/sid/us-npi","value":"9999999896"}],"name":[{"family":"Evil","prefix":["Dr"]}]},"request":{"method":"PUT","url":"Practitioner/131d9bd7-63da-494c-9c3f-cfff1999de86"}},{"resource":{"resourceType":"Bundle","id":"6617e30316793f5a4fae16fe","type":"transaction","entry":[{"fullUrl":"https://madie.cms.gov/Patient/c8b6fa9c-0072-45ab-90dc-0b8be521fae4","resource":{"resourceType":"Patient","id":"c8b6fa9c-0072-45ab-90dc-0b8be521fae4","meta":{"profile":["http://hl7.org/fhir/us/qicore/StructureDefinition/qicore-patient"]},"extension":[{"url":"http://hl7.org/fhir/us/core/StructureDefinition/us-core-race","extension":[{"url":"ombCategory","valueCoding":{"system":"urn:oid:2.16.840.1.113883.6.238","code":"1002-5","display":"American Indian or Alaska Native","userSelected":true}},{"url":"text","valueString":"American Indian or Alaska Native"}]},{"url":"http://hl7.org/fhir/us/core/StructureDefinition/us-core-ethnicity","extension":[{"url":"ombCategory","valueCoding":{"system":"urn:oid:2.16.840.1.113883.6.238","code":"2135-2","display":"Hispanic or Latino","userSelected":true}},{"url":"text","valueString":"Hispanic or Latino"}]},{"url":"http://hl7.org/fhir/us/core/StructureDefinition/us-core-sex","valueCode":"248153007"}],"identifier":[{"type":{"coding":[{"system":"http://terminology.hl7.org/CodeSystem/v2-0203","code":"MR"}]},"system":"https://bonnie-fhir.healthit.gov/","value":"6617e30316793f5a4fae16fe"}],"name":[{"family":"NUMERStrat2Pass","given":["DecisionToAdmitAssessment"]}],"gender":"male","birthDate":"2009-01-01"},"request":{"method":"PUT","url":"Patient/c8b6fa9c-0072-45ab-90dc-0b8be521fae4"}},{"fullUrl":"https://madie.cms.gov/Encounter/1f4d1882-a7b3-47ae-aa2a-3d012608f066","resource":{"resourceType":"Encounter","id":"1f4d1882-a7b3-47ae-aa2a-3d012608f066","meta":{"profile":["http://hl7.org/fhir/us/qicore/StructureDefinition/qicore-encounter"]},"status":"finished","class":{"system":"http://terminology.hl7.org/CodeSystem/v3-ActCode","code":"EMER","display":"emergency"},"type":[{"coding":[{"system":"http://snomed.info/sct","version":"2023-09","code":"4525004","display":"Emergency department patient visit (procedure)","userSelected":true}]}],"subject":{"reference":"Patient/c8b6fa9c-0072-45ab-90dc-0b8be521fae4"},"period":{"start":"2027-05-01T00:00:00.000+00:00","end":"2027-05-01T06:00:00.000+00:00"},"diagnosis":[{"condition":{"reference":"Condition/behavioral-health-diagnosis-without-substance-use-disorders-9d16"},"use":{"coding":[{"system":"http://terminology.hl7.org/CodeSystem/diagnosis-role","code":"billing"}]},"rank":1}],"location":[{"location":{"reference":"Location/3370a976-cd3c-4b7d-b915-4bea66cbeb88"},"period":{"start":"2027-05-01T00:00:00.000+00:00","end":"2027-05-01T06:01:00.000+00:00"}}]},"request":{"method":"PUT","url":"Encounter/1f4d1882-a7b3-47ae-aa2a-3d012608f066"}},{"fullUrl":"https://madie.cms.gov/Encounter/c6bab719-a431-4294-8183-6df0cf674cb2","resource":{"resourceType":"Encounter","id":"c6bab719-a431-4294-8183-6df0cf674cb2","meta":{"profile":["http://hl7.org/fhir/us/qicore/StructureDefinition/qicore-encounter"]},"status":"finished","class":{"system":"http://terminology.hl7.org/CodeSystem/v3-ActCode","code":"IMP","display":"inpatient"},"type":[{"coding":[{"system":"http://snomed.info/sct","version":"2023-09","code":"183452005","display":"Emergency hospital admission (procedure)","userSelected":true}]}],"subject":{"reference":"Patient/c8b6fa9c-0072-45ab-90dc-0b8be521fae4"},"period":{"start":"2027-05-01T06:00:00.000+00:00","end":"2027-05-03T06:15:00.000+00:00"}},"request":{"method":"PUT","url":"Encounter/c6bab719-a431-4294-8183-6df0cf674cb2"}},{"fullUrl":"https://madie.cms.gov/Location/3370a976-cd3c-4b7d-b915-4bea66cbeb88","resource":{"resourceType":"Location","id":"3370a976-cd3c-4b7d-b915-4bea66cbeb88","meta":{"profile":["http://hl7.org/fhir/us/qicore/StructureDefinition/qicore-location"]},"identifier":[{"use":"usual","system":"http://exampleoflocation.com","value":"B1-S.F2"}],"name":"Local ED","type":[{"coding":[{"system":"https://www.cdc.gov/nhsn/cdaportal/terminology/codesystem/hsloc.html","version":"2022","code":"1108-0","display":"Emergency Department","userSelected":true}]}]},"request":{"method":"PUT","url":"Location/3370a976-cd3c-4b7d-b915-4bea66cbeb88"}},{"fullUrl":"https://madie.cms.gov/Observation/8ca5e9fe-c4d9-4a0b-8eb9-29c756e413cb","resource":{"resourceType":"Observation","id":"8ca5e9fe-c4d9-4a0b-8eb9-29c756e413cb","meta":{"profile":["http://hl7.org/fhir/us/qicore/StructureDefinition/qicore-simple-observation"]},"status":"final","category":[{"coding":[{"system":"http://terminology.hl7.org/CodeSystem/observation-category","code":"survey","display":"Survey"}]}],"code":{"coding":[{"system":"http://loinc.org","version":"2.76","code":"28568-4","display":"Physician Emergency department Note","userSelected":true}]},"subject":{"reference":"Patient/c8b6fa9c-0072-45ab-90dc-0b8be521fae4"},"effectiveDateTime":"2027-05-01T01:00:00.000+00:00","valueCodeableConcept":{"coding":[{"system":"http://snomed.info/sct","code":"434081000124108","display":"Patient requires hospitalization (finding)","userSelected":true}]}},"request":{"method":"PUT","url":"Observation/8ca5e9fe-c4d9-4a0b-8eb9-29c756e413cb"}},{"fullUrl":"https://madie.cms.gov/Condition/75dd8cd4-b9b6-4257-8b1c-bd13a5bc13af","resource":{"resourceType":"Condition","id":"75dd8cd4-b9b6-4257-8b1c-bd13a5bc13af","meta":{"profile":["http://hl7.org/fhir/us/qicore/StructureDefinition/qicore-condition-encounter-diagnosis"]},"category":[{"coding":[{"system":"http://terminology.hl7.org/CodeSystem/condition-category","code":"encounter-diagnosis","display":"Encounter Diagnosis"}]}],"code":{"coding":[{"system":"http://snomed.info/sct","version":"2023-09","code":"10674711000119105","display":"Acute severe exacerbation of asthma co-occurrent with allergic rhinitis (disorder)","userSelected":true}]},"subject":{"reference":"Patient/c8b6fa9c-0072-45ab-90dc-0b8be521fae4"},"recordedDate":"2026-04-18T08:00:00.000+00:00"},"request":{"method":"PUT","url":"Condition/75dd8cd4-b9b6-4257-8b1c-bd13a5bc13af"}},{"fullUrl":"https://madie.cms.gov/claim/ClaimBehavior-NotSubsAbuse","resource":{"resourceType":"Claim","id":"ClaimBehavior-NotSubsAbuse","meta":{"profile":["http://hl7.org/fhir/us/qicore/StructureDefinition/qicore-claim"]},"status":"active","type":{"coding":[{"system":"http://terminology.hl7.org/CodeSystem/claim-type","code":"institutional"}]},"use":"claim","patient":{"reference":"Patient/c8b6fa9c-0072-45ab-90dc-0b8be521fae4"},"created":"2027-05-01","provider":{"reference":"Practitioner/131d9bd7-63da-494c-9c3f-cfff1999de86"},"priority":{"coding":[{"system":"http://terminology.hl7.org/CodeSystem/processpriority","code":"normal"}]},"diagnosis":[{"sequence":1,"diagnosisReference":{"reference":"Condition/75dd8cd4-b9b6-4257-8b1c-bd13a5bc13af"},"type":[{"coding":[{"system":"http://terminology.hl7.org/CodeSystem/ex-diagnosistype","code":"principal"}]}]}],"insurance":[{"sequence":1,"focal":true,"coverage":{"reference":"Coverage/db26d6fb-cf54-4adf-8d64-a1b82d6a87cf"}}],"item":[{"sequence":1,"diagnosisSequence":[1],"productOrService":{"coding":[{"system":"http://terminology.hl7.org/CodeSystem/ex-USCLS","code":"99555"}]},"encounter":[{"reference":"Encounter/1f4d1882-a7b3-47ae-aa2a-3d012608f066"}]}]},"request":{"method":"PUT","url":"Claim/ClaimBehavior-NotSubsAbuse"}},{"fullUrl":"https://madie.cms.gov/Coverage/db26d6fb-cf54-4adf-8d64-a1b82d6a87cf","resource":{"resourceType":"Coverage","id":"db26d6fb-cf54-4adf-8d64-a1b82d6a87cf","meta":{"profile":["http://hl7.org/fhir/us/qicore/StructureDefinition/qicore-coverage"]},"identifier":[{"type":{"coding":[{"system":"http://terminology.hl7.org/CodeSystem/v2-0203","code":"MB"}]}}],"status":"active","beneficiary":{"reference":"Patient/c8b6fa9c-0072-45ab-90dc-0b8be521fae4"},"relationship":{"coding":[{"system":"http://terminology.hl7.org/CodeSystem/subscriber-relationship","code":"self"}]},"payor":[{"reference":"Organization/f370e339-4e20-4533-9446-e042d9b18f0c"}]},"request":{"method":"PUT","url":"Coverage/db26d6fb-cf54-4adf-8d64-a1b82d6a87cf"}},{"fullUrl":"https://madie.cms.gov/Organization/f370e339-4e20-4533-9446-e042d9b18f0c","resource":{"resourceType":"Organization","id":"f370e339-4e20-4533-9446-e042d9b18f0c","meta":{"profile":["http://hl7.org/fhir/us/qicore/StructureDefinition/qicore-organization"]},"identifier":[{"use":"temp","system":"urn:oid:2.16.840.1.113883.4.4","value":"21-3259825"}],"active":true,"type":[{"coding":[{"system":"http://terminology.hl7.org/CodeSystem/organization-type","code":"pay","display":"Payer"}]}],"name":"Blue Cross Blue Shield of Texas","telecom":[{"system":"phone","value":"(+1) 972-766-6900"}],"address":[{"use":"billing","type":"postal","line":["P.O. Box 660044"],"city":"Dallas","state":"TX","postalCode":"75266-0044","country":"USA"}]},"request":{"method":"PUT","url":"Organization/f370e339-4e20-4533-9446-e042d9b18f0c"}},{"fullUrl":"https://madie.cms.gov/Practitioner/131d9bd7-63da-494c-9c3f-cfff1999de86","resource":{"resourceType":"Practitioner","id":"131d9bd7-63da-494c-9c3f-cfff1999de86","meta":{"profile":["http://hl7.org/fhir/us/qicore/StructureDefinition/qicore-practitioner"]},"identifier":[{"system":"http://hl7.org/fhir/sid/us-npi","value":"9999999896"}],"name":[{"family":"Evil","prefix":["Dr"]}]},"request":{"method":"PUT","url":"Practitioner/131d9bd7-63da-494c-9c3f-cfff1999de86"}},{"fullUrl":"https://madie.cms.gov/MeasureReport/637fd3e4-c733-4c76-b870-fa42a89c32ee","resource":{"resourceType":"MeasureReport","id":"637fd3e4-c733-4c76-b870-fa42a89c32ee","meta":{"profile":["http://hl7.org/fhir/us/cqfmeasures/StructureDefinition/test-case-cqfm"]},"contained":[{"resourceType":"Parameters","id":"e59039ce-0125-4696-91c6-f8465b57b5ce-parameters","parameter":[{"name":"subject","valueString":"c8b6fa9c-0072-45ab-90dc-0b8be521fae4"}]}],"extension":[{"url":"http://hl7.org/fhir/StructureDefinition/cqf-inputParameters","valueReference":{"reference":"#e59039ce-0125-4696-91c6-f8465b57b5ce-parameters"}},{"url":"http://hl7.org/fhir/us/cqfmeasures/StructureDefinition/cqfm-testCaseDescription","valueMarkdown":"Adult, Enc 1st day of MP, asthma, arrived at midnight of 01/01, 241 minutes decision to admit with simple observation and departure"}],"modifierExtension":[{"url":"http://hl7.org/fhir/us/cqfmeasures/StructureDefinition/cqfm-isTestCase","valueBoolean":true}],"status":"complete","type":"individual","measure":"https://madie.cms.gov/Measure/CMS1244FHIRECATHOQR","period":{"start":"2027-01-01","end":"2027-12-31"},"group":[{"id":"Group_1","population":[{"id":"InitialPopulation_1","code":{"coding":[{"system":"http://terminology.hl7.org/CodeSystem/measure-population","code":"initial-population","display":"Initial Population"}]},"count":1},{"id":"Denominator_1","code":{"coding":[{"system":"http://terminology.hl7.org/CodeSystem/measure-population","code":"denominator","display":"Denominator"}]},"count":1},{"id":"Numerator_1","code":{"coding":[{"system":"http://terminology.hl7.org/CodeSystem/measure-population","code":"numerator","display":"Numerator"}]},"count":1}],"measureScore":{"value":0.0},"stratifier":[{"id":"Stratification_1_1","code":[{"text":"Strata-1"}],"stratum":[{"value":{"text":"Strata-1"},"population":[{"id":"InitialPopulation_1","code":{"coding":[{"system":"http://terminology.hl7.org/CodeSystem/measure-population","code":"initial-population","display":"Initial Population"}]},"count":0},{"id":"Denominator_1","code":{"coding":[{"system":"http://terminology.hl7.org/CodeSystem/measure-population","code":"denominator","display":"Denominator"}]},"count":0},{"id":"Numerator_1","code":{"coding":[{"system":"http://terminology.hl7.org/CodeSystem/measure-population","code":"numerator","display":"Numerator"}]},"count":0}]}]},{"id":"Stratification_1_2","code":[{"text":"Strata-2"}],"stratum":[{"value":{"text":"Strata-2"},"population":[{"id":"InitialPopulation_1","code":{"coding":[{"system":"http://terminology.hl7.org/CodeSystem/measure-population","code":"initial-population","display":"Initial Population"}]},"count":1},{"id":"Denominator_1","code":{"coding":[{"system":"http://terminology.hl7.org/CodeSystem/measure-population","code":"denominator","display":"Denominator"}]},"count":1},{"id":"Numerator_1","code":{"coding":[{"system":"http://terminology.hl7.org/CodeSystem/measure-population","code":"numerator","display":"Numerator"}]},"count":1}]}]},{"id":"Stratification_1_3","code":[{"text":"Strata-3"}],"stratum":[{"value":{"text":"Strata-3"},"population":[{"id":"InitialPopulation_1","code":{"coding":[{"system":"http://terminology.hl7.org/CodeSystem/measure-population","code":"initial-population","display":"Initial Population"}]},"count":0},{"id":"Denominator_1","code":{"coding":[{"system":"http://terminology.hl7.org/CodeSystem/measure-population","code":"denominator","display":"Denominator"}]},"count":0},{"id":"Numerator_1","code":{"coding":[{"system":"http://terminology.hl7.org/CodeSystem/measure-population","code":"numerator","display":"Numerator"}]},"count":0}]}]},{"id":"Stratification_1_4","code":[{"text":"Strata-4"}],"stratum":[{"value":{"text":"Strata-4"},"population":[{"id":"InitialPopulation_1","code":{"coding":[{"system":"http://terminology.hl7.org/CodeSystem/measure-population","code":"initial-population","display":"Initial Population"}]},"count":0},{"id":"Denominator_1","code":{"coding":[{"system":"http://terminology.hl7.org/CodeSystem/measure-population","code":"denominator","display":"Denominator"}]},"count":0},{"id":"Numerator_1","code":{"coding":[{"system":"http://terminology.hl7.org/CodeSystem/measure-population","code":"numerator","display":"Numerator"}]},"count":0}]}]}]}],"evaluatedResource":[{"reference":"Patient/c8b6fa9c-0072-45ab-90dc-0b8be521fae4"},{"reference":"Encounter/1f4d1882-a7b3-47ae-aa2a-3d012608f066"},{"reference":"Encounter/c6bab719-a431-4294-8183-6df0cf674cb2"},{"reference":"Location/3370a976-cd3c-4b7d-b915-4bea66cbeb88"},{"reference":"Observation/8ca5e9fe-c4d9-4a0b-8eb9-29c756e413cb"},{"reference":"Condition/75dd8cd4-b9b6-4257-8b1c-bd13a5bc13af"},{"reference":"Claim/ClaimBehavior-NotSubsAbuse"},{"reference":"Coverage/db26d6fb-cf54-4adf-8d64-a1b82d6a87cf"},{"reference":"Organization/f370e339-4e20-4533-9446-e042d9b18f0c"},{"reference":"Practitioner/131d9bd7-63da-494c-9c3f-cfff1999de86"}]},"request":{"method":"PUT","url":"MeasureReport/637fd3e4-c733-4c76-b870-fa42a89c32ee"}}]},"request":{"method":"PUT","url":"Bundle/6617e30316793f5a4fae16fe"}},{"resource":{"resourceType":"Claim","id":"ClaimBehavior-NotSubsAbuse","meta":{"profile":["http://hl7.org/fhir/us/qicore/StructureDefinition/qicore-claim"]},"status":"active","type":{"coding":[{"system":"http://terminology.hl7.org/CodeSystem/claim-type","code":"institutional"}]},"use":"claim","patient":{"reference":"Patient/c8b6fa9c-0072-45ab-90dc-0b8be521fae4"},"created":"2027-05-01","provider":{"reference":"Practitioner/131d9bd7-63da-494c-9c3f-cfff1999de86"},"priority":{"coding":[{"system":"http://terminology.hl7.org/CodeSystem/processpriority","code":"normal"}]},"diagnosis":[{"sequence":1,"diagnosisReference":{"reference":"Condition/75dd8cd4-b9b6-4257-8b1c-bd13a5bc13af"},"type":[{"coding":[{"system":"http://terminology.hl7.org/CodeSystem/ex-diagnosistype","code":"principal"}]}]}],"insurance":[{"sequence":1,"focal":true,"coverage":{"reference":"Coverage/db26d6fb-cf54-4adf-8d64-a1b82d6a87cf"}}],"item":[{"sequence":1,"diagnosisSequence":[1],"productOrService":{"coding":[{"system":"http://terminology.hl7.org/CodeSystem/ex-USCLS","code":"99555"}]},"encounter":[{"reference":"Encounter/1f4d1882-a7b3-47ae-aa2a-3d012608f066"}]}]},"request":{"method":"PUT","url":"Claim/ClaimBehavior-NotSubsAbuse"}},{"resource":{"resourceType":"Patient","id":"c8b6fa9c-0072-45ab-90dc-0b8be521fae4","meta":{"profile":["http://hl7.org/fhir/us/qicore/StructureDefinition/qicore-patient"]},"extension":[{"url":"http://hl7.org/fhir/us/core/StructureDefinition/us-core-race","extension":[{"url":"ombCategory","valueCoding":{"system":"urn:oid:2.16.840.1.113883.6.238","code":"1002-5","display":"American Indian or Alaska Native","userSelected":true}},{"url":"text","valueString":"American Indian or Alaska Native"}]},{"url":"http://hl7.org/fhir/us/core/StructureDefinition/us-core-ethnicity","extension":[{"url":"ombCategory","valueCoding":{"system":"urn:oid:2.16.840.1.113883.6.238","code":"2135-2","display":"Hispanic or Latino","userSelected":true}},{"url":"text","valueString":"Hispanic or Latino"}]},{"url":"http://hl7.org/fhir/us/core/StructureDefinition/us-core-sex","valueCode":"248153007"}],"identifier":[{"type":{"coding":[{"system":"http://terminology.hl7.org/CodeSystem/v2-0203","code":"MR"}]},"system":"https://bonnie-fhir.healthit.gov/","value":"6617e30316793f5a4fae16fe"}],"name":[{"family":"NUMERStrat2Pass","given":["DecisionToAdmitAssessment"]}],"gender":"male","birthDate":"2009-01-01"},"request":{"method":"PUT","url":"Patient/c8b6fa9c-0072-45ab-90dc-0b8be521fae4"}}]}