{"resourceType":"Bundle","id":"tests-c15c97ea-1631-468d-b2d0-420230f6c6d8-bundle","type":"transaction","entry":[{"fullUrl":"Condition/416d589d-883d-46d9-b06b-13574a47963b","resource":{"resourceType":"Condition","id":"416d589d-883d-46d9-b06b-13574a47963b","meta":{"profile":["http://hl7.org/fhir/us/qicore/StructureDefinition/qicore-condition-encounter-diagnosis"]},"category":[{"coding":[{"system":"http://terminology.hl7.org/CodeSystem/condition-category","code":"encounter-diagnosis","display":"Encounter Diagnosis"}]}],"code":{"coding":[{"system":"http://snomed.info/sct","version":"2023-09","code":"10349009","display":"Multi-infarct dementia with delirium (disorder)","userSelected":true}]},"subject":{"reference":"Patient/c15c97ea-1631-468d-b2d0-420230f6c6d8"},"recordedDate":"2027-05-01T08:00:00.000+00:00"},"request":{"method":"PUT","url":"Condition/416d589d-883d-46d9-b06b-13574a47963b"}},{"fullUrl":"Bundle/661476b015ed5841a5547ebf","resource":{"resourceType":"Bundle","id":"661476b015ed5841a5547ebf","type":"transaction","entry":[{"fullUrl":"https://madie.cms.gov/Patient/c15c97ea-1631-468d-b2d0-420230f6c6d8","resource":{"resourceType":"Patient","id":"c15c97ea-1631-468d-b2d0-420230f6c6d8","meta":{"profile":["http://hl7.org/fhir/us/qicore/StructureDefinition/qicore-patient"]},"extension":[{"url":"http://hl7.org/fhir/us/core/StructureDefinition/us-core-race","extension":[{"url":"ombCategory","valueCoding":{"system":"urn:oid:2.16.840.1.113883.6.238","code":"1002-5","display":"American Indian or Alaska Native","userSelected":true}},{"url":"text","valueString":"American Indian or Alaska Native"}]},{"url":"http://hl7.org/fhir/us/core/StructureDefinition/us-core-ethnicity","extension":[{"url":"ombCategory","valueCoding":{"system":"urn:oid:2.16.840.1.113883.6.238","code":"2135-2","display":"Hispanic or Latino","userSelected":true}},{"url":"text","valueString":"Hispanic or Latino"}]},{"url":"http://hl7.org/fhir/us/core/StructureDefinition/us-core-sex","valueCode":"248153007"}],"identifier":[{"type":{"coding":[{"system":"http://terminology.hl7.org/CodeSystem/v2-0203","code":"MR"}]},"system":"https://bonnie-fhir.healthit.gov/","value":"661476b015ed5841a5547ebf"}],"name":[{"family":"NUMEXStrat3Fail","given":["EDOBSBoarded1MinB4MP"]}],"gender":"male","birthDate":"2010-01-01"},"request":{"method":"PUT","url":"Patient/c15c97ea-1631-468d-b2d0-420230f6c6d8"}},{"fullUrl":"https://madie.cms.gov/Encounter/41cae07e-d951-4ed6-82bd-3f858f2fde55","resource":{"resourceType":"Encounter","id":"41cae07e-d951-4ed6-82bd-3f858f2fde55","meta":{"profile":["http://hl7.org/fhir/us/qicore/StructureDefinition/qicore-encounter"]},"status":"finished","class":{"system":"http://terminology.hl7.org/CodeSystem/v3-ActCode","code":"EMER","display":"emergency department"},"type":[{"coding":[{"system":"http://snomed.info/sct","version":"2023-09","code":"4525004","display":"Emergency department patient visit (procedure)","userSelected":true}]}],"subject":{"reference":"Patient/c15c97ea-1631-468d-b2d0-420230f6c6d8"},"period":{"start":"2027-05-01T00:00:00.000+00:00","end":"2027-05-01T06:00:00.000+00:00"},"diagnosis":[{"condition":{"reference":"Condition/416d589d-883d-46d9-b06b-13574a47963b"},"use":{"coding":[{"system":"http://terminology.hl7.org/CodeSystem/diagnosis-role","code":"billing"}]},"rank":1}],"location":[{"location":{"reference":"Location/5e8bebfe-0af6-4736-ad95-7ffb7a0b8626"},"period":{"start":"2027-05-01T00:00:00.000+00:00","end":"2027-05-01T06:01:00.000+00:00"}}]},"request":{"method":"PUT","url":"Encounter/41cae07e-d951-4ed6-82bd-3f858f2fde55"}},{"fullUrl":"https://madie.cms.gov/Encounter/b8e14ccf-41ea-40eb-aff6-5c2165a3796b","resource":{"resourceType":"Encounter","id":"b8e14ccf-41ea-40eb-aff6-5c2165a3796b","meta":{"profile":["http://hl7.org/fhir/us/qicore/StructureDefinition/qicore-encounter"]},"status":"finished","class":{"system":"http://terminology.hl7.org/CodeSystem/v3-ActCode","code":"IMP","display":"inpatient encounter"},"type":[{"coding":[{"system":"http://snomed.info/sct","version":"2023-09","code":"183452005","display":"Emergency hospital admission (procedure)","userSelected":true}]}],"subject":{"reference":"Patient/c15c97ea-1631-468d-b2d0-420230f6c6d8"},"period":{"start":"2027-05-01T05:00:00.000+00:00","end":"2027-05-03T06:15:00.000+00:00"}},"request":{"method":"PUT","url":"Encounter/b8e14ccf-41ea-40eb-aff6-5c2165a3796b"}},{"fullUrl":"https://madie.cms.gov/ServiceRequest/18947321-205d-4536-9175-1c9593fca179","resource":{"resourceType":"ServiceRequest","id":"18947321-205d-4536-9175-1c9593fca179","meta":{"profile":["http://hl7.org/fhir/us/qicore/StructureDefinition/qicore-servicerequest"]},"status":"active","intent":"order","code":{"coding":[{"system":"http://snomed.info/sct","code":"5751000175101","display":"Patient bed assigned (finding)","userSelected":true}]},"subject":{"reference":"Patient/c15c97ea-1631-468d-b2d0-420230f6c6d8"},"authoredOn":"2027-05-01T02:00:00.000+00:00"},"request":{"method":"PUT","url":"ServiceRequest/18947321-205d-4536-9175-1c9593fca179"}},{"fullUrl":"https://madie.cms.gov/Location/5e8bebfe-0af6-4736-ad95-7ffb7a0b8626","resource":{"resourceType":"Location","id":"5e8bebfe-0af6-4736-ad95-7ffb7a0b8626","meta":{"profile":["http://hl7.org/fhir/us/qicore/StructureDefinition/qicore-location"]},"identifier":[{"use":"usual","system":"http://exampleoflocation.com","value":"B1-S.F2"}],"name":"Medical Surgical East, first floor","type":[{"coding":[{"system":"https://www.cdc.gov/nhsn/cdaportal/terminology/codesystem/hsloc.html","version":"2022","code":"1108-0","display":"Emergency Department","userSelected":true}]}]},"request":{"method":"PUT","url":"Location/5e8bebfe-0af6-4736-ad95-7ffb7a0b8626"}},{"fullUrl":"https://madie.cms.gov/claim/ClaimBehavior-NotSubsAbuse","resource":{"resourceType":"Claim","id":"ClaimBehavior-NotSubsAbuse","meta":{"profile":["http://hl7.org/fhir/us/qicore/StructureDefinition/qicore-claim"]},"status":"active","type":{"coding":[{"system":"http://terminology.hl7.org/CodeSystem/claim-type","code":"institutional"}]},"use":"claim","patient":{"reference":"Patient/c15c97ea-1631-468d-b2d0-420230f6c6d8"},"created":"2027-05-01","provider":{"reference":"Practitioner/77332f84-f5f8-4fd2-9819-7c138580ac45"},"priority":{"coding":[{"system":"http://terminology.hl7.org/CodeSystem/processpriority","code":"normal"}]},"diagnosis":[{"sequence":1,"diagnosisReference":{"reference":"Condition/416d589d-883d-46d9-b06b-13574a47963b"},"type":[{"coding":[{"system":"http://terminology.hl7.org/CodeSystem/ex-diagnosistype","code":"principal"}]}]}],"insurance":[{"sequence":1,"focal":true,"coverage":{"reference":"Coverage/7aab1e20-437f-48f5-9822-6048dca515fe"}}],"item":[{"sequence":1,"diagnosisSequence":[1],"productOrService":{"coding":[{"system":"http://terminology.hl7.org/CodeSystem/ex-USCLS","code":"99555"}]},"encounter":[{"reference":"Encounter/41cae07e-d951-4ed6-82bd-3f858f2fde55"}]}]},"request":{"method":"PUT","url":"Claim/ClaimBehavior-NotSubsAbuse"}},{"fullUrl":"https://madie.cms.gov/Coverage/7aab1e20-437f-48f5-9822-6048dca515fe","resource":{"resourceType":"Coverage","id":"7aab1e20-437f-48f5-9822-6048dca515fe","meta":{"profile":["http://hl7.org/fhir/us/qicore/StructureDefinition/qicore-coverage"]},"identifier":[{"type":{"coding":[{"system":"http://terminology.hl7.org/CodeSystem/v2-0203","code":"MB"}]}}],"status":"active","beneficiary":{"reference":"Patient/c15c97ea-1631-468d-b2d0-420230f6c6d8"},"relationship":{"coding":[{"system":"http://terminology.hl7.org/CodeSystem/subscriber-relationship","code":"self"}]},"payor":[{"reference":"Organization/7df93da9-ec02-465e-89a6-12151cae61f8"}]},"request":{"method":"PUT","url":"Coverage/7aab1e20-437f-48f5-9822-6048dca515fe"}},{"fullUrl":"https://madie.cms.gov/Condition/416d589d-883d-46d9-b06b-13574a47963b","resource":{"resourceType":"Condition","id":"416d589d-883d-46d9-b06b-13574a47963b","meta":{"profile":["http://hl7.org/fhir/us/qicore/StructureDefinition/qicore-condition-encounter-diagnosis"]},"category":[{"coding":[{"system":"http://terminology.hl7.org/CodeSystem/condition-category","code":"encounter-diagnosis","display":"Encounter Diagnosis"}]}],"code":{"coding":[{"system":"http://snomed.info/sct","version":"2023-09","code":"10349009","display":"Multi-infarct dementia with delirium (disorder)","userSelected":true}]},"subject":{"reference":"Patient/c15c97ea-1631-468d-b2d0-420230f6c6d8"},"recordedDate":"2027-05-01T08:00:00.000+00:00"},"request":{"method":"PUT","url":"Condition/416d589d-883d-46d9-b06b-13574a47963b"}},{"fullUrl":"https://madie.cms.gov/Encounter/d3261a09-f078-449c-a929-beca7b76b585","resource":{"resourceType":"Encounter","id":"d3261a09-f078-449c-a929-beca7b76b585","meta":{"profile":["http://hl7.org/fhir/us/qicore/StructureDefinition/qicore-encounter"]},"status":"finished","class":{"system":"http://terminology.hl7.org/CodeSystem/v3-ActCode","code":"EMER","display":"emergency"},"type":[{"coding":[{"system":"http://snomed.info/sct","code":"448951000124107","display":"Admission to observation unit (procedure)","userSelected":true}]}],"subject":{"reference":"Patient/c15c97ea-1631-468d-b2d0-420230f6c6d8"},"period":{"start":"2027-04-30T23:59:00.000+00:00","end":"2027-05-01T05:59:00.000+00:00"}},"request":{"method":"PUT","url":"Encounter/d3261a09-f078-449c-a929-beca7b76b585"}},{"fullUrl":"https://madie.cms.gov/Organization/7df93da9-ec02-465e-89a6-12151cae61f8","resource":{"resourceType":"Organization","id":"7df93da9-ec02-465e-89a6-12151cae61f8","meta":{"profile":["http://hl7.org/fhir/us/qicore/StructureDefinition/qicore-organization"]},"identifier":[{"use":"temp","system":"urn:oid:2.16.840.1.113883.4.4","value":"21-3259825"}],"active":true,"type":[{"coding":[{"system":"http://terminology.hl7.org/CodeSystem/organization-type","code":"pay","display":"Payer"}]}],"name":"Blue Cross Blue Shield of Texas","telecom":[{"system":"phone","value":"(+1) 972-766-6900"}],"address":[{"use":"billing","type":"postal","line":["P.O. Box 660044"],"city":"Dallas","state":"TX","postalCode":"75266-0044","country":"USA"}]},"request":{"method":"PUT","url":"Organization/7df93da9-ec02-465e-89a6-12151cae61f8"}},{"fullUrl":"https://madie.cms.gov/Practitioner/77332f84-f5f8-4fd2-9819-7c138580ac45","resource":{"resourceType":"Practitioner","id":"77332f84-f5f8-4fd2-9819-7c138580ac45","meta":{"profile":["http://hl7.org/fhir/us/qicore/StructureDefinition/qicore-practitioner"]},"identifier":[{"system":"http://hl7.org/fhir/sid/us-npi","value":"9999999896"}],"name":[{"family":"Evil","prefix":["Dr"]}]},"request":{"method":"PUT","url":"Practitioner/77332f84-f5f8-4fd2-9819-7c138580ac45"}},{"fullUrl":"https://madie.cms.gov/MeasureReport/6e1ecfdb-be14-44f9-a5ff-74446ad19cbe","resource":{"resourceType":"MeasureReport","id":"6e1ecfdb-be14-44f9-a5ff-74446ad19cbe","meta":{"profile":["http://hl7.org/fhir/us/cqfmeasures/StructureDefinition/test-case-cqfm"]},"contained":[{"resourceType":"Parameters","id":"3a1fd760-4d67-4a2d-834c-c6f7aae93786-parameters","parameter":[{"name":"subject","valueString":"c15c97ea-1631-468d-b2d0-420230f6c6d8"}]}],"extension":[{"url":"http://hl7.org/fhir/StructureDefinition/cqf-inputParameters","valueReference":{"reference":"#3a1fd760-4d67-4a2d-834c-c6f7aae93786-parameters"}},{"url":"http://hl7.org/fhir/us/cqfmeasures/StructureDefinition/cqfm-testCaseDescription","valueMarkdown":"Child, has behavioral health dx, ED observation during ED enc where patient was boarded 6 hrs 1 min; Enc 6 hrs, 59 mins enc departure 6 hrs 59 min.  EDObs started 1 min before start of MP and 1 min before start of ED enc."}],"modifierExtension":[{"url":"http://hl7.org/fhir/us/cqfmeasures/StructureDefinition/cqfm-isTestCase","valueBoolean":true}],"status":"complete","type":"individual","measure":"https://madie.cms.gov/Measure/CMS1244FHIRECATHOQR","period":{"start":"2027-01-01","end":"2027-12-31"},"group":[{"id":"Group_1","population":[{"id":"InitialPopulation_1","code":{"coding":[{"system":"http://terminology.hl7.org/CodeSystem/measure-population","code":"initial-population","display":"Initial Population"}]},"count":1},{"id":"Denominator_1","code":{"coding":[{"system":"http://terminology.hl7.org/CodeSystem/measure-population","code":"denominator","display":"Denominator"}]},"count":1},{"id":"Numerator_1","code":{"coding":[{"system":"http://terminology.hl7.org/CodeSystem/measure-population","code":"numerator","display":"Numerator"}]},"count":1}],"measureScore":{"value":0.0},"stratifier":[{"id":"Stratification_1_1","code":[{"text":"Strata-1"}],"stratum":[{"value":{"text":"Strata-1"},"population":[{"id":"InitialPopulation_1","code":{"coding":[{"system":"http://terminology.hl7.org/CodeSystem/measure-population","code":"initial-population","display":"Initial Population"}]},"count":0},{"id":"Denominator_1","code":{"coding":[{"system":"http://terminology.hl7.org/CodeSystem/measure-population","code":"denominator","display":"Denominator"}]},"count":0},{"id":"Numerator_1","code":{"coding":[{"system":"http://terminology.hl7.org/CodeSystem/measure-population","code":"numerator","display":"Numerator"}]},"count":0}]}]},{"id":"Stratification_1_2","code":[{"text":"Strata-2"}],"stratum":[{"value":{"text":"Strata-2"},"population":[{"id":"InitialPopulation_1","code":{"coding":[{"system":"http://terminology.hl7.org/CodeSystem/measure-population","code":"initial-population","display":"Initial Population"}]},"count":0},{"id":"Denominator_1","code":{"coding":[{"system":"http://terminology.hl7.org/CodeSystem/measure-population","code":"denominator","display":"Denominator"}]},"count":0},{"id":"Numerator_1","code":{"coding":[{"system":"http://terminology.hl7.org/CodeSystem/measure-population","code":"numerator","display":"Numerator"}]},"count":0}]}]},{"id":"Stratification_1_3","code":[{"text":"Strata-3"}],"stratum":[{"value":{"text":"Strata-3"},"population":[{"id":"InitialPopulation_1","code":{"coding":[{"system":"http://terminology.hl7.org/CodeSystem/measure-population","code":"initial-population","display":"Initial Population"}]},"count":1},{"id":"Denominator_1","code":{"coding":[{"system":"http://terminology.hl7.org/CodeSystem/measure-population","code":"denominator","display":"Denominator"}]},"count":1},{"id":"Numerator_1","code":{"coding":[{"system":"http://terminology.hl7.org/CodeSystem/measure-population","code":"numerator","display":"Numerator"}]},"count":1}]}]},{"id":"Stratification_1_4","code":[{"text":"Strata-4"}],"stratum":[{"value":{"text":"Strata-4"},"population":[{"id":"InitialPopulation_1","code":{"coding":[{"system":"http://terminology.hl7.org/CodeSystem/measure-population","code":"initial-population","display":"Initial Population"}]},"count":0},{"id":"Denominator_1","code":{"coding":[{"system":"http://terminology.hl7.org/CodeSystem/measure-population","code":"denominator","display":"Denominator"}]},"count":0},{"id":"Numerator_1","code":{"coding":[{"system":"http://terminology.hl7.org/CodeSystem/measure-population","code":"numerator","display":"Numerator"}]},"count":0}]}]}]}],"evaluatedResource":[{"reference":"Patient/c15c97ea-1631-468d-b2d0-420230f6c6d8"},{"reference":"Encounter/41cae07e-d951-4ed6-82bd-3f858f2fde55"},{"reference":"Encounter/b8e14ccf-41ea-40eb-aff6-5c2165a3796b"},{"reference":"ServiceRequest/18947321-205d-4536-9175-1c9593fca179"},{"reference":"Location/5e8bebfe-0af6-4736-ad95-7ffb7a0b8626"},{"reference":"Claim/ClaimBehavior-NotSubsAbuse"},{"reference":"Coverage/7aab1e20-437f-48f5-9822-6048dca515fe"},{"reference":"Condition/416d589d-883d-46d9-b06b-13574a47963b"},{"reference":"Encounter/d3261a09-f078-449c-a929-beca7b76b585"},{"reference":"Organization/7df93da9-ec02-465e-89a6-12151cae61f8"},{"reference":"Practitioner/77332f84-f5f8-4fd2-9819-7c138580ac45"}]},"request":{"method":"PUT","url":"MeasureReport/6e1ecfdb-be14-44f9-a5ff-74446ad19cbe"}}]},"request":{"method":"PUT","url":"Bundle/661476b015ed5841a5547ebf"}},{"fullUrl":"Patient/c15c97ea-1631-468d-b2d0-420230f6c6d8","resource":{"resourceType":"Patient","id":"c15c97ea-1631-468d-b2d0-420230f6c6d8","meta":{"profile":["http://hl7.org/fhir/us/qicore/StructureDefinition/qicore-patient"]},"extension":[{"url":"http://hl7.org/fhir/us/core/StructureDefinition/us-core-race","extension":[{"url":"ombCategory","valueCoding":{"system":"urn:oid:2.16.840.1.113883.6.238","code":"1002-5","display":"American Indian or Alaska Native","userSelected":true}},{"url":"text","valueString":"American Indian or Alaska Native"}]},{"url":"http://hl7.org/fhir/us/core/StructureDefinition/us-core-ethnicity","extension":[{"url":"ombCategory","valueCoding":{"system":"urn:oid:2.16.840.1.113883.6.238","code":"2135-2","display":"Hispanic or Latino","userSelected":true}},{"url":"text","valueString":"Hispanic or Latino"}]},{"url":"http://hl7.org/fhir/us/core/StructureDefinition/us-core-sex","valueCode":"248153007"}],"identifier":[{"type":{"coding":[{"system":"http://terminology.hl7.org/CodeSystem/v2-0203","code":"MR"}]},"system":"https://bonnie-fhir.healthit.gov/","value":"661476b015ed5841a5547ebf"}],"name":[{"family":"NUMEXStrat3Fail","given":["EDOBSBoarded1MinB4MP"]}],"gender":"male","birthDate":"2010-01-01"},"request":{"method":"PUT","url":"Patient/c15c97ea-1631-468d-b2d0-420230f6c6d8"}},{"fullUrl":"Encounter/d3261a09-f078-449c-a929-beca7b76b585","resource":{"resourceType":"Encounter","id":"d3261a09-f078-449c-a929-beca7b76b585","meta":{"profile":["http://hl7.org/fhir/us/qicore/StructureDefinition/qicore-encounter"]},"status":"finished","class":{"system":"http://terminology.hl7.org/CodeSystem/v3-ActCode","code":"EMER","display":"emergency"},"type":[{"coding":[{"system":"http://snomed.info/sct","code":"448951000124107","display":"Admission to observation unit (procedure)","userSelected":true}]}],"subject":{"reference":"Patient/c15c97ea-1631-468d-b2d0-420230f6c6d8"},"period":{"start":"2027-04-30T23:59:00.000+00:00","end":"2027-05-01T05:59:00.000+00:00"}},"request":{"method":"PUT","url":"Encounter/d3261a09-f078-449c-a929-beca7b76b585"}},{"fullUrl":"Location/5e8bebfe-0af6-4736-ad95-7ffb7a0b8626","resource":{"resourceType":"Location","id":"5e8bebfe-0af6-4736-ad95-7ffb7a0b8626","meta":{"profile":["http://hl7.org/fhir/us/qicore/StructureDefinition/qicore-location"]},"identifier":[{"use":"usual","system":"http://exampleoflocation.com","value":"B1-S.F2"}],"name":"Medical Surgical East, first floor","type":[{"coding":[{"system":"https://www.cdc.gov/nhsn/cdaportal/terminology/codesystem/hsloc.html","version":"2022","code":"1108-0","display":"Emergency Department","userSelected":true}]}]},"request":{"method":"PUT","url":"Location/5e8bebfe-0af6-4736-ad95-7ffb7a0b8626"}},{"fullUrl":"Practitioner/77332f84-f5f8-4fd2-9819-7c138580ac45","resource":{"resourceType":"Practitioner","id":"77332f84-f5f8-4fd2-9819-7c138580ac45","meta":{"profile":["http://hl7.org/fhir/us/qicore/StructureDefinition/qicore-practitioner"]},"identifier":[{"system":"http://hl7.org/fhir/sid/us-npi","value":"9999999896"}],"name":[{"family":"Evil","prefix":["Dr"]}]},"request":{"method":"PUT","url":"Practitioner/77332f84-f5f8-4fd2-9819-7c138580ac45"}},{"fullUrl":"Coverage/7aab1e20-437f-48f5-9822-6048dca515fe","resource":{"resourceType":"Coverage","id":"7aab1e20-437f-48f5-9822-6048dca515fe","meta":{"profile":["http://hl7.org/fhir/us/qicore/StructureDefinition/qicore-coverage"]},"identifier":[{"type":{"coding":[{"system":"http://terminology.hl7.org/CodeSystem/v2-0203","code":"MB"}]}}],"status":"active","beneficiary":{"reference":"Patient/c15c97ea-1631-468d-b2d0-420230f6c6d8"},"relationship":{"coding":[{"system":"http://terminology.hl7.org/CodeSystem/subscriber-relationship","code":"self"}]},"payor":[{"reference":"Organization/7df93da9-ec02-465e-89a6-12151cae61f8"}]},"request":{"method":"PUT","url":"Coverage/7aab1e20-437f-48f5-9822-6048dca515fe"}},{"fullUrl":"ServiceRequest/18947321-205d-4536-9175-1c9593fca179","resource":{"resourceType":"ServiceRequest","id":"18947321-205d-4536-9175-1c9593fca179","meta":{"profile":["http://hl7.org/fhir/us/qicore/StructureDefinition/qicore-servicerequest"]},"status":"active","intent":"order","code":{"coding":[{"system":"http://snomed.info/sct","code":"5751000175101","display":"Patient bed assigned (finding)","userSelected":true}]},"subject":{"reference":"Patient/c15c97ea-1631-468d-b2d0-420230f6c6d8"},"authoredOn":"2027-05-01T02:00:00.000+00:00"},"request":{"method":"PUT","url":"ServiceRequest/18947321-205d-4536-9175-1c9593fca179"}},{"fullUrl":"MeasureReport/6e1ecfdb-be14-44f9-a5ff-74446ad19cbe","resource":{"resourceType":"MeasureReport","id":"6e1ecfdb-be14-44f9-a5ff-74446ad19cbe","meta":{"profile":["http://hl7.org/fhir/us/cqfmeasures/StructureDefinition/test-case-cqfm"]},"contained":[{"resourceType":"Parameters","id":"3a1fd760-4d67-4a2d-834c-c6f7aae93786-parameters","parameter":[{"name":"subject","valueString":"c15c97ea-1631-468d-b2d0-420230f6c6d8"}]}],"extension":[{"url":"http://hl7.org/fhir/StructureDefinition/cqf-inputParameters","valueReference":{"reference":"#3a1fd760-4d67-4a2d-834c-c6f7aae93786-parameters"}},{"url":"http://hl7.org/fhir/us/cqfmeasures/StructureDefinition/cqfm-testCaseDescription","valueMarkdown":"Child, has behavioral health dx, ED observation during ED enc where patient was boarded 6 hrs 1 min; Enc 6 hrs, 59 mins enc departure 6 hrs 59 min.  EDObs started 1 min before start of MP and 1 min before start of ED enc."}],"modifierExtension":[{"url":"http://hl7.org/fhir/us/cqfmeasures/StructureDefinition/cqfm-isTestCase","valueBoolean":true}],"status":"complete","type":"individual","measure":"https://madie.cms.gov/Measure/CMS1244FHIRECATHOQR","period":{"start":"2027-01-01","end":"2027-12-31"},"group":[{"id":"Group_1","population":[{"id":"InitialPopulation_1","code":{"coding":[{"system":"http://terminology.hl7.org/CodeSystem/measure-population","code":"initial-population","display":"Initial Population"}]},"count":1},{"id":"Denominator_1","code":{"coding":[{"system":"http://terminology.hl7.org/CodeSystem/measure-population","code":"denominator","display":"Denominator"}]},"count":1},{"id":"Numerator_1","code":{"coding":[{"system":"http://terminology.hl7.org/CodeSystem/measure-population","code":"numerator","display":"Numerator"}]},"count":1}],"measureScore":{"value":0.0},"stratifier":[{"id":"Stratification_1_1","code":[{"text":"Strata-1"}],"stratum":[{"value":{"text":"Strata-1"},"population":[{"id":"InitialPopulation_1","code":{"coding":[{"system":"http://terminology.hl7.org/CodeSystem/measure-population","code":"initial-population","display":"Initial Population"}]},"count":0},{"id":"Denominator_1","code":{"coding":[{"system":"http://terminology.hl7.org/CodeSystem/measure-population","code":"denominator","display":"Denominator"}]},"count":0},{"id":"Numerator_1","code":{"coding":[{"system":"http://terminology.hl7.org/CodeSystem/measure-population","code":"numerator","display":"Numerator"}]},"count":0}]}]},{"id":"Stratification_1_2","code":[{"text":"Strata-2"}],"stratum":[{"value":{"text":"Strata-2"},"population":[{"id":"InitialPopulation_1","code":{"coding":[{"system":"http://terminology.hl7.org/CodeSystem/measure-population","code":"initial-population","display":"Initial Population"}]},"count":0},{"id":"Denominator_1","code":{"coding":[{"system":"http://terminology.hl7.org/CodeSystem/measure-population","code":"denominator","display":"Denominator"}]},"count":0},{"id":"Numerator_1","code":{"coding":[{"system":"http://terminology.hl7.org/CodeSystem/measure-population","code":"numerator","display":"Numerator"}]},"count":0}]}]},{"id":"Stratification_1_3","code":[{"text":"Strata-3"}],"stratum":[{"value":{"text":"Strata-3"},"population":[{"id":"InitialPopulation_1","code":{"coding":[{"system":"http://terminology.hl7.org/CodeSystem/measure-population","code":"initial-population","display":"Initial Population"}]},"count":1},{"id":"Denominator_1","code":{"coding":[{"system":"http://terminology.hl7.org/CodeSystem/measure-population","code":"denominator","display":"Denominator"}]},"count":1},{"id":"Numerator_1","code":{"coding":[{"system":"http://terminology.hl7.org/CodeSystem/measure-population","code":"numerator","display":"Numerator"}]},"count":1}]}]},{"id":"Stratification_1_4","code":[{"text":"Strata-4"}],"stratum":[{"value":{"text":"Strata-4"},"population":[{"id":"InitialPopulation_1","code":{"coding":[{"system":"http://terminology.hl7.org/CodeSystem/measure-population","code":"initial-population","display":"Initial Population"}]},"count":0},{"id":"Denominator_1","code":{"coding":[{"system":"http://terminology.hl7.org/CodeSystem/measure-population","code":"denominator","display":"Denominator"}]},"count":0},{"id":"Numerator_1","code":{"coding":[{"system":"http://terminology.hl7.org/CodeSystem/measure-population","code":"numerator","display":"Numerator"}]},"count":0}]}]}]}],"evaluatedResource":[{"reference":"Patient/c15c97ea-1631-468d-b2d0-420230f6c6d8"},{"reference":"Encounter/41cae07e-d951-4ed6-82bd-3f858f2fde55"},{"reference":"Encounter/b8e14ccf-41ea-40eb-aff6-5c2165a3796b"},{"reference":"ServiceRequest/18947321-205d-4536-9175-1c9593fca179"},{"reference":"Location/5e8bebfe-0af6-4736-ad95-7ffb7a0b8626"},{"reference":"Claim/ClaimBehavior-NotSubsAbuse"},{"reference":"Coverage/7aab1e20-437f-48f5-9822-6048dca515fe"},{"reference":"Condition/416d589d-883d-46d9-b06b-13574a47963b"},{"reference":"Encounter/d3261a09-f078-449c-a929-beca7b76b585"},{"reference":"Organization/7df93da9-ec02-465e-89a6-12151cae61f8"},{"reference":"Practitioner/77332f84-f5f8-4fd2-9819-7c138580ac45"}]},"request":{"method":"PUT","url":"MeasureReport/6e1ecfdb-be14-44f9-a5ff-74446ad19cbe"}},{"fullUrl":"Encounter/b8e14ccf-41ea-40eb-aff6-5c2165a3796b","resource":{"resourceType":"Encounter","id":"b8e14ccf-41ea-40eb-aff6-5c2165a3796b","meta":{"profile":["http://hl7.org/fhir/us/qicore/StructureDefinition/qicore-encounter"]},"status":"finished","class":{"system":"http://terminology.hl7.org/CodeSystem/v3-ActCode","code":"IMP","display":"inpatient encounter"},"type":[{"coding":[{"system":"http://snomed.info/sct","version":"2023-09","code":"183452005","display":"Emergency hospital admission (procedure)","userSelected":true}]}],"subject":{"reference":"Patient/c15c97ea-1631-468d-b2d0-420230f6c6d8"},"period":{"start":"2027-05-01T05:00:00.000+00:00","end":"2027-05-03T06:15:00.000+00:00"}},"request":{"method":"PUT","url":"Encounter/b8e14ccf-41ea-40eb-aff6-5c2165a3796b"}},{"fullUrl":"Encounter/41cae07e-d951-4ed6-82bd-3f858f2fde55","resource":{"resourceType":"Encounter","id":"41cae07e-d951-4ed6-82bd-3f858f2fde55","meta":{"profile":["http://hl7.org/fhir/us/qicore/StructureDefinition/qicore-encounter"]},"status":"finished","class":{"system":"http://terminology.hl7.org/CodeSystem/v3-ActCode","code":"EMER","display":"emergency department"},"type":[{"coding":[{"system":"http://snomed.info/sct","version":"2023-09","code":"4525004","display":"Emergency department patient visit (procedure)","userSelected":true}]}],"subject":{"reference":"Patient/c15c97ea-1631-468d-b2d0-420230f6c6d8"},"period":{"start":"2027-05-01T00:00:00.000+00:00","end":"2027-05-01T06:00:00.000+00:00"},"diagnosis":[{"condition":{"reference":"Condition/416d589d-883d-46d9-b06b-13574a47963b"},"use":{"coding":[{"system":"http://terminology.hl7.org/CodeSystem/diagnosis-role","code":"billing"}]},"rank":1}],"location":[{"location":{"reference":"Location/5e8bebfe-0af6-4736-ad95-7ffb7a0b8626"},"period":{"start":"2027-05-01T00:00:00.000+00:00","end":"2027-05-01T06:01:00.000+00:00"}}]},"request":{"method":"PUT","url":"Encounter/41cae07e-d951-4ed6-82bd-3f858f2fde55"}},{"fullUrl":"Claim/ClaimBehavior-NotSubsAbuse","resource":{"resourceType":"Claim","id":"ClaimBehavior-NotSubsAbuse","meta":{"profile":["http://hl7.org/fhir/us/qicore/StructureDefinition/qicore-claim"]},"status":"active","type":{"coding":[{"system":"http://terminology.hl7.org/CodeSystem/claim-type","code":"institutional"}]},"use":"claim","patient":{"reference":"Patient/c15c97ea-1631-468d-b2d0-420230f6c6d8"},"created":"2027-05-01","provider":{"reference":"Practitioner/77332f84-f5f8-4fd2-9819-7c138580ac45"},"priority":{"coding":[{"system":"http://terminology.hl7.org/CodeSystem/processpriority","code":"normal"}]},"diagnosis":[{"sequence":1,"diagnosisReference":{"reference":"Condition/416d589d-883d-46d9-b06b-13574a47963b"},"type":[{"coding":[{"system":"http://terminology.hl7.org/CodeSystem/ex-diagnosistype","code":"principal"}]}]}],"insurance":[{"sequence":1,"focal":true,"coverage":{"reference":"Coverage/7aab1e20-437f-48f5-9822-6048dca515fe"}}],"item":[{"sequence":1,"diagnosisSequence":[1],"productOrService":{"coding":[{"system":"http://terminology.hl7.org/CodeSystem/ex-USCLS","code":"99555"}]},"encounter":[{"reference":"Encounter/41cae07e-d951-4ed6-82bd-3f858f2fde55"}]}]},"request":{"method":"PUT","url":"Claim/ClaimBehavior-NotSubsAbuse"}},{"fullUrl":"Organization/7df93da9-ec02-465e-89a6-12151cae61f8","resource":{"resourceType":"Organization","id":"7df93da9-ec02-465e-89a6-12151cae61f8","meta":{"profile":["http://hl7.org/fhir/us/qicore/StructureDefinition/qicore-organization"]},"identifier":[{"use":"temp","system":"urn:oid:2.16.840.1.113883.4.4","value":"21-3259825"}],"active":true,"type":[{"coding":[{"system":"http://terminology.hl7.org/CodeSystem/organization-type","code":"pay","display":"Payer"}]}],"name":"Blue Cross Blue Shield of Texas","telecom":[{"system":"phone","value":"(+1) 972-766-6900"}],"address":[{"use":"billing","type":"postal","line":["P.O. Box 660044"],"city":"Dallas","state":"TX","postalCode":"75266-0044","country":"USA"}]},"request":{"method":"PUT","url":"Organization/7df93da9-ec02-465e-89a6-12151cae61f8"}}]}