{"resourceType":"Bundle","id":"tests-dad5b672-1e5b-437c-91fe-1f69b5d58c70-bundle","type":"transaction","entry":[{"fullUrl":"Coverage/2840b523-f244-4587-bace-f04bfee3794b","resource":{"resourceType":"Coverage","id":"2840b523-f244-4587-bace-f04bfee3794b","meta":{"profile":["http://hl7.org/fhir/us/qicore/StructureDefinition/qicore-coverage"]},"identifier":[{"type":{"coding":[{"system":"http://terminology.hl7.org/CodeSystem/v2-0203","code":"MB"}]}}],"status":"active","beneficiary":{"reference":"Patient/dad5b672-1e5b-437c-91fe-1f69b5d58c70"},"relationship":{"coding":[{"system":"http://terminology.hl7.org/CodeSystem/subscriber-relationship","code":"self"}]},"payor":[{"reference":"Organization/876dd283-8476-4d97-818b-b7cee99f330d"}]},"request":{"method":"PUT","url":"Coverage/2840b523-f244-4587-bace-f04bfee3794b"}},{"fullUrl":"Bundle/661476b015ed5841a5547ebf","resource":{"resourceType":"Bundle","id":"661476b015ed5841a5547ebf","type":"transaction","entry":[{"fullUrl":"https://madie.cms.gov/Patient/dad5b672-1e5b-437c-91fe-1f69b5d58c70","resource":{"resourceType":"Patient","id":"dad5b672-1e5b-437c-91fe-1f69b5d58c70","meta":{"profile":["http://hl7.org/fhir/us/qicore/StructureDefinition/qicore-patient"]},"extension":[{"url":"http://hl7.org/fhir/us/core/StructureDefinition/us-core-race","extension":[{"url":"ombCategory","valueCoding":{"system":"urn:oid:2.16.840.1.113883.6.238","code":"1002-5","display":"American Indian or Alaska Native","userSelected":true}},{"url":"text","valueString":"American Indian or Alaska Native"}]},{"url":"http://hl7.org/fhir/us/core/StructureDefinition/us-core-ethnicity","extension":[{"url":"ombCategory","valueCoding":{"system":"urn:oid:2.16.840.1.113883.6.238","code":"2135-2","display":"Hispanic or Latino","userSelected":true}},{"url":"text","valueString":"Hispanic or Latino"}]},{"url":"http://hl7.org/fhir/us/core/StructureDefinition/us-core-sex","valueCode":"248153007"}],"identifier":[{"type":{"coding":[{"system":"http://terminology.hl7.org/CodeSystem/v2-0203","code":"MR"}]},"system":"https://bonnie-fhir.healthit.gov/","value":"661476b015ed5841a5547ebf"}],"name":[{"family":"NUMEXStrat2Fail","given":["BoardedAfterEDEncEnds"]}],"gender":"male","birthDate":"2009-01-01"},"request":{"method":"PUT","url":"Patient/dad5b672-1e5b-437c-91fe-1f69b5d58c70"}},{"fullUrl":"https://madie.cms.gov/Encounter/991f4a03-8207-4ea2-9bfa-21199a78a0d1","resource":{"resourceType":"Encounter","id":"991f4a03-8207-4ea2-9bfa-21199a78a0d1","meta":{"profile":["http://hl7.org/fhir/us/qicore/StructureDefinition/qicore-encounter"]},"status":"finished","class":{"system":"http://terminology.hl7.org/CodeSystem/v3-ActCode","code":"EMER","display":"emergency department"},"type":[{"coding":[{"system":"http://snomed.info/sct","version":"2023-09","code":"4525004","display":"Emergency department patient visit (procedure)","userSelected":true}]}],"subject":{"reference":"Patient/dad5b672-1e5b-437c-91fe-1f69b5d58c70"},"period":{"start":"2027-05-01T00:00:00.000+00:00","end":"2027-05-01T06:00:00.000+00:00"},"diagnosis":[{"condition":{"reference":"Condition/non-behavioral-health-diagnosis-without-substance-use-disorders-8a64"},"use":{"coding":[{"system":"http://terminology.hl7.org/CodeSystem/diagnosis-role","code":"billing"}]},"rank":1}],"location":[{"location":{"reference":"Location/5cbff5e6-8c41-4069-b3b1-3e1e24527402"},"period":{"start":"2027-05-01T00:00:00.000+00:00","end":"2027-05-01T06:01:00.000+00:00"}}]},"request":{"method":"PUT","url":"Encounter/991f4a03-8207-4ea2-9bfa-21199a78a0d1"}},{"fullUrl":"https://madie.cms.gov/Encounter/f5554a89-df11-4167-91f9-ea1edd6a72c5","resource":{"resourceType":"Encounter","id":"f5554a89-df11-4167-91f9-ea1edd6a72c5","meta":{"profile":["http://hl7.org/fhir/us/qicore/StructureDefinition/qicore-encounter"]},"status":"finished","class":{"system":"http://terminology.hl7.org/CodeSystem/v3-ActCode","code":"IMP","display":"inpatient encounter"},"type":[{"coding":[{"system":"http://snomed.info/sct","version":"2023-09","code":"183452005","display":"Emergency hospital admission (procedure)","userSelected":true}]}],"subject":{"reference":"Patient/dad5b672-1e5b-437c-91fe-1f69b5d58c70"},"period":{"start":"2027-05-01T05:00:00.000+00:00","end":"2027-05-03T06:15:00.000+00:00"}},"request":{"method":"PUT","url":"Encounter/f5554a89-df11-4167-91f9-ea1edd6a72c5"}},{"fullUrl":"https://madie.cms.gov/ServiceRequest/ba6b2c83-ee4f-4e63-aa42-c8c7f450a7b1","resource":{"resourceType":"ServiceRequest","id":"ba6b2c83-ee4f-4e63-aa42-c8c7f450a7b1","meta":{"profile":["http://hl7.org/fhir/us/qicore/StructureDefinition/qicore-servicerequest"]},"status":"active","intent":"order","code":{"coding":[{"system":"http://snomed.info/sct","code":"5751000175101","display":"Patient bed assigned (finding)","userSelected":true}]},"subject":{"reference":"Patient/dad5b672-1e5b-437c-91fe-1f69b5d58c70"},"authoredOn":"2027-05-01T02:00:00.000+00:00"},"request":{"method":"PUT","url":"ServiceRequest/ba6b2c83-ee4f-4e63-aa42-c8c7f450a7b1"}},{"fullUrl":"https://madie.cms.gov/Location/5cbff5e6-8c41-4069-b3b1-3e1e24527402","resource":{"resourceType":"Location","id":"5cbff5e6-8c41-4069-b3b1-3e1e24527402","meta":{"profile":["http://hl7.org/fhir/us/qicore/StructureDefinition/qicore-location"]},"identifier":[{"use":"usual","system":"http://exampleoflocation.com","value":"B1-S.F2"}],"name":"Medical Surgical East, first floor","type":[{"coding":[{"system":"https://www.cdc.gov/nhsn/cdaportal/terminology/codesystem/hsloc.html","version":"2022","code":"1108-0","display":"Emergency Department","userSelected":true}]}]},"request":{"method":"PUT","url":"Location/5cbff5e6-8c41-4069-b3b1-3e1e24527402"}},{"fullUrl":"https://madie.cms.gov/claim/ClaimBehavior-NotSubsAbuse","resource":{"resourceType":"Claim","id":"ClaimBehavior-NotSubsAbuse","meta":{"profile":["http://hl7.org/fhir/us/qicore/StructureDefinition/qicore-claim"]},"status":"active","type":{"coding":[{"system":"http://terminology.hl7.org/CodeSystem/claim-type","code":"institutional"}]},"use":"claim","patient":{"reference":"Patient/dad5b672-1e5b-437c-91fe-1f69b5d58c70"},"created":"2027-05-01","provider":{"reference":"Practitioner/7ede132b-90af-4f9f-b780-0dd14039e7d0"},"priority":{"coding":[{"system":"http://terminology.hl7.org/CodeSystem/processpriority","code":"normal"}]},"diagnosis":[{"sequence":1,"diagnosisReference":{"reference":"Condition/9477eea0-a110-4d48-b141-f9642b305d4a"},"type":[{"coding":[{"system":"http://terminology.hl7.org/CodeSystem/ex-diagnosistype","code":"principal"}]}]}],"insurance":[{"sequence":1,"focal":true,"coverage":{"reference":"Coverage/2840b523-f244-4587-bace-f04bfee3794b"}}],"item":[{"sequence":1,"diagnosisSequence":[1],"productOrService":{"coding":[{"system":"http://terminology.hl7.org/CodeSystem/ex-USCLS","code":"99555"}]},"encounter":[{"reference":"Encounter/991f4a03-8207-4ea2-9bfa-21199a78a0d1"}]}]},"request":{"method":"PUT","url":"Claim/ClaimBehavior-NotSubsAbuse"}},{"fullUrl":"https://madie.cms.gov/Coverage/2840b523-f244-4587-bace-f04bfee3794b","resource":{"resourceType":"Coverage","id":"2840b523-f244-4587-bace-f04bfee3794b","meta":{"profile":["http://hl7.org/fhir/us/qicore/StructureDefinition/qicore-coverage"]},"identifier":[{"type":{"coding":[{"system":"http://terminology.hl7.org/CodeSystem/v2-0203","code":"MB"}]}}],"status":"active","beneficiary":{"reference":"Patient/dad5b672-1e5b-437c-91fe-1f69b5d58c70"},"relationship":{"coding":[{"system":"http://terminology.hl7.org/CodeSystem/subscriber-relationship","code":"self"}]},"payor":[{"reference":"Organization/876dd283-8476-4d97-818b-b7cee99f330d"}]},"request":{"method":"PUT","url":"Coverage/2840b523-f244-4587-bace-f04bfee3794b"}},{"fullUrl":"https://madie.cms.gov/Condition/9477eea0-a110-4d48-b141-f9642b305d4a","resource":{"resourceType":"Condition","id":"9477eea0-a110-4d48-b141-f9642b305d4a","meta":{"profile":["http://hl7.org/fhir/us/qicore/StructureDefinition/qicore-condition-encounter-diagnosis"]},"category":[{"coding":[{"system":"http://terminology.hl7.org/CodeSystem/condition-category","code":"encounter-diagnosis","display":"Encounter Diagnosis"}]}],"code":{"coding":[{"system":"http://snomed.info/sct","version":"2023-09","code":"10674711000119105","display":"Acute severe exacerbation of asthma co-occurrent with allergic rhinitis (disorder)","userSelected":true}]},"subject":{"reference":"Patient/dad5b672-1e5b-437c-91fe-1f69b5d58c70"},"recordedDate":"2027-05-01T08:00:00.000+00:00"},"request":{"method":"PUT","url":"Condition/9477eea0-a110-4d48-b141-f9642b305d4a"}},{"fullUrl":"https://madie.cms.gov/Encounter/c6342024-2a38-4620-8ee6-695b67d5658e","resource":{"resourceType":"Encounter","id":"c6342024-2a38-4620-8ee6-695b67d5658e","meta":{"profile":["http://hl7.org/fhir/us/qicore/StructureDefinition/qicore-encounter"]},"status":"finished","class":{"system":"http://terminology.hl7.org/CodeSystem/v3-ActCode","code":"EMER","display":"emergency"},"type":[{"coding":[{"system":"http://snomed.info/sct","code":"448951000124107","display":"Admission to observation unit (procedure)","userSelected":true}]}],"subject":{"reference":"Patient/dad5b672-1e5b-437c-91fe-1f69b5d58c70"},"period":{"start":"2027-05-01T06:02:00.000+00:00","end":"2027-05-01T08:59:00.000+00:00"}},"request":{"method":"PUT","url":"Encounter/c6342024-2a38-4620-8ee6-695b67d5658e"}},{"fullUrl":"https://madie.cms.gov/Organization/876dd283-8476-4d97-818b-b7cee99f330d","resource":{"resourceType":"Organization","id":"876dd283-8476-4d97-818b-b7cee99f330d","meta":{"profile":["http://hl7.org/fhir/us/qicore/StructureDefinition/qicore-organization"]},"identifier":[{"use":"temp","system":"urn:oid:2.16.840.1.113883.4.4","value":"21-3259825"}],"active":true,"type":[{"coding":[{"system":"http://terminology.hl7.org/CodeSystem/organization-type","code":"pay","display":"Payer"}]}],"name":"Blue Cross Blue Shield of Texas","telecom":[{"system":"phone","value":"(+1) 972-766-6900"}],"address":[{"use":"billing","type":"postal","line":["P.O. Box 660044"],"city":"Dallas","state":"TX","postalCode":"75266-0044","country":"USA"}]},"request":{"method":"PUT","url":"Organization/876dd283-8476-4d97-818b-b7cee99f330d"}},{"fullUrl":"https://madie.cms.gov/Practitioner/7ede132b-90af-4f9f-b780-0dd14039e7d0","resource":{"resourceType":"Practitioner","id":"7ede132b-90af-4f9f-b780-0dd14039e7d0","meta":{"profile":["http://hl7.org/fhir/us/qicore/StructureDefinition/qicore-practitioner"]},"identifier":[{"system":"http://hl7.org/fhir/sid/us-npi","value":"9999999896"}],"name":[{"family":"Evil","prefix":["Dr"]}]},"request":{"method":"PUT","url":"Practitioner/7ede132b-90af-4f9f-b780-0dd14039e7d0"}},{"fullUrl":"https://madie.cms.gov/MeasureReport/682124ec-f236-447d-9b05-99036ee466b3","resource":{"resourceType":"MeasureReport","id":"682124ec-f236-447d-9b05-99036ee466b3","meta":{"profile":["http://hl7.org/fhir/us/cqfmeasures/StructureDefinition/test-case-cqfm"]},"contained":[{"resourceType":"Parameters","id":"41ad91d9-2c62-4cab-ae9c-bd90111daa38-parameters","parameter":[{"name":"subject","valueString":"dad5b672-1e5b-437c-91fe-1f69b5d58c70"}]}],"extension":[{"url":"http://hl7.org/fhir/StructureDefinition/cqf-inputParameters","valueReference":{"reference":"#41ad91d9-2c62-4cab-ae9c-bd90111daa38-parameters"}},{"url":"http://hl7.org/fhir/us/cqfmeasures/StructureDefinition/cqfm-testCaseDescription","valueMarkdown":"Adult, ED observation order AFTER ED enc where patient was boarded 6 hrs 1 min; Enc 8 hrs, enc departure 8 hrs 1 min. dx asthma "}],"modifierExtension":[{"url":"http://hl7.org/fhir/us/cqfmeasures/StructureDefinition/cqfm-isTestCase","valueBoolean":true}],"status":"complete","type":"individual","measure":"https://madie.cms.gov/Measure/CMS1244FHIRECATHOQR","period":{"start":"2027-01-01","end":"2027-12-31"},"group":[{"id":"Group_1","population":[{"id":"InitialPopulation_1","code":{"coding":[{"system":"http://terminology.hl7.org/CodeSystem/measure-population","code":"initial-population","display":"Initial Population"}]},"count":1},{"id":"Denominator_1","code":{"coding":[{"system":"http://terminology.hl7.org/CodeSystem/measure-population","code":"denominator","display":"Denominator"}]},"count":1},{"id":"Numerator_1","code":{"coding":[{"system":"http://terminology.hl7.org/CodeSystem/measure-population","code":"numerator","display":"Numerator"}]},"count":1}],"measureScore":{"value":0.0},"stratifier":[{"id":"Stratification_1_1","code":[{"text":"Strata-1"}],"stratum":[{"value":{"text":"Strata-1"},"population":[{"id":"InitialPopulation_1","code":{"coding":[{"system":"http://terminology.hl7.org/CodeSystem/measure-population","code":"initial-population","display":"Initial Population"}]},"count":0},{"id":"Denominator_1","code":{"coding":[{"system":"http://terminology.hl7.org/CodeSystem/measure-population","code":"denominator","display":"Denominator"}]},"count":0},{"id":"Numerator_1","code":{"coding":[{"system":"http://terminology.hl7.org/CodeSystem/measure-population","code":"numerator","display":"Numerator"}]},"count":0}]}]},{"id":"Stratification_1_2","code":[{"text":"Strata-2"}],"stratum":[{"value":{"text":"Strata-2"},"population":[{"id":"InitialPopulation_1","code":{"coding":[{"system":"http://terminology.hl7.org/CodeSystem/measure-population","code":"initial-population","display":"Initial Population"}]},"count":1},{"id":"Denominator_1","code":{"coding":[{"system":"http://terminology.hl7.org/CodeSystem/measure-population","code":"denominator","display":"Denominator"}]},"count":1},{"id":"Numerator_1","code":{"coding":[{"system":"http://terminology.hl7.org/CodeSystem/measure-population","code":"numerator","display":"Numerator"}]},"count":1}]}]},{"id":"Stratification_1_3","code":[{"text":"Strata-3"}],"stratum":[{"value":{"text":"Strata-3"},"population":[{"id":"InitialPopulation_1","code":{"coding":[{"system":"http://terminology.hl7.org/CodeSystem/measure-population","code":"initial-population","display":"Initial Population"}]},"count":0},{"id":"Denominator_1","code":{"coding":[{"system":"http://terminology.hl7.org/CodeSystem/measure-population","code":"denominator","display":"Denominator"}]},"count":0},{"id":"Numerator_1","code":{"coding":[{"system":"http://terminology.hl7.org/CodeSystem/measure-population","code":"numerator","display":"Numerator"}]},"count":0}]}]},{"id":"Stratification_1_4","code":[{"text":"Strata-4"}],"stratum":[{"value":{"text":"Strata-4"},"population":[{"id":"InitialPopulation_1","code":{"coding":[{"system":"http://terminology.hl7.org/CodeSystem/measure-population","code":"initial-population","display":"Initial Population"}]},"count":0},{"id":"Denominator_1","code":{"coding":[{"system":"http://terminology.hl7.org/CodeSystem/measure-population","code":"denominator","display":"Denominator"}]},"count":0},{"id":"Numerator_1","code":{"coding":[{"system":"http://terminology.hl7.org/CodeSystem/measure-population","code":"numerator","display":"Numerator"}]},"count":0}]}]}]}],"evaluatedResource":[{"reference":"Patient/dad5b672-1e5b-437c-91fe-1f69b5d58c70"},{"reference":"Encounter/991f4a03-8207-4ea2-9bfa-21199a78a0d1"},{"reference":"Encounter/f5554a89-df11-4167-91f9-ea1edd6a72c5"},{"reference":"ServiceRequest/ba6b2c83-ee4f-4e63-aa42-c8c7f450a7b1"},{"reference":"Location/5cbff5e6-8c41-4069-b3b1-3e1e24527402"},{"reference":"Claim/ClaimBehavior-NotSubsAbuse"},{"reference":"Coverage/2840b523-f244-4587-bace-f04bfee3794b"},{"reference":"Condition/9477eea0-a110-4d48-b141-f9642b305d4a"},{"reference":"Encounter/c6342024-2a38-4620-8ee6-695b67d5658e"},{"reference":"Organization/876dd283-8476-4d97-818b-b7cee99f330d"},{"reference":"Practitioner/7ede132b-90af-4f9f-b780-0dd14039e7d0"}]},"request":{"method":"PUT","url":"MeasureReport/682124ec-f236-447d-9b05-99036ee466b3"}}]},"request":{"method":"PUT","url":"Bundle/661476b015ed5841a5547ebf"}},{"fullUrl":"Organization/876dd283-8476-4d97-818b-b7cee99f330d","resource":{"resourceType":"Organization","id":"876dd283-8476-4d97-818b-b7cee99f330d","meta":{"profile":["http://hl7.org/fhir/us/qicore/StructureDefinition/qicore-organization"]},"identifier":[{"use":"temp","system":"urn:oid:2.16.840.1.113883.4.4","value":"21-3259825"}],"active":true,"type":[{"coding":[{"system":"http://terminology.hl7.org/CodeSystem/organization-type","code":"pay","display":"Payer"}]}],"name":"Blue Cross Blue Shield of Texas","telecom":[{"system":"phone","value":"(+1) 972-766-6900"}],"address":[{"use":"billing","type":"postal","line":["P.O. Box 660044"],"city":"Dallas","state":"TX","postalCode":"75266-0044","country":"USA"}]},"request":{"method":"PUT","url":"Organization/876dd283-8476-4d97-818b-b7cee99f330d"}},{"fullUrl":"MeasureReport/682124ec-f236-447d-9b05-99036ee466b3","resource":{"resourceType":"MeasureReport","id":"682124ec-f236-447d-9b05-99036ee466b3","meta":{"profile":["http://hl7.org/fhir/us/cqfmeasures/StructureDefinition/test-case-cqfm"]},"contained":[{"resourceType":"Parameters","id":"41ad91d9-2c62-4cab-ae9c-bd90111daa38-parameters","parameter":[{"name":"subject","valueString":"dad5b672-1e5b-437c-91fe-1f69b5d58c70"}]}],"extension":[{"url":"http://hl7.org/fhir/StructureDefinition/cqf-inputParameters","valueReference":{"reference":"#41ad91d9-2c62-4cab-ae9c-bd90111daa38-parameters"}},{"url":"http://hl7.org/fhir/us/cqfmeasures/StructureDefinition/cqfm-testCaseDescription","valueMarkdown":"Adult, ED observation order AFTER ED enc where patient was boarded 6 hrs 1 min; Enc 8 hrs, enc departure 8 hrs 1 min. dx asthma "}],"modifierExtension":[{"url":"http://hl7.org/fhir/us/cqfmeasures/StructureDefinition/cqfm-isTestCase","valueBoolean":true}],"status":"complete","type":"individual","measure":"https://madie.cms.gov/Measure/CMS1244FHIRECATHOQR","period":{"start":"2027-01-01","end":"2027-12-31"},"group":[{"id":"Group_1","population":[{"id":"InitialPopulation_1","code":{"coding":[{"system":"http://terminology.hl7.org/CodeSystem/measure-population","code":"initial-population","display":"Initial Population"}]},"count":1},{"id":"Denominator_1","code":{"coding":[{"system":"http://terminology.hl7.org/CodeSystem/measure-population","code":"denominator","display":"Denominator"}]},"count":1},{"id":"Numerator_1","code":{"coding":[{"system":"http://terminology.hl7.org/CodeSystem/measure-population","code":"numerator","display":"Numerator"}]},"count":1}],"measureScore":{"value":0.0},"stratifier":[{"id":"Stratification_1_1","code":[{"text":"Strata-1"}],"stratum":[{"value":{"text":"Strata-1"},"population":[{"id":"InitialPopulation_1","code":{"coding":[{"system":"http://terminology.hl7.org/CodeSystem/measure-population","code":"initial-population","display":"Initial Population"}]},"count":0},{"id":"Denominator_1","code":{"coding":[{"system":"http://terminology.hl7.org/CodeSystem/measure-population","code":"denominator","display":"Denominator"}]},"count":0},{"id":"Numerator_1","code":{"coding":[{"system":"http://terminology.hl7.org/CodeSystem/measure-population","code":"numerator","display":"Numerator"}]},"count":0}]}]},{"id":"Stratification_1_2","code":[{"text":"Strata-2"}],"stratum":[{"value":{"text":"Strata-2"},"population":[{"id":"InitialPopulation_1","code":{"coding":[{"system":"http://terminology.hl7.org/CodeSystem/measure-population","code":"initial-population","display":"Initial Population"}]},"count":1},{"id":"Denominator_1","code":{"coding":[{"system":"http://terminology.hl7.org/CodeSystem/measure-population","code":"denominator","display":"Denominator"}]},"count":1},{"id":"Numerator_1","code":{"coding":[{"system":"http://terminology.hl7.org/CodeSystem/measure-population","code":"numerator","display":"Numerator"}]},"count":1}]}]},{"id":"Stratification_1_3","code":[{"text":"Strata-3"}],"stratum":[{"value":{"text":"Strata-3"},"population":[{"id":"InitialPopulation_1","code":{"coding":[{"system":"http://terminology.hl7.org/CodeSystem/measure-population","code":"initial-population","display":"Initial Population"}]},"count":0},{"id":"Denominator_1","code":{"coding":[{"system":"http://terminology.hl7.org/CodeSystem/measure-population","code":"denominator","display":"Denominator"}]},"count":0},{"id":"Numerator_1","code":{"coding":[{"system":"http://terminology.hl7.org/CodeSystem/measure-population","code":"numerator","display":"Numerator"}]},"count":0}]}]},{"id":"Stratification_1_4","code":[{"text":"Strata-4"}],"stratum":[{"value":{"text":"Strata-4"},"population":[{"id":"InitialPopulation_1","code":{"coding":[{"system":"http://terminology.hl7.org/CodeSystem/measure-population","code":"initial-population","display":"Initial Population"}]},"count":0},{"id":"Denominator_1","code":{"coding":[{"system":"http://terminology.hl7.org/CodeSystem/measure-population","code":"denominator","display":"Denominator"}]},"count":0},{"id":"Numerator_1","code":{"coding":[{"system":"http://terminology.hl7.org/CodeSystem/measure-population","code":"numerator","display":"Numerator"}]},"count":0}]}]}]}],"evaluatedResource":[{"reference":"Patient/dad5b672-1e5b-437c-91fe-1f69b5d58c70"},{"reference":"Encounter/991f4a03-8207-4ea2-9bfa-21199a78a0d1"},{"reference":"Encounter/f5554a89-df11-4167-91f9-ea1edd6a72c5"},{"reference":"ServiceRequest/ba6b2c83-ee4f-4e63-aa42-c8c7f450a7b1"},{"reference":"Location/5cbff5e6-8c41-4069-b3b1-3e1e24527402"},{"reference":"Claim/ClaimBehavior-NotSubsAbuse"},{"reference":"Coverage/2840b523-f244-4587-bace-f04bfee3794b"},{"reference":"Condition/9477eea0-a110-4d48-b141-f9642b305d4a"},{"reference":"Encounter/c6342024-2a38-4620-8ee6-695b67d5658e"},{"reference":"Organization/876dd283-8476-4d97-818b-b7cee99f330d"},{"reference":"Practitioner/7ede132b-90af-4f9f-b780-0dd14039e7d0"}]},"request":{"method":"PUT","url":"MeasureReport/682124ec-f236-447d-9b05-99036ee466b3"}},{"fullUrl":"Encounter/f5554a89-df11-4167-91f9-ea1edd6a72c5","resource":{"resourceType":"Encounter","id":"f5554a89-df11-4167-91f9-ea1edd6a72c5","meta":{"profile":["http://hl7.org/fhir/us/qicore/StructureDefinition/qicore-encounter"]},"status":"finished","class":{"system":"http://terminology.hl7.org/CodeSystem/v3-ActCode","code":"IMP","display":"inpatient encounter"},"type":[{"coding":[{"system":"http://snomed.info/sct","version":"2023-09","code":"183452005","display":"Emergency hospital admission (procedure)","userSelected":true}]}],"subject":{"reference":"Patient/dad5b672-1e5b-437c-91fe-1f69b5d58c70"},"period":{"start":"2027-05-01T05:00:00.000+00:00","end":"2027-05-03T06:15:00.000+00:00"}},"request":{"method":"PUT","url":"Encounter/f5554a89-df11-4167-91f9-ea1edd6a72c5"}},{"fullUrl":"Encounter/c6342024-2a38-4620-8ee6-695b67d5658e","resource":{"resourceType":"Encounter","id":"c6342024-2a38-4620-8ee6-695b67d5658e","meta":{"profile":["http://hl7.org/fhir/us/qicore/StructureDefinition/qicore-encounter"]},"status":"finished","class":{"system":"http://terminology.hl7.org/CodeSystem/v3-ActCode","code":"EMER","display":"emergency"},"type":[{"coding":[{"system":"http://snomed.info/sct","code":"448951000124107","display":"Admission to observation unit (procedure)","userSelected":true}]}],"subject":{"reference":"Patient/dad5b672-1e5b-437c-91fe-1f69b5d58c70"},"period":{"start":"2027-05-01T06:02:00.000+00:00","end":"2027-05-01T08:59:00.000+00:00"}},"request":{"method":"PUT","url":"Encounter/c6342024-2a38-4620-8ee6-695b67d5658e"}},{"fullUrl":"ServiceRequest/ba6b2c83-ee4f-4e63-aa42-c8c7f450a7b1","resource":{"resourceType":"ServiceRequest","id":"ba6b2c83-ee4f-4e63-aa42-c8c7f450a7b1","meta":{"profile":["http://hl7.org/fhir/us/qicore/StructureDefinition/qicore-servicerequest"]},"status":"active","intent":"order","code":{"coding":[{"system":"http://snomed.info/sct","code":"5751000175101","display":"Patient bed assigned (finding)","userSelected":true}]},"subject":{"reference":"Patient/dad5b672-1e5b-437c-91fe-1f69b5d58c70"},"authoredOn":"2027-05-01T02:00:00.000+00:00"},"request":{"method":"PUT","url":"ServiceRequest/ba6b2c83-ee4f-4e63-aa42-c8c7f450a7b1"}},{"fullUrl":"Practitioner/7ede132b-90af-4f9f-b780-0dd14039e7d0","resource":{"resourceType":"Practitioner","id":"7ede132b-90af-4f9f-b780-0dd14039e7d0","meta":{"profile":["http://hl7.org/fhir/us/qicore/StructureDefinition/qicore-practitioner"]},"identifier":[{"system":"http://hl7.org/fhir/sid/us-npi","value":"9999999896"}],"name":[{"family":"Evil","prefix":["Dr"]}]},"request":{"method":"PUT","url":"Practitioner/7ede132b-90af-4f9f-b780-0dd14039e7d0"}},{"fullUrl":"Condition/9477eea0-a110-4d48-b141-f9642b305d4a","resource":{"resourceType":"Condition","id":"9477eea0-a110-4d48-b141-f9642b305d4a","meta":{"profile":["http://hl7.org/fhir/us/qicore/StructureDefinition/qicore-condition-encounter-diagnosis"]},"category":[{"coding":[{"system":"http://terminology.hl7.org/CodeSystem/condition-category","code":"encounter-diagnosis","display":"Encounter Diagnosis"}]}],"code":{"coding":[{"system":"http://snomed.info/sct","version":"2023-09","code":"10674711000119105","display":"Acute severe exacerbation of asthma co-occurrent with allergic rhinitis (disorder)","userSelected":true}]},"subject":{"reference":"Patient/dad5b672-1e5b-437c-91fe-1f69b5d58c70"},"recordedDate":"2027-05-01T08:00:00.000+00:00"},"request":{"method":"PUT","url":"Condition/9477eea0-a110-4d48-b141-f9642b305d4a"}},{"fullUrl":"Claim/ClaimBehavior-NotSubsAbuse","resource":{"resourceType":"Claim","id":"ClaimBehavior-NotSubsAbuse","meta":{"profile":["http://hl7.org/fhir/us/qicore/StructureDefinition/qicore-claim"]},"status":"active","type":{"coding":[{"system":"http://terminology.hl7.org/CodeSystem/claim-type","code":"institutional"}]},"use":"claim","patient":{"reference":"Patient/dad5b672-1e5b-437c-91fe-1f69b5d58c70"},"created":"2027-05-01","provider":{"reference":"Practitioner/7ede132b-90af-4f9f-b780-0dd14039e7d0"},"priority":{"coding":[{"system":"http://terminology.hl7.org/CodeSystem/processpriority","code":"normal"}]},"diagnosis":[{"sequence":1,"diagnosisReference":{"reference":"Condition/9477eea0-a110-4d48-b141-f9642b305d4a"},"type":[{"coding":[{"system":"http://terminology.hl7.org/CodeSystem/ex-diagnosistype","code":"principal"}]}]}],"insurance":[{"sequence":1,"focal":true,"coverage":{"reference":"Coverage/2840b523-f244-4587-bace-f04bfee3794b"}}],"item":[{"sequence":1,"diagnosisSequence":[1],"productOrService":{"coding":[{"system":"http://terminology.hl7.org/CodeSystem/ex-USCLS","code":"99555"}]},"encounter":[{"reference":"Encounter/991f4a03-8207-4ea2-9bfa-21199a78a0d1"}]}]},"request":{"method":"PUT","url":"Claim/ClaimBehavior-NotSubsAbuse"}},{"fullUrl":"Location/5cbff5e6-8c41-4069-b3b1-3e1e24527402","resource":{"resourceType":"Location","id":"5cbff5e6-8c41-4069-b3b1-3e1e24527402","meta":{"profile":["http://hl7.org/fhir/us/qicore/StructureDefinition/qicore-location"]},"identifier":[{"use":"usual","system":"http://exampleoflocation.com","value":"B1-S.F2"}],"name":"Medical Surgical East, first floor","type":[{"coding":[{"system":"https://www.cdc.gov/nhsn/cdaportal/terminology/codesystem/hsloc.html","version":"2022","code":"1108-0","display":"Emergency Department","userSelected":true}]}]},"request":{"method":"PUT","url":"Location/5cbff5e6-8c41-4069-b3b1-3e1e24527402"}},{"fullUrl":"Encounter/991f4a03-8207-4ea2-9bfa-21199a78a0d1","resource":{"resourceType":"Encounter","id":"991f4a03-8207-4ea2-9bfa-21199a78a0d1","meta":{"profile":["http://hl7.org/fhir/us/qicore/StructureDefinition/qicore-encounter"]},"status":"finished","class":{"system":"http://terminology.hl7.org/CodeSystem/v3-ActCode","code":"EMER","display":"emergency department"},"type":[{"coding":[{"system":"http://snomed.info/sct","version":"2023-09","code":"4525004","display":"Emergency department patient visit (procedure)","userSelected":true}]}],"subject":{"reference":"Patient/dad5b672-1e5b-437c-91fe-1f69b5d58c70"},"period":{"start":"2027-05-01T00:00:00.000+00:00","end":"2027-05-01T06:00:00.000+00:00"},"diagnosis":[{"condition":{"reference":"Condition/non-behavioral-health-diagnosis-without-substance-use-disorders-8a64"},"use":{"coding":[{"system":"http://terminology.hl7.org/CodeSystem/diagnosis-role","code":"billing"}]},"rank":1}],"location":[{"location":{"reference":"Location/5cbff5e6-8c41-4069-b3b1-3e1e24527402"},"period":{"start":"2027-05-01T00:00:00.000+00:00","end":"2027-05-01T06:01:00.000+00:00"}}]},"request":{"method":"PUT","url":"Encounter/991f4a03-8207-4ea2-9bfa-21199a78a0d1"}},{"fullUrl":"Patient/dad5b672-1e5b-437c-91fe-1f69b5d58c70","resource":{"resourceType":"Patient","id":"dad5b672-1e5b-437c-91fe-1f69b5d58c70","meta":{"profile":["http://hl7.org/fhir/us/qicore/StructureDefinition/qicore-patient"]},"extension":[{"url":"http://hl7.org/fhir/us/core/StructureDefinition/us-core-race","extension":[{"url":"ombCategory","valueCoding":{"system":"urn:oid:2.16.840.1.113883.6.238","code":"1002-5","display":"American Indian or Alaska Native","userSelected":true}},{"url":"text","valueString":"American Indian or Alaska Native"}]},{"url":"http://hl7.org/fhir/us/core/StructureDefinition/us-core-ethnicity","extension":[{"url":"ombCategory","valueCoding":{"system":"urn:oid:2.16.840.1.113883.6.238","code":"2135-2","display":"Hispanic or Latino","userSelected":true}},{"url":"text","valueString":"Hispanic or Latino"}]},{"url":"http://hl7.org/fhir/us/core/StructureDefinition/us-core-sex","valueCode":"248153007"}],"identifier":[{"type":{"coding":[{"system":"http://terminology.hl7.org/CodeSystem/v2-0203","code":"MR"}]},"system":"https://bonnie-fhir.healthit.gov/","value":"661476b015ed5841a5547ebf"}],"name":[{"family":"NUMEXStrat2Fail","given":["BoardedAfterEDEncEnds"]}],"gender":"male","birthDate":"2009-01-01"},"request":{"method":"PUT","url":"Patient/dad5b672-1e5b-437c-91fe-1f69b5d58c70"}}]}