{"resourceType":"Bundle","id":"tests-63cea3d6-d2e0-4736-a035-87633ca960bd-bundle","type":"transaction","entry":[{"resource":{"resourceType":"Condition","id":"3d355296-070d-4588-99e9-01b9fe959b44","meta":{"profile":["http://hl7.org/fhir/us/qicore/StructureDefinition/qicore-condition-encounter-diagnosis"]},"category":[{"coding":[{"system":"http://terminology.hl7.org/CodeSystem/condition-category","code":"encounter-diagnosis","display":"Encounter Diagnosis"}]}],"code":{"coding":[{"system":"http://snomed.info/sct","version":"2023-09","code":"10349009","display":"Multi-infarct dementia with delirium (disorder)","userSelected":true}]},"subject":{"reference":"Patient/63cea3d6-d2e0-4736-a035-87633ca960bd"},"recordedDate":"2027-04-09T08:00:00.000+00:00"},"request":{"method":"PUT","url":"Condition/3d355296-070d-4588-99e9-01b9fe959b44"}},{"resource":{"resourceType":"Encounter","id":"5b49e191-d5bf-4dd5-814c-179e99df6d46","meta":{"profile":["http://hl7.org/fhir/us/qicore/StructureDefinition/qicore-encounter"]},"status":"finished","class":{"system":"http://terminology.hl7.org/CodeSystem/v3-ActCode","code":"EMER","display":"emergency department"},"type":[{"coding":[{"system":"http://snomed.info/sct","version":"2023-09","code":"4525004","display":"Emergency department patient visit (procedure)","userSelected":true}]}],"subject":{"reference":"Patient/63cea3d6-d2e0-4736-a035-87633ca960bd"},"period":{"start":"2027-05-01T06:00:00.000+00:00","end":"2027-05-01T10:00:00.000+00:00"},"diagnosis":[{"condition":{"reference":"Condition/3d355296-070d-4588-99e9-01b9fe959b44"},"use":{"coding":[{"system":"http://terminology.hl7.org/CodeSystem/diagnosis-role","code":"billing"}]},"rank":1}],"location":[{"location":{"reference":"Location/526e0d56-72d0-4abc-936e-a755fde375ea"},"period":{"start":"2027-05-01T06:00:00.000+00:00","end":"2027-05-01T10:00:00.000+00:00"}}]},"request":{"method":"PUT","url":"Encounter/5b49e191-d5bf-4dd5-814c-179e99df6d46"}},{"resource":{"resourceType":"Encounter","id":"47480944-398d-4c39-9c72-ff2054dd2190","meta":{"profile":["http://hl7.org/fhir/us/qicore/StructureDefinition/qicore-encounter"]},"status":"finished","class":{"system":"http://terminology.hl7.org/CodeSystem/v3-ActCode","code":"IMP","display":"inpatient encounter"},"type":[{"coding":[{"system":"http://snomed.info/sct","version":"2023-09","code":"183452005","display":"Emergency hospital admission (procedure)","userSelected":true}]}],"subject":{"reference":"Patient/63cea3d6-d2e0-4736-a035-87633ca960bd"},"period":{"start":"2027-05-01T10:00:00.000+00:00","end":"2027-05-03T06:15:00.000+00:00"}},"request":{"method":"PUT","url":"Encounter/47480944-398d-4c39-9c72-ff2054dd2190"}},{"resource":{"resourceType":"Organization","id":"859194e5-0c7d-4731-8971-b89ad0cf0025","meta":{"profile":["http://hl7.org/fhir/us/qicore/StructureDefinition/qicore-organization"]},"identifier":[{"use":"temp","system":"urn:oid:2.16.840.1.113883.4.4","value":"21-3259825"}],"active":true,"type":[{"coding":[{"system":"http://terminology.hl7.org/CodeSystem/organization-type","code":"pay","display":"Payer"}]}],"name":"Blue Cross Blue Shield of Texas","telecom":[{"system":"phone","value":"(+1) 972-766-6900"}],"address":[{"use":"billing","type":"postal","line":["P.O. Box 660044"],"city":"Dallas","state":"TX","postalCode":"75266-0044","country":"USA"}]},"request":{"method":"PUT","url":"Organization/859194e5-0c7d-4731-8971-b89ad0cf0025"}},{"resource":{"resourceType":"Bundle","id":"661476b015ed5841a5547ebf","type":"transaction","entry":[{"fullUrl":"https://madie.cms.gov/Patient/63cea3d6-d2e0-4736-a035-87633ca960bd","resource":{"resourceType":"Patient","id":"63cea3d6-d2e0-4736-a035-87633ca960bd","meta":{"profile":["http://hl7.org/fhir/us/qicore/StructureDefinition/qicore-patient"]},"extension":[{"url":"http://hl7.org/fhir/us/core/StructureDefinition/us-core-race","extension":[{"url":"ombCategory","valueCoding":{"system":"urn:oid:2.16.840.1.113883.6.238","code":"1002-5","display":"American Indian or Alaska Native","userSelected":true}},{"url":"text","valueString":"American Indian or Alaska Native"}]},{"url":"http://hl7.org/fhir/us/core/StructureDefinition/us-core-ethnicity","extension":[{"url":"ombCategory","valueCoding":{"system":"urn:oid:2.16.840.1.113883.6.238","code":"2135-2","display":"Hispanic or Latino","userSelected":true}},{"url":"text","valueString":"Hispanic or Latino"}]},{"url":"http://hl7.org/fhir/us/core/StructureDefinition/us-core-sex","valueCode":"248153007"}],"identifier":[{"type":{"coding":[{"system":"http://terminology.hl7.org/CodeSystem/v2-0203","code":"MR"}]},"system":"https://bonnie-fhir.healthit.gov/","value":"661476b015ed5841a5547ebf"}],"name":[{"family":"NUMERStrat4Fail","given":["AdmittedInpatientLessThan240Mins"]}],"gender":"male","birthDate":"2009-01-01"},"request":{"method":"PUT","url":"Patient/63cea3d6-d2e0-4736-a035-87633ca960bd"}},{"fullUrl":"https://madie.cms.gov/Encounter/5b49e191-d5bf-4dd5-814c-179e99df6d46","resource":{"resourceType":"Encounter","id":"5b49e191-d5bf-4dd5-814c-179e99df6d46","meta":{"profile":["http://hl7.org/fhir/us/qicore/StructureDefinition/qicore-encounter"]},"status":"finished","class":{"system":"http://terminology.hl7.org/CodeSystem/v3-ActCode","code":"EMER","display":"emergency department"},"type":[{"coding":[{"system":"http://snomed.info/sct","version":"2023-09","code":"4525004","display":"Emergency department patient visit (procedure)","userSelected":true}]}],"subject":{"reference":"Patient/63cea3d6-d2e0-4736-a035-87633ca960bd"},"period":{"start":"2027-05-01T06:00:00.000+00:00","end":"2027-05-01T10:00:00.000+00:00"},"diagnosis":[{"condition":{"reference":"Condition/3d355296-070d-4588-99e9-01b9fe959b44"},"use":{"coding":[{"system":"http://terminology.hl7.org/CodeSystem/diagnosis-role","code":"billing"}]},"rank":1}],"location":[{"location":{"reference":"Location/526e0d56-72d0-4abc-936e-a755fde375ea"},"period":{"start":"2027-05-01T06:00:00.000+00:00","end":"2027-05-01T10:00:00.000+00:00"}}]},"request":{"method":"PUT","url":"Encounter/5b49e191-d5bf-4dd5-814c-179e99df6d46"}},{"fullUrl":"https://madie.cms.gov/Encounter/47480944-398d-4c39-9c72-ff2054dd2190","resource":{"resourceType":"Encounter","id":"47480944-398d-4c39-9c72-ff2054dd2190","meta":{"profile":["http://hl7.org/fhir/us/qicore/StructureDefinition/qicore-encounter"]},"status":"finished","class":{"system":"http://terminology.hl7.org/CodeSystem/v3-ActCode","code":"IMP","display":"inpatient encounter"},"type":[{"coding":[{"system":"http://snomed.info/sct","version":"2023-09","code":"183452005","display":"Emergency hospital admission (procedure)","userSelected":true}]}],"subject":{"reference":"Patient/63cea3d6-d2e0-4736-a035-87633ca960bd"},"period":{"start":"2027-05-01T10:00:00.000+00:00","end":"2027-05-03T06:15:00.000+00:00"}},"request":{"method":"PUT","url":"Encounter/47480944-398d-4c39-9c72-ff2054dd2190"}},{"fullUrl":"https://madie.cms.gov/Location/526e0d56-72d0-4abc-936e-a755fde375ea","resource":{"resourceType":"Location","id":"526e0d56-72d0-4abc-936e-a755fde375ea","meta":{"profile":["http://hl7.org/fhir/us/qicore/StructureDefinition/qicore-location"]},"identifier":[{"use":"usual","system":"http://exampleoflocation.com","value":"B1-S.F2"}],"name":"Medical Surgical East, first floor","type":[{"coding":[{"system":"https://www.cdc.gov/nhsn/cdaportal/terminology/codesystem/hsloc.html","version":"2022","code":"1108-0","display":"Emergency Department","userSelected":true}]}]},"request":{"method":"PUT","url":"Location/526e0d56-72d0-4abc-936e-a755fde375ea"}},{"fullUrl":"https://madie.cms.gov/claim/ClaimBehavior-NotSubsAbuse","resource":{"resourceType":"Claim","id":"ClaimBehavior-NotSubsAbuse","meta":{"profile":["http://hl7.org/fhir/us/qicore/StructureDefinition/qicore-claim"]},"status":"active","type":{"coding":[{"system":"http://terminology.hl7.org/CodeSystem/claim-type","code":"institutional"}]},"use":"claim","patient":{"reference":"Patient/63cea3d6-d2e0-4736-a035-87633ca960bd"},"created":"2027-05-01","provider":{"reference":"Practitioner/bc3da341-e506-4e4f-bc96-a4af71a0fba6"},"priority":{"coding":[{"system":"http://terminology.hl7.org/CodeSystem/processpriority","code":"normal"}]},"diagnosis":[{"sequence":1,"diagnosisReference":{"reference":"Condition/3d355296-070d-4588-99e9-01b9fe959b44"},"type":[{"coding":[{"system":"http://terminology.hl7.org/CodeSystem/ex-diagnosistype","code":"principal"}]}]}],"insurance":[{"sequence":1,"focal":true,"coverage":{"reference":"Coverage/d661b024-9ef6-422b-86bd-aac4a3d6c48c"}}],"item":[{"sequence":1,"diagnosisSequence":[1],"productOrService":{"coding":[{"system":"http://terminology.hl7.org/CodeSystem/ex-USCLS","code":"99555"}]},"encounter":[{"reference":"Encounter/5b49e191-d5bf-4dd5-814c-179e99df6d46"}]}]},"request":{"method":"PUT","url":"Claim/ClaimBehavior-NotSubsAbuse"}},{"fullUrl":"https://madie.cms.gov/Coverage/d661b024-9ef6-422b-86bd-aac4a3d6c48c","resource":{"resourceType":"Coverage","id":"d661b024-9ef6-422b-86bd-aac4a3d6c48c","meta":{"profile":["http://hl7.org/fhir/us/qicore/StructureDefinition/qicore-coverage"]},"identifier":[{"type":{"coding":[{"system":"http://terminology.hl7.org/CodeSystem/v2-0203","code":"MB"}]}}],"status":"active","beneficiary":{"reference":"Patient/63cea3d6-d2e0-4736-a035-87633ca960bd"},"relationship":{"coding":[{"system":"http://terminology.hl7.org/CodeSystem/subscriber-relationship","code":"self"}]},"payor":[{"reference":"Organization/859194e5-0c7d-4731-8971-b89ad0cf0025"}]},"request":{"method":"PUT","url":"Coverage/d661b024-9ef6-422b-86bd-aac4a3d6c48c"}},{"fullUrl":"https://madie.cms.gov/Condition/3d355296-070d-4588-99e9-01b9fe959b44","resource":{"resourceType":"Condition","id":"3d355296-070d-4588-99e9-01b9fe959b44","meta":{"profile":["http://hl7.org/fhir/us/qicore/StructureDefinition/qicore-condition-encounter-diagnosis"]},"category":[{"coding":[{"system":"http://terminology.hl7.org/CodeSystem/condition-category","code":"encounter-diagnosis","display":"Encounter Diagnosis"}]}],"code":{"coding":[{"system":"http://snomed.info/sct","version":"2023-09","code":"10349009","display":"Multi-infarct dementia with delirium (disorder)","userSelected":true}]},"subject":{"reference":"Patient/63cea3d6-d2e0-4736-a035-87633ca960bd"},"recordedDate":"2027-04-09T08:00:00.000+00:00"},"request":{"method":"PUT","url":"Condition/3d355296-070d-4588-99e9-01b9fe959b44"}},{"fullUrl":"https://madie.cms.gov/Organization/859194e5-0c7d-4731-8971-b89ad0cf0025","resource":{"resourceType":"Organization","id":"859194e5-0c7d-4731-8971-b89ad0cf0025","meta":{"profile":["http://hl7.org/fhir/us/qicore/StructureDefinition/qicore-organization"]},"identifier":[{"use":"temp","system":"urn:oid:2.16.840.1.113883.4.4","value":"21-3259825"}],"active":true,"type":[{"coding":[{"system":"http://terminology.hl7.org/CodeSystem/organization-type","code":"pay","display":"Payer"}]}],"name":"Blue Cross Blue Shield of Texas","telecom":[{"system":"phone","value":"(+1) 972-766-6900"}],"address":[{"use":"billing","type":"postal","line":["P.O. Box 660044"],"city":"Dallas","state":"TX","postalCode":"75266-0044","country":"USA"}]},"request":{"method":"PUT","url":"Organization/859194e5-0c7d-4731-8971-b89ad0cf0025"}},{"fullUrl":"https://madie.cms.gov/Practitioner/bc3da341-e506-4e4f-bc96-a4af71a0fba6","resource":{"resourceType":"Practitioner","id":"bc3da341-e506-4e4f-bc96-a4af71a0fba6","meta":{"profile":["http://hl7.org/fhir/us/qicore/StructureDefinition/qicore-practitioner"]},"identifier":[{"system":"http://hl7.org/fhir/sid/us-npi","value":"9999999896"}],"name":[{"family":"Evil","prefix":["Dr"]}]},"request":{"method":"PUT","url":"Practitioner/bc3da341-e506-4e4f-bc96-a4af71a0fba6"}},{"fullUrl":"https://madie.cms.gov/MeasureReport/112e9e8e-7e51-4ce3-9a04-c3bbb8dd5536","resource":{"resourceType":"MeasureReport","id":"112e9e8e-7e51-4ce3-9a04-c3bbb8dd5536","meta":{"profile":["http://hl7.org/fhir/us/cqfmeasures/StructureDefinition/test-case-cqfm"]},"contained":[{"resourceType":"Parameters","id":"08ddddb1-fc4f-472c-bb04-75b060e5a66a-parameters","parameter":[{"name":"subject","valueString":"63cea3d6-d2e0-4736-a035-87633ca960bd"}]}],"extension":[{"url":"http://hl7.org/fhir/StructureDefinition/cqf-inputParameters","valueReference":{"reference":"#08ddddb1-fc4f-472c-bb04-75b060e5a66a-parameters"}},{"url":"http://hl7.org/fhir/us/cqfmeasures/StructureDefinition/cqfm-testCaseDescription","valueMarkdown":"Enc 1st day of MP, in ED for 4 hours, admitted to inpat @1000, has behavioral health dx"}],"modifierExtension":[{"url":"http://hl7.org/fhir/us/cqfmeasures/StructureDefinition/cqfm-isTestCase","valueBoolean":true}],"status":"complete","type":"individual","measure":"https://madie.cms.gov/Measure/CMS1244FHIRECATHOQR","period":{"start":"2027-01-01","end":"2027-12-31"},"group":[{"id":"Group_1","population":[{"id":"InitialPopulation_1","code":{"coding":[{"system":"http://terminology.hl7.org/CodeSystem/measure-population","code":"initial-population","display":"Initial Population"}]},"count":1},{"id":"Denominator_1","code":{"coding":[{"system":"http://terminology.hl7.org/CodeSystem/measure-population","code":"denominator","display":"Denominator"}]},"count":1},{"id":"Numerator_1","code":{"coding":[{"system":"http://terminology.hl7.org/CodeSystem/measure-population","code":"numerator","display":"Numerator"}]},"count":0}],"measureScore":{"value":0.0},"stratifier":[{"id":"Stratification_1_1","code":[{"text":"Strata-1"}],"stratum":[{"value":{"text":"Strata-1"},"population":[{"id":"InitialPopulation_1","code":{"coding":[{"system":"http://terminology.hl7.org/CodeSystem/measure-population","code":"initial-population","display":"Initial Population"}]},"count":0},{"id":"Denominator_1","code":{"coding":[{"system":"http://terminology.hl7.org/CodeSystem/measure-population","code":"denominator","display":"Denominator"}]},"count":0},{"id":"Numerator_1","code":{"coding":[{"system":"http://terminology.hl7.org/CodeSystem/measure-population","code":"numerator","display":"Numerator"}]},"count":0}]}]},{"id":"Stratification_1_2","code":[{"text":"Strata-2"}],"stratum":[{"value":{"text":"Strata-2"},"population":[{"id":"InitialPopulation_1","code":{"coding":[{"system":"http://terminology.hl7.org/CodeSystem/measure-population","code":"initial-population","display":"Initial Population"}]},"count":0},{"id":"Denominator_1","code":{"coding":[{"system":"http://terminology.hl7.org/CodeSystem/measure-population","code":"denominator","display":"Denominator"}]},"count":0},{"id":"Numerator_1","code":{"coding":[{"system":"http://terminology.hl7.org/CodeSystem/measure-population","code":"numerator","display":"Numerator"}]},"count":0}]}]},{"id":"Stratification_1_3","code":[{"text":"Strata-3"}],"stratum":[{"value":{"text":"Strata-3"},"population":[{"id":"InitialPopulation_1","code":{"coding":[{"system":"http://terminology.hl7.org/CodeSystem/measure-population","code":"initial-population","display":"Initial Population"}]},"count":0},{"id":"Denominator_1","code":{"coding":[{"system":"http://terminology.hl7.org/CodeSystem/measure-population","code":"denominator","display":"Denominator"}]},"count":0},{"id":"Numerator_1","code":{"coding":[{"system":"http://terminology.hl7.org/CodeSystem/measure-population","code":"numerator","display":"Numerator"}]},"count":0}]}]},{"id":"Stratification_1_4","code":[{"text":"Strata-4"}],"stratum":[{"value":{"text":"Strata-4"},"population":[{"id":"InitialPopulation_1","code":{"coding":[{"system":"http://terminology.hl7.org/CodeSystem/measure-population","code":"initial-population","display":"Initial Population"}]},"count":1},{"id":"Denominator_1","code":{"coding":[{"system":"http://terminology.hl7.org/CodeSystem/measure-population","code":"denominator","display":"Denominator"}]},"count":1},{"id":"Numerator_1","code":{"coding":[{"system":"http://terminology.hl7.org/CodeSystem/measure-population","code":"numerator","display":"Numerator"}]},"count":0}]}]}]}],"evaluatedResource":[{"reference":"Patient/63cea3d6-d2e0-4736-a035-87633ca960bd"},{"reference":"Encounter/5b49e191-d5bf-4dd5-814c-179e99df6d46"},{"reference":"Encounter/47480944-398d-4c39-9c72-ff2054dd2190"},{"reference":"Location/526e0d56-72d0-4abc-936e-a755fde375ea"},{"reference":"Claim/ClaimBehavior-NotSubsAbuse"},{"reference":"Coverage/d661b024-9ef6-422b-86bd-aac4a3d6c48c"},{"reference":"Condition/3d355296-070d-4588-99e9-01b9fe959b44"},{"reference":"Organization/859194e5-0c7d-4731-8971-b89ad0cf0025"},{"reference":"Practitioner/bc3da341-e506-4e4f-bc96-a4af71a0fba6"}]},"request":{"method":"PUT","url":"MeasureReport/112e9e8e-7e51-4ce3-9a04-c3bbb8dd5536"}}]},"request":{"method":"PUT","url":"Bundle/661476b015ed5841a5547ebf"}},{"resource":{"resourceType":"Location","id":"526e0d56-72d0-4abc-936e-a755fde375ea","meta":{"profile":["http://hl7.org/fhir/us/qicore/StructureDefinition/qicore-location"]},"identifier":[{"use":"usual","system":"http://exampleoflocation.com","value":"B1-S.F2"}],"name":"Medical Surgical East, first floor","type":[{"coding":[{"system":"https://www.cdc.gov/nhsn/cdaportal/terminology/codesystem/hsloc.html","version":"2022","code":"1108-0","display":"Emergency Department","userSelected":true}]}]},"request":{"method":"PUT","url":"Location/526e0d56-72d0-4abc-936e-a755fde375ea"}},{"resource":{"resourceType":"Practitioner","id":"bc3da341-e506-4e4f-bc96-a4af71a0fba6","meta":{"profile":["http://hl7.org/fhir/us/qicore/StructureDefinition/qicore-practitioner"]},"identifier":[{"system":"http://hl7.org/fhir/sid/us-npi","value":"9999999896"}],"name":[{"family":"Evil","prefix":["Dr"]}]},"request":{"method":"PUT","url":"Practitioner/bc3da341-e506-4e4f-bc96-a4af71a0fba6"}},{"resource":{"resourceType":"Claim","id":"ClaimBehavior-NotSubsAbuse","meta":{"profile":["http://hl7.org/fhir/us/qicore/StructureDefinition/qicore-claim"]},"status":"active","type":{"coding":[{"system":"http://terminology.hl7.org/CodeSystem/claim-type","code":"institutional"}]},"use":"claim","patient":{"reference":"Patient/63cea3d6-d2e0-4736-a035-87633ca960bd"},"created":"2027-05-01","provider":{"reference":"Practitioner/bc3da341-e506-4e4f-bc96-a4af71a0fba6"},"priority":{"coding":[{"system":"http://terminology.hl7.org/CodeSystem/processpriority","code":"normal"}]},"diagnosis":[{"sequence":1,"diagnosisReference":{"reference":"Condition/3d355296-070d-4588-99e9-01b9fe959b44"},"type":[{"coding":[{"system":"http://terminology.hl7.org/CodeSystem/ex-diagnosistype","code":"principal"}]}]}],"insurance":[{"sequence":1,"focal":true,"coverage":{"reference":"Coverage/d661b024-9ef6-422b-86bd-aac4a3d6c48c"}}],"item":[{"sequence":1,"diagnosisSequence":[1],"productOrService":{"coding":[{"system":"http://terminology.hl7.org/CodeSystem/ex-USCLS","code":"99555"}]},"encounter":[{"reference":"Encounter/5b49e191-d5bf-4dd5-814c-179e99df6d46"}]}]},"request":{"method":"PUT","url":"Claim/ClaimBehavior-NotSubsAbuse"}},{"resource":{"resourceType":"Coverage","id":"d661b024-9ef6-422b-86bd-aac4a3d6c48c","meta":{"profile":["http://hl7.org/fhir/us/qicore/StructureDefinition/qicore-coverage"]},"identifier":[{"type":{"coding":[{"system":"http://terminology.hl7.org/CodeSystem/v2-0203","code":"MB"}]}}],"status":"active","beneficiary":{"reference":"Patient/63cea3d6-d2e0-4736-a035-87633ca960bd"},"relationship":{"coding":[{"system":"http://terminology.hl7.org/CodeSystem/subscriber-relationship","code":"self"}]},"payor":[{"reference":"Organization/859194e5-0c7d-4731-8971-b89ad0cf0025"}]},"request":{"method":"PUT","url":"Coverage/d661b024-9ef6-422b-86bd-aac4a3d6c48c"}},{"resource":{"resourceType":"Patient","id":"63cea3d6-d2e0-4736-a035-87633ca960bd","meta":{"profile":["http://hl7.org/fhir/us/qicore/StructureDefinition/qicore-patient"]},"extension":[{"url":"http://hl7.org/fhir/us/core/StructureDefinition/us-core-race","extension":[{"url":"ombCategory","valueCoding":{"system":"urn:oid:2.16.840.1.113883.6.238","code":"1002-5","display":"American Indian or Alaska Native","userSelected":true}},{"url":"text","valueString":"American Indian or Alaska Native"}]},{"url":"http://hl7.org/fhir/us/core/StructureDefinition/us-core-ethnicity","extension":[{"url":"ombCategory","valueCoding":{"system":"urn:oid:2.16.840.1.113883.6.238","code":"2135-2","display":"Hispanic or Latino","userSelected":true}},{"url":"text","valueString":"Hispanic or Latino"}]},{"url":"http://hl7.org/fhir/us/core/StructureDefinition/us-core-sex","valueCode":"248153007"}],"identifier":[{"type":{"coding":[{"system":"http://terminology.hl7.org/CodeSystem/v2-0203","code":"MR"}]},"system":"https://bonnie-fhir.healthit.gov/","value":"661476b015ed5841a5547ebf"}],"name":[{"family":"NUMERStrat4Fail","given":["AdmittedInpatientLessThan240Mins"]}],"gender":"male","birthDate":"2009-01-01"},"request":{"method":"PUT","url":"Patient/63cea3d6-d2e0-4736-a035-87633ca960bd"}},{"resource":{"resourceType":"MeasureReport","id":"112e9e8e-7e51-4ce3-9a04-c3bbb8dd5536","meta":{"profile":["http://hl7.org/fhir/us/cqfmeasures/StructureDefinition/test-case-cqfm"]},"contained":[{"resourceType":"Parameters","id":"08ddddb1-fc4f-472c-bb04-75b060e5a66a-parameters","parameter":[{"name":"subject","valueString":"63cea3d6-d2e0-4736-a035-87633ca960bd"}]}],"extension":[{"url":"http://hl7.org/fhir/StructureDefinition/cqf-inputParameters","valueReference":{"reference":"#08ddddb1-fc4f-472c-bb04-75b060e5a66a-parameters"}},{"url":"http://hl7.org/fhir/us/cqfmeasures/StructureDefinition/cqfm-testCaseDescription","valueMarkdown":"Enc 1st day of MP, in ED for 4 hours, admitted to inpat @1000, has behavioral health dx"}],"modifierExtension":[{"url":"http://hl7.org/fhir/us/cqfmeasures/StructureDefinition/cqfm-isTestCase","valueBoolean":true}],"status":"complete","type":"individual","measure":"https://madie.cms.gov/Measure/CMS1244FHIRECATHOQR","period":{"start":"2027-01-01","end":"2027-12-31"},"group":[{"id":"Group_1","population":[{"id":"InitialPopulation_1","code":{"coding":[{"system":"http://terminology.hl7.org/CodeSystem/measure-population","code":"initial-population","display":"Initial Population"}]},"count":1},{"id":"Denominator_1","code":{"coding":[{"system":"http://terminology.hl7.org/CodeSystem/measure-population","code":"denominator","display":"Denominator"}]},"count":1},{"id":"Numerator_1","code":{"coding":[{"system":"http://terminology.hl7.org/CodeSystem/measure-population","code":"numerator","display":"Numerator"}]},"count":0}],"measureScore":{"value":0.0},"stratifier":[{"id":"Stratification_1_1","code":[{"text":"Strata-1"}],"stratum":[{"value":{"text":"Strata-1"},"population":[{"id":"InitialPopulation_1","code":{"coding":[{"system":"http://terminology.hl7.org/CodeSystem/measure-population","code":"initial-population","display":"Initial Population"}]},"count":0},{"id":"Denominator_1","code":{"coding":[{"system":"http://terminology.hl7.org/CodeSystem/measure-population","code":"denominator","display":"Denominator"}]},"count":0},{"id":"Numerator_1","code":{"coding":[{"system":"http://terminology.hl7.org/CodeSystem/measure-population","code":"numerator","display":"Numerator"}]},"count":0}]}]},{"id":"Stratification_1_2","code":[{"text":"Strata-2"}],"stratum":[{"value":{"text":"Strata-2"},"population":[{"id":"InitialPopulation_1","code":{"coding":[{"system":"http://terminology.hl7.org/CodeSystem/measure-population","code":"initial-population","display":"Initial Population"}]},"count":0},{"id":"Denominator_1","code":{"coding":[{"system":"http://terminology.hl7.org/CodeSystem/measure-population","code":"denominator","display":"Denominator"}]},"count":0},{"id":"Numerator_1","code":{"coding":[{"system":"http://terminology.hl7.org/CodeSystem/measure-population","code":"numerator","display":"Numerator"}]},"count":0}]}]},{"id":"Stratification_1_3","code":[{"text":"Strata-3"}],"stratum":[{"value":{"text":"Strata-3"},"population":[{"id":"InitialPopulation_1","code":{"coding":[{"system":"http://terminology.hl7.org/CodeSystem/measure-population","code":"initial-population","display":"Initial Population"}]},"count":0},{"id":"Denominator_1","code":{"coding":[{"system":"http://terminology.hl7.org/CodeSystem/measure-population","code":"denominator","display":"Denominator"}]},"count":0},{"id":"Numerator_1","code":{"coding":[{"system":"http://terminology.hl7.org/CodeSystem/measure-population","code":"numerator","display":"Numerator"}]},"count":0}]}]},{"id":"Stratification_1_4","code":[{"text":"Strata-4"}],"stratum":[{"value":{"text":"Strata-4"},"population":[{"id":"InitialPopulation_1","code":{"coding":[{"system":"http://terminology.hl7.org/CodeSystem/measure-population","code":"initial-population","display":"Initial Population"}]},"count":1},{"id":"Denominator_1","code":{"coding":[{"system":"http://terminology.hl7.org/CodeSystem/measure-population","code":"denominator","display":"Denominator"}]},"count":1},{"id":"Numerator_1","code":{"coding":[{"system":"http://terminology.hl7.org/CodeSystem/measure-population","code":"numerator","display":"Numerator"}]},"count":0}]}]}]}],"evaluatedResource":[{"reference":"Patient/63cea3d6-d2e0-4736-a035-87633ca960bd"},{"reference":"Encounter/5b49e191-d5bf-4dd5-814c-179e99df6d46"},{"reference":"Encounter/47480944-398d-4c39-9c72-ff2054dd2190"},{"reference":"Location/526e0d56-72d0-4abc-936e-a755fde375ea"},{"reference":"Claim/ClaimBehavior-NotSubsAbuse"},{"reference":"Coverage/d661b024-9ef6-422b-86bd-aac4a3d6c48c"},{"reference":"Condition/3d355296-070d-4588-99e9-01b9fe959b44"},{"reference":"Organization/859194e5-0c7d-4731-8971-b89ad0cf0025"},{"reference":"Practitioner/bc3da341-e506-4e4f-bc96-a4af71a0fba6"}]},"request":{"method":"PUT","url":"MeasureReport/112e9e8e-7e51-4ce3-9a04-c3bbb8dd5536"}}]}