{"resourceType":"Bundle","id":"tests-7dd19e80-23c6-4e31-86a9-bb833cfc676b-bundle","type":"transaction","entry":[{"fullUrl":"Practitioner/e1da0d8b-d256-4b3f-9471-c034d0e2f99f","resource":{"resourceType":"Practitioner","id":"e1da0d8b-d256-4b3f-9471-c034d0e2f99f","meta":{"profile":["http://hl7.org/fhir/us/qicore/StructureDefinition/qicore-practitioner"]},"identifier":[{"system":"http://hl7.org/fhir/sid/us-npi","value":"9999999896"}],"name":[{"family":"Evil","prefix":["Dr"]}]},"request":{"method":"PUT","url":"Practitioner/e1da0d8b-d256-4b3f-9471-c034d0e2f99f"}},{"fullUrl":"Coverage/ca0cdf57-2115-425b-852f-150026667ae0","resource":{"resourceType":"Coverage","id":"ca0cdf57-2115-425b-852f-150026667ae0","meta":{"profile":["http://hl7.org/fhir/us/qicore/StructureDefinition/qicore-coverage"]},"identifier":[{"type":{"coding":[{"system":"http://terminology.hl7.org/CodeSystem/v2-0203","code":"MB"}]}}],"status":"active","beneficiary":{"reference":"Patient/7dd19e80-23c6-4e31-86a9-bb833cfc676b"},"relationship":{"coding":[{"system":"http://terminology.hl7.org/CodeSystem/subscriber-relationship","code":"self"}]},"payor":[{"reference":"Organization/7afefaac-ae4d-42be-846f-8d89298b569f"}]},"request":{"method":"PUT","url":"Coverage/ca0cdf57-2115-425b-852f-150026667ae0"}},{"fullUrl":"Encounter/f05e1f92-eb11-4e2f-bf39-e25ef4bb6907","resource":{"resourceType":"Encounter","id":"f05e1f92-eb11-4e2f-bf39-e25ef4bb6907","meta":{"profile":["http://hl7.org/fhir/us/qicore/StructureDefinition/qicore-encounter"]},"status":"finished","class":{"system":"http://terminology.hl7.org/CodeSystem/v3-ActCode","code":"EMER","display":"emergency department"},"type":[{"coding":[{"system":"http://snomed.info/sct","version":"2023-09","code":"4525004","display":"Emergency department patient visit (procedure)","userSelected":true}]}],"subject":{"reference":"Patient/7dd19e80-23c6-4e31-86a9-bb833cfc676b"},"period":{"start":"2027-05-01T06:00:00.000+00:00","end":"2027-05-01T14:01:00.000+00:00"},"diagnosis":[{"condition":{"reference":"Condition/7f77c66d-3ec6-450e-b4f4-57c694bae586"},"use":{"coding":[{"system":"http://terminology.hl7.org/CodeSystem/diagnosis-role","code":"billing"}]},"rank":1}],"location":[{"location":{"reference":"Location/4c34a336-ecc0-4958-b4a2-5735d8ec7bd5"},"period":{"start":"2027-05-01T06:00:00.000+00:00","end":"2027-05-01T14:00:00.000+00:00"}}]},"request":{"method":"PUT","url":"Encounter/f05e1f92-eb11-4e2f-bf39-e25ef4bb6907"}},{"fullUrl":"MeasureReport/1cdc354f-7603-4ce2-98c3-2fdb58b591fe","resource":{"resourceType":"MeasureReport","id":"1cdc354f-7603-4ce2-98c3-2fdb58b591fe","meta":{"profile":["http://hl7.org/fhir/us/cqfmeasures/StructureDefinition/test-case-cqfm"]},"contained":[{"resourceType":"Parameters","id":"06644dde-a591-4ee5-9ae0-79db7127ba97-parameters","parameter":[{"name":"subject","valueString":"7dd19e80-23c6-4e31-86a9-bb833cfc676b"}]}],"extension":[{"url":"http://hl7.org/fhir/StructureDefinition/cqf-inputParameters","valueReference":{"reference":"#06644dde-a591-4ee5-9ae0-79db7127ba97-parameters"}},{"url":"http://hl7.org/fhir/us/cqfmeasures/StructureDefinition/cqfm-testCaseDescription","valueMarkdown":"ED enc first day of MP lasting 481 minutes (start to end) but ED LOS 480 (arrival to departure)"}],"modifierExtension":[{"url":"http://hl7.org/fhir/us/cqfmeasures/StructureDefinition/cqfm-isTestCase","valueBoolean":true}],"status":"complete","type":"individual","measure":"https://madie.cms.gov/Measure/CMS1244FHIRECATHOQR","period":{"start":"2027-01-01","end":"2027-12-31"},"group":[{"id":"Group_1","population":[{"id":"InitialPopulation_1","code":{"coding":[{"system":"http://terminology.hl7.org/CodeSystem/measure-population","code":"initial-population","display":"Initial Population"}]},"count":1},{"id":"Denominator_1","code":{"coding":[{"system":"http://terminology.hl7.org/CodeSystem/measure-population","code":"denominator","display":"Denominator"}]},"count":1},{"id":"Numerator_1","code":{"coding":[{"system":"http://terminology.hl7.org/CodeSystem/measure-population","code":"numerator","display":"Numerator"}]},"count":0}],"measureScore":{"value":0.0},"stratifier":[{"id":"Stratification_1_1","code":[{"text":"Strata-1"}],"stratum":[{"value":{"text":"Strata-1"},"population":[{"id":"InitialPopulation_1","code":{"coding":[{"system":"http://terminology.hl7.org/CodeSystem/measure-population","code":"initial-population","display":"Initial Population"}]},"count":0},{"id":"Denominator_1","code":{"coding":[{"system":"http://terminology.hl7.org/CodeSystem/measure-population","code":"denominator","display":"Denominator"}]},"count":0},{"id":"Numerator_1","code":{"coding":[{"system":"http://terminology.hl7.org/CodeSystem/measure-population","code":"numerator","display":"Numerator"}]},"count":0}]}]},{"id":"Stratification_1_2","code":[{"text":"Strata-2"}],"stratum":[{"value":{"text":"Strata-2"},"population":[{"id":"InitialPopulation_1","code":{"coding":[{"system":"http://terminology.hl7.org/CodeSystem/measure-population","code":"initial-population","display":"Initial Population"}]},"count":1},{"id":"Denominator_1","code":{"coding":[{"system":"http://terminology.hl7.org/CodeSystem/measure-population","code":"denominator","display":"Denominator"}]},"count":1},{"id":"Numerator_1","code":{"coding":[{"system":"http://terminology.hl7.org/CodeSystem/measure-population","code":"numerator","display":"Numerator"}]},"count":0}]}]},{"id":"Stratification_1_3","code":[{"text":"Strata-3"}],"stratum":[{"value":{"text":"Strata-3"},"population":[{"id":"InitialPopulation_1","code":{"coding":[{"system":"http://terminology.hl7.org/CodeSystem/measure-population","code":"initial-population","display":"Initial Population"}]},"count":0},{"id":"Denominator_1","code":{"coding":[{"system":"http://terminology.hl7.org/CodeSystem/measure-population","code":"denominator","display":"Denominator"}]},"count":0},{"id":"Numerator_1","code":{"coding":[{"system":"http://terminology.hl7.org/CodeSystem/measure-population","code":"numerator","display":"Numerator"}]},"count":0}]}]},{"id":"Stratification_1_4","code":[{"text":"Strata-4"}],"stratum":[{"value":{"text":"Strata-4"},"population":[{"id":"InitialPopulation_1","code":{"coding":[{"system":"http://terminology.hl7.org/CodeSystem/measure-population","code":"initial-population","display":"Initial Population"}]},"count":0},{"id":"Denominator_1","code":{"coding":[{"system":"http://terminology.hl7.org/CodeSystem/measure-population","code":"denominator","display":"Denominator"}]},"count":0},{"id":"Numerator_1","code":{"coding":[{"system":"http://terminology.hl7.org/CodeSystem/measure-population","code":"numerator","display":"Numerator"}]},"count":0}]}]}]}],"evaluatedResource":[{"reference":"Patient/7dd19e80-23c6-4e31-86a9-bb833cfc676b"},{"reference":"Encounter/f05e1f92-eb11-4e2f-bf39-e25ef4bb6907"},{"reference":"Location/4c34a336-ecc0-4958-b4a2-5735d8ec7bd5"},{"reference":"Condition/7f77c66d-3ec6-450e-b4f4-57c694bae586"},{"reference":"Claim/ClaimBehavior-NotSubsAbuse"},{"reference":"Coverage/ca0cdf57-2115-425b-852f-150026667ae0"},{"reference":"Organization/7afefaac-ae4d-42be-846f-8d89298b569f"},{"reference":"Practitioner/e1da0d8b-d256-4b3f-9471-c034d0e2f99f"}]},"request":{"method":"PUT","url":"MeasureReport/1cdc354f-7603-4ce2-98c3-2fdb58b591fe"}},{"fullUrl":"Location/4c34a336-ecc0-4958-b4a2-5735d8ec7bd5","resource":{"resourceType":"Location","id":"4c34a336-ecc0-4958-b4a2-5735d8ec7bd5","meta":{"profile":["http://hl7.org/fhir/us/qicore/StructureDefinition/qicore-location"]},"identifier":[{"use":"usual","system":"http://exampleoflocation.com","value":"B1-S.F2"}],"name":"Medical Surgical East, first floor","type":[{"coding":[{"system":"https://www.cdc.gov/nhsn/cdaportal/terminology/codesystem/hsloc.html","version":"2022","code":"1108-0","display":"Emergency Department","userSelected":true}]}]},"request":{"method":"PUT","url":"Location/4c34a336-ecc0-4958-b4a2-5735d8ec7bd5"}},{"fullUrl":"Patient/7dd19e80-23c6-4e31-86a9-bb833cfc676b","resource":{"resourceType":"Patient","id":"7dd19e80-23c6-4e31-86a9-bb833cfc676b","meta":{"profile":["http://hl7.org/fhir/us/qicore/StructureDefinition/qicore-patient"]},"extension":[{"url":"http://hl7.org/fhir/us/core/StructureDefinition/us-core-race","extension":[{"url":"ombCategory","valueCoding":{"system":"urn:oid:2.16.840.1.113883.6.238","code":"1002-5","display":"American Indian or Alaska Native","userSelected":true}},{"url":"text","valueString":"American Indian or Alaska Native"}]},{"url":"http://hl7.org/fhir/us/core/StructureDefinition/us-core-ethnicity","extension":[{"url":"ombCategory","valueCoding":{"system":"urn:oid:2.16.840.1.113883.6.238","code":"2135-2","display":"Hispanic or Latino","userSelected":true}},{"url":"text","valueString":"Hispanic or Latino"}]},{"url":"http://hl7.org/fhir/us/core/StructureDefinition/us-core-sex","valueCode":"248153007"}],"identifier":[{"type":{"coding":[{"system":"http://terminology.hl7.org/CodeSystem/v2-0203","code":"MR"}]},"system":"https://bonnie-fhir.healthit.gov/","value":"661476b015ed5841a5547ebf"}],"name":[{"family":"NUMERStrat2Fail","given":["EDLOS480Minutes"]}],"gender":"male","birthDate":"2009-01-01"},"request":{"method":"PUT","url":"Patient/7dd19e80-23c6-4e31-86a9-bb833cfc676b"}},{"fullUrl":"Organization/7afefaac-ae4d-42be-846f-8d89298b569f","resource":{"resourceType":"Organization","id":"7afefaac-ae4d-42be-846f-8d89298b569f","meta":{"profile":["http://hl7.org/fhir/us/qicore/StructureDefinition/qicore-organization"]},"identifier":[{"use":"temp","system":"urn:oid:2.16.840.1.113883.4.4","value":"21-3259825"}],"active":true,"type":[{"coding":[{"system":"http://terminology.hl7.org/CodeSystem/organization-type","code":"pay","display":"Payer"}]}],"name":"Blue Cross Blue Shield of Texas","telecom":[{"system":"phone","value":"(+1) 972-766-6900"}],"address":[{"use":"billing","type":"postal","line":["P.O. Box 660044"],"city":"Dallas","state":"TX","postalCode":"75266-0044","country":"USA"}]},"request":{"method":"PUT","url":"Organization/7afefaac-ae4d-42be-846f-8d89298b569f"}},{"fullUrl":"Condition/7f77c66d-3ec6-450e-b4f4-57c694bae586","resource":{"resourceType":"Condition","id":"7f77c66d-3ec6-450e-b4f4-57c694bae586","meta":{"profile":["http://hl7.org/fhir/us/qicore/StructureDefinition/qicore-condition-encounter-diagnosis"]},"category":[{"coding":[{"system":"http://terminology.hl7.org/CodeSystem/condition-category","code":"encounter-diagnosis","display":"Encounter Diagnosis"}]}],"code":{"coding":[{"system":"http://snomed.info/sct","version":"2023-09","code":"10660471000119109","display":"Ulcer of left foot due to type 2 diabetes mellitus (disorder)","userSelected":true}]},"subject":{"reference":"Patient/7dd19e80-23c6-4e31-86a9-bb833cfc676b"},"recordedDate":"2027-05-01T08:00:00.000+00:00"},"request":{"method":"PUT","url":"Condition/7f77c66d-3ec6-450e-b4f4-57c694bae586"}},{"fullUrl":"Claim/ClaimBehavior-NotSubsAbuse","resource":{"resourceType":"Claim","id":"ClaimBehavior-NotSubsAbuse","meta":{"profile":["http://hl7.org/fhir/us/qicore/StructureDefinition/qicore-claim"]},"status":"active","type":{"coding":[{"system":"http://terminology.hl7.org/CodeSystem/claim-type","code":"institutional"}]},"use":"claim","patient":{"reference":"Patient/7dd19e80-23c6-4e31-86a9-bb833cfc676b"},"created":"2027-05-01","provider":{"reference":"Practitioner/e1da0d8b-d256-4b3f-9471-c034d0e2f99f"},"priority":{"coding":[{"system":"http://terminology.hl7.org/CodeSystem/processpriority","code":"normal"}]},"diagnosis":[{"sequence":1,"diagnosisReference":{"reference":"Condition/7f77c66d-3ec6-450e-b4f4-57c694bae586"},"type":[{"coding":[{"system":"http://terminology.hl7.org/CodeSystem/ex-diagnosistype","code":"principal"}]}]}],"insurance":[{"sequence":1,"focal":true,"coverage":{"reference":"Coverage/ca0cdf57-2115-425b-852f-150026667ae0"}}],"item":[{"sequence":1,"diagnosisSequence":[1],"productOrService":{"coding":[{"system":"http://terminology.hl7.org/CodeSystem/ex-USCLS","code":"99555"}]},"encounter":[{"reference":"Encounter/f05e1f92-eb11-4e2f-bf39-e25ef4bb6907"}]}]},"request":{"method":"PUT","url":"Claim/ClaimBehavior-NotSubsAbuse"}},{"fullUrl":"Bundle/661476b015ed5841a5547ebf","resource":{"resourceType":"Bundle","id":"661476b015ed5841a5547ebf","type":"transaction","entry":[{"fullUrl":"https://madie.cms.gov/Patient/7dd19e80-23c6-4e31-86a9-bb833cfc676b","resource":{"resourceType":"Patient","id":"7dd19e80-23c6-4e31-86a9-bb833cfc676b","meta":{"profile":["http://hl7.org/fhir/us/qicore/StructureDefinition/qicore-patient"]},"extension":[{"url":"http://hl7.org/fhir/us/core/StructureDefinition/us-core-race","extension":[{"url":"ombCategory","valueCoding":{"system":"urn:oid:2.16.840.1.113883.6.238","code":"1002-5","display":"American Indian or Alaska Native","userSelected":true}},{"url":"text","valueString":"American Indian or Alaska Native"}]},{"url":"http://hl7.org/fhir/us/core/StructureDefinition/us-core-ethnicity","extension":[{"url":"ombCategory","valueCoding":{"system":"urn:oid:2.16.840.1.113883.6.238","code":"2135-2","display":"Hispanic or Latino","userSelected":true}},{"url":"text","valueString":"Hispanic or Latino"}]},{"url":"http://hl7.org/fhir/us/core/StructureDefinition/us-core-sex","valueCode":"248153007"}],"identifier":[{"type":{"coding":[{"system":"http://terminology.hl7.org/CodeSystem/v2-0203","code":"MR"}]},"system":"https://bonnie-fhir.healthit.gov/","value":"661476b015ed5841a5547ebf"}],"name":[{"family":"NUMERStrat2Fail","given":["EDLOS480Minutes"]}],"gender":"male","birthDate":"2009-01-01"},"request":{"method":"PUT","url":"Patient/7dd19e80-23c6-4e31-86a9-bb833cfc676b"}},{"fullUrl":"https://madie.cms.gov/Encounter/f05e1f92-eb11-4e2f-bf39-e25ef4bb6907","resource":{"resourceType":"Encounter","id":"f05e1f92-eb11-4e2f-bf39-e25ef4bb6907","meta":{"profile":["http://hl7.org/fhir/us/qicore/StructureDefinition/qicore-encounter"]},"status":"finished","class":{"system":"http://terminology.hl7.org/CodeSystem/v3-ActCode","code":"EMER","display":"emergency department"},"type":[{"coding":[{"system":"http://snomed.info/sct","version":"2023-09","code":"4525004","display":"Emergency department patient visit (procedure)","userSelected":true}]}],"subject":{"reference":"Patient/7dd19e80-23c6-4e31-86a9-bb833cfc676b"},"period":{"start":"2027-05-01T06:00:00.000+00:00","end":"2027-05-01T14:01:00.000+00:00"},"diagnosis":[{"condition":{"reference":"Condition/7f77c66d-3ec6-450e-b4f4-57c694bae586"},"use":{"coding":[{"system":"http://terminology.hl7.org/CodeSystem/diagnosis-role","code":"billing"}]},"rank":1}],"location":[{"location":{"reference":"Location/4c34a336-ecc0-4958-b4a2-5735d8ec7bd5"},"period":{"start":"2027-05-01T06:00:00.000+00:00","end":"2027-05-01T14:00:00.000+00:00"}}]},"request":{"method":"PUT","url":"Encounter/f05e1f92-eb11-4e2f-bf39-e25ef4bb6907"}},{"fullUrl":"https://madie.cms.gov/Location/4c34a336-ecc0-4958-b4a2-5735d8ec7bd5","resource":{"resourceType":"Location","id":"4c34a336-ecc0-4958-b4a2-5735d8ec7bd5","meta":{"profile":["http://hl7.org/fhir/us/qicore/StructureDefinition/qicore-location"]},"identifier":[{"use":"usual","system":"http://exampleoflocation.com","value":"B1-S.F2"}],"name":"Medical Surgical East, first floor","type":[{"coding":[{"system":"https://www.cdc.gov/nhsn/cdaportal/terminology/codesystem/hsloc.html","version":"2022","code":"1108-0","display":"Emergency Department","userSelected":true}]}]},"request":{"method":"PUT","url":"Location/4c34a336-ecc0-4958-b4a2-5735d8ec7bd5"}},{"fullUrl":"https://madie.cms.gov/Condition/7f77c66d-3ec6-450e-b4f4-57c694bae586","resource":{"resourceType":"Condition","id":"7f77c66d-3ec6-450e-b4f4-57c694bae586","meta":{"profile":["http://hl7.org/fhir/us/qicore/StructureDefinition/qicore-condition-encounter-diagnosis"]},"category":[{"coding":[{"system":"http://terminology.hl7.org/CodeSystem/condition-category","code":"encounter-diagnosis","display":"Encounter Diagnosis"}]}],"code":{"coding":[{"system":"http://snomed.info/sct","version":"2023-09","code":"10660471000119109","display":"Ulcer of left foot due to type 2 diabetes mellitus (disorder)","userSelected":true}]},"subject":{"reference":"Patient/7dd19e80-23c6-4e31-86a9-bb833cfc676b"},"recordedDate":"2027-05-01T08:00:00.000+00:00"},"request":{"method":"PUT","url":"Condition/7f77c66d-3ec6-450e-b4f4-57c694bae586"}},{"fullUrl":"https://madie.cms.gov/claim/ClaimBehavior-NotSubsAbuse","resource":{"resourceType":"Claim","id":"ClaimBehavior-NotSubsAbuse","meta":{"profile":["http://hl7.org/fhir/us/qicore/StructureDefinition/qicore-claim"]},"status":"active","type":{"coding":[{"system":"http://terminology.hl7.org/CodeSystem/claim-type","code":"institutional"}]},"use":"claim","patient":{"reference":"Patient/7dd19e80-23c6-4e31-86a9-bb833cfc676b"},"created":"2027-05-01","provider":{"reference":"Practitioner/e1da0d8b-d256-4b3f-9471-c034d0e2f99f"},"priority":{"coding":[{"system":"http://terminology.hl7.org/CodeSystem/processpriority","code":"normal"}]},"diagnosis":[{"sequence":1,"diagnosisReference":{"reference":"Condition/7f77c66d-3ec6-450e-b4f4-57c694bae586"},"type":[{"coding":[{"system":"http://terminology.hl7.org/CodeSystem/ex-diagnosistype","code":"principal"}]}]}],"insurance":[{"sequence":1,"focal":true,"coverage":{"reference":"Coverage/ca0cdf57-2115-425b-852f-150026667ae0"}}],"item":[{"sequence":1,"diagnosisSequence":[1],"productOrService":{"coding":[{"system":"http://terminology.hl7.org/CodeSystem/ex-USCLS","code":"99555"}]},"encounter":[{"reference":"Encounter/f05e1f92-eb11-4e2f-bf39-e25ef4bb6907"}]}]},"request":{"method":"PUT","url":"Claim/ClaimBehavior-NotSubsAbuse"}},{"fullUrl":"https://madie.cms.gov/Coverage/ca0cdf57-2115-425b-852f-150026667ae0","resource":{"resourceType":"Coverage","id":"ca0cdf57-2115-425b-852f-150026667ae0","meta":{"profile":["http://hl7.org/fhir/us/qicore/StructureDefinition/qicore-coverage"]},"identifier":[{"type":{"coding":[{"system":"http://terminology.hl7.org/CodeSystem/v2-0203","code":"MB"}]}}],"status":"active","beneficiary":{"reference":"Patient/7dd19e80-23c6-4e31-86a9-bb833cfc676b"},"relationship":{"coding":[{"system":"http://terminology.hl7.org/CodeSystem/subscriber-relationship","code":"self"}]},"payor":[{"reference":"Organization/7afefaac-ae4d-42be-846f-8d89298b569f"}]},"request":{"method":"PUT","url":"Coverage/ca0cdf57-2115-425b-852f-150026667ae0"}},{"fullUrl":"https://madie.cms.gov/Organization/7afefaac-ae4d-42be-846f-8d89298b569f","resource":{"resourceType":"Organization","id":"7afefaac-ae4d-42be-846f-8d89298b569f","meta":{"profile":["http://hl7.org/fhir/us/qicore/StructureDefinition/qicore-organization"]},"identifier":[{"use":"temp","system":"urn:oid:2.16.840.1.113883.4.4","value":"21-3259825"}],"active":true,"type":[{"coding":[{"system":"http://terminology.hl7.org/CodeSystem/organization-type","code":"pay","display":"Payer"}]}],"name":"Blue Cross Blue Shield of Texas","telecom":[{"system":"phone","value":"(+1) 972-766-6900"}],"address":[{"use":"billing","type":"postal","line":["P.O. Box 660044"],"city":"Dallas","state":"TX","postalCode":"75266-0044","country":"USA"}]},"request":{"method":"PUT","url":"Organization/7afefaac-ae4d-42be-846f-8d89298b569f"}},{"fullUrl":"https://madie.cms.gov/Practitioner/e1da0d8b-d256-4b3f-9471-c034d0e2f99f","resource":{"resourceType":"Practitioner","id":"e1da0d8b-d256-4b3f-9471-c034d0e2f99f","meta":{"profile":["http://hl7.org/fhir/us/qicore/StructureDefinition/qicore-practitioner"]},"identifier":[{"system":"http://hl7.org/fhir/sid/us-npi","value":"9999999896"}],"name":[{"family":"Evil","prefix":["Dr"]}]},"request":{"method":"PUT","url":"Practitioner/e1da0d8b-d256-4b3f-9471-c034d0e2f99f"}},{"fullUrl":"https://madie.cms.gov/MeasureReport/1cdc354f-7603-4ce2-98c3-2fdb58b591fe","resource":{"resourceType":"MeasureReport","id":"1cdc354f-7603-4ce2-98c3-2fdb58b591fe","meta":{"profile":["http://hl7.org/fhir/us/cqfmeasures/StructureDefinition/test-case-cqfm"]},"contained":[{"resourceType":"Parameters","id":"06644dde-a591-4ee5-9ae0-79db7127ba97-parameters","parameter":[{"name":"subject","valueString":"7dd19e80-23c6-4e31-86a9-bb833cfc676b"}]}],"extension":[{"url":"http://hl7.org/fhir/StructureDefinition/cqf-inputParameters","valueReference":{"reference":"#06644dde-a591-4ee5-9ae0-79db7127ba97-parameters"}},{"url":"http://hl7.org/fhir/us/cqfmeasures/StructureDefinition/cqfm-testCaseDescription","valueMarkdown":"ED enc first day of MP lasting 481 minutes (start to end) but ED LOS 480 (arrival to departure)"}],"modifierExtension":[{"url":"http://hl7.org/fhir/us/cqfmeasures/StructureDefinition/cqfm-isTestCase","valueBoolean":true}],"status":"complete","type":"individual","measure":"https://madie.cms.gov/Measure/CMS1244FHIRECATHOQR","period":{"start":"2027-01-01","end":"2027-12-31"},"group":[{"id":"Group_1","population":[{"id":"InitialPopulation_1","code":{"coding":[{"system":"http://terminology.hl7.org/CodeSystem/measure-population","code":"initial-population","display":"Initial Population"}]},"count":1},{"id":"Denominator_1","code":{"coding":[{"system":"http://terminology.hl7.org/CodeSystem/measure-population","code":"denominator","display":"Denominator"}]},"count":1},{"id":"Numerator_1","code":{"coding":[{"system":"http://terminology.hl7.org/CodeSystem/measure-population","code":"numerator","display":"Numerator"}]},"count":0}],"measureScore":{"value":0.0},"stratifier":[{"id":"Stratification_1_1","code":[{"text":"Strata-1"}],"stratum":[{"value":{"text":"Strata-1"},"population":[{"id":"InitialPopulation_1","code":{"coding":[{"system":"http://terminology.hl7.org/CodeSystem/measure-population","code":"initial-population","display":"Initial Population"}]},"count":0},{"id":"Denominator_1","code":{"coding":[{"system":"http://terminology.hl7.org/CodeSystem/measure-population","code":"denominator","display":"Denominator"}]},"count":0},{"id":"Numerator_1","code":{"coding":[{"system":"http://terminology.hl7.org/CodeSystem/measure-population","code":"numerator","display":"Numerator"}]},"count":0}]}]},{"id":"Stratification_1_2","code":[{"text":"Strata-2"}],"stratum":[{"value":{"text":"Strata-2"},"population":[{"id":"InitialPopulation_1","code":{"coding":[{"system":"http://terminology.hl7.org/CodeSystem/measure-population","code":"initial-population","display":"Initial Population"}]},"count":1},{"id":"Denominator_1","code":{"coding":[{"system":"http://terminology.hl7.org/CodeSystem/measure-population","code":"denominator","display":"Denominator"}]},"count":1},{"id":"Numerator_1","code":{"coding":[{"system":"http://terminology.hl7.org/CodeSystem/measure-population","code":"numerator","display":"Numerator"}]},"count":0}]}]},{"id":"Stratification_1_3","code":[{"text":"Strata-3"}],"stratum":[{"value":{"text":"Strata-3"},"population":[{"id":"InitialPopulation_1","code":{"coding":[{"system":"http://terminology.hl7.org/CodeSystem/measure-population","code":"initial-population","display":"Initial Population"}]},"count":0},{"id":"Denominator_1","code":{"coding":[{"system":"http://terminology.hl7.org/CodeSystem/measure-population","code":"denominator","display":"Denominator"}]},"count":0},{"id":"Numerator_1","code":{"coding":[{"system":"http://terminology.hl7.org/CodeSystem/measure-population","code":"numerator","display":"Numerator"}]},"count":0}]}]},{"id":"Stratification_1_4","code":[{"text":"Strata-4"}],"stratum":[{"value":{"text":"Strata-4"},"population":[{"id":"InitialPopulation_1","code":{"coding":[{"system":"http://terminology.hl7.org/CodeSystem/measure-population","code":"initial-population","display":"Initial Population"}]},"count":0},{"id":"Denominator_1","code":{"coding":[{"system":"http://terminology.hl7.org/CodeSystem/measure-population","code":"denominator","display":"Denominator"}]},"count":0},{"id":"Numerator_1","code":{"coding":[{"system":"http://terminology.hl7.org/CodeSystem/measure-population","code":"numerator","display":"Numerator"}]},"count":0}]}]}]}],"evaluatedResource":[{"reference":"Patient/7dd19e80-23c6-4e31-86a9-bb833cfc676b"},{"reference":"Encounter/f05e1f92-eb11-4e2f-bf39-e25ef4bb6907"},{"reference":"Location/4c34a336-ecc0-4958-b4a2-5735d8ec7bd5"},{"reference":"Condition/7f77c66d-3ec6-450e-b4f4-57c694bae586"},{"reference":"Claim/ClaimBehavior-NotSubsAbuse"},{"reference":"Coverage/ca0cdf57-2115-425b-852f-150026667ae0"},{"reference":"Organization/7afefaac-ae4d-42be-846f-8d89298b569f"},{"reference":"Practitioner/e1da0d8b-d256-4b3f-9471-c034d0e2f99f"}]},"request":{"method":"PUT","url":"MeasureReport/1cdc354f-7603-4ce2-98c3-2fdb58b591fe"}}]},"request":{"method":"PUT","url":"Bundle/661476b015ed5841a5547ebf"}}]}