{"resourceType":"Bundle","id":"tests-9b2d612d-b677-4559-870d-b36cc6404ece-bundle","type":"transaction","entry":[{"fullUrl":"Coverage/53633d18-122c-4da1-afa3-ab5f7b100e03","resource":{"resourceType":"Coverage","id":"53633d18-122c-4da1-afa3-ab5f7b100e03","meta":{"profile":["http://hl7.org/fhir/us/qicore/StructureDefinition/qicore-coverage"]},"identifier":[{"type":{"coding":[{"system":"http://terminology.hl7.org/CodeSystem/v2-0203","code":"MB"}]}}],"status":"active","beneficiary":{"reference":"Patient/9b2d612d-b677-4559-870d-b36cc6404ece"},"relationship":{"coding":[{"system":"http://terminology.hl7.org/CodeSystem/subscriber-relationship","code":"self"}]},"payor":[{"reference":"Organization/4497aafb-2a61-41af-a308-bdf718772fbe"}]},"request":{"method":"PUT","url":"Coverage/53633d18-122c-4da1-afa3-ab5f7b100e03"}},{"fullUrl":"Encounter/ebaa377b-aa82-48e4-b73d-6a2bffb59444","resource":{"resourceType":"Encounter","id":"ebaa377b-aa82-48e4-b73d-6a2bffb59444","meta":{"profile":["http://hl7.org/fhir/us/qicore/StructureDefinition/qicore-encounter"]},"status":"finished","class":{"system":"http://terminology.hl7.org/CodeSystem/v3-ActCode","code":"EMER","display":"emergency department"},"type":[{"coding":[{"system":"http://snomed.info/sct","version":"2023-09","code":"4525004","display":"Emergency department patient visit (procedure)","userSelected":true}]}],"subject":{"reference":"Patient/9b2d612d-b677-4559-870d-b36cc6404ece"},"period":{"start":"2027-05-01T06:00:00.000+00:00","end":"2027-05-01T13:15:00.000+00:00"},"diagnosis":[{"condition":{"reference":"Condition/c47fb275-87a1-4fd3-a226-70d3694bfa53"},"use":{"coding":[{"system":"http://terminology.hl7.org/CodeSystem/diagnosis-role","code":"billing"}]},"rank":1}],"location":[{"location":{"reference":"Location/6274a2c2-61ca-4b87-8407-c8d5792b8076"},"period":{"start":"2027-05-01T06:00:00.000+00:00","end":"2027-05-01T13:15:00.000+00:00"}}]},"request":{"method":"PUT","url":"Encounter/ebaa377b-aa82-48e4-b73d-6a2bffb59444"}},{"fullUrl":"Bundle/661476b015ed5841a5547ebf","resource":{"resourceType":"Bundle","id":"661476b015ed5841a5547ebf","type":"transaction","entry":[{"fullUrl":"https://madie.cms.gov/Patient/9b2d612d-b677-4559-870d-b36cc6404ece","resource":{"resourceType":"Patient","id":"9b2d612d-b677-4559-870d-b36cc6404ece","meta":{"profile":["http://hl7.org/fhir/us/qicore/StructureDefinition/qicore-patient"]},"extension":[{"url":"http://hl7.org/fhir/us/core/StructureDefinition/us-core-race","extension":[{"url":"ombCategory","valueCoding":{"system":"urn:oid:2.16.840.1.113883.6.238","code":"1002-5","display":"American Indian or Alaska Native","userSelected":true}},{"url":"text","valueString":"American Indian or Alaska Native"}]},{"url":"http://hl7.org/fhir/us/core/StructureDefinition/us-core-ethnicity","extension":[{"url":"ombCategory","valueCoding":{"system":"urn:oid:2.16.840.1.113883.6.238","code":"2135-2","display":"Hispanic or Latino","userSelected":true}},{"url":"text","valueString":"Hispanic or Latino"}]},{"url":"http://hl7.org/fhir/us/core/StructureDefinition/us-core-sex","valueCode":"248153007"}],"identifier":[{"type":{"coding":[{"system":"http://terminology.hl7.org/CodeSystem/v2-0203","code":"MR"}]},"system":"https://bonnie-fhir.healthit.gov/","value":"661476b015ed5841a5547ebf"}],"name":[{"family":"NUMERStrat1Pass","given":["AdmittedInpatient"]}],"gender":"male","birthDate":"2011-01-01"},"request":{"method":"PUT","url":"Patient/9b2d612d-b677-4559-870d-b36cc6404ece"}},{"fullUrl":"https://madie.cms.gov/Encounter/ebaa377b-aa82-48e4-b73d-6a2bffb59444","resource":{"resourceType":"Encounter","id":"ebaa377b-aa82-48e4-b73d-6a2bffb59444","meta":{"profile":["http://hl7.org/fhir/us/qicore/StructureDefinition/qicore-encounter"]},"status":"finished","class":{"system":"http://terminology.hl7.org/CodeSystem/v3-ActCode","code":"EMER","display":"emergency department"},"type":[{"coding":[{"system":"http://snomed.info/sct","version":"2023-09","code":"4525004","display":"Emergency department patient visit (procedure)","userSelected":true}]}],"subject":{"reference":"Patient/9b2d612d-b677-4559-870d-b36cc6404ece"},"period":{"start":"2027-05-01T06:00:00.000+00:00","end":"2027-05-01T13:15:00.000+00:00"},"diagnosis":[{"condition":{"reference":"Condition/c47fb275-87a1-4fd3-a226-70d3694bfa53"},"use":{"coding":[{"system":"http://terminology.hl7.org/CodeSystem/diagnosis-role","code":"billing"}]},"rank":1}],"location":[{"location":{"reference":"Location/6274a2c2-61ca-4b87-8407-c8d5792b8076"},"period":{"start":"2027-05-01T06:00:00.000+00:00","end":"2027-05-01T13:15:00.000+00:00"}}]},"request":{"method":"PUT","url":"Encounter/ebaa377b-aa82-48e4-b73d-6a2bffb59444"}},{"fullUrl":"https://madie.cms.gov/Condition/c47fb275-87a1-4fd3-a226-70d3694bfa53","resource":{"resourceType":"Condition","id":"c47fb275-87a1-4fd3-a226-70d3694bfa53","meta":{"profile":["http://hl7.org/fhir/us/qicore/StructureDefinition/qicore-condition-encounter-diagnosis"]},"category":[{"coding":[{"system":"http://terminology.hl7.org/CodeSystem/condition-category","code":"encounter-diagnosis","display":"Encounter Diagnosis"}]}],"code":{"coding":[{"system":"http://snomed.info/sct","version":"2023-09","code":"10660471000119109","display":"Ulcer of left foot due to type 2 diabetes mellitus (disorder)","userSelected":true}]},"subject":{"reference":"Patient/9b2d612d-b677-4559-870d-b36cc6404ece"},"recordedDate":"2027-05-01T08:00:00.000+00:00"},"request":{"method":"PUT","url":"Condition/c47fb275-87a1-4fd3-a226-70d3694bfa53"}},{"fullUrl":"https://madie.cms.gov/Encounter/93cc4708-d394-412d-8f79-df68b71fd7e3","resource":{"resourceType":"Encounter","id":"93cc4708-d394-412d-8f79-df68b71fd7e3","meta":{"profile":["http://hl7.org/fhir/us/qicore/StructureDefinition/qicore-encounter"]},"status":"finished","class":{"system":"http://terminology.hl7.org/CodeSystem/v3-ActCode","code":"IMP","display":"inpatient encounter"},"type":[{"coding":[{"system":"http://snomed.info/sct","version":"2023-09","code":"183452005","display":"Emergency hospital admission (procedure)","userSelected":true}]}],"subject":{"reference":"Patient/9b2d612d-b677-4559-870d-b36cc6404ece"},"period":{"start":"2027-05-01T09:00:00.000+00:00","end":"2027-05-03T06:15:00.000+00:00"}},"request":{"method":"PUT","url":"Encounter/93cc4708-d394-412d-8f79-df68b71fd7e3"}},{"fullUrl":"https://madie.cms.gov/Location/6274a2c2-61ca-4b87-8407-c8d5792b8076","resource":{"resourceType":"Location","id":"6274a2c2-61ca-4b87-8407-c8d5792b8076","meta":{"profile":["http://hl7.org/fhir/us/qicore/StructureDefinition/qicore-location"]},"identifier":[{"use":"usual","system":"http://exampleoflocation.com","value":"B1-S.F2"}],"name":"Medical Surgical East, first floor","type":[{"coding":[{"system":"https://www.cdc.gov/nhsn/cdaportal/terminology/codesystem/hsloc.html","version":"2022","code":"1108-0","display":"Emergency Department","userSelected":true}]}]},"request":{"method":"PUT","url":"Location/6274a2c2-61ca-4b87-8407-c8d5792b8076"}},{"fullUrl":"https://madie.cms.gov/claim/ClaimBehavior-NotSubsAbuse","resource":{"resourceType":"Claim","id":"ClaimBehavior-NotSubsAbuse","meta":{"profile":["http://hl7.org/fhir/us/qicore/StructureDefinition/qicore-claim"]},"status":"active","type":{"coding":[{"system":"http://terminology.hl7.org/CodeSystem/claim-type","code":"institutional"}]},"use":"claim","patient":{"reference":"Patient/9b2d612d-b677-4559-870d-b36cc6404ece"},"created":"2027-05-01","provider":{"reference":"Practitioner/53c9fa4f-4625-4142-9f26-a5db8d394e5b"},"priority":{"coding":[{"system":"http://terminology.hl7.org/CodeSystem/processpriority","code":"normal"}]},"diagnosis":[{"sequence":1,"diagnosisReference":{"reference":"Condition/c47fb275-87a1-4fd3-a226-70d3694bfa53"},"type":[{"coding":[{"system":"http://terminology.hl7.org/CodeSystem/ex-diagnosistype","code":"principal"}]}]}],"insurance":[{"sequence":1,"focal":true,"coverage":{"reference":"Coverage/53633d18-122c-4da1-afa3-ab5f7b100e03"}}],"item":[{"sequence":1,"diagnosisSequence":[1],"productOrService":{"coding":[{"system":"http://terminology.hl7.org/CodeSystem/ex-USCLS","code":"99555"}]},"encounter":[{"reference":"Encounter/ebaa377b-aa82-48e4-b73d-6a2bffb59444"}]}]},"request":{"method":"PUT","url":"Claim/ClaimBehavior-NotSubsAbuse"}},{"fullUrl":"https://madie.cms.gov/Coverage/53633d18-122c-4da1-afa3-ab5f7b100e03","resource":{"resourceType":"Coverage","id":"53633d18-122c-4da1-afa3-ab5f7b100e03","meta":{"profile":["http://hl7.org/fhir/us/qicore/StructureDefinition/qicore-coverage"]},"identifier":[{"type":{"coding":[{"system":"http://terminology.hl7.org/CodeSystem/v2-0203","code":"MB"}]}}],"status":"active","beneficiary":{"reference":"Patient/9b2d612d-b677-4559-870d-b36cc6404ece"},"relationship":{"coding":[{"system":"http://terminology.hl7.org/CodeSystem/subscriber-relationship","code":"self"}]},"payor":[{"reference":"Organization/4497aafb-2a61-41af-a308-bdf718772fbe"}]},"request":{"method":"PUT","url":"Coverage/53633d18-122c-4da1-afa3-ab5f7b100e03"}},{"fullUrl":"https://madie.cms.gov/Organization/4497aafb-2a61-41af-a308-bdf718772fbe","resource":{"resourceType":"Organization","id":"4497aafb-2a61-41af-a308-bdf718772fbe","meta":{"profile":["http://hl7.org/fhir/us/qicore/StructureDefinition/qicore-organization"]},"identifier":[{"use":"temp","system":"urn:oid:2.16.840.1.113883.4.4","value":"21-3259825"}],"active":true,"type":[{"coding":[{"system":"http://terminology.hl7.org/CodeSystem/organization-type","code":"pay","display":"Payer"}]}],"name":"Blue Cross Blue Shield of Texas","telecom":[{"system":"phone","value":"(+1) 972-766-6900"}],"address":[{"use":"billing","type":"postal","line":["P.O. Box 660044"],"city":"Dallas","state":"TX","postalCode":"75266-0044","country":"USA"}]},"request":{"method":"PUT","url":"Organization/4497aafb-2a61-41af-a308-bdf718772fbe"}},{"fullUrl":"https://madie.cms.gov/Practitioner/53c9fa4f-4625-4142-9f26-a5db8d394e5b","resource":{"resourceType":"Practitioner","id":"53c9fa4f-4625-4142-9f26-a5db8d394e5b","meta":{"profile":["http://hl7.org/fhir/us/qicore/StructureDefinition/qicore-practitioner"]},"identifier":[{"system":"http://hl7.org/fhir/sid/us-npi","value":"9999999896"}],"name":[{"family":"Evil","prefix":["Dr"]}]},"request":{"method":"PUT","url":"Practitioner/53c9fa4f-4625-4142-9f26-a5db8d394e5b"}},{"fullUrl":"https://madie.cms.gov/MeasureReport/d807f72e-c301-42ab-874f-21f37f6981a9","resource":{"resourceType":"MeasureReport","id":"d807f72e-c301-42ab-874f-21f37f6981a9","meta":{"profile":["http://hl7.org/fhir/us/cqfmeasures/StructureDefinition/test-case-cqfm"]},"contained":[{"resourceType":"Parameters","id":"f9a17bbe-ec9e-4530-a722-3286010ea5b5-parameters","parameter":[{"name":"subject","valueString":"9b2d612d-b677-4559-870d-b36cc6404ece"}]}],"extension":[{"url":"http://hl7.org/fhir/StructureDefinition/cqf-inputParameters","valueReference":{"reference":"#f9a17bbe-ec9e-4530-a722-3286010ea5b5-parameters"}},{"url":"http://hl7.org/fhir/us/cqfmeasures/StructureDefinition/cqfm-testCaseDescription","valueMarkdown":"Child, age 17 ED enc, first day of MP,  admitted to inpatient  (resource: encounter) without psych dx"}],"modifierExtension":[{"url":"http://hl7.org/fhir/us/cqfmeasures/StructureDefinition/cqfm-isTestCase","valueBoolean":true}],"status":"complete","type":"individual","measure":"https://madie.cms.gov/Measure/CMS1244FHIRECATHOQR","period":{"start":"2027-01-01","end":"2027-12-31"},"group":[{"id":"Group_1","population":[{"id":"InitialPopulation_1","code":{"coding":[{"system":"http://terminology.hl7.org/CodeSystem/measure-population","code":"initial-population","display":"Initial Population"}]},"count":1},{"id":"Denominator_1","code":{"coding":[{"system":"http://terminology.hl7.org/CodeSystem/measure-population","code":"denominator","display":"Denominator"}]},"count":1},{"id":"Numerator_1","code":{"coding":[{"system":"http://terminology.hl7.org/CodeSystem/measure-population","code":"numerator","display":"Numerator"}]},"count":1}],"measureScore":{"value":0.0},"stratifier":[{"id":"Stratification_1_1","code":[{"text":"Strata-1"}],"stratum":[{"value":{"text":"Strata-1"},"population":[{"id":"InitialPopulation_1","code":{"coding":[{"system":"http://terminology.hl7.org/CodeSystem/measure-population","code":"initial-population","display":"Initial Population"}]},"count":1},{"id":"Denominator_1","code":{"coding":[{"system":"http://terminology.hl7.org/CodeSystem/measure-population","code":"denominator","display":"Denominator"}]},"count":1},{"id":"Numerator_1","code":{"coding":[{"system":"http://terminology.hl7.org/CodeSystem/measure-population","code":"numerator","display":"Numerator"}]},"count":1}]}]},{"id":"Stratification_1_2","code":[{"text":"Strata-2"}],"stratum":[{"value":{"text":"Strata-2"},"population":[{"id":"InitialPopulation_1","code":{"coding":[{"system":"http://terminology.hl7.org/CodeSystem/measure-population","code":"initial-population","display":"Initial Population"}]},"count":0},{"id":"Denominator_1","code":{"coding":[{"system":"http://terminology.hl7.org/CodeSystem/measure-population","code":"denominator","display":"Denominator"}]},"count":0},{"id":"Numerator_1","code":{"coding":[{"system":"http://terminology.hl7.org/CodeSystem/measure-population","code":"numerator","display":"Numerator"}]},"count":0}]}]},{"id":"Stratification_1_3","code":[{"text":"Strata-3"}],"stratum":[{"value":{"text":"Strata-3"},"population":[{"id":"InitialPopulation_1","code":{"coding":[{"system":"http://terminology.hl7.org/CodeSystem/measure-population","code":"initial-population","display":"Initial Population"}]},"count":0},{"id":"Denominator_1","code":{"coding":[{"system":"http://terminology.hl7.org/CodeSystem/measure-population","code":"denominator","display":"Denominator"}]},"count":0},{"id":"Numerator_1","code":{"coding":[{"system":"http://terminology.hl7.org/CodeSystem/measure-population","code":"numerator","display":"Numerator"}]},"count":0}]}]},{"id":"Stratification_1_4","code":[{"text":"Strata-4"}],"stratum":[{"value":{"text":"Strata-4"},"population":[{"id":"InitialPopulation_1","code":{"coding":[{"system":"http://terminology.hl7.org/CodeSystem/measure-population","code":"initial-population","display":"Initial Population"}]},"count":0},{"id":"Denominator_1","code":{"coding":[{"system":"http://terminology.hl7.org/CodeSystem/measure-population","code":"denominator","display":"Denominator"}]},"count":0},{"id":"Numerator_1","code":{"coding":[{"system":"http://terminology.hl7.org/CodeSystem/measure-population","code":"numerator","display":"Numerator"}]},"count":0}]}]}]}],"evaluatedResource":[{"reference":"Patient/9b2d612d-b677-4559-870d-b36cc6404ece"},{"reference":"Encounter/ebaa377b-aa82-48e4-b73d-6a2bffb59444"},{"reference":"Condition/c47fb275-87a1-4fd3-a226-70d3694bfa53"},{"reference":"Encounter/93cc4708-d394-412d-8f79-df68b71fd7e3"},{"reference":"Location/6274a2c2-61ca-4b87-8407-c8d5792b8076"},{"reference":"Claim/ClaimBehavior-NotSubsAbuse"},{"reference":"Coverage/53633d18-122c-4da1-afa3-ab5f7b100e03"},{"reference":"Organization/4497aafb-2a61-41af-a308-bdf718772fbe"},{"reference":"Practitioner/53c9fa4f-4625-4142-9f26-a5db8d394e5b"}]},"request":{"method":"PUT","url":"MeasureReport/d807f72e-c301-42ab-874f-21f37f6981a9"}}]},"request":{"method":"PUT","url":"Bundle/661476b015ed5841a5547ebf"}},{"fullUrl":"Condition/c47fb275-87a1-4fd3-a226-70d3694bfa53","resource":{"resourceType":"Condition","id":"c47fb275-87a1-4fd3-a226-70d3694bfa53","meta":{"profile":["http://hl7.org/fhir/us/qicore/StructureDefinition/qicore-condition-encounter-diagnosis"]},"category":[{"coding":[{"system":"http://terminology.hl7.org/CodeSystem/condition-category","code":"encounter-diagnosis","display":"Encounter Diagnosis"}]}],"code":{"coding":[{"system":"http://snomed.info/sct","version":"2023-09","code":"10660471000119109","display":"Ulcer of left foot due to type 2 diabetes mellitus (disorder)","userSelected":true}]},"subject":{"reference":"Patient/9b2d612d-b677-4559-870d-b36cc6404ece"},"recordedDate":"2027-05-01T08:00:00.000+00:00"},"request":{"method":"PUT","url":"Condition/c47fb275-87a1-4fd3-a226-70d3694bfa53"}},{"fullUrl":"Location/6274a2c2-61ca-4b87-8407-c8d5792b8076","resource":{"resourceType":"Location","id":"6274a2c2-61ca-4b87-8407-c8d5792b8076","meta":{"profile":["http://hl7.org/fhir/us/qicore/StructureDefinition/qicore-location"]},"identifier":[{"use":"usual","system":"http://exampleoflocation.com","value":"B1-S.F2"}],"name":"Medical Surgical East, first floor","type":[{"coding":[{"system":"https://www.cdc.gov/nhsn/cdaportal/terminology/codesystem/hsloc.html","version":"2022","code":"1108-0","display":"Emergency Department","userSelected":true}]}]},"request":{"method":"PUT","url":"Location/6274a2c2-61ca-4b87-8407-c8d5792b8076"}},{"fullUrl":"Patient/9b2d612d-b677-4559-870d-b36cc6404ece","resource":{"resourceType":"Patient","id":"9b2d612d-b677-4559-870d-b36cc6404ece","meta":{"profile":["http://hl7.org/fhir/us/qicore/StructureDefinition/qicore-patient"]},"extension":[{"url":"http://hl7.org/fhir/us/core/StructureDefinition/us-core-race","extension":[{"url":"ombCategory","valueCoding":{"system":"urn:oid:2.16.840.1.113883.6.238","code":"1002-5","display":"American Indian or Alaska Native","userSelected":true}},{"url":"text","valueString":"American Indian or Alaska Native"}]},{"url":"http://hl7.org/fhir/us/core/StructureDefinition/us-core-ethnicity","extension":[{"url":"ombCategory","valueCoding":{"system":"urn:oid:2.16.840.1.113883.6.238","code":"2135-2","display":"Hispanic or Latino","userSelected":true}},{"url":"text","valueString":"Hispanic or Latino"}]},{"url":"http://hl7.org/fhir/us/core/StructureDefinition/us-core-sex","valueCode":"248153007"}],"identifier":[{"type":{"coding":[{"system":"http://terminology.hl7.org/CodeSystem/v2-0203","code":"MR"}]},"system":"https://bonnie-fhir.healthit.gov/","value":"661476b015ed5841a5547ebf"}],"name":[{"family":"NUMERStrat1Pass","given":["AdmittedInpatient"]}],"gender":"male","birthDate":"2011-01-01"},"request":{"method":"PUT","url":"Patient/9b2d612d-b677-4559-870d-b36cc6404ece"}},{"fullUrl":"Encounter/93cc4708-d394-412d-8f79-df68b71fd7e3","resource":{"resourceType":"Encounter","id":"93cc4708-d394-412d-8f79-df68b71fd7e3","meta":{"profile":["http://hl7.org/fhir/us/qicore/StructureDefinition/qicore-encounter"]},"status":"finished","class":{"system":"http://terminology.hl7.org/CodeSystem/v3-ActCode","code":"IMP","display":"inpatient encounter"},"type":[{"coding":[{"system":"http://snomed.info/sct","version":"2023-09","code":"183452005","display":"Emergency hospital admission (procedure)","userSelected":true}]}],"subject":{"reference":"Patient/9b2d612d-b677-4559-870d-b36cc6404ece"},"period":{"start":"2027-05-01T09:00:00.000+00:00","end":"2027-05-03T06:15:00.000+00:00"}},"request":{"method":"PUT","url":"Encounter/93cc4708-d394-412d-8f79-df68b71fd7e3"}},{"fullUrl":"Practitioner/53c9fa4f-4625-4142-9f26-a5db8d394e5b","resource":{"resourceType":"Practitioner","id":"53c9fa4f-4625-4142-9f26-a5db8d394e5b","meta":{"profile":["http://hl7.org/fhir/us/qicore/StructureDefinition/qicore-practitioner"]},"identifier":[{"system":"http://hl7.org/fhir/sid/us-npi","value":"9999999896"}],"name":[{"family":"Evil","prefix":["Dr"]}]},"request":{"method":"PUT","url":"Practitioner/53c9fa4f-4625-4142-9f26-a5db8d394e5b"}},{"fullUrl":"Organization/4497aafb-2a61-41af-a308-bdf718772fbe","resource":{"resourceType":"Organization","id":"4497aafb-2a61-41af-a308-bdf718772fbe","meta":{"profile":["http://hl7.org/fhir/us/qicore/StructureDefinition/qicore-organization"]},"identifier":[{"use":"temp","system":"urn:oid:2.16.840.1.113883.4.4","value":"21-3259825"}],"active":true,"type":[{"coding":[{"system":"http://terminology.hl7.org/CodeSystem/organization-type","code":"pay","display":"Payer"}]}],"name":"Blue Cross Blue Shield of Texas","telecom":[{"system":"phone","value":"(+1) 972-766-6900"}],"address":[{"use":"billing","type":"postal","line":["P.O. Box 660044"],"city":"Dallas","state":"TX","postalCode":"75266-0044","country":"USA"}]},"request":{"method":"PUT","url":"Organization/4497aafb-2a61-41af-a308-bdf718772fbe"}},{"fullUrl":"Claim/ClaimBehavior-NotSubsAbuse","resource":{"resourceType":"Claim","id":"ClaimBehavior-NotSubsAbuse","meta":{"profile":["http://hl7.org/fhir/us/qicore/StructureDefinition/qicore-claim"]},"status":"active","type":{"coding":[{"system":"http://terminology.hl7.org/CodeSystem/claim-type","code":"institutional"}]},"use":"claim","patient":{"reference":"Patient/9b2d612d-b677-4559-870d-b36cc6404ece"},"created":"2027-05-01","provider":{"reference":"Practitioner/53c9fa4f-4625-4142-9f26-a5db8d394e5b"},"priority":{"coding":[{"system":"http://terminology.hl7.org/CodeSystem/processpriority","code":"normal"}]},"diagnosis":[{"sequence":1,"diagnosisReference":{"reference":"Condition/c47fb275-87a1-4fd3-a226-70d3694bfa53"},"type":[{"coding":[{"system":"http://terminology.hl7.org/CodeSystem/ex-diagnosistype","code":"principal"}]}]}],"insurance":[{"sequence":1,"focal":true,"coverage":{"reference":"Coverage/53633d18-122c-4da1-afa3-ab5f7b100e03"}}],"item":[{"sequence":1,"diagnosisSequence":[1],"productOrService":{"coding":[{"system":"http://terminology.hl7.org/CodeSystem/ex-USCLS","code":"99555"}]},"encounter":[{"reference":"Encounter/ebaa377b-aa82-48e4-b73d-6a2bffb59444"}]}]},"request":{"method":"PUT","url":"Claim/ClaimBehavior-NotSubsAbuse"}},{"fullUrl":"MeasureReport/d807f72e-c301-42ab-874f-21f37f6981a9","resource":{"resourceType":"MeasureReport","id":"d807f72e-c301-42ab-874f-21f37f6981a9","meta":{"profile":["http://hl7.org/fhir/us/cqfmeasures/StructureDefinition/test-case-cqfm"]},"contained":[{"resourceType":"Parameters","id":"f9a17bbe-ec9e-4530-a722-3286010ea5b5-parameters","parameter":[{"name":"subject","valueString":"9b2d612d-b677-4559-870d-b36cc6404ece"}]}],"extension":[{"url":"http://hl7.org/fhir/StructureDefinition/cqf-inputParameters","valueReference":{"reference":"#f9a17bbe-ec9e-4530-a722-3286010ea5b5-parameters"}},{"url":"http://hl7.org/fhir/us/cqfmeasures/StructureDefinition/cqfm-testCaseDescription","valueMarkdown":"Child, age 17 ED enc, first day of MP,  admitted to inpatient  (resource: encounter) without psych dx"}],"modifierExtension":[{"url":"http://hl7.org/fhir/us/cqfmeasures/StructureDefinition/cqfm-isTestCase","valueBoolean":true}],"status":"complete","type":"individual","measure":"https://madie.cms.gov/Measure/CMS1244FHIRECATHOQR","period":{"start":"2027-01-01","end":"2027-12-31"},"group":[{"id":"Group_1","population":[{"id":"InitialPopulation_1","code":{"coding":[{"system":"http://terminology.hl7.org/CodeSystem/measure-population","code":"initial-population","display":"Initial Population"}]},"count":1},{"id":"Denominator_1","code":{"coding":[{"system":"http://terminology.hl7.org/CodeSystem/measure-population","code":"denominator","display":"Denominator"}]},"count":1},{"id":"Numerator_1","code":{"coding":[{"system":"http://terminology.hl7.org/CodeSystem/measure-population","code":"numerator","display":"Numerator"}]},"count":1}],"measureScore":{"value":0.0},"stratifier":[{"id":"Stratification_1_1","code":[{"text":"Strata-1"}],"stratum":[{"value":{"text":"Strata-1"},"population":[{"id":"InitialPopulation_1","code":{"coding":[{"system":"http://terminology.hl7.org/CodeSystem/measure-population","code":"initial-population","display":"Initial Population"}]},"count":1},{"id":"Denominator_1","code":{"coding":[{"system":"http://terminology.hl7.org/CodeSystem/measure-population","code":"denominator","display":"Denominator"}]},"count":1},{"id":"Numerator_1","code":{"coding":[{"system":"http://terminology.hl7.org/CodeSystem/measure-population","code":"numerator","display":"Numerator"}]},"count":1}]}]},{"id":"Stratification_1_2","code":[{"text":"Strata-2"}],"stratum":[{"value":{"text":"Strata-2"},"population":[{"id":"InitialPopulation_1","code":{"coding":[{"system":"http://terminology.hl7.org/CodeSystem/measure-population","code":"initial-population","display":"Initial Population"}]},"count":0},{"id":"Denominator_1","code":{"coding":[{"system":"http://terminology.hl7.org/CodeSystem/measure-population","code":"denominator","display":"Denominator"}]},"count":0},{"id":"Numerator_1","code":{"coding":[{"system":"http://terminology.hl7.org/CodeSystem/measure-population","code":"numerator","display":"Numerator"}]},"count":0}]}]},{"id":"Stratification_1_3","code":[{"text":"Strata-3"}],"stratum":[{"value":{"text":"Strata-3"},"population":[{"id":"InitialPopulation_1","code":{"coding":[{"system":"http://terminology.hl7.org/CodeSystem/measure-population","code":"initial-population","display":"Initial Population"}]},"count":0},{"id":"Denominator_1","code":{"coding":[{"system":"http://terminology.hl7.org/CodeSystem/measure-population","code":"denominator","display":"Denominator"}]},"count":0},{"id":"Numerator_1","code":{"coding":[{"system":"http://terminology.hl7.org/CodeSystem/measure-population","code":"numerator","display":"Numerator"}]},"count":0}]}]},{"id":"Stratification_1_4","code":[{"text":"Strata-4"}],"stratum":[{"value":{"text":"Strata-4"},"population":[{"id":"InitialPopulation_1","code":{"coding":[{"system":"http://terminology.hl7.org/CodeSystem/measure-population","code":"initial-population","display":"Initial Population"}]},"count":0},{"id":"Denominator_1","code":{"coding":[{"system":"http://terminology.hl7.org/CodeSystem/measure-population","code":"denominator","display":"Denominator"}]},"count":0},{"id":"Numerator_1","code":{"coding":[{"system":"http://terminology.hl7.org/CodeSystem/measure-population","code":"numerator","display":"Numerator"}]},"count":0}]}]}]}],"evaluatedResource":[{"reference":"Patient/9b2d612d-b677-4559-870d-b36cc6404ece"},{"reference":"Encounter/ebaa377b-aa82-48e4-b73d-6a2bffb59444"},{"reference":"Condition/c47fb275-87a1-4fd3-a226-70d3694bfa53"},{"reference":"Encounter/93cc4708-d394-412d-8f79-df68b71fd7e3"},{"reference":"Location/6274a2c2-61ca-4b87-8407-c8d5792b8076"},{"reference":"Claim/ClaimBehavior-NotSubsAbuse"},{"reference":"Coverage/53633d18-122c-4da1-afa3-ab5f7b100e03"},{"reference":"Organization/4497aafb-2a61-41af-a308-bdf718772fbe"},{"reference":"Practitioner/53c9fa4f-4625-4142-9f26-a5db8d394e5b"}]},"request":{"method":"PUT","url":"MeasureReport/d807f72e-c301-42ab-874f-21f37f6981a9"}}]}