{"resourceType":"Bundle","id":"tests-dfd5dc6b-3299-4e4f-ae02-45f251e1f75b-bundle","type":"transaction","entry":[{"fullUrl":"Encounter/74ada3c2-17f1-4d02-b4a2-d4379aaa1ab3","resource":{"resourceType":"Encounter","id":"74ada3c2-17f1-4d02-b4a2-d4379aaa1ab3","meta":{"profile":["http://hl7.org/fhir/us/qicore/StructureDefinition/qicore-encounter"]},"status":"finished","class":{"system":"http://terminology.hl7.org/CodeSystem/v3-ActCode","code":"IMP","display":"inpatient encounter"},"type":[{"coding":[{"system":"http://snomed.info/sct","version":"2023-09","code":"183452005","display":"Emergency hospital admission (procedure)","userSelected":true}]}],"subject":{"reference":"Patient/dfd5dc6b-3299-4e4f-ae02-45f251e1f75b"},"period":{"start":"2027-05-01T05:00:00.000+00:00","end":"2027-05-03T06:15:00.000+00:00"}},"request":{"method":"PUT","url":"Encounter/74ada3c2-17f1-4d02-b4a2-d4379aaa1ab3"}},{"fullUrl":"Encounter/c5f66a72-f3df-4071-94ca-e94a79d243d7","resource":{"resourceType":"Encounter","id":"c5f66a72-f3df-4071-94ca-e94a79d243d7","meta":{"profile":["http://hl7.org/fhir/us/qicore/StructureDefinition/qicore-encounter"]},"status":"finished","class":{"system":"http://terminology.hl7.org/CodeSystem/v3-ActCode","code":"EMER","display":"emergency department"},"type":[{"coding":[{"system":"http://snomed.info/sct","version":"2023-09","code":"4525004","display":"Emergency department patient visit (procedure)","userSelected":true}]}],"subject":{"reference":"Patient/dfd5dc6b-3299-4e4f-ae02-45f251e1f75b"},"period":{"start":"2027-05-01T00:00:00.000+00:00","end":"2027-05-01T06:00:00.000+00:00"},"diagnosis":[{"condition":{"reference":"Condition/4fd19bfe-655c-4658-a7ac-12fe3fe9bd33"},"use":{"coding":[{"system":"http://terminology.hl7.org/CodeSystem/diagnosis-role","code":"billing"}]},"rank":1}],"location":[{"location":{"reference":"Location/4e62667f-80b9-47ef-9130-bdd670722367"},"period":{"start":"2027-05-01T00:00:00.000+00:00","end":"2027-05-01T06:01:00.000+00:00"}}]},"request":{"method":"PUT","url":"Encounter/c5f66a72-f3df-4071-94ca-e94a79d243d7"}},{"fullUrl":"ServiceRequest/baebf3e0-ba5f-4e6f-bf8a-d7d9337029bc","resource":{"resourceType":"ServiceRequest","id":"baebf3e0-ba5f-4e6f-bf8a-d7d9337029bc","meta":{"profile":["http://hl7.org/fhir/us/qicore/StructureDefinition/qicore-servicerequest"]},"status":"active","intent":"order","code":{"coding":[{"system":"http://snomed.info/sct","code":"5751000175101","display":"Patient bed assigned (finding)","userSelected":true}]},"subject":{"reference":"Patient/dfd5dc6b-3299-4e4f-ae02-45f251e1f75b"},"authoredOn":"2027-05-01T02:00:00.000+00:00"},"request":{"method":"PUT","url":"ServiceRequest/baebf3e0-ba5f-4e6f-bf8a-d7d9337029bc"}},{"fullUrl":"Bundle/661476b015ed5841a5547ebf","resource":{"resourceType":"Bundle","id":"661476b015ed5841a5547ebf","type":"transaction","entry":[{"fullUrl":"https://madie.cms.gov/Patient/dfd5dc6b-3299-4e4f-ae02-45f251e1f75b","resource":{"resourceType":"Patient","id":"dfd5dc6b-3299-4e4f-ae02-45f251e1f75b","meta":{"profile":["http://hl7.org/fhir/us/qicore/StructureDefinition/qicore-patient"]},"extension":[{"url":"http://hl7.org/fhir/us/core/StructureDefinition/us-core-race","extension":[{"url":"ombCategory","valueCoding":{"system":"urn:oid:2.16.840.1.113883.6.238","code":"1002-5","display":"American Indian or Alaska Native","userSelected":true}},{"url":"text","valueString":"American Indian or Alaska Native"}]},{"url":"http://hl7.org/fhir/us/core/StructureDefinition/us-core-ethnicity","extension":[{"url":"ombCategory","valueCoding":{"system":"urn:oid:2.16.840.1.113883.6.238","code":"2135-2","display":"Hispanic or Latino","userSelected":true}},{"url":"text","valueString":"Hispanic or Latino"}]},{"url":"http://hl7.org/fhir/us/core/StructureDefinition/us-core-sex","valueCode":"248153007"}],"identifier":[{"type":{"coding":[{"system":"http://terminology.hl7.org/CodeSystem/v2-0203","code":"MR"}]},"system":"https://bonnie-fhir.healthit.gov/","value":"661476b015ed5841a5547ebf"}],"name":[{"family":"NUMEXStrat4Pass","given":["EDOBSOrderBoarded"]}],"gender":"male","birthDate":"2009-01-01"},"request":{"method":"PUT","url":"Patient/dfd5dc6b-3299-4e4f-ae02-45f251e1f75b"}},{"fullUrl":"https://madie.cms.gov/Encounter/c5f66a72-f3df-4071-94ca-e94a79d243d7","resource":{"resourceType":"Encounter","id":"c5f66a72-f3df-4071-94ca-e94a79d243d7","meta":{"profile":["http://hl7.org/fhir/us/qicore/StructureDefinition/qicore-encounter"]},"status":"finished","class":{"system":"http://terminology.hl7.org/CodeSystem/v3-ActCode","code":"EMER","display":"emergency department"},"type":[{"coding":[{"system":"http://snomed.info/sct","version":"2023-09","code":"4525004","display":"Emergency department patient visit (procedure)","userSelected":true}]}],"subject":{"reference":"Patient/dfd5dc6b-3299-4e4f-ae02-45f251e1f75b"},"period":{"start":"2027-05-01T00:00:00.000+00:00","end":"2027-05-01T06:00:00.000+00:00"},"diagnosis":[{"condition":{"reference":"Condition/4fd19bfe-655c-4658-a7ac-12fe3fe9bd33"},"use":{"coding":[{"system":"http://terminology.hl7.org/CodeSystem/diagnosis-role","code":"billing"}]},"rank":1}],"location":[{"location":{"reference":"Location/4e62667f-80b9-47ef-9130-bdd670722367"},"period":{"start":"2027-05-01T00:00:00.000+00:00","end":"2027-05-01T06:01:00.000+00:00"}}]},"request":{"method":"PUT","url":"Encounter/c5f66a72-f3df-4071-94ca-e94a79d243d7"}},{"fullUrl":"https://madie.cms.gov/Encounter/74ada3c2-17f1-4d02-b4a2-d4379aaa1ab3","resource":{"resourceType":"Encounter","id":"74ada3c2-17f1-4d02-b4a2-d4379aaa1ab3","meta":{"profile":["http://hl7.org/fhir/us/qicore/StructureDefinition/qicore-encounter"]},"status":"finished","class":{"system":"http://terminology.hl7.org/CodeSystem/v3-ActCode","code":"IMP","display":"inpatient encounter"},"type":[{"coding":[{"system":"http://snomed.info/sct","version":"2023-09","code":"183452005","display":"Emergency hospital admission (procedure)","userSelected":true}]}],"subject":{"reference":"Patient/dfd5dc6b-3299-4e4f-ae02-45f251e1f75b"},"period":{"start":"2027-05-01T05:00:00.000+00:00","end":"2027-05-03T06:15:00.000+00:00"}},"request":{"method":"PUT","url":"Encounter/74ada3c2-17f1-4d02-b4a2-d4379aaa1ab3"}},{"fullUrl":"https://madie.cms.gov/ServiceRequest/baebf3e0-ba5f-4e6f-bf8a-d7d9337029bc","resource":{"resourceType":"ServiceRequest","id":"baebf3e0-ba5f-4e6f-bf8a-d7d9337029bc","meta":{"profile":["http://hl7.org/fhir/us/qicore/StructureDefinition/qicore-servicerequest"]},"status":"active","intent":"order","code":{"coding":[{"system":"http://snomed.info/sct","code":"5751000175101","display":"Patient bed assigned (finding)","userSelected":true}]},"subject":{"reference":"Patient/dfd5dc6b-3299-4e4f-ae02-45f251e1f75b"},"authoredOn":"2027-05-01T02:00:00.000+00:00"},"request":{"method":"PUT","url":"ServiceRequest/baebf3e0-ba5f-4e6f-bf8a-d7d9337029bc"}},{"fullUrl":"https://madie.cms.gov/Location/4e62667f-80b9-47ef-9130-bdd670722367","resource":{"resourceType":"Location","id":"4e62667f-80b9-47ef-9130-bdd670722367","meta":{"profile":["http://hl7.org/fhir/us/qicore/StructureDefinition/qicore-location"]},"identifier":[{"use":"usual","system":"http://exampleoflocation.com","value":"B1-S.F2"}],"name":"Medical Surgical East, first floor","type":[{"coding":[{"system":"https://www.cdc.gov/nhsn/cdaportal/terminology/codesystem/hsloc.html","version":"2022","code":"1108-0","display":"Emergency Department","userSelected":true}]}]},"request":{"method":"PUT","url":"Location/4e62667f-80b9-47ef-9130-bdd670722367"}},{"fullUrl":"https://madie.cms.gov/Condition/4fd19bfe-655c-4658-a7ac-12fe3fe9bd33","resource":{"resourceType":"Condition","id":"4fd19bfe-655c-4658-a7ac-12fe3fe9bd33","meta":{"profile":["http://hl7.org/fhir/us/qicore/StructureDefinition/qicore-condition-encounter-diagnosis"]},"category":[{"coding":[{"system":"http://terminology.hl7.org/CodeSystem/condition-category","code":"encounter-diagnosis","display":"Encounter Diagnosis"}]}],"code":{"coding":[{"system":"http://snomed.info/sct","version":"2023-09","code":"66344007","display":"Recurrent major depression (disorder)","userSelected":true}]},"subject":{"reference":"Patient/dfd5dc6b-3299-4e4f-ae02-45f251e1f75b"},"recordedDate":"2026-04-18T08:00:00.000+00:00"},"request":{"method":"PUT","url":"Condition/4fd19bfe-655c-4658-a7ac-12fe3fe9bd33"}},{"fullUrl":"https://madie.cms.gov/claim/ClaimBehavior-NotSubsAbuse","resource":{"resourceType":"Claim","id":"ClaimBehavior-NotSubsAbuse","meta":{"profile":["http://hl7.org/fhir/us/qicore/StructureDefinition/qicore-claim"]},"status":"active","type":{"coding":[{"system":"http://terminology.hl7.org/CodeSystem/claim-type","code":"institutional"}]},"use":"claim","patient":{"reference":"Patient/dfd5dc6b-3299-4e4f-ae02-45f251e1f75b"},"created":"2027-05-01","provider":{"reference":"Practitioner/46530f54-f55f-4e81-94a0-12d3c91f4ce3"},"priority":{"coding":[{"system":"http://terminology.hl7.org/CodeSystem/processpriority","code":"normal"}]},"diagnosis":[{"sequence":1,"diagnosisReference":{"reference":"Condition/4fd19bfe-655c-4658-a7ac-12fe3fe9bd33"},"type":[{"coding":[{"system":"http://terminology.hl7.org/CodeSystem/ex-diagnosistype","code":"principal"}]}]}],"insurance":[{"sequence":1,"focal":true,"coverage":{"reference":"Coverage/73f41d7f-95a5-44dd-aa7a-66327f49b2bb"}}],"item":[{"sequence":1,"diagnosisSequence":[1],"productOrService":{"coding":[{"system":"http://terminology.hl7.org/CodeSystem/ex-USCLS","code":"99555"}]},"encounter":[{"reference":"Encounter/c5f66a72-f3df-4071-94ca-e94a79d243d7"}]}]},"request":{"method":"PUT","url":"Claim/ClaimBehavior-NotSubsAbuse"}},{"fullUrl":"https://madie.cms.gov/Coverage/73f41d7f-95a5-44dd-aa7a-66327f49b2bb","resource":{"resourceType":"Coverage","id":"73f41d7f-95a5-44dd-aa7a-66327f49b2bb","meta":{"profile":["http://hl7.org/fhir/us/qicore/StructureDefinition/qicore-coverage"]},"identifier":[{"type":{"coding":[{"system":"http://terminology.hl7.org/CodeSystem/v2-0203","code":"MB"}]}}],"status":"active","beneficiary":{"reference":"Patient/dfd5dc6b-3299-4e4f-ae02-45f251e1f75b"},"relationship":{"coding":[{"system":"http://terminology.hl7.org/CodeSystem/subscriber-relationship","code":"self"}]},"payor":[{"reference":"Organization/36c10c6e-7c64-4d8a-8633-6ae7c4d703b1"}]},"request":{"method":"PUT","url":"Coverage/73f41d7f-95a5-44dd-aa7a-66327f49b2bb"}},{"fullUrl":"https://madie.cms.gov/Encounter/3120834a-a5aa-4d5c-ab26-a356b5413493","resource":{"resourceType":"Encounter","id":"3120834a-a5aa-4d5c-ab26-a356b5413493","meta":{"profile":["http://hl7.org/fhir/us/qicore/StructureDefinition/qicore-encounter"]},"status":"finished","class":{"system":"http://terminology.hl7.org/CodeSystem/v3-ActCode","code":"EMER","display":"emergency"},"type":[{"coding":[{"system":"http://snomed.info/sct","code":"448951000124107","display":"Admission to observation unit (procedure)","userSelected":true}]}],"subject":{"reference":"Patient/dfd5dc6b-3299-4e4f-ae02-45f251e1f75b"},"period":{"start":"2027-05-01T02:01:00.000+00:00","end":"2027-05-01T05:59:00.000+00:00"}},"request":{"method":"PUT","url":"Encounter/3120834a-a5aa-4d5c-ab26-a356b5413493"}},{"fullUrl":"https://madie.cms.gov/Organization/36c10c6e-7c64-4d8a-8633-6ae7c4d703b1","resource":{"resourceType":"Organization","id":"36c10c6e-7c64-4d8a-8633-6ae7c4d703b1","meta":{"profile":["http://hl7.org/fhir/us/qicore/StructureDefinition/qicore-organization"]},"identifier":[{"use":"temp","system":"urn:oid:2.16.840.1.113883.4.4","value":"21-3259825"}],"active":true,"type":[{"coding":[{"system":"http://terminology.hl7.org/CodeSystem/organization-type","code":"pay","display":"Payer"}]}],"name":"Blue Cross Blue Shield of Texas","telecom":[{"system":"phone","value":"(+1) 972-766-6900"}],"address":[{"use":"billing","type":"postal","line":["P.O. Box 660044"],"city":"Dallas","state":"TX","postalCode":"75266-0044","country":"USA"}]},"request":{"method":"PUT","url":"Organization/36c10c6e-7c64-4d8a-8633-6ae7c4d703b1"}},{"fullUrl":"https://madie.cms.gov/Practitioner/46530f54-f55f-4e81-94a0-12d3c91f4ce3","resource":{"resourceType":"Practitioner","id":"46530f54-f55f-4e81-94a0-12d3c91f4ce3","meta":{"profile":["http://hl7.org/fhir/us/qicore/StructureDefinition/qicore-practitioner"]},"identifier":[{"system":"http://hl7.org/fhir/sid/us-npi","value":"9999999896"}],"name":[{"family":"Evil","prefix":["Dr"]}]},"request":{"method":"PUT","url":"Practitioner/46530f54-f55f-4e81-94a0-12d3c91f4ce3"}},{"fullUrl":"https://madie.cms.gov/MeasureReport/d76c94df-b7cd-49dd-b4c9-146ee1f0a782","resource":{"resourceType":"MeasureReport","id":"d76c94df-b7cd-49dd-b4c9-146ee1f0a782","meta":{"profile":["http://hl7.org/fhir/us/cqfmeasures/StructureDefinition/test-case-cqfm"]},"contained":[{"resourceType":"Parameters","id":"091433da-bbe9-4bcc-8822-4c68408851dc-parameters","parameter":[{"name":"subject","valueString":"dfd5dc6b-3299-4e4f-ae02-45f251e1f75b"}]}],"extension":[{"url":"http://hl7.org/fhir/StructureDefinition/cqf-inputParameters","valueReference":{"reference":"#091433da-bbe9-4bcc-8822-4c68408851dc-parameters"}},{"url":"http://hl7.org/fhir/us/cqfmeasures/StructureDefinition/cqfm-testCaseDescription","valueMarkdown":"Adult, ED observation order during ED enc where patient was boarded 6 hrs 1 min; Enc 8 hrs, enc departure 8 hrs 1 min. dx recurrent major depression"}],"modifierExtension":[{"url":"http://hl7.org/fhir/us/cqfmeasures/StructureDefinition/cqfm-isTestCase","valueBoolean":true}],"status":"complete","type":"individual","measure":"https://madie.cms.gov/Measure/CMS1244FHIRECATHOQR","period":{"start":"2027-01-01","end":"2027-12-31"},"group":[{"id":"Group_1","population":[{"id":"InitialPopulation_1","code":{"coding":[{"system":"http://terminology.hl7.org/CodeSystem/measure-population","code":"initial-population","display":"Initial Population"}]},"count":1},{"id":"Denominator_1","code":{"coding":[{"system":"http://terminology.hl7.org/CodeSystem/measure-population","code":"denominator","display":"Denominator"}]},"count":1},{"id":"Numerator_1","code":{"coding":[{"system":"http://terminology.hl7.org/CodeSystem/measure-population","code":"numerator","display":"Numerator"}]},"count":0}],"measureScore":{"value":0.0},"stratifier":[{"id":"Stratification_1_1","code":[{"text":"Strata-1"}],"stratum":[{"value":{"text":"Strata-1"},"population":[{"id":"InitialPopulation_1","code":{"coding":[{"system":"http://terminology.hl7.org/CodeSystem/measure-population","code":"initial-population","display":"Initial Population"}]},"count":0},{"id":"Denominator_1","code":{"coding":[{"system":"http://terminology.hl7.org/CodeSystem/measure-population","code":"denominator","display":"Denominator"}]},"count":0},{"id":"Numerator_1","code":{"coding":[{"system":"http://terminology.hl7.org/CodeSystem/measure-population","code":"numerator","display":"Numerator"}]},"count":0}]}]},{"id":"Stratification_1_2","code":[{"text":"Strata-2"}],"stratum":[{"value":{"text":"Strata-2"},"population":[{"id":"InitialPopulation_1","code":{"coding":[{"system":"http://terminology.hl7.org/CodeSystem/measure-population","code":"initial-population","display":"Initial Population"}]},"count":0},{"id":"Denominator_1","code":{"coding":[{"system":"http://terminology.hl7.org/CodeSystem/measure-population","code":"denominator","display":"Denominator"}]},"count":0},{"id":"Numerator_1","code":{"coding":[{"system":"http://terminology.hl7.org/CodeSystem/measure-population","code":"numerator","display":"Numerator"}]},"count":0}]}]},{"id":"Stratification_1_3","code":[{"text":"Strata-3"}],"stratum":[{"value":{"text":"Strata-3"},"population":[{"id":"InitialPopulation_1","code":{"coding":[{"system":"http://terminology.hl7.org/CodeSystem/measure-population","code":"initial-population","display":"Initial Population"}]},"count":0},{"id":"Denominator_1","code":{"coding":[{"system":"http://terminology.hl7.org/CodeSystem/measure-population","code":"denominator","display":"Denominator"}]},"count":0},{"id":"Numerator_1","code":{"coding":[{"system":"http://terminology.hl7.org/CodeSystem/measure-population","code":"numerator","display":"Numerator"}]},"count":0}]}]},{"id":"Stratification_1_4","code":[{"text":"Strata-4"}],"stratum":[{"value":{"text":"Strata-4"},"population":[{"id":"InitialPopulation_1","code":{"coding":[{"system":"http://terminology.hl7.org/CodeSystem/measure-population","code":"initial-population","display":"Initial Population"}]},"count":1},{"id":"Denominator_1","code":{"coding":[{"system":"http://terminology.hl7.org/CodeSystem/measure-population","code":"denominator","display":"Denominator"}]},"count":1},{"id":"Numerator_1","code":{"coding":[{"system":"http://terminology.hl7.org/CodeSystem/measure-population","code":"numerator","display":"Numerator"}]},"count":0}]}]}]}],"evaluatedResource":[{"reference":"Patient/dfd5dc6b-3299-4e4f-ae02-45f251e1f75b"},{"reference":"Encounter/c5f66a72-f3df-4071-94ca-e94a79d243d7"},{"reference":"Encounter/74ada3c2-17f1-4d02-b4a2-d4379aaa1ab3"},{"reference":"ServiceRequest/baebf3e0-ba5f-4e6f-bf8a-d7d9337029bc"},{"reference":"Location/4e62667f-80b9-47ef-9130-bdd670722367"},{"reference":"Condition/4fd19bfe-655c-4658-a7ac-12fe3fe9bd33"},{"reference":"Claim/ClaimBehavior-NotSubsAbuse"},{"reference":"Coverage/73f41d7f-95a5-44dd-aa7a-66327f49b2bb"},{"reference":"Encounter/3120834a-a5aa-4d5c-ab26-a356b5413493"},{"reference":"Organization/36c10c6e-7c64-4d8a-8633-6ae7c4d703b1"},{"reference":"Practitioner/46530f54-f55f-4e81-94a0-12d3c91f4ce3"}]},"request":{"method":"PUT","url":"MeasureReport/d76c94df-b7cd-49dd-b4c9-146ee1f0a782"}}]},"request":{"method":"PUT","url":"Bundle/661476b015ed5841a5547ebf"}},{"fullUrl":"Encounter/3120834a-a5aa-4d5c-ab26-a356b5413493","resource":{"resourceType":"Encounter","id":"3120834a-a5aa-4d5c-ab26-a356b5413493","meta":{"profile":["http://hl7.org/fhir/us/qicore/StructureDefinition/qicore-encounter"]},"status":"finished","class":{"system":"http://terminology.hl7.org/CodeSystem/v3-ActCode","code":"EMER","display":"emergency"},"type":[{"coding":[{"system":"http://snomed.info/sct","code":"448951000124107","display":"Admission to observation unit (procedure)","userSelected":true}]}],"subject":{"reference":"Patient/dfd5dc6b-3299-4e4f-ae02-45f251e1f75b"},"period":{"start":"2027-05-01T02:01:00.000+00:00","end":"2027-05-01T05:59:00.000+00:00"}},"request":{"method":"PUT","url":"Encounter/3120834a-a5aa-4d5c-ab26-a356b5413493"}},{"fullUrl":"Coverage/73f41d7f-95a5-44dd-aa7a-66327f49b2bb","resource":{"resourceType":"Coverage","id":"73f41d7f-95a5-44dd-aa7a-66327f49b2bb","meta":{"profile":["http://hl7.org/fhir/us/qicore/StructureDefinition/qicore-coverage"]},"identifier":[{"type":{"coding":[{"system":"http://terminology.hl7.org/CodeSystem/v2-0203","code":"MB"}]}}],"status":"active","beneficiary":{"reference":"Patient/dfd5dc6b-3299-4e4f-ae02-45f251e1f75b"},"relationship":{"coding":[{"system":"http://terminology.hl7.org/CodeSystem/subscriber-relationship","code":"self"}]},"payor":[{"reference":"Organization/36c10c6e-7c64-4d8a-8633-6ae7c4d703b1"}]},"request":{"method":"PUT","url":"Coverage/73f41d7f-95a5-44dd-aa7a-66327f49b2bb"}},{"fullUrl":"Patient/dfd5dc6b-3299-4e4f-ae02-45f251e1f75b","resource":{"resourceType":"Patient","id":"dfd5dc6b-3299-4e4f-ae02-45f251e1f75b","meta":{"profile":["http://hl7.org/fhir/us/qicore/StructureDefinition/qicore-patient"]},"extension":[{"url":"http://hl7.org/fhir/us/core/StructureDefinition/us-core-race","extension":[{"url":"ombCategory","valueCoding":{"system":"urn:oid:2.16.840.1.113883.6.238","code":"1002-5","display":"American Indian or Alaska Native","userSelected":true}},{"url":"text","valueString":"American Indian or Alaska Native"}]},{"url":"http://hl7.org/fhir/us/core/StructureDefinition/us-core-ethnicity","extension":[{"url":"ombCategory","valueCoding":{"system":"urn:oid:2.16.840.1.113883.6.238","code":"2135-2","display":"Hispanic or Latino","userSelected":true}},{"url":"text","valueString":"Hispanic or Latino"}]},{"url":"http://hl7.org/fhir/us/core/StructureDefinition/us-core-sex","valueCode":"248153007"}],"identifier":[{"type":{"coding":[{"system":"http://terminology.hl7.org/CodeSystem/v2-0203","code":"MR"}]},"system":"https://bonnie-fhir.healthit.gov/","value":"661476b015ed5841a5547ebf"}],"name":[{"family":"NUMEXStrat4Pass","given":["EDOBSOrderBoarded"]}],"gender":"male","birthDate":"2009-01-01"},"request":{"method":"PUT","url":"Patient/dfd5dc6b-3299-4e4f-ae02-45f251e1f75b"}},{"fullUrl":"Organization/36c10c6e-7c64-4d8a-8633-6ae7c4d703b1","resource":{"resourceType":"Organization","id":"36c10c6e-7c64-4d8a-8633-6ae7c4d703b1","meta":{"profile":["http://hl7.org/fhir/us/qicore/StructureDefinition/qicore-organization"]},"identifier":[{"use":"temp","system":"urn:oid:2.16.840.1.113883.4.4","value":"21-3259825"}],"active":true,"type":[{"coding":[{"system":"http://terminology.hl7.org/CodeSystem/organization-type","code":"pay","display":"Payer"}]}],"name":"Blue Cross Blue Shield of Texas","telecom":[{"system":"phone","value":"(+1) 972-766-6900"}],"address":[{"use":"billing","type":"postal","line":["P.O. Box 660044"],"city":"Dallas","state":"TX","postalCode":"75266-0044","country":"USA"}]},"request":{"method":"PUT","url":"Organization/36c10c6e-7c64-4d8a-8633-6ae7c4d703b1"}},{"fullUrl":"Claim/ClaimBehavior-NotSubsAbuse","resource":{"resourceType":"Claim","id":"ClaimBehavior-NotSubsAbuse","meta":{"profile":["http://hl7.org/fhir/us/qicore/StructureDefinition/qicore-claim"]},"status":"active","type":{"coding":[{"system":"http://terminology.hl7.org/CodeSystem/claim-type","code":"institutional"}]},"use":"claim","patient":{"reference":"Patient/dfd5dc6b-3299-4e4f-ae02-45f251e1f75b"},"created":"2027-05-01","provider":{"reference":"Practitioner/46530f54-f55f-4e81-94a0-12d3c91f4ce3"},"priority":{"coding":[{"system":"http://terminology.hl7.org/CodeSystem/processpriority","code":"normal"}]},"diagnosis":[{"sequence":1,"diagnosisReference":{"reference":"Condition/4fd19bfe-655c-4658-a7ac-12fe3fe9bd33"},"type":[{"coding":[{"system":"http://terminology.hl7.org/CodeSystem/ex-diagnosistype","code":"principal"}]}]}],"insurance":[{"sequence":1,"focal":true,"coverage":{"reference":"Coverage/73f41d7f-95a5-44dd-aa7a-66327f49b2bb"}}],"item":[{"sequence":1,"diagnosisSequence":[1],"productOrService":{"coding":[{"system":"http://terminology.hl7.org/CodeSystem/ex-USCLS","code":"99555"}]},"encounter":[{"reference":"Encounter/c5f66a72-f3df-4071-94ca-e94a79d243d7"}]}]},"request":{"method":"PUT","url":"Claim/ClaimBehavior-NotSubsAbuse"}},{"fullUrl":"MeasureReport/d76c94df-b7cd-49dd-b4c9-146ee1f0a782","resource":{"resourceType":"MeasureReport","id":"d76c94df-b7cd-49dd-b4c9-146ee1f0a782","meta":{"profile":["http://hl7.org/fhir/us/cqfmeasures/StructureDefinition/test-case-cqfm"]},"contained":[{"resourceType":"Parameters","id":"091433da-bbe9-4bcc-8822-4c68408851dc-parameters","parameter":[{"name":"subject","valueString":"dfd5dc6b-3299-4e4f-ae02-45f251e1f75b"}]}],"extension":[{"url":"http://hl7.org/fhir/StructureDefinition/cqf-inputParameters","valueReference":{"reference":"#091433da-bbe9-4bcc-8822-4c68408851dc-parameters"}},{"url":"http://hl7.org/fhir/us/cqfmeasures/StructureDefinition/cqfm-testCaseDescription","valueMarkdown":"Adult, ED observation order during ED enc where patient was boarded 6 hrs 1 min; Enc 8 hrs, enc departure 8 hrs 1 min. dx recurrent major depression"}],"modifierExtension":[{"url":"http://hl7.org/fhir/us/cqfmeasures/StructureDefinition/cqfm-isTestCase","valueBoolean":true}],"status":"complete","type":"individual","measure":"https://madie.cms.gov/Measure/CMS1244FHIRECATHOQR","period":{"start":"2027-01-01","end":"2027-12-31"},"group":[{"id":"Group_1","population":[{"id":"InitialPopulation_1","code":{"coding":[{"system":"http://terminology.hl7.org/CodeSystem/measure-population","code":"initial-population","display":"Initial Population"}]},"count":1},{"id":"Denominator_1","code":{"coding":[{"system":"http://terminology.hl7.org/CodeSystem/measure-population","code":"denominator","display":"Denominator"}]},"count":1},{"id":"Numerator_1","code":{"coding":[{"system":"http://terminology.hl7.org/CodeSystem/measure-population","code":"numerator","display":"Numerator"}]},"count":0}],"measureScore":{"value":0.0},"stratifier":[{"id":"Stratification_1_1","code":[{"text":"Strata-1"}],"stratum":[{"value":{"text":"Strata-1"},"population":[{"id":"InitialPopulation_1","code":{"coding":[{"system":"http://terminology.hl7.org/CodeSystem/measure-population","code":"initial-population","display":"Initial Population"}]},"count":0},{"id":"Denominator_1","code":{"coding":[{"system":"http://terminology.hl7.org/CodeSystem/measure-population","code":"denominator","display":"Denominator"}]},"count":0},{"id":"Numerator_1","code":{"coding":[{"system":"http://terminology.hl7.org/CodeSystem/measure-population","code":"numerator","display":"Numerator"}]},"count":0}]}]},{"id":"Stratification_1_2","code":[{"text":"Strata-2"}],"stratum":[{"value":{"text":"Strata-2"},"population":[{"id":"InitialPopulation_1","code":{"coding":[{"system":"http://terminology.hl7.org/CodeSystem/measure-population","code":"initial-population","display":"Initial Population"}]},"count":0},{"id":"Denominator_1","code":{"coding":[{"system":"http://terminology.hl7.org/CodeSystem/measure-population","code":"denominator","display":"Denominator"}]},"count":0},{"id":"Numerator_1","code":{"coding":[{"system":"http://terminology.hl7.org/CodeSystem/measure-population","code":"numerator","display":"Numerator"}]},"count":0}]}]},{"id":"Stratification_1_3","code":[{"text":"Strata-3"}],"stratum":[{"value":{"text":"Strata-3"},"population":[{"id":"InitialPopulation_1","code":{"coding":[{"system":"http://terminology.hl7.org/CodeSystem/measure-population","code":"initial-population","display":"Initial Population"}]},"count":0},{"id":"Denominator_1","code":{"coding":[{"system":"http://terminology.hl7.org/CodeSystem/measure-population","code":"denominator","display":"Denominator"}]},"count":0},{"id":"Numerator_1","code":{"coding":[{"system":"http://terminology.hl7.org/CodeSystem/measure-population","code":"numerator","display":"Numerator"}]},"count":0}]}]},{"id":"Stratification_1_4","code":[{"text":"Strata-4"}],"stratum":[{"value":{"text":"Strata-4"},"population":[{"id":"InitialPopulation_1","code":{"coding":[{"system":"http://terminology.hl7.org/CodeSystem/measure-population","code":"initial-population","display":"Initial Population"}]},"count":1},{"id":"Denominator_1","code":{"coding":[{"system":"http://terminology.hl7.org/CodeSystem/measure-population","code":"denominator","display":"Denominator"}]},"count":1},{"id":"Numerator_1","code":{"coding":[{"system":"http://terminology.hl7.org/CodeSystem/measure-population","code":"numerator","display":"Numerator"}]},"count":0}]}]}]}],"evaluatedResource":[{"reference":"Patient/dfd5dc6b-3299-4e4f-ae02-45f251e1f75b"},{"reference":"Encounter/c5f66a72-f3df-4071-94ca-e94a79d243d7"},{"reference":"Encounter/74ada3c2-17f1-4d02-b4a2-d4379aaa1ab3"},{"reference":"ServiceRequest/baebf3e0-ba5f-4e6f-bf8a-d7d9337029bc"},{"reference":"Location/4e62667f-80b9-47ef-9130-bdd670722367"},{"reference":"Condition/4fd19bfe-655c-4658-a7ac-12fe3fe9bd33"},{"reference":"Claim/ClaimBehavior-NotSubsAbuse"},{"reference":"Coverage/73f41d7f-95a5-44dd-aa7a-66327f49b2bb"},{"reference":"Encounter/3120834a-a5aa-4d5c-ab26-a356b5413493"},{"reference":"Organization/36c10c6e-7c64-4d8a-8633-6ae7c4d703b1"},{"reference":"Practitioner/46530f54-f55f-4e81-94a0-12d3c91f4ce3"}]},"request":{"method":"PUT","url":"MeasureReport/d76c94df-b7cd-49dd-b4c9-146ee1f0a782"}},{"fullUrl":"Practitioner/46530f54-f55f-4e81-94a0-12d3c91f4ce3","resource":{"resourceType":"Practitioner","id":"46530f54-f55f-4e81-94a0-12d3c91f4ce3","meta":{"profile":["http://hl7.org/fhir/us/qicore/StructureDefinition/qicore-practitioner"]},"identifier":[{"system":"http://hl7.org/fhir/sid/us-npi","value":"9999999896"}],"name":[{"family":"Evil","prefix":["Dr"]}]},"request":{"method":"PUT","url":"Practitioner/46530f54-f55f-4e81-94a0-12d3c91f4ce3"}},{"fullUrl":"Location/4e62667f-80b9-47ef-9130-bdd670722367","resource":{"resourceType":"Location","id":"4e62667f-80b9-47ef-9130-bdd670722367","meta":{"profile":["http://hl7.org/fhir/us/qicore/StructureDefinition/qicore-location"]},"identifier":[{"use":"usual","system":"http://exampleoflocation.com","value":"B1-S.F2"}],"name":"Medical Surgical East, first floor","type":[{"coding":[{"system":"https://www.cdc.gov/nhsn/cdaportal/terminology/codesystem/hsloc.html","version":"2022","code":"1108-0","display":"Emergency Department","userSelected":true}]}]},"request":{"method":"PUT","url":"Location/4e62667f-80b9-47ef-9130-bdd670722367"}},{"fullUrl":"Condition/4fd19bfe-655c-4658-a7ac-12fe3fe9bd33","resource":{"resourceType":"Condition","id":"4fd19bfe-655c-4658-a7ac-12fe3fe9bd33","meta":{"profile":["http://hl7.org/fhir/us/qicore/StructureDefinition/qicore-condition-encounter-diagnosis"]},"category":[{"coding":[{"system":"http://terminology.hl7.org/CodeSystem/condition-category","code":"encounter-diagnosis","display":"Encounter Diagnosis"}]}],"code":{"coding":[{"system":"http://snomed.info/sct","version":"2023-09","code":"66344007","display":"Recurrent major depression (disorder)","userSelected":true}]},"subject":{"reference":"Patient/dfd5dc6b-3299-4e4f-ae02-45f251e1f75b"},"recordedDate":"2026-04-18T08:00:00.000+00:00"},"request":{"method":"PUT","url":"Condition/4fd19bfe-655c-4658-a7ac-12fe3fe9bd33"}}]}