{"resourceType":"Bundle","id":"tests-7bcd79b7-7898-437d-b563-cfb9068df210-bundle","type":"transaction","entry":[{"fullUrl":"Bundle/6615806fdb207d74c03b8a5f","resource":{"resourceType":"Bundle","id":"6615806fdb207d74c03b8a5f","type":"transaction","entry":[{"fullUrl":"https://madie.cms.gov/Patient/7bcd79b7-7898-437d-b563-cfb9068df210","resource":{"resourceType":"Patient","id":"7bcd79b7-7898-437d-b563-cfb9068df210","meta":{"profile":["http://hl7.org/fhir/us/qicore/StructureDefinition/qicore-patient"]},"extension":[{"url":"http://hl7.org/fhir/us/core/StructureDefinition/us-core-race","extension":[{"url":"ombCategory","valueCoding":{"system":"urn:oid:2.16.840.1.113883.6.238","code":"1002-5","display":"American Indian or Alaska Native","userSelected":true}},{"url":"text","valueString":"American Indian or Alaska Native"}]},{"url":"http://hl7.org/fhir/us/core/StructureDefinition/us-core-ethnicity","extension":[{"url":"ombCategory","valueCoding":{"system":"urn:oid:2.16.840.1.113883.6.238","code":"2135-2","display":"Hispanic or Latino","userSelected":true}},{"url":"text","valueString":"Hispanic or Latino"}]},{"url":"http://hl7.org/fhir/us/core/StructureDefinition/us-core-sex","valueCode":"248153007"}],"identifier":[{"type":{"coding":[{"system":"http://terminology.hl7.org/CodeSystem/v2-0203","code":"MR"}]},"system":"https://bonnie-fhir.healthit.gov/","value":"6615806fdb207d74c03b8a5f"}],"name":[{"family":"NUMERStrat1Pass","given":["LWBS"]}],"gender":"male","birthDate":"2011-01-01"},"request":{"method":"PUT","url":"Patient/7bcd79b7-7898-437d-b563-cfb9068df210"}},{"fullUrl":"https://madie.cms.gov/Encounter/8ddffddd-67c7-4e53-9a49-3c11bd9bf23d","resource":{"resourceType":"Encounter","id":"8ddffddd-67c7-4e53-9a49-3c11bd9bf23d","meta":{"profile":["http://hl7.org/fhir/us/qicore/StructureDefinition/qicore-encounter"]},"status":"finished","class":{"system":"http://terminology.hl7.org/CodeSystem/v3-ActCode","code":"EMER","display":"emergency"},"type":[{"coding":[{"system":"http://snomed.info/sct","version":"2023-09","code":"225390008","display":"Triage (procedure)","userSelected":true}]}],"subject":{"reference":"Patient/7bcd79b7-7898-437d-b563-cfb9068df210"},"period":{"start":"2027-12-31T08:00:00.000+00:00","end":"2027-12-31T08:15:00.000+00:00"},"hospitalization":{"dischargeDisposition":{"coding":[{"system":"http://snomed.info/sct","code":"21541000119102","display":"Patient left without being seen (finding)","userSelected":true}]}}},"request":{"method":"PUT","url":"Encounter/8ddffddd-67c7-4e53-9a49-3c11bd9bf23d"}},{"fullUrl":"https://madie.cms.gov/claim/ClaimBehavior-NotSubsAbuse","resource":{"resourceType":"Claim","id":"ClaimBehavior-NotSubsAbuse","meta":{"profile":["http://hl7.org/fhir/us/qicore/StructureDefinition/qicore-claim"]},"status":"active","type":{"coding":[{"system":"http://terminology.hl7.org/CodeSystem/claim-type","code":"institutional"}]},"use":"claim","patient":{"reference":"Patient/7bcd79b7-7898-437d-b563-cfb9068df210"},"created":"2027-01-01","provider":{"reference":"Practitioner/7f4076dc-9126-4f15-b053-65a87edf4b3b"},"priority":{"coding":[{"system":"http://terminology.hl7.org/CodeSystem/processpriority","code":"normal"}]},"diagnosis":[{"sequence":1,"diagnosisCodeableConcept":{"coding":[{"system":"http://hl7.org/fhir/sid/icd-10","code":"R09.1","display":"Pleurisy"}]},"type":[{"coding":[{"system":"http://terminology.hl7.org/CodeSystem/ex-diagnosistype","code":"principal"}]}]}],"insurance":[{"sequence":1,"focal":true,"coverage":{"reference":"Coverage/3c873d24-5a07-41db-adf8-8ecb2a70eb30"}}],"item":[{"sequence":1,"diagnosisSequence":[1],"productOrService":{"coding":[{"system":"http://terminology.hl7.org/CodeSystem/ex-USCLS","code":"99555"}]},"encounter":[{"reference":"Encounter/8ddffddd-67c7-4e53-9a49-3c11bd9bf23d"}]}]},"request":{"method":"PUT","url":"Claim/ClaimBehavior-NotSubsAbuse"}},{"fullUrl":"https://madie.cms.gov/Coverage/3c873d24-5a07-41db-adf8-8ecb2a70eb30","resource":{"resourceType":"Coverage","id":"3c873d24-5a07-41db-adf8-8ecb2a70eb30","meta":{"profile":["http://hl7.org/fhir/us/qicore/StructureDefinition/qicore-coverage"]},"identifier":[{"type":{"coding":[{"system":"http://terminology.hl7.org/CodeSystem/v2-0203","code":"MB"}]}}],"status":"active","beneficiary":{"reference":"Patient/7bcd79b7-7898-437d-b563-cfb9068df210"},"relationship":{"coding":[{"system":"http://terminology.hl7.org/CodeSystem/subscriber-relationship","code":"self"}]},"payor":[{"reference":"Organization/fbfa2905-f8e1-478e-be8e-7e04bc7cc1ca"}]},"request":{"method":"PUT","url":"Coverage/3c873d24-5a07-41db-adf8-8ecb2a70eb30"}},{"fullUrl":"https://madie.cms.gov/Organization/fbfa2905-f8e1-478e-be8e-7e04bc7cc1ca","resource":{"resourceType":"Organization","id":"fbfa2905-f8e1-478e-be8e-7e04bc7cc1ca","meta":{"profile":["http://hl7.org/fhir/us/qicore/StructureDefinition/qicore-organization"]},"identifier":[{"use":"temp","system":"urn:oid:2.16.840.1.113883.4.4","value":"21-3259825"}],"active":true,"type":[{"coding":[{"system":"http://terminology.hl7.org/CodeSystem/organization-type","code":"pay","display":"Payer"}]}],"name":"Blue Cross Blue Shield of Texas","telecom":[{"system":"phone","value":"(+1) 972-766-6900"}],"address":[{"use":"billing","type":"postal","line":["P.O. Box 660044"],"city":"Dallas","state":"TX","postalCode":"75266-0044","country":"USA"}]},"request":{"method":"PUT","url":"Organization/fbfa2905-f8e1-478e-be8e-7e04bc7cc1ca"}},{"fullUrl":"https://madie.cms.gov/Practitioner/7f4076dc-9126-4f15-b053-65a87edf4b3b","resource":{"resourceType":"Practitioner","id":"7f4076dc-9126-4f15-b053-65a87edf4b3b","meta":{"profile":["http://hl7.org/fhir/us/qicore/StructureDefinition/qicore-practitioner"]},"identifier":[{"system":"http://hl7.org/fhir/sid/us-npi","value":"9999999896"}],"name":[{"family":"Evil","prefix":["Dr"]}]},"request":{"method":"PUT","url":"Practitioner/7f4076dc-9126-4f15-b053-65a87edf4b3b"}},{"fullUrl":"https://madie.cms.gov/MeasureReport/6ab084a0-d686-4c16-8520-658ec2202e91","resource":{"resourceType":"MeasureReport","id":"6ab084a0-d686-4c16-8520-658ec2202e91","meta":{"profile":["http://hl7.org/fhir/us/cqfmeasures/StructureDefinition/test-case-cqfm"]},"contained":[{"resourceType":"Parameters","id":"1ae2491b-b6a1-47c3-89b0-db63e33f7b89-parameters","parameter":[{"name":"subject","valueString":"7bcd79b7-7898-437d-b563-cfb9068df210"}]}],"extension":[{"url":"http://hl7.org/fhir/StructureDefinition/cqf-inputParameters","valueReference":{"reference":"#1ae2491b-b6a1-47c3-89b0-db63e33f7b89-parameters"}},{"url":"http://hl7.org/fhir/us/cqfmeasures/StructureDefinition/cqfm-testCaseDescription","valueMarkdown":"Child, age 17, ED enc last day of MP, LWBS,   no mental illness"}],"modifierExtension":[{"url":"http://hl7.org/fhir/us/cqfmeasures/StructureDefinition/cqfm-isTestCase","valueBoolean":true}],"status":"complete","type":"individual","measure":"https://madie.cms.gov/Measure/CMS1244FHIRECATHOQR","period":{"start":"2027-01-01","end":"2027-12-31"},"group":[{"id":"Group_1","population":[{"id":"InitialPopulation_1","code":{"coding":[{"system":"http://terminology.hl7.org/CodeSystem/measure-population","code":"initial-population","display":"Initial Population"}]},"count":1},{"id":"Denominator_1","code":{"coding":[{"system":"http://terminology.hl7.org/CodeSystem/measure-population","code":"denominator","display":"Denominator"}]},"count":1},{"id":"Numerator_1","code":{"coding":[{"system":"http://terminology.hl7.org/CodeSystem/measure-population","code":"numerator","display":"Numerator"}]},"count":1}],"measureScore":{"value":0.0},"stratifier":[{"id":"Stratification_1_1","code":[{"text":"Strata-1"}],"stratum":[{"value":{"text":"Strata-1"},"population":[{"id":"InitialPopulation_1","code":{"coding":[{"system":"http://terminology.hl7.org/CodeSystem/measure-population","code":"initial-population","display":"Initial Population"}]},"count":1},{"id":"Denominator_1","code":{"coding":[{"system":"http://terminology.hl7.org/CodeSystem/measure-population","code":"denominator","display":"Denominator"}]},"count":1},{"id":"Numerator_1","code":{"coding":[{"system":"http://terminology.hl7.org/CodeSystem/measure-population","code":"numerator","display":"Numerator"}]},"count":1}]}]},{"id":"Stratification_1_2","code":[{"text":"Strata-2"}],"stratum":[{"value":{"text":"Strata-2"},"population":[{"id":"InitialPopulation_1","code":{"coding":[{"system":"http://terminology.hl7.org/CodeSystem/measure-population","code":"initial-population","display":"Initial Population"}]},"count":0},{"id":"Denominator_1","code":{"coding":[{"system":"http://terminology.hl7.org/CodeSystem/measure-population","code":"denominator","display":"Denominator"}]},"count":0},{"id":"Numerator_1","code":{"coding":[{"system":"http://terminology.hl7.org/CodeSystem/measure-population","code":"numerator","display":"Numerator"}]},"count":0}]}]},{"id":"Stratification_1_3","code":[{"text":"Strata-3"}],"stratum":[{"value":{"text":"Strata-3"},"population":[{"id":"InitialPopulation_1","code":{"coding":[{"system":"http://terminology.hl7.org/CodeSystem/measure-population","code":"initial-population","display":"Initial Population"}]},"count":0},{"id":"Denominator_1","code":{"coding":[{"system":"http://terminology.hl7.org/CodeSystem/measure-population","code":"denominator","display":"Denominator"}]},"count":0},{"id":"Numerator_1","code":{"coding":[{"system":"http://terminology.hl7.org/CodeSystem/measure-population","code":"numerator","display":"Numerator"}]},"count":0}]}]},{"id":"Stratification_1_4","code":[{"text":"Strata-4"}],"stratum":[{"value":{"text":"Strata-4"},"population":[{"id":"InitialPopulation_1","code":{"coding":[{"system":"http://terminology.hl7.org/CodeSystem/measure-population","code":"initial-population","display":"Initial Population"}]},"count":0},{"id":"Denominator_1","code":{"coding":[{"system":"http://terminology.hl7.org/CodeSystem/measure-population","code":"denominator","display":"Denominator"}]},"count":0},{"id":"Numerator_1","code":{"coding":[{"system":"http://terminology.hl7.org/CodeSystem/measure-population","code":"numerator","display":"Numerator"}]},"count":0}]}]}]}],"evaluatedResource":[{"reference":"Patient/7bcd79b7-7898-437d-b563-cfb9068df210"},{"reference":"Encounter/8ddffddd-67c7-4e53-9a49-3c11bd9bf23d"},{"reference":"Claim/ClaimBehavior-NotSubsAbuse"},{"reference":"Coverage/3c873d24-5a07-41db-adf8-8ecb2a70eb30"},{"reference":"Organization/fbfa2905-f8e1-478e-be8e-7e04bc7cc1ca"},{"reference":"Practitioner/7f4076dc-9126-4f15-b053-65a87edf4b3b"}]},"request":{"method":"PUT","url":"MeasureReport/6ab084a0-d686-4c16-8520-658ec2202e91"}}]},"request":{"method":"PUT","url":"Bundle/6615806fdb207d74c03b8a5f"}},{"fullUrl":"Patient/7bcd79b7-7898-437d-b563-cfb9068df210","resource":{"resourceType":"Patient","id":"7bcd79b7-7898-437d-b563-cfb9068df210","meta":{"profile":["http://hl7.org/fhir/us/qicore/StructureDefinition/qicore-patient"]},"extension":[{"url":"http://hl7.org/fhir/us/core/StructureDefinition/us-core-race","extension":[{"url":"ombCategory","valueCoding":{"system":"urn:oid:2.16.840.1.113883.6.238","code":"1002-5","display":"American Indian or Alaska Native","userSelected":true}},{"url":"text","valueString":"American Indian or Alaska Native"}]},{"url":"http://hl7.org/fhir/us/core/StructureDefinition/us-core-ethnicity","extension":[{"url":"ombCategory","valueCoding":{"system":"urn:oid:2.16.840.1.113883.6.238","code":"2135-2","display":"Hispanic or Latino","userSelected":true}},{"url":"text","valueString":"Hispanic or Latino"}]},{"url":"http://hl7.org/fhir/us/core/StructureDefinition/us-core-sex","valueCode":"248153007"}],"identifier":[{"type":{"coding":[{"system":"http://terminology.hl7.org/CodeSystem/v2-0203","code":"MR"}]},"system":"https://bonnie-fhir.healthit.gov/","value":"6615806fdb207d74c03b8a5f"}],"name":[{"family":"NUMERStrat1Pass","given":["LWBS"]}],"gender":"male","birthDate":"2011-01-01"},"request":{"method":"PUT","url":"Patient/7bcd79b7-7898-437d-b563-cfb9068df210"}},{"fullUrl":"Coverage/3c873d24-5a07-41db-adf8-8ecb2a70eb30","resource":{"resourceType":"Coverage","id":"3c873d24-5a07-41db-adf8-8ecb2a70eb30","meta":{"profile":["http://hl7.org/fhir/us/qicore/StructureDefinition/qicore-coverage"]},"identifier":[{"type":{"coding":[{"system":"http://terminology.hl7.org/CodeSystem/v2-0203","code":"MB"}]}}],"status":"active","beneficiary":{"reference":"Patient/7bcd79b7-7898-437d-b563-cfb9068df210"},"relationship":{"coding":[{"system":"http://terminology.hl7.org/CodeSystem/subscriber-relationship","code":"self"}]},"payor":[{"reference":"Organization/fbfa2905-f8e1-478e-be8e-7e04bc7cc1ca"}]},"request":{"method":"PUT","url":"Coverage/3c873d24-5a07-41db-adf8-8ecb2a70eb30"}},{"fullUrl":"MeasureReport/6ab084a0-d686-4c16-8520-658ec2202e91","resource":{"resourceType":"MeasureReport","id":"6ab084a0-d686-4c16-8520-658ec2202e91","meta":{"profile":["http://hl7.org/fhir/us/cqfmeasures/StructureDefinition/test-case-cqfm"]},"contained":[{"resourceType":"Parameters","id":"1ae2491b-b6a1-47c3-89b0-db63e33f7b89-parameters","parameter":[{"name":"subject","valueString":"7bcd79b7-7898-437d-b563-cfb9068df210"}]}],"extension":[{"url":"http://hl7.org/fhir/StructureDefinition/cqf-inputParameters","valueReference":{"reference":"#1ae2491b-b6a1-47c3-89b0-db63e33f7b89-parameters"}},{"url":"http://hl7.org/fhir/us/cqfmeasures/StructureDefinition/cqfm-testCaseDescription","valueMarkdown":"Child, age 17, ED enc last day of MP, LWBS,   no mental illness"}],"modifierExtension":[{"url":"http://hl7.org/fhir/us/cqfmeasures/StructureDefinition/cqfm-isTestCase","valueBoolean":true}],"status":"complete","type":"individual","measure":"https://madie.cms.gov/Measure/CMS1244FHIRECATHOQR","period":{"start":"2027-01-01","end":"2027-12-31"},"group":[{"id":"Group_1","population":[{"id":"InitialPopulation_1","code":{"coding":[{"system":"http://terminology.hl7.org/CodeSystem/measure-population","code":"initial-population","display":"Initial Population"}]},"count":1},{"id":"Denominator_1","code":{"coding":[{"system":"http://terminology.hl7.org/CodeSystem/measure-population","code":"denominator","display":"Denominator"}]},"count":1},{"id":"Numerator_1","code":{"coding":[{"system":"http://terminology.hl7.org/CodeSystem/measure-population","code":"numerator","display":"Numerator"}]},"count":1}],"measureScore":{"value":0.0},"stratifier":[{"id":"Stratification_1_1","code":[{"text":"Strata-1"}],"stratum":[{"value":{"text":"Strata-1"},"population":[{"id":"InitialPopulation_1","code":{"coding":[{"system":"http://terminology.hl7.org/CodeSystem/measure-population","code":"initial-population","display":"Initial Population"}]},"count":1},{"id":"Denominator_1","code":{"coding":[{"system":"http://terminology.hl7.org/CodeSystem/measure-population","code":"denominator","display":"Denominator"}]},"count":1},{"id":"Numerator_1","code":{"coding":[{"system":"http://terminology.hl7.org/CodeSystem/measure-population","code":"numerator","display":"Numerator"}]},"count":1}]}]},{"id":"Stratification_1_2","code":[{"text":"Strata-2"}],"stratum":[{"value":{"text":"Strata-2"},"population":[{"id":"InitialPopulation_1","code":{"coding":[{"system":"http://terminology.hl7.org/CodeSystem/measure-population","code":"initial-population","display":"Initial Population"}]},"count":0},{"id":"Denominator_1","code":{"coding":[{"system":"http://terminology.hl7.org/CodeSystem/measure-population","code":"denominator","display":"Denominator"}]},"count":0},{"id":"Numerator_1","code":{"coding":[{"system":"http://terminology.hl7.org/CodeSystem/measure-population","code":"numerator","display":"Numerator"}]},"count":0}]}]},{"id":"Stratification_1_3","code":[{"text":"Strata-3"}],"stratum":[{"value":{"text":"Strata-3"},"population":[{"id":"InitialPopulation_1","code":{"coding":[{"system":"http://terminology.hl7.org/CodeSystem/measure-population","code":"initial-population","display":"Initial Population"}]},"count":0},{"id":"Denominator_1","code":{"coding":[{"system":"http://terminology.hl7.org/CodeSystem/measure-population","code":"denominator","display":"Denominator"}]},"count":0},{"id":"Numerator_1","code":{"coding":[{"system":"http://terminology.hl7.org/CodeSystem/measure-population","code":"numerator","display":"Numerator"}]},"count":0}]}]},{"id":"Stratification_1_4","code":[{"text":"Strata-4"}],"stratum":[{"value":{"text":"Strata-4"},"population":[{"id":"InitialPopulation_1","code":{"coding":[{"system":"http://terminology.hl7.org/CodeSystem/measure-population","code":"initial-population","display":"Initial Population"}]},"count":0},{"id":"Denominator_1","code":{"coding":[{"system":"http://terminology.hl7.org/CodeSystem/measure-population","code":"denominator","display":"Denominator"}]},"count":0},{"id":"Numerator_1","code":{"coding":[{"system":"http://terminology.hl7.org/CodeSystem/measure-population","code":"numerator","display":"Numerator"}]},"count":0}]}]}]}],"evaluatedResource":[{"reference":"Patient/7bcd79b7-7898-437d-b563-cfb9068df210"},{"reference":"Encounter/8ddffddd-67c7-4e53-9a49-3c11bd9bf23d"},{"reference":"Claim/ClaimBehavior-NotSubsAbuse"},{"reference":"Coverage/3c873d24-5a07-41db-adf8-8ecb2a70eb30"},{"reference":"Organization/fbfa2905-f8e1-478e-be8e-7e04bc7cc1ca"},{"reference":"Practitioner/7f4076dc-9126-4f15-b053-65a87edf4b3b"}]},"request":{"method":"PUT","url":"MeasureReport/6ab084a0-d686-4c16-8520-658ec2202e91"}},{"fullUrl":"Encounter/8ddffddd-67c7-4e53-9a49-3c11bd9bf23d","resource":{"resourceType":"Encounter","id":"8ddffddd-67c7-4e53-9a49-3c11bd9bf23d","meta":{"profile":["http://hl7.org/fhir/us/qicore/StructureDefinition/qicore-encounter"]},"status":"finished","class":{"system":"http://terminology.hl7.org/CodeSystem/v3-ActCode","code":"EMER","display":"emergency"},"type":[{"coding":[{"system":"http://snomed.info/sct","version":"2023-09","code":"225390008","display":"Triage (procedure)","userSelected":true}]}],"subject":{"reference":"Patient/7bcd79b7-7898-437d-b563-cfb9068df210"},"period":{"start":"2027-12-31T08:00:00.000+00:00","end":"2027-12-31T08:15:00.000+00:00"},"hospitalization":{"dischargeDisposition":{"coding":[{"system":"http://snomed.info/sct","code":"21541000119102","display":"Patient left without being seen (finding)","userSelected":true}]}}},"request":{"method":"PUT","url":"Encounter/8ddffddd-67c7-4e53-9a49-3c11bd9bf23d"}},{"fullUrl":"Claim/ClaimBehavior-NotSubsAbuse","resource":{"resourceType":"Claim","id":"ClaimBehavior-NotSubsAbuse","meta":{"profile":["http://hl7.org/fhir/us/qicore/StructureDefinition/qicore-claim"]},"status":"active","type":{"coding":[{"system":"http://terminology.hl7.org/CodeSystem/claim-type","code":"institutional"}]},"use":"claim","patient":{"reference":"Patient/7bcd79b7-7898-437d-b563-cfb9068df210"},"created":"2027-01-01","provider":{"reference":"Practitioner/7f4076dc-9126-4f15-b053-65a87edf4b3b"},"priority":{"coding":[{"system":"http://terminology.hl7.org/CodeSystem/processpriority","code":"normal"}]},"diagnosis":[{"sequence":1,"diagnosisCodeableConcept":{"coding":[{"system":"http://hl7.org/fhir/sid/icd-10","code":"R09.1","display":"Pleurisy"}]},"type":[{"coding":[{"system":"http://terminology.hl7.org/CodeSystem/ex-diagnosistype","code":"principal"}]}]}],"insurance":[{"sequence":1,"focal":true,"coverage":{"reference":"Coverage/3c873d24-5a07-41db-adf8-8ecb2a70eb30"}}],"item":[{"sequence":1,"diagnosisSequence":[1],"productOrService":{"coding":[{"system":"http://terminology.hl7.org/CodeSystem/ex-USCLS","code":"99555"}]},"encounter":[{"reference":"Encounter/8ddffddd-67c7-4e53-9a49-3c11bd9bf23d"}]}]},"request":{"method":"PUT","url":"Claim/ClaimBehavior-NotSubsAbuse"}},{"fullUrl":"Organization/fbfa2905-f8e1-478e-be8e-7e04bc7cc1ca","resource":{"resourceType":"Organization","id":"fbfa2905-f8e1-478e-be8e-7e04bc7cc1ca","meta":{"profile":["http://hl7.org/fhir/us/qicore/StructureDefinition/qicore-organization"]},"identifier":[{"use":"temp","system":"urn:oid:2.16.840.1.113883.4.4","value":"21-3259825"}],"active":true,"type":[{"coding":[{"system":"http://terminology.hl7.org/CodeSystem/organization-type","code":"pay","display":"Payer"}]}],"name":"Blue Cross Blue Shield of Texas","telecom":[{"system":"phone","value":"(+1) 972-766-6900"}],"address":[{"use":"billing","type":"postal","line":["P.O. Box 660044"],"city":"Dallas","state":"TX","postalCode":"75266-0044","country":"USA"}]},"request":{"method":"PUT","url":"Organization/fbfa2905-f8e1-478e-be8e-7e04bc7cc1ca"}},{"fullUrl":"Practitioner/7f4076dc-9126-4f15-b053-65a87edf4b3b","resource":{"resourceType":"Practitioner","id":"7f4076dc-9126-4f15-b053-65a87edf4b3b","meta":{"profile":["http://hl7.org/fhir/us/qicore/StructureDefinition/qicore-practitioner"]},"identifier":[{"system":"http://hl7.org/fhir/sid/us-npi","value":"9999999896"}],"name":[{"family":"Evil","prefix":["Dr"]}]},"request":{"method":"PUT","url":"Practitioner/7f4076dc-9126-4f15-b053-65a87edf4b3b"}}]}