{"resourceType":"Bundle","id":"tests-9ec1a135-fb47-4c1c-8f6b-98afab15274e-bundle","type":"transaction","entry":[{"resource":{"resourceType":"ServiceRequest","id":"6ee414a0-2be2-4de3-aa48-72ec54a16568","meta":{"profile":["http://hl7.org/fhir/us/qicore/StructureDefinition/qicore-servicerequest"]},"status":"active","intent":"order","code":{"coding":[{"system":"http://snomed.info/sct","code":"5751000175101","display":"Patient bed assigned (finding)","userSelected":true}]},"subject":{"reference":"Patient/9ec1a135-fb47-4c1c-8f6b-98afab15274e"},"authoredOn":"2027-05-01T02:00:00.000+00:00"},"request":{"method":"PUT","url":"ServiceRequest/6ee414a0-2be2-4de3-aa48-72ec54a16568"}},{"resource":{"resourceType":"Encounter","id":"dc0b3579-0498-488e-821e-df655bafc637","meta":{"profile":["http://hl7.org/fhir/us/qicore/StructureDefinition/qicore-encounter"]},"status":"finished","class":{"system":"http://terminology.hl7.org/CodeSystem/v3-ActCode","code":"EMER","display":"emergency"},"type":[{"coding":[{"system":"http://snomed.info/sct","code":"448951000124107","display":"Admission to observation unit (procedure)","userSelected":true}]}],"subject":{"reference":"Patient/9ec1a135-fb47-4c1c-8f6b-98afab15274e"},"period":{"start":"2027-05-01T02:01:00.000+00:00","end":"2027-05-01T05:59:00.000+00:00"}},"request":{"method":"PUT","url":"Encounter/dc0b3579-0498-488e-821e-df655bafc637"}},{"resource":{"resourceType":"Location","id":"f9b471eb-4066-412e-831f-c1e7c07453c1","meta":{"profile":["http://hl7.org/fhir/us/qicore/StructureDefinition/qicore-location"]},"identifier":[{"use":"usual","system":"http://exampleoflocation.com","value":"B1-S.F2"}],"name":"Medical Surgical East, first floor","type":[{"coding":[{"system":"https://www.cdc.gov/nhsn/cdaportal/terminology/codesystem/hsloc.html","version":"2022","code":"1108-0","display":"Emergency Department","userSelected":true}]}]},"request":{"method":"PUT","url":"Location/f9b471eb-4066-412e-831f-c1e7c07453c1"}},{"resource":{"resourceType":"Bundle","id":"661476b015ed5841a5547ebf","type":"transaction","entry":[{"fullUrl":"https://madie.cms.gov/Patient/9ec1a135-fb47-4c1c-8f6b-98afab15274e","resource":{"resourceType":"Patient","id":"9ec1a135-fb47-4c1c-8f6b-98afab15274e","meta":{"profile":["http://hl7.org/fhir/us/qicore/StructureDefinition/qicore-patient"]},"extension":[{"url":"http://hl7.org/fhir/us/core/StructureDefinition/us-core-race","extension":[{"url":"ombCategory","valueCoding":{"system":"urn:oid:2.16.840.1.113883.6.238","code":"1002-5","display":"American Indian or Alaska Native","userSelected":true}},{"url":"text","valueString":"American Indian or Alaska Native"}]},{"url":"http://hl7.org/fhir/us/core/StructureDefinition/us-core-ethnicity","extension":[{"url":"ombCategory","valueCoding":{"system":"urn:oid:2.16.840.1.113883.6.238","code":"2135-2","display":"Hispanic or Latino","userSelected":true}},{"url":"text","valueString":"Hispanic or Latino"}]},{"url":"http://hl7.org/fhir/us/core/StructureDefinition/us-core-sex","valueCode":"248153007"}],"identifier":[{"type":{"coding":[{"system":"http://terminology.hl7.org/CodeSystem/v2-0203","code":"MR"}]},"system":"https://bonnie-fhir.healthit.gov/","value":"661476b015ed5841a5547ebf"}],"name":[{"family":"NUMEXStrat3Pass","given":["EDOBSOrderBoarded"]}],"gender":"male","birthDate":"2010-01-01"},"request":{"method":"PUT","url":"Patient/9ec1a135-fb47-4c1c-8f6b-98afab15274e"}},{"fullUrl":"https://madie.cms.gov/Encounter/b79c8f0b-ab95-4c5d-8608-2905deda6665","resource":{"resourceType":"Encounter","id":"b79c8f0b-ab95-4c5d-8608-2905deda6665","meta":{"profile":["http://hl7.org/fhir/us/qicore/StructureDefinition/qicore-encounter"]},"status":"finished","class":{"system":"http://terminology.hl7.org/CodeSystem/v3-ActCode","code":"EMER","display":"emergency department"},"type":[{"coding":[{"system":"http://snomed.info/sct","version":"2023-09","code":"4525004","display":"Emergency department patient visit (procedure)","userSelected":true}]}],"subject":{"reference":"Patient/9ec1a135-fb47-4c1c-8f6b-98afab15274e"},"period":{"start":"2027-05-01T00:00:00.000+00:00","end":"2027-05-01T06:00:00.000+00:00"},"diagnosis":[{"condition":{"reference":"Condition/a967c111-934a-4c39-a7c8-dda86b8de65f"},"use":{"coding":[{"system":"http://terminology.hl7.org/CodeSystem/diagnosis-role","code":"billing"}]},"rank":1}],"location":[{"location":{"reference":"Location/f9b471eb-4066-412e-831f-c1e7c07453c1"},"period":{"start":"2027-05-01T00:00:00.000+00:00","end":"2027-05-01T06:01:00.000+00:00"}}]},"request":{"method":"PUT","url":"Encounter/b79c8f0b-ab95-4c5d-8608-2905deda6665"}},{"fullUrl":"https://madie.cms.gov/Encounter/15499d65-10bc-41db-9e1f-54aa2d075670","resource":{"resourceType":"Encounter","id":"15499d65-10bc-41db-9e1f-54aa2d075670","meta":{"profile":["http://hl7.org/fhir/us/qicore/StructureDefinition/qicore-encounter"]},"status":"finished","class":{"system":"http://terminology.hl7.org/CodeSystem/v3-ActCode","code":"IMP","display":"inpatient encounter"},"type":[{"coding":[{"system":"http://snomed.info/sct","version":"2023-09","code":"183452005","display":"Emergency hospital admission (procedure)","userSelected":true}]}],"subject":{"reference":"Patient/9ec1a135-fb47-4c1c-8f6b-98afab15274e"},"period":{"start":"2027-05-01T05:00:00.000+00:00","end":"2027-05-03T06:15:00.000+00:00"}},"request":{"method":"PUT","url":"Encounter/15499d65-10bc-41db-9e1f-54aa2d075670"}},{"fullUrl":"https://madie.cms.gov/ServiceRequest/6ee414a0-2be2-4de3-aa48-72ec54a16568","resource":{"resourceType":"ServiceRequest","id":"6ee414a0-2be2-4de3-aa48-72ec54a16568","meta":{"profile":["http://hl7.org/fhir/us/qicore/StructureDefinition/qicore-servicerequest"]},"status":"active","intent":"order","code":{"coding":[{"system":"http://snomed.info/sct","code":"5751000175101","display":"Patient bed assigned (finding)","userSelected":true}]},"subject":{"reference":"Patient/9ec1a135-fb47-4c1c-8f6b-98afab15274e"},"authoredOn":"2027-05-01T02:00:00.000+00:00"},"request":{"method":"PUT","url":"ServiceRequest/6ee414a0-2be2-4de3-aa48-72ec54a16568"}},{"fullUrl":"https://madie.cms.gov/Location/f9b471eb-4066-412e-831f-c1e7c07453c1","resource":{"resourceType":"Location","id":"f9b471eb-4066-412e-831f-c1e7c07453c1","meta":{"profile":["http://hl7.org/fhir/us/qicore/StructureDefinition/qicore-location"]},"identifier":[{"use":"usual","system":"http://exampleoflocation.com","value":"B1-S.F2"}],"name":"Medical Surgical East, first floor","type":[{"coding":[{"system":"https://www.cdc.gov/nhsn/cdaportal/terminology/codesystem/hsloc.html","version":"2022","code":"1108-0","display":"Emergency Department","userSelected":true}]}]},"request":{"method":"PUT","url":"Location/f9b471eb-4066-412e-831f-c1e7c07453c1"}},{"fullUrl":"https://madie.cms.gov/Coverage/fcb3b194-28ef-4643-812e-acbea866844a","resource":{"resourceType":"Coverage","id":"fcb3b194-28ef-4643-812e-acbea866844a","meta":{"profile":["http://hl7.org/fhir/us/qicore/StructureDefinition/qicore-coverage"]},"identifier":[{"type":{"coding":[{"system":"http://terminology.hl7.org/CodeSystem/v2-0203","code":"MB"}]}}],"status":"active","beneficiary":{"reference":"Patient/9ec1a135-fb47-4c1c-8f6b-98afab15274e"},"relationship":{"coding":[{"system":"http://terminology.hl7.org/CodeSystem/subscriber-relationship","code":"self"}]},"payor":[{"reference":"Organization/80ea3dc0-0348-43aa-bfa4-cd5e10a54857"}]},"request":{"method":"PUT","url":"Coverage/fcb3b194-28ef-4643-812e-acbea866844a"}},{"fullUrl":"https://madie.cms.gov/Condition/a967c111-934a-4c39-a7c8-dda86b8de65f","resource":{"resourceType":"Condition","id":"a967c111-934a-4c39-a7c8-dda86b8de65f","meta":{"profile":["http://hl7.org/fhir/us/qicore/StructureDefinition/qicore-condition-encounter-diagnosis"]},"category":[{"coding":[{"system":"http://terminology.hl7.org/CodeSystem/condition-category","code":"encounter-diagnosis","display":"Encounter Diagnosis"}]}],"code":{"coding":[{"system":"http://snomed.info/sct","version":"2023-09","code":"66344007","display":"Recurrent major depression (disorder)","userSelected":true}]},"subject":{"reference":"Patient/9ec1a135-fb47-4c1c-8f6b-98afab15274e"},"recordedDate":"2026-04-18T08:00:00.000+00:00"},"request":{"method":"PUT","url":"Condition/a967c111-934a-4c39-a7c8-dda86b8de65f"}},{"fullUrl":"https://madie.cms.gov/claim/ClaimBehavior-NotSubsAbuse","resource":{"resourceType":"Claim","id":"ClaimBehavior-NotSubsAbuse","meta":{"profile":["http://hl7.org/fhir/us/qicore/StructureDefinition/qicore-claim"]},"status":"active","type":{"coding":[{"system":"http://terminology.hl7.org/CodeSystem/claim-type","code":"institutional"}]},"use":"claim","patient":{"reference":"Patient/9ec1a135-fb47-4c1c-8f6b-98afab15274e"},"created":"2027-05-01","provider":{"reference":"Practitioner/0f1f7ccd-89f9-429f-b236-a89027f5ad39"},"priority":{"coding":[{"system":"http://terminology.hl7.org/CodeSystem/processpriority","code":"normal"}]},"diagnosis":[{"sequence":1,"diagnosisReference":{"reference":"Condition/a967c111-934a-4c39-a7c8-dda86b8de65f"},"type":[{"coding":[{"system":"http://terminology.hl7.org/CodeSystem/ex-diagnosistype","code":"principal"}]}]}],"insurance":[{"sequence":1,"focal":true,"coverage":{"reference":"Coverage/fcb3b194-28ef-4643-812e-acbea866844a"}}],"item":[{"sequence":1,"diagnosisSequence":[1],"productOrService":{"coding":[{"system":"http://terminology.hl7.org/CodeSystem/ex-USCLS","code":"99555"}]},"encounter":[{"reference":"Encounter/b79c8f0b-ab95-4c5d-8608-2905deda6665"}]}]},"request":{"method":"PUT","url":"Claim/ClaimBehavior-NotSubsAbuse"}},{"fullUrl":"https://madie.cms.gov/Encounter/dc0b3579-0498-488e-821e-df655bafc637","resource":{"resourceType":"Encounter","id":"dc0b3579-0498-488e-821e-df655bafc637","meta":{"profile":["http://hl7.org/fhir/us/qicore/StructureDefinition/qicore-encounter"]},"status":"finished","class":{"system":"http://terminology.hl7.org/CodeSystem/v3-ActCode","code":"EMER","display":"emergency"},"type":[{"coding":[{"system":"http://snomed.info/sct","code":"448951000124107","display":"Admission to observation unit (procedure)","userSelected":true}]}],"subject":{"reference":"Patient/9ec1a135-fb47-4c1c-8f6b-98afab15274e"},"period":{"start":"2027-05-01T02:01:00.000+00:00","end":"2027-05-01T05:59:00.000+00:00"}},"request":{"method":"PUT","url":"Encounter/dc0b3579-0498-488e-821e-df655bafc637"}},{"fullUrl":"https://madie.cms.gov/Organization/80ea3dc0-0348-43aa-bfa4-cd5e10a54857","resource":{"resourceType":"Organization","id":"80ea3dc0-0348-43aa-bfa4-cd5e10a54857","meta":{"profile":["http://hl7.org/fhir/us/qicore/StructureDefinition/qicore-organization"]},"identifier":[{"use":"temp","system":"urn:oid:2.16.840.1.113883.4.4","value":"21-3259825"}],"active":true,"type":[{"coding":[{"system":"http://terminology.hl7.org/CodeSystem/organization-type","code":"pay","display":"Payer"}]}],"name":"Blue Cross Blue Shield of Texas","telecom":[{"system":"phone","value":"(+1) 972-766-6900"}],"address":[{"use":"billing","type":"postal","line":["P.O. Box 660044"],"city":"Dallas","state":"TX","postalCode":"75266-0044","country":"USA"}]},"request":{"method":"PUT","url":"Organization/80ea3dc0-0348-43aa-bfa4-cd5e10a54857"}},{"fullUrl":"https://madie.cms.gov/Practitioner/0f1f7ccd-89f9-429f-b236-a89027f5ad39","resource":{"resourceType":"Practitioner","id":"0f1f7ccd-89f9-429f-b236-a89027f5ad39","meta":{"profile":["http://hl7.org/fhir/us/qicore/StructureDefinition/qicore-practitioner"]},"identifier":[{"system":"http://hl7.org/fhir/sid/us-npi","value":"9999999896"}],"name":[{"family":"Evil","prefix":["Dr"]}]},"request":{"method":"PUT","url":"Practitioner/0f1f7ccd-89f9-429f-b236-a89027f5ad39"}},{"fullUrl":"https://madie.cms.gov/MeasureReport/7a3617f1-befc-48a7-9681-0e24d63731ee","resource":{"resourceType":"MeasureReport","id":"7a3617f1-befc-48a7-9681-0e24d63731ee","meta":{"profile":["http://hl7.org/fhir/us/cqfmeasures/StructureDefinition/test-case-cqfm"]},"contained":[{"resourceType":"Parameters","id":"9dde1399-a6ad-4f40-bd5a-2d35e22770ed-parameters","parameter":[{"name":"subject","valueString":"9ec1a135-fb47-4c1c-8f6b-98afab15274e"}]}],"extension":[{"url":"http://hl7.org/fhir/StructureDefinition/cqf-inputParameters","valueReference":{"reference":"#9dde1399-a6ad-4f40-bd5a-2d35e22770ed-parameters"}},{"url":"http://hl7.org/fhir/us/cqfmeasures/StructureDefinition/cqfm-testCaseDescription","valueMarkdown":"Child, ED observation order during ED enc where patient was boarded 6 hrs 1 min; Enc 8 hrs, enc departure 8 hrs 1 min. dx asthma "}],"modifierExtension":[{"url":"http://hl7.org/fhir/us/cqfmeasures/StructureDefinition/cqfm-isTestCase","valueBoolean":true}],"status":"complete","type":"individual","measure":"https://madie.cms.gov/Measure/CMS1244FHIRECATHOQR","period":{"start":"2027-01-01","end":"2027-12-31"},"group":[{"id":"Group_1","population":[{"id":"InitialPopulation_1","code":{"coding":[{"system":"http://terminology.hl7.org/CodeSystem/measure-population","code":"initial-population","display":"Initial Population"}]},"count":1},{"id":"Denominator_1","code":{"coding":[{"system":"http://terminology.hl7.org/CodeSystem/measure-population","code":"denominator","display":"Denominator"}]},"count":1},{"id":"Numerator_1","code":{"coding":[{"system":"http://terminology.hl7.org/CodeSystem/measure-population","code":"numerator","display":"Numerator"}]},"count":0}],"measureScore":{"value":0.0},"stratifier":[{"id":"Stratification_1_1","code":[{"text":"Strata-1"}],"stratum":[{"value":{"text":"Strata-1"},"population":[{"id":"InitialPopulation_1","code":{"coding":[{"system":"http://terminology.hl7.org/CodeSystem/measure-population","code":"initial-population","display":"Initial Population"}]},"count":0},{"id":"Denominator_1","code":{"coding":[{"system":"http://terminology.hl7.org/CodeSystem/measure-population","code":"denominator","display":"Denominator"}]},"count":0},{"id":"Numerator_1","code":{"coding":[{"system":"http://terminology.hl7.org/CodeSystem/measure-population","code":"numerator","display":"Numerator"}]},"count":0}]}]},{"id":"Stratification_1_2","code":[{"text":"Strata-2"}],"stratum":[{"value":{"text":"Strata-2"},"population":[{"id":"InitialPopulation_1","code":{"coding":[{"system":"http://terminology.hl7.org/CodeSystem/measure-population","code":"initial-population","display":"Initial Population"}]},"count":0},{"id":"Denominator_1","code":{"coding":[{"system":"http://terminology.hl7.org/CodeSystem/measure-population","code":"denominator","display":"Denominator"}]},"count":0},{"id":"Numerator_1","code":{"coding":[{"system":"http://terminology.hl7.org/CodeSystem/measure-population","code":"numerator","display":"Numerator"}]},"count":0}]}]},{"id":"Stratification_1_3","code":[{"text":"Strata-3"}],"stratum":[{"value":{"text":"Strata-3"},"population":[{"id":"InitialPopulation_1","code":{"coding":[{"system":"http://terminology.hl7.org/CodeSystem/measure-population","code":"initial-population","display":"Initial Population"}]},"count":1},{"id":"Denominator_1","code":{"coding":[{"system":"http://terminology.hl7.org/CodeSystem/measure-population","code":"denominator","display":"Denominator"}]},"count":1},{"id":"Numerator_1","code":{"coding":[{"system":"http://terminology.hl7.org/CodeSystem/measure-population","code":"numerator","display":"Numerator"}]},"count":0}]}]},{"id":"Stratification_1_4","code":[{"text":"Strata-4"}],"stratum":[{"value":{"text":"Strata-4"},"population":[{"id":"InitialPopulation_1","code":{"coding":[{"system":"http://terminology.hl7.org/CodeSystem/measure-population","code":"initial-population","display":"Initial Population"}]},"count":0},{"id":"Denominator_1","code":{"coding":[{"system":"http://terminology.hl7.org/CodeSystem/measure-population","code":"denominator","display":"Denominator"}]},"count":0},{"id":"Numerator_1","code":{"coding":[{"system":"http://terminology.hl7.org/CodeSystem/measure-population","code":"numerator","display":"Numerator"}]},"count":0}]}]}]}],"evaluatedResource":[{"reference":"Patient/9ec1a135-fb47-4c1c-8f6b-98afab15274e"},{"reference":"Encounter/b79c8f0b-ab95-4c5d-8608-2905deda6665"},{"reference":"Encounter/15499d65-10bc-41db-9e1f-54aa2d075670"},{"reference":"ServiceRequest/6ee414a0-2be2-4de3-aa48-72ec54a16568"},{"reference":"Location/f9b471eb-4066-412e-831f-c1e7c07453c1"},{"reference":"Coverage/fcb3b194-28ef-4643-812e-acbea866844a"},{"reference":"Condition/a967c111-934a-4c39-a7c8-dda86b8de65f"},{"reference":"Claim/ClaimBehavior-NotSubsAbuse"},{"reference":"Encounter/dc0b3579-0498-488e-821e-df655bafc637"},{"reference":"Organization/80ea3dc0-0348-43aa-bfa4-cd5e10a54857"},{"reference":"Practitioner/0f1f7ccd-89f9-429f-b236-a89027f5ad39"}]},"request":{"method":"PUT","url":"MeasureReport/7a3617f1-befc-48a7-9681-0e24d63731ee"}}]},"request":{"method":"PUT","url":"Bundle/661476b015ed5841a5547ebf"}},{"resource":{"resourceType":"Patient","id":"9ec1a135-fb47-4c1c-8f6b-98afab15274e","meta":{"profile":["http://hl7.org/fhir/us/qicore/StructureDefinition/qicore-patient"]},"extension":[{"url":"http://hl7.org/fhir/us/core/StructureDefinition/us-core-race","extension":[{"url":"ombCategory","valueCoding":{"system":"urn:oid:2.16.840.1.113883.6.238","code":"1002-5","display":"American Indian or Alaska Native","userSelected":true}},{"url":"text","valueString":"American Indian or Alaska Native"}]},{"url":"http://hl7.org/fhir/us/core/StructureDefinition/us-core-ethnicity","extension":[{"url":"ombCategory","valueCoding":{"system":"urn:oid:2.16.840.1.113883.6.238","code":"2135-2","display":"Hispanic or Latino","userSelected":true}},{"url":"text","valueString":"Hispanic or Latino"}]},{"url":"http://hl7.org/fhir/us/core/StructureDefinition/us-core-sex","valueCode":"248153007"}],"identifier":[{"type":{"coding":[{"system":"http://terminology.hl7.org/CodeSystem/v2-0203","code":"MR"}]},"system":"https://bonnie-fhir.healthit.gov/","value":"661476b015ed5841a5547ebf"}],"name":[{"family":"NUMEXStrat3Pass","given":["EDOBSOrderBoarded"]}],"gender":"male","birthDate":"2010-01-01"},"request":{"method":"PUT","url":"Patient/9ec1a135-fb47-4c1c-8f6b-98afab15274e"}},{"resource":{"resourceType":"Encounter","id":"15499d65-10bc-41db-9e1f-54aa2d075670","meta":{"profile":["http://hl7.org/fhir/us/qicore/StructureDefinition/qicore-encounter"]},"status":"finished","class":{"system":"http://terminology.hl7.org/CodeSystem/v3-ActCode","code":"IMP","display":"inpatient encounter"},"type":[{"coding":[{"system":"http://snomed.info/sct","version":"2023-09","code":"183452005","display":"Emergency hospital admission (procedure)","userSelected":true}]}],"subject":{"reference":"Patient/9ec1a135-fb47-4c1c-8f6b-98afab15274e"},"period":{"start":"2027-05-01T05:00:00.000+00:00","end":"2027-05-03T06:15:00.000+00:00"}},"request":{"method":"PUT","url":"Encounter/15499d65-10bc-41db-9e1f-54aa2d075670"}},{"resource":{"resourceType":"Coverage","id":"fcb3b194-28ef-4643-812e-acbea866844a","meta":{"profile":["http://hl7.org/fhir/us/qicore/StructureDefinition/qicore-coverage"]},"identifier":[{"type":{"coding":[{"system":"http://terminology.hl7.org/CodeSystem/v2-0203","code":"MB"}]}}],"status":"active","beneficiary":{"reference":"Patient/9ec1a135-fb47-4c1c-8f6b-98afab15274e"},"relationship":{"coding":[{"system":"http://terminology.hl7.org/CodeSystem/subscriber-relationship","code":"self"}]},"payor":[{"reference":"Organization/80ea3dc0-0348-43aa-bfa4-cd5e10a54857"}]},"request":{"method":"PUT","url":"Coverage/fcb3b194-28ef-4643-812e-acbea866844a"}},{"resource":{"resourceType":"Encounter","id":"b79c8f0b-ab95-4c5d-8608-2905deda6665","meta":{"profile":["http://hl7.org/fhir/us/qicore/StructureDefinition/qicore-encounter"]},"status":"finished","class":{"system":"http://terminology.hl7.org/CodeSystem/v3-ActCode","code":"EMER","display":"emergency department"},"type":[{"coding":[{"system":"http://snomed.info/sct","version":"2023-09","code":"4525004","display":"Emergency department patient visit (procedure)","userSelected":true}]}],"subject":{"reference":"Patient/9ec1a135-fb47-4c1c-8f6b-98afab15274e"},"period":{"start":"2027-05-01T00:00:00.000+00:00","end":"2027-05-01T06:00:00.000+00:00"},"diagnosis":[{"condition":{"reference":"Condition/a967c111-934a-4c39-a7c8-dda86b8de65f"},"use":{"coding":[{"system":"http://terminology.hl7.org/CodeSystem/diagnosis-role","code":"billing"}]},"rank":1}],"location":[{"location":{"reference":"Location/f9b471eb-4066-412e-831f-c1e7c07453c1"},"period":{"start":"2027-05-01T00:00:00.000+00:00","end":"2027-05-01T06:01:00.000+00:00"}}]},"request":{"method":"PUT","url":"Encounter/b79c8f0b-ab95-4c5d-8608-2905deda6665"}},{"resource":{"resourceType":"Practitioner","id":"0f1f7ccd-89f9-429f-b236-a89027f5ad39","meta":{"profile":["http://hl7.org/fhir/us/qicore/StructureDefinition/qicore-practitioner"]},"identifier":[{"system":"http://hl7.org/fhir/sid/us-npi","value":"9999999896"}],"name":[{"family":"Evil","prefix":["Dr"]}]},"request":{"method":"PUT","url":"Practitioner/0f1f7ccd-89f9-429f-b236-a89027f5ad39"}},{"resource":{"resourceType":"MeasureReport","id":"7a3617f1-befc-48a7-9681-0e24d63731ee","meta":{"profile":["http://hl7.org/fhir/us/cqfmeasures/StructureDefinition/test-case-cqfm"]},"contained":[{"resourceType":"Parameters","id":"9dde1399-a6ad-4f40-bd5a-2d35e22770ed-parameters","parameter":[{"name":"subject","valueString":"9ec1a135-fb47-4c1c-8f6b-98afab15274e"}]}],"extension":[{"url":"http://hl7.org/fhir/StructureDefinition/cqf-inputParameters","valueReference":{"reference":"#9dde1399-a6ad-4f40-bd5a-2d35e22770ed-parameters"}},{"url":"http://hl7.org/fhir/us/cqfmeasures/StructureDefinition/cqfm-testCaseDescription","valueMarkdown":"Child, ED observation order during ED enc where patient was boarded 6 hrs 1 min; Enc 8 hrs, enc departure 8 hrs 1 min. dx asthma "}],"modifierExtension":[{"url":"http://hl7.org/fhir/us/cqfmeasures/StructureDefinition/cqfm-isTestCase","valueBoolean":true}],"status":"complete","type":"individual","measure":"https://madie.cms.gov/Measure/CMS1244FHIRECATHOQR","period":{"start":"2027-01-01","end":"2027-12-31"},"group":[{"id":"Group_1","population":[{"id":"InitialPopulation_1","code":{"coding":[{"system":"http://terminology.hl7.org/CodeSystem/measure-population","code":"initial-population","display":"Initial Population"}]},"count":1},{"id":"Denominator_1","code":{"coding":[{"system":"http://terminology.hl7.org/CodeSystem/measure-population","code":"denominator","display":"Denominator"}]},"count":1},{"id":"Numerator_1","code":{"coding":[{"system":"http://terminology.hl7.org/CodeSystem/measure-population","code":"numerator","display":"Numerator"}]},"count":0}],"measureScore":{"value":0.0},"stratifier":[{"id":"Stratification_1_1","code":[{"text":"Strata-1"}],"stratum":[{"value":{"text":"Strata-1"},"population":[{"id":"InitialPopulation_1","code":{"coding":[{"system":"http://terminology.hl7.org/CodeSystem/measure-population","code":"initial-population","display":"Initial Population"}]},"count":0},{"id":"Denominator_1","code":{"coding":[{"system":"http://terminology.hl7.org/CodeSystem/measure-population","code":"denominator","display":"Denominator"}]},"count":0},{"id":"Numerator_1","code":{"coding":[{"system":"http://terminology.hl7.org/CodeSystem/measure-population","code":"numerator","display":"Numerator"}]},"count":0}]}]},{"id":"Stratification_1_2","code":[{"text":"Strata-2"}],"stratum":[{"value":{"text":"Strata-2"},"population":[{"id":"InitialPopulation_1","code":{"coding":[{"system":"http://terminology.hl7.org/CodeSystem/measure-population","code":"initial-population","display":"Initial Population"}]},"count":0},{"id":"Denominator_1","code":{"coding":[{"system":"http://terminology.hl7.org/CodeSystem/measure-population","code":"denominator","display":"Denominator"}]},"count":0},{"id":"Numerator_1","code":{"coding":[{"system":"http://terminology.hl7.org/CodeSystem/measure-population","code":"numerator","display":"Numerator"}]},"count":0}]}]},{"id":"Stratification_1_3","code":[{"text":"Strata-3"}],"stratum":[{"value":{"text":"Strata-3"},"population":[{"id":"InitialPopulation_1","code":{"coding":[{"system":"http://terminology.hl7.org/CodeSystem/measure-population","code":"initial-population","display":"Initial Population"}]},"count":1},{"id":"Denominator_1","code":{"coding":[{"system":"http://terminology.hl7.org/CodeSystem/measure-population","code":"denominator","display":"Denominator"}]},"count":1},{"id":"Numerator_1","code":{"coding":[{"system":"http://terminology.hl7.org/CodeSystem/measure-population","code":"numerator","display":"Numerator"}]},"count":0}]}]},{"id":"Stratification_1_4","code":[{"text":"Strata-4"}],"stratum":[{"value":{"text":"Strata-4"},"population":[{"id":"InitialPopulation_1","code":{"coding":[{"system":"http://terminology.hl7.org/CodeSystem/measure-population","code":"initial-population","display":"Initial Population"}]},"count":0},{"id":"Denominator_1","code":{"coding":[{"system":"http://terminology.hl7.org/CodeSystem/measure-population","code":"denominator","display":"Denominator"}]},"count":0},{"id":"Numerator_1","code":{"coding":[{"system":"http://terminology.hl7.org/CodeSystem/measure-population","code":"numerator","display":"Numerator"}]},"count":0}]}]}]}],"evaluatedResource":[{"reference":"Patient/9ec1a135-fb47-4c1c-8f6b-98afab15274e"},{"reference":"Encounter/b79c8f0b-ab95-4c5d-8608-2905deda6665"},{"reference":"Encounter/15499d65-10bc-41db-9e1f-54aa2d075670"},{"reference":"ServiceRequest/6ee414a0-2be2-4de3-aa48-72ec54a16568"},{"reference":"Location/f9b471eb-4066-412e-831f-c1e7c07453c1"},{"reference":"Coverage/fcb3b194-28ef-4643-812e-acbea866844a"},{"reference":"Condition/a967c111-934a-4c39-a7c8-dda86b8de65f"},{"reference":"Claim/ClaimBehavior-NotSubsAbuse"},{"reference":"Encounter/dc0b3579-0498-488e-821e-df655bafc637"},{"reference":"Organization/80ea3dc0-0348-43aa-bfa4-cd5e10a54857"},{"reference":"Practitioner/0f1f7ccd-89f9-429f-b236-a89027f5ad39"}]},"request":{"method":"PUT","url":"MeasureReport/7a3617f1-befc-48a7-9681-0e24d63731ee"}},{"resource":{"resourceType":"Condition","id":"a967c111-934a-4c39-a7c8-dda86b8de65f","meta":{"profile":["http://hl7.org/fhir/us/qicore/StructureDefinition/qicore-condition-encounter-diagnosis"]},"category":[{"coding":[{"system":"http://terminology.hl7.org/CodeSystem/condition-category","code":"encounter-diagnosis","display":"Encounter Diagnosis"}]}],"code":{"coding":[{"system":"http://snomed.info/sct","version":"2023-09","code":"66344007","display":"Recurrent major depression (disorder)","userSelected":true}]},"subject":{"reference":"Patient/9ec1a135-fb47-4c1c-8f6b-98afab15274e"},"recordedDate":"2026-04-18T08:00:00.000+00:00"},"request":{"method":"PUT","url":"Condition/a967c111-934a-4c39-a7c8-dda86b8de65f"}},{"resource":{"resourceType":"Claim","id":"ClaimBehavior-NotSubsAbuse","meta":{"profile":["http://hl7.org/fhir/us/qicore/StructureDefinition/qicore-claim"]},"status":"active","type":{"coding":[{"system":"http://terminology.hl7.org/CodeSystem/claim-type","code":"institutional"}]},"use":"claim","patient":{"reference":"Patient/9ec1a135-fb47-4c1c-8f6b-98afab15274e"},"created":"2027-05-01","provider":{"reference":"Practitioner/0f1f7ccd-89f9-429f-b236-a89027f5ad39"},"priority":{"coding":[{"system":"http://terminology.hl7.org/CodeSystem/processpriority","code":"normal"}]},"diagnosis":[{"sequence":1,"diagnosisReference":{"reference":"Condition/a967c111-934a-4c39-a7c8-dda86b8de65f"},"type":[{"coding":[{"system":"http://terminology.hl7.org/CodeSystem/ex-diagnosistype","code":"principal"}]}]}],"insurance":[{"sequence":1,"focal":true,"coverage":{"reference":"Coverage/fcb3b194-28ef-4643-812e-acbea866844a"}}],"item":[{"sequence":1,"diagnosisSequence":[1],"productOrService":{"coding":[{"system":"http://terminology.hl7.org/CodeSystem/ex-USCLS","code":"99555"}]},"encounter":[{"reference":"Encounter/b79c8f0b-ab95-4c5d-8608-2905deda6665"}]}]},"request":{"method":"PUT","url":"Claim/ClaimBehavior-NotSubsAbuse"}},{"resource":{"resourceType":"Organization","id":"80ea3dc0-0348-43aa-bfa4-cd5e10a54857","meta":{"profile":["http://hl7.org/fhir/us/qicore/StructureDefinition/qicore-organization"]},"identifier":[{"use":"temp","system":"urn:oid:2.16.840.1.113883.4.4","value":"21-3259825"}],"active":true,"type":[{"coding":[{"system":"http://terminology.hl7.org/CodeSystem/organization-type","code":"pay","display":"Payer"}]}],"name":"Blue Cross Blue Shield of Texas","telecom":[{"system":"phone","value":"(+1) 972-766-6900"}],"address":[{"use":"billing","type":"postal","line":["P.O. Box 660044"],"city":"Dallas","state":"TX","postalCode":"75266-0044","country":"USA"}]},"request":{"method":"PUT","url":"Organization/80ea3dc0-0348-43aa-bfa4-cd5e10a54857"}}]}