{"resourceType":"Bundle","id":"tests-01959faf-5ea5-41cb-b960-b74da18cca85-bundle","type":"transaction","entry":[{"fullUrl":"Organization/7695c4a5-5f3f-4e01-9747-595a0c3cbc7b","resource":{"resourceType":"Organization","id":"7695c4a5-5f3f-4e01-9747-595a0c3cbc7b","meta":{"profile":["http://hl7.org/fhir/us/qicore/StructureDefinition/qicore-organization"]},"identifier":[{"use":"temp","system":"urn:oid:2.16.840.1.113883.4.4","value":"21-3259825"}],"active":true,"type":[{"coding":[{"system":"http://terminology.hl7.org/CodeSystem/organization-type","code":"pay","display":"Payer"}]}],"name":"Blue Cross Blue Shield of Texas","telecom":[{"system":"phone","value":"(+1) 972-766-6900"}],"address":[{"use":"billing","type":"postal","line":["P.O. Box 660044"],"city":"Dallas","state":"TX","postalCode":"75266-0044","country":"USA"}]},"request":{"method":"PUT","url":"Organization/7695c4a5-5f3f-4e01-9747-595a0c3cbc7b"}},{"fullUrl":"Location/69455ceb-ab34-4824-b806-e920ea8fffcd","resource":{"resourceType":"Location","id":"69455ceb-ab34-4824-b806-e920ea8fffcd","meta":{"profile":["http://hl7.org/fhir/us/qicore/StructureDefinition/qicore-location"]},"identifier":[{"use":"usual","system":"http://exampleoflocation.com","value":"B1-S.F2"}],"name":"Local ED","type":[{"coding":[{"system":"https://www.cdc.gov/nhsn/cdaportal/terminology/codesystem/hsloc.html","version":"2022","code":"1108-0","display":"Emergency Department","userSelected":true}]}]},"request":{"method":"PUT","url":"Location/69455ceb-ab34-4824-b806-e920ea8fffcd"}},{"fullUrl":"Coverage/c2580e40-ac06-44b1-9c8b-d965d35e811e","resource":{"resourceType":"Coverage","id":"c2580e40-ac06-44b1-9c8b-d965d35e811e","meta":{"profile":["http://hl7.org/fhir/us/qicore/StructureDefinition/qicore-coverage"]},"identifier":[{"type":{"coding":[{"system":"http://terminology.hl7.org/CodeSystem/v2-0203","code":"MB"}]}}],"status":"active","beneficiary":{"reference":"Patient/01959faf-5ea5-41cb-b960-b74da18cca85"},"relationship":{"coding":[{"system":"http://terminology.hl7.org/CodeSystem/subscriber-relationship","code":"self"}]},"payor":[{"reference":"Organization/7695c4a5-5f3f-4e01-9747-595a0c3cbc7b"}]},"request":{"method":"PUT","url":"Coverage/c2580e40-ac06-44b1-9c8b-d965d35e811e"}},{"fullUrl":"Practitioner/984d9113-c509-4f1b-b45f-e04ad57c0399","resource":{"resourceType":"Practitioner","id":"984d9113-c509-4f1b-b45f-e04ad57c0399","meta":{"profile":["http://hl7.org/fhir/us/qicore/StructureDefinition/qicore-practitioner"]},"identifier":[{"system":"http://hl7.org/fhir/sid/us-npi","value":"9999999896"}],"name":[{"family":"Evil","prefix":["Dr"]}]},"request":{"method":"PUT","url":"Practitioner/984d9113-c509-4f1b-b45f-e04ad57c0399"}},{"fullUrl":"Patient/01959faf-5ea5-41cb-b960-b74da18cca85","resource":{"resourceType":"Patient","id":"01959faf-5ea5-41cb-b960-b74da18cca85","meta":{"profile":["http://hl7.org/fhir/us/qicore/StructureDefinition/qicore-patient"]},"extension":[{"url":"http://hl7.org/fhir/us/core/StructureDefinition/us-core-race","extension":[{"url":"ombCategory","valueCoding":{"system":"urn:oid:2.16.840.1.113883.6.238","code":"1002-5","display":"American Indian or Alaska Native","userSelected":true}},{"url":"text","valueString":"American Indian or Alaska Native"}]},{"url":"http://hl7.org/fhir/us/core/StructureDefinition/us-core-ethnicity","extension":[{"url":"ombCategory","valueCoding":{"system":"urn:oid:2.16.840.1.113883.6.238","code":"2135-2","display":"Hispanic or Latino","userSelected":true}},{"url":"text","valueString":"Hispanic or Latino"}]},{"url":"http://hl7.org/fhir/us/core/StructureDefinition/us-core-sex","valueCode":"248153007"}],"identifier":[{"type":{"coding":[{"system":"http://terminology.hl7.org/CodeSystem/v2-0203","code":"MR"}]},"system":"https://bonnie-fhir.healthit.gov/","value":"6617e30316793f5a4fae16fe"}],"name":[{"family":"NUMERStrat3Pass","given":["DecisionToAdmitUsingAssessmentBoarded241m"]}],"gender":"male","birthDate":"2010-01-01"},"request":{"method":"PUT","url":"Patient/01959faf-5ea5-41cb-b960-b74da18cca85"}},{"fullUrl":"Condition/4481bd4f-faa2-4ec1-b05e-df74630a4c13","resource":{"resourceType":"Condition","id":"4481bd4f-faa2-4ec1-b05e-df74630a4c13","meta":{"profile":["http://hl7.org/fhir/us/qicore/StructureDefinition/qicore-condition-encounter-diagnosis"]},"category":[{"coding":[{"system":"http://terminology.hl7.org/CodeSystem/condition-category","code":"encounter-diagnosis","display":"Encounter Diagnosis"}]}],"code":{"coding":[{"system":"http://snomed.info/sct","version":"2023-09","code":"10349009","display":"Multi-infarct dementia with delirium (disorder)","userSelected":true}]},"subject":{"reference":"Patient/01959faf-5ea5-41cb-b960-b74da18cca85"},"recordedDate":"2026-12-31T23:59:00.000+00:00"},"request":{"method":"PUT","url":"Condition/4481bd4f-faa2-4ec1-b05e-df74630a4c13"}},{"fullUrl":"MeasureReport/884902d9-5e94-4b9f-b4e2-187c12aa8fcc","resource":{"resourceType":"MeasureReport","id":"884902d9-5e94-4b9f-b4e2-187c12aa8fcc","meta":{"profile":["http://hl7.org/fhir/us/cqfmeasures/StructureDefinition/test-case-cqfm"]},"contained":[{"resourceType":"Parameters","id":"869e42f7-1b22-48bf-9a6b-2aca567ee095-parameters","parameter":[{"name":"subject","valueString":"01959faf-5ea5-41cb-b960-b74da18cca85"}]}],"extension":[{"url":"http://hl7.org/fhir/StructureDefinition/cqf-inputParameters","valueReference":{"reference":"#869e42f7-1b22-48bf-9a6b-2aca567ee095-parameters"}},{"url":"http://hl7.org/fhir/us/cqfmeasures/StructureDefinition/cqfm-testCaseDescription","valueMarkdown":"ED enc first minute of MP, 6 hrs (start to end), (arrival to departure 6 hrs, 1 min)  inpt enc starts at 0600 same day, 2 day stay, assessment effective 0200, results: to admit,  behavioral health dx last day of last MP"}],"modifierExtension":[{"url":"http://hl7.org/fhir/us/cqfmeasures/StructureDefinition/cqfm-isTestCase","valueBoolean":true}],"status":"complete","type":"individual","measure":"https://madie.cms.gov/Measure/CMS1244FHIRECATHOQR","period":{"start":"2027-01-01","end":"2027-12-31"},"group":[{"id":"Group_1","population":[{"id":"InitialPopulation_1","code":{"coding":[{"system":"http://terminology.hl7.org/CodeSystem/measure-population","code":"initial-population","display":"Initial Population"}]},"count":1},{"id":"Denominator_1","code":{"coding":[{"system":"http://terminology.hl7.org/CodeSystem/measure-population","code":"denominator","display":"Denominator"}]},"count":1},{"id":"Numerator_1","code":{"coding":[{"system":"http://terminology.hl7.org/CodeSystem/measure-population","code":"numerator","display":"Numerator"}]},"count":1}],"measureScore":{"value":0.0},"stratifier":[{"id":"Stratification_1_1","code":[{"text":"Strata-1"}],"stratum":[{"value":{"text":"Strata-1"},"population":[{"id":"InitialPopulation_1","code":{"coding":[{"system":"http://terminology.hl7.org/CodeSystem/measure-population","code":"initial-population","display":"Initial Population"}]},"count":0},{"id":"Denominator_1","code":{"coding":[{"system":"http://terminology.hl7.org/CodeSystem/measure-population","code":"denominator","display":"Denominator"}]},"count":0},{"id":"Numerator_1","code":{"coding":[{"system":"http://terminology.hl7.org/CodeSystem/measure-population","code":"numerator","display":"Numerator"}]},"count":0}]}]},{"id":"Stratification_1_2","code":[{"text":"Strata-2"}],"stratum":[{"value":{"text":"Strata-2"},"population":[{"id":"InitialPopulation_1","code":{"coding":[{"system":"http://terminology.hl7.org/CodeSystem/measure-population","code":"initial-population","display":"Initial Population"}]},"count":0},{"id":"Denominator_1","code":{"coding":[{"system":"http://terminology.hl7.org/CodeSystem/measure-population","code":"denominator","display":"Denominator"}]},"count":0},{"id":"Numerator_1","code":{"coding":[{"system":"http://terminology.hl7.org/CodeSystem/measure-population","code":"numerator","display":"Numerator"}]},"count":0}]}]},{"id":"Stratification_1_3","code":[{"text":"Strata-3"}],"stratum":[{"value":{"text":"Strata-3"},"population":[{"id":"InitialPopulation_1","code":{"coding":[{"system":"http://terminology.hl7.org/CodeSystem/measure-population","code":"initial-population","display":"Initial Population"}]},"count":1},{"id":"Denominator_1","code":{"coding":[{"system":"http://terminology.hl7.org/CodeSystem/measure-population","code":"denominator","display":"Denominator"}]},"count":1},{"id":"Numerator_1","code":{"coding":[{"system":"http://terminology.hl7.org/CodeSystem/measure-population","code":"numerator","display":"Numerator"}]},"count":1}]}]},{"id":"Stratification_1_4","code":[{"text":"Strata-4"}],"stratum":[{"value":{"text":"Strata-4"},"population":[{"id":"InitialPopulation_1","code":{"coding":[{"system":"http://terminology.hl7.org/CodeSystem/measure-population","code":"initial-population","display":"Initial Population"}]},"count":0},{"id":"Denominator_1","code":{"coding":[{"system":"http://terminology.hl7.org/CodeSystem/measure-population","code":"denominator","display":"Denominator"}]},"count":0},{"id":"Numerator_1","code":{"coding":[{"system":"http://terminology.hl7.org/CodeSystem/measure-population","code":"numerator","display":"Numerator"}]},"count":0}]}]}]}],"evaluatedResource":[{"reference":"Patient/01959faf-5ea5-41cb-b960-b74da18cca85"},{"reference":"Encounter/3a1cd2f2-1846-4b76-b275-5ba5d5f14254"},{"reference":"Encounter/bc5bcb63-793a-4cf5-a2fa-51134d08e31a"},{"reference":"Location/69455ceb-ab34-4824-b806-e920ea8fffcd"},{"reference":"Observation/38bfd46f-8a2f-4653-a643-cfaf306c71ae"},{"reference":"Condition/4481bd4f-faa2-4ec1-b05e-df74630a4c13"},{"reference":"Claim/ClaimBehavior-NotSubsAbuse"},{"reference":"Coverage/c2580e40-ac06-44b1-9c8b-d965d35e811e"},{"reference":"Organization/7695c4a5-5f3f-4e01-9747-595a0c3cbc7b"},{"reference":"Practitioner/984d9113-c509-4f1b-b45f-e04ad57c0399"}]},"request":{"method":"PUT","url":"MeasureReport/884902d9-5e94-4b9f-b4e2-187c12aa8fcc"}},{"fullUrl":"Claim/ClaimBehavior-NotSubsAbuse","resource":{"resourceType":"Claim","id":"ClaimBehavior-NotSubsAbuse","meta":{"profile":["http://hl7.org/fhir/us/qicore/StructureDefinition/qicore-claim"]},"status":"active","type":{"coding":[{"system":"http://terminology.hl7.org/CodeSystem/claim-type","code":"institutional"}]},"use":"claim","patient":{"reference":"Patient/01959faf-5ea5-41cb-b960-b74da18cca85"},"created":"2027-05-01","provider":{"reference":"Practitioner/984d9113-c509-4f1b-b45f-e04ad57c0399"},"priority":{"coding":[{"system":"http://terminology.hl7.org/CodeSystem/processpriority","code":"normal"}]},"diagnosis":[{"sequence":1,"diagnosisReference":{"reference":"Condition/4481bd4f-faa2-4ec1-b05e-df74630a4c13"},"type":[{"coding":[{"system":"http://terminology.hl7.org/CodeSystem/ex-diagnosistype","code":"principal"}]}]}],"insurance":[{"sequence":1,"focal":true,"coverage":{"reference":"Coverage/c2580e40-ac06-44b1-9c8b-d965d35e811e"}}],"item":[{"sequence":1,"diagnosisSequence":[1],"productOrService":{"coding":[{"system":"http://terminology.hl7.org/CodeSystem/ex-USCLS","code":"99555"}]},"encounter":[{"reference":"Encounter/3a1cd2f2-1846-4b76-b275-5ba5d5f14254"}]}]},"request":{"method":"PUT","url":"Claim/ClaimBehavior-NotSubsAbuse"}},{"fullUrl":"Encounter/3a1cd2f2-1846-4b76-b275-5ba5d5f14254","resource":{"resourceType":"Encounter","id":"3a1cd2f2-1846-4b76-b275-5ba5d5f14254","meta":{"profile":["http://hl7.org/fhir/us/qicore/StructureDefinition/qicore-encounter"]},"status":"finished","class":{"system":"http://terminology.hl7.org/CodeSystem/v3-ActCode","code":"EMER","display":"emergency"},"type":[{"coding":[{"system":"http://snomed.info/sct","version":"2023-09","code":"4525004","display":"Emergency department patient visit (procedure)","userSelected":true}]}],"subject":{"reference":"Patient/01959faf-5ea5-41cb-b960-b74da18cca85"},"period":{"start":"2027-05-01T00:00:00.000+00:00","end":"2027-05-01T06:00:00.000+00:00"},"diagnosis":[{"condition":{"reference":"Condition/4481bd4f-faa2-4ec1-b05e-df74630a4c13"},"use":{"coding":[{"system":"http://terminology.hl7.org/CodeSystem/diagnosis-role","code":"billing"}]},"rank":1}],"location":[{"location":{"reference":"Location/69455ceb-ab34-4824-b806-e920ea8fffcd"},"period":{"start":"2027-05-01T00:00:00.000+00:00","end":"2027-05-01T06:01:00.000+00:00"}}]},"request":{"method":"PUT","url":"Encounter/3a1cd2f2-1846-4b76-b275-5ba5d5f14254"}},{"fullUrl":"Observation/38bfd46f-8a2f-4653-a643-cfaf306c71ae","resource":{"resourceType":"Observation","id":"38bfd46f-8a2f-4653-a643-cfaf306c71ae","meta":{"profile":["http://hl7.org/fhir/us/qicore/StructureDefinition/qicore-observation-clinical-result"]},"status":"final","category":[{"coding":[{"system":"http://terminology.hl7.org/CodeSystem/observation-category","code":"procedure","display":"Procedure"}]}],"code":{"coding":[{"system":"http://loinc.org","version":"2.76","code":"28568-4","display":"Physician Emergency department Note","userSelected":true}]},"subject":{"reference":"Patient/01959faf-5ea5-41cb-b960-b74da18cca85"},"effectiveDateTime":"2027-05-01T01:00:00.000+00:00","valueCodeableConcept":{"coding":[{"system":"http://snomed.info/sct","code":"434081000124108","display":"Patient requires hospitalization (finding)","userSelected":true}]}},"request":{"method":"PUT","url":"Observation/38bfd46f-8a2f-4653-a643-cfaf306c71ae"}},{"fullUrl":"Bundle/6617e30316793f5a4fae16fe","resource":{"resourceType":"Bundle","id":"6617e30316793f5a4fae16fe","type":"transaction","entry":[{"fullUrl":"https://madie.cms.gov/Patient/01959faf-5ea5-41cb-b960-b74da18cca85","resource":{"resourceType":"Patient","id":"01959faf-5ea5-41cb-b960-b74da18cca85","meta":{"profile":["http://hl7.org/fhir/us/qicore/StructureDefinition/qicore-patient"]},"extension":[{"url":"http://hl7.org/fhir/us/core/StructureDefinition/us-core-race","extension":[{"url":"ombCategory","valueCoding":{"system":"urn:oid:2.16.840.1.113883.6.238","code":"1002-5","display":"American Indian or Alaska Native","userSelected":true}},{"url":"text","valueString":"American Indian or Alaska Native"}]},{"url":"http://hl7.org/fhir/us/core/StructureDefinition/us-core-ethnicity","extension":[{"url":"ombCategory","valueCoding":{"system":"urn:oid:2.16.840.1.113883.6.238","code":"2135-2","display":"Hispanic or Latino","userSelected":true}},{"url":"text","valueString":"Hispanic or Latino"}]},{"url":"http://hl7.org/fhir/us/core/StructureDefinition/us-core-sex","valueCode":"248153007"}],"identifier":[{"type":{"coding":[{"system":"http://terminology.hl7.org/CodeSystem/v2-0203","code":"MR"}]},"system":"https://bonnie-fhir.healthit.gov/","value":"6617e30316793f5a4fae16fe"}],"name":[{"family":"NUMERStrat3Pass","given":["DecisionToAdmitUsingAssessmentBoarded241m"]}],"gender":"male","birthDate":"2010-01-01"},"request":{"method":"PUT","url":"Patient/01959faf-5ea5-41cb-b960-b74da18cca85"}},{"fullUrl":"https://madie.cms.gov/Encounter/3a1cd2f2-1846-4b76-b275-5ba5d5f14254","resource":{"resourceType":"Encounter","id":"3a1cd2f2-1846-4b76-b275-5ba5d5f14254","meta":{"profile":["http://hl7.org/fhir/us/qicore/StructureDefinition/qicore-encounter"]},"status":"finished","class":{"system":"http://terminology.hl7.org/CodeSystem/v3-ActCode","code":"EMER","display":"emergency"},"type":[{"coding":[{"system":"http://snomed.info/sct","version":"2023-09","code":"4525004","display":"Emergency department patient visit (procedure)","userSelected":true}]}],"subject":{"reference":"Patient/01959faf-5ea5-41cb-b960-b74da18cca85"},"period":{"start":"2027-05-01T00:00:00.000+00:00","end":"2027-05-01T06:00:00.000+00:00"},"diagnosis":[{"condition":{"reference":"Condition/4481bd4f-faa2-4ec1-b05e-df74630a4c13"},"use":{"coding":[{"system":"http://terminology.hl7.org/CodeSystem/diagnosis-role","code":"billing"}]},"rank":1}],"location":[{"location":{"reference":"Location/69455ceb-ab34-4824-b806-e920ea8fffcd"},"period":{"start":"2027-05-01T00:00:00.000+00:00","end":"2027-05-01T06:01:00.000+00:00"}}]},"request":{"method":"PUT","url":"Encounter/3a1cd2f2-1846-4b76-b275-5ba5d5f14254"}},{"fullUrl":"https://madie.cms.gov/Encounter/bc5bcb63-793a-4cf5-a2fa-51134d08e31a","resource":{"resourceType":"Encounter","id":"bc5bcb63-793a-4cf5-a2fa-51134d08e31a","meta":{"profile":["http://hl7.org/fhir/us/qicore/StructureDefinition/qicore-encounter"]},"status":"finished","class":{"system":"http://terminology.hl7.org/CodeSystem/v3-ActCode","code":"IMP","display":"inpatient"},"type":[{"coding":[{"system":"http://snomed.info/sct","version":"2023-09","code":"183452005","display":"Emergency hospital admission (procedure)","userSelected":true}]}],"subject":{"reference":"Patient/01959faf-5ea5-41cb-b960-b74da18cca85"},"period":{"start":"2027-05-01T06:00:00.000+00:00","end":"2027-05-03T07:00:00.000+00:00"}},"request":{"method":"PUT","url":"Encounter/bc5bcb63-793a-4cf5-a2fa-51134d08e31a"}},{"fullUrl":"https://madie.cms.gov/Location/69455ceb-ab34-4824-b806-e920ea8fffcd","resource":{"resourceType":"Location","id":"69455ceb-ab34-4824-b806-e920ea8fffcd","meta":{"profile":["http://hl7.org/fhir/us/qicore/StructureDefinition/qicore-location"]},"identifier":[{"use":"usual","system":"http://exampleoflocation.com","value":"B1-S.F2"}],"name":"Local ED","type":[{"coding":[{"system":"https://www.cdc.gov/nhsn/cdaportal/terminology/codesystem/hsloc.html","version":"2022","code":"1108-0","display":"Emergency Department","userSelected":true}]}]},"request":{"method":"PUT","url":"Location/69455ceb-ab34-4824-b806-e920ea8fffcd"}},{"fullUrl":"https://madie.cms.gov/Observation/38bfd46f-8a2f-4653-a643-cfaf306c71ae","resource":{"resourceType":"Observation","id":"38bfd46f-8a2f-4653-a643-cfaf306c71ae","meta":{"profile":["http://hl7.org/fhir/us/qicore/StructureDefinition/qicore-observation-clinical-result"]},"status":"final","category":[{"coding":[{"system":"http://terminology.hl7.org/CodeSystem/observation-category","code":"procedure","display":"Procedure"}]}],"code":{"coding":[{"system":"http://loinc.org","version":"2.76","code":"28568-4","display":"Physician Emergency department Note","userSelected":true}]},"subject":{"reference":"Patient/01959faf-5ea5-41cb-b960-b74da18cca85"},"effectiveDateTime":"2027-05-01T01:00:00.000+00:00","valueCodeableConcept":{"coding":[{"system":"http://snomed.info/sct","code":"434081000124108","display":"Patient requires hospitalization (finding)","userSelected":true}]}},"request":{"method":"PUT","url":"Observation/38bfd46f-8a2f-4653-a643-cfaf306c71ae"}},{"fullUrl":"https://madie.cms.gov/Condition/4481bd4f-faa2-4ec1-b05e-df74630a4c13","resource":{"resourceType":"Condition","id":"4481bd4f-faa2-4ec1-b05e-df74630a4c13","meta":{"profile":["http://hl7.org/fhir/us/qicore/StructureDefinition/qicore-condition-encounter-diagnosis"]},"category":[{"coding":[{"system":"http://terminology.hl7.org/CodeSystem/condition-category","code":"encounter-diagnosis","display":"Encounter Diagnosis"}]}],"code":{"coding":[{"system":"http://snomed.info/sct","version":"2023-09","code":"10349009","display":"Multi-infarct dementia with delirium (disorder)","userSelected":true}]},"subject":{"reference":"Patient/01959faf-5ea5-41cb-b960-b74da18cca85"},"recordedDate":"2026-12-31T23:59:00.000+00:00"},"request":{"method":"PUT","url":"Condition/4481bd4f-faa2-4ec1-b05e-df74630a4c13"}},{"fullUrl":"https://madie.cms.gov/claim/ClaimBehavior-NotSubsAbuse","resource":{"resourceType":"Claim","id":"ClaimBehavior-NotSubsAbuse","meta":{"profile":["http://hl7.org/fhir/us/qicore/StructureDefinition/qicore-claim"]},"status":"active","type":{"coding":[{"system":"http://terminology.hl7.org/CodeSystem/claim-type","code":"institutional"}]},"use":"claim","patient":{"reference":"Patient/01959faf-5ea5-41cb-b960-b74da18cca85"},"created":"2027-05-01","provider":{"reference":"Practitioner/984d9113-c509-4f1b-b45f-e04ad57c0399"},"priority":{"coding":[{"system":"http://terminology.hl7.org/CodeSystem/processpriority","code":"normal"}]},"diagnosis":[{"sequence":1,"diagnosisReference":{"reference":"Condition/4481bd4f-faa2-4ec1-b05e-df74630a4c13"},"type":[{"coding":[{"system":"http://terminology.hl7.org/CodeSystem/ex-diagnosistype","code":"principal"}]}]}],"insurance":[{"sequence":1,"focal":true,"coverage":{"reference":"Coverage/c2580e40-ac06-44b1-9c8b-d965d35e811e"}}],"item":[{"sequence":1,"diagnosisSequence":[1],"productOrService":{"coding":[{"system":"http://terminology.hl7.org/CodeSystem/ex-USCLS","code":"99555"}]},"encounter":[{"reference":"Encounter/3a1cd2f2-1846-4b76-b275-5ba5d5f14254"}]}]},"request":{"method":"PUT","url":"Claim/ClaimBehavior-NotSubsAbuse"}},{"fullUrl":"https://madie.cms.gov/Coverage/c2580e40-ac06-44b1-9c8b-d965d35e811e","resource":{"resourceType":"Coverage","id":"c2580e40-ac06-44b1-9c8b-d965d35e811e","meta":{"profile":["http://hl7.org/fhir/us/qicore/StructureDefinition/qicore-coverage"]},"identifier":[{"type":{"coding":[{"system":"http://terminology.hl7.org/CodeSystem/v2-0203","code":"MB"}]}}],"status":"active","beneficiary":{"reference":"Patient/01959faf-5ea5-41cb-b960-b74da18cca85"},"relationship":{"coding":[{"system":"http://terminology.hl7.org/CodeSystem/subscriber-relationship","code":"self"}]},"payor":[{"reference":"Organization/7695c4a5-5f3f-4e01-9747-595a0c3cbc7b"}]},"request":{"method":"PUT","url":"Coverage/c2580e40-ac06-44b1-9c8b-d965d35e811e"}},{"fullUrl":"https://madie.cms.gov/Organization/7695c4a5-5f3f-4e01-9747-595a0c3cbc7b","resource":{"resourceType":"Organization","id":"7695c4a5-5f3f-4e01-9747-595a0c3cbc7b","meta":{"profile":["http://hl7.org/fhir/us/qicore/StructureDefinition/qicore-organization"]},"identifier":[{"use":"temp","system":"urn:oid:2.16.840.1.113883.4.4","value":"21-3259825"}],"active":true,"type":[{"coding":[{"system":"http://terminology.hl7.org/CodeSystem/organization-type","code":"pay","display":"Payer"}]}],"name":"Blue Cross Blue Shield of Texas","telecom":[{"system":"phone","value":"(+1) 972-766-6900"}],"address":[{"use":"billing","type":"postal","line":["P.O. Box 660044"],"city":"Dallas","state":"TX","postalCode":"75266-0044","country":"USA"}]},"request":{"method":"PUT","url":"Organization/7695c4a5-5f3f-4e01-9747-595a0c3cbc7b"}},{"fullUrl":"https://madie.cms.gov/Practitioner/984d9113-c509-4f1b-b45f-e04ad57c0399","resource":{"resourceType":"Practitioner","id":"984d9113-c509-4f1b-b45f-e04ad57c0399","meta":{"profile":["http://hl7.org/fhir/us/qicore/StructureDefinition/qicore-practitioner"]},"identifier":[{"system":"http://hl7.org/fhir/sid/us-npi","value":"9999999896"}],"name":[{"family":"Evil","prefix":["Dr"]}]},"request":{"method":"PUT","url":"Practitioner/984d9113-c509-4f1b-b45f-e04ad57c0399"}},{"fullUrl":"https://madie.cms.gov/MeasureReport/884902d9-5e94-4b9f-b4e2-187c12aa8fcc","resource":{"resourceType":"MeasureReport","id":"884902d9-5e94-4b9f-b4e2-187c12aa8fcc","meta":{"profile":["http://hl7.org/fhir/us/cqfmeasures/StructureDefinition/test-case-cqfm"]},"contained":[{"resourceType":"Parameters","id":"869e42f7-1b22-48bf-9a6b-2aca567ee095-parameters","parameter":[{"name":"subject","valueString":"01959faf-5ea5-41cb-b960-b74da18cca85"}]}],"extension":[{"url":"http://hl7.org/fhir/StructureDefinition/cqf-inputParameters","valueReference":{"reference":"#869e42f7-1b22-48bf-9a6b-2aca567ee095-parameters"}},{"url":"http://hl7.org/fhir/us/cqfmeasures/StructureDefinition/cqfm-testCaseDescription","valueMarkdown":"ED enc first minute of MP, 6 hrs (start to end), (arrival to departure 6 hrs, 1 min)  inpt enc starts at 0600 same day, 2 day stay, assessment effective 0200, results: to admit,  behavioral health dx last day of last MP"}],"modifierExtension":[{"url":"http://hl7.org/fhir/us/cqfmeasures/StructureDefinition/cqfm-isTestCase","valueBoolean":true}],"status":"complete","type":"individual","measure":"https://madie.cms.gov/Measure/CMS1244FHIRECATHOQR","period":{"start":"2027-01-01","end":"2027-12-31"},"group":[{"id":"Group_1","population":[{"id":"InitialPopulation_1","code":{"coding":[{"system":"http://terminology.hl7.org/CodeSystem/measure-population","code":"initial-population","display":"Initial Population"}]},"count":1},{"id":"Denominator_1","code":{"coding":[{"system":"http://terminology.hl7.org/CodeSystem/measure-population","code":"denominator","display":"Denominator"}]},"count":1},{"id":"Numerator_1","code":{"coding":[{"system":"http://terminology.hl7.org/CodeSystem/measure-population","code":"numerator","display":"Numerator"}]},"count":1}],"measureScore":{"value":0.0},"stratifier":[{"id":"Stratification_1_1","code":[{"text":"Strata-1"}],"stratum":[{"value":{"text":"Strata-1"},"population":[{"id":"InitialPopulation_1","code":{"coding":[{"system":"http://terminology.hl7.org/CodeSystem/measure-population","code":"initial-population","display":"Initial Population"}]},"count":0},{"id":"Denominator_1","code":{"coding":[{"system":"http://terminology.hl7.org/CodeSystem/measure-population","code":"denominator","display":"Denominator"}]},"count":0},{"id":"Numerator_1","code":{"coding":[{"system":"http://terminology.hl7.org/CodeSystem/measure-population","code":"numerator","display":"Numerator"}]},"count":0}]}]},{"id":"Stratification_1_2","code":[{"text":"Strata-2"}],"stratum":[{"value":{"text":"Strata-2"},"population":[{"id":"InitialPopulation_1","code":{"coding":[{"system":"http://terminology.hl7.org/CodeSystem/measure-population","code":"initial-population","display":"Initial Population"}]},"count":0},{"id":"Denominator_1","code":{"coding":[{"system":"http://terminology.hl7.org/CodeSystem/measure-population","code":"denominator","display":"Denominator"}]},"count":0},{"id":"Numerator_1","code":{"coding":[{"system":"http://terminology.hl7.org/CodeSystem/measure-population","code":"numerator","display":"Numerator"}]},"count":0}]}]},{"id":"Stratification_1_3","code":[{"text":"Strata-3"}],"stratum":[{"value":{"text":"Strata-3"},"population":[{"id":"InitialPopulation_1","code":{"coding":[{"system":"http://terminology.hl7.org/CodeSystem/measure-population","code":"initial-population","display":"Initial Population"}]},"count":1},{"id":"Denominator_1","code":{"coding":[{"system":"http://terminology.hl7.org/CodeSystem/measure-population","code":"denominator","display":"Denominator"}]},"count":1},{"id":"Numerator_1","code":{"coding":[{"system":"http://terminology.hl7.org/CodeSystem/measure-population","code":"numerator","display":"Numerator"}]},"count":1}]}]},{"id":"Stratification_1_4","code":[{"text":"Strata-4"}],"stratum":[{"value":{"text":"Strata-4"},"population":[{"id":"InitialPopulation_1","code":{"coding":[{"system":"http://terminology.hl7.org/CodeSystem/measure-population","code":"initial-population","display":"Initial Population"}]},"count":0},{"id":"Denominator_1","code":{"coding":[{"system":"http://terminology.hl7.org/CodeSystem/measure-population","code":"denominator","display":"Denominator"}]},"count":0},{"id":"Numerator_1","code":{"coding":[{"system":"http://terminology.hl7.org/CodeSystem/measure-population","code":"numerator","display":"Numerator"}]},"count":0}]}]}]}],"evaluatedResource":[{"reference":"Patient/01959faf-5ea5-41cb-b960-b74da18cca85"},{"reference":"Encounter/3a1cd2f2-1846-4b76-b275-5ba5d5f14254"},{"reference":"Encounter/bc5bcb63-793a-4cf5-a2fa-51134d08e31a"},{"reference":"Location/69455ceb-ab34-4824-b806-e920ea8fffcd"},{"reference":"Observation/38bfd46f-8a2f-4653-a643-cfaf306c71ae"},{"reference":"Condition/4481bd4f-faa2-4ec1-b05e-df74630a4c13"},{"reference":"Claim/ClaimBehavior-NotSubsAbuse"},{"reference":"Coverage/c2580e40-ac06-44b1-9c8b-d965d35e811e"},{"reference":"Organization/7695c4a5-5f3f-4e01-9747-595a0c3cbc7b"},{"reference":"Practitioner/984d9113-c509-4f1b-b45f-e04ad57c0399"}]},"request":{"method":"PUT","url":"MeasureReport/884902d9-5e94-4b9f-b4e2-187c12aa8fcc"}}]},"request":{"method":"PUT","url":"Bundle/6617e30316793f5a4fae16fe"}},{"fullUrl":"Encounter/bc5bcb63-793a-4cf5-a2fa-51134d08e31a","resource":{"resourceType":"Encounter","id":"bc5bcb63-793a-4cf5-a2fa-51134d08e31a","meta":{"profile":["http://hl7.org/fhir/us/qicore/StructureDefinition/qicore-encounter"]},"status":"finished","class":{"system":"http://terminology.hl7.org/CodeSystem/v3-ActCode","code":"IMP","display":"inpatient"},"type":[{"coding":[{"system":"http://snomed.info/sct","version":"2023-09","code":"183452005","display":"Emergency hospital admission (procedure)","userSelected":true}]}],"subject":{"reference":"Patient/01959faf-5ea5-41cb-b960-b74da18cca85"},"period":{"start":"2027-05-01T06:00:00.000+00:00","end":"2027-05-03T07:00:00.000+00:00"}},"request":{"method":"PUT","url":"Encounter/bc5bcb63-793a-4cf5-a2fa-51134d08e31a"}}]}