{"resourceType":"Bundle","id":"tests-78cbc6ac-f30d-404b-b539-6b903c7cfeba-bundle","type":"transaction","entry":[{"fullUrl":"MeasureReport/d7aee0c7-edd4-44f1-ab57-83af5a3e87c7","resource":{"resourceType":"MeasureReport","id":"d7aee0c7-edd4-44f1-ab57-83af5a3e87c7","meta":{"profile":["http://hl7.org/fhir/us/cqfmeasures/StructureDefinition/test-case-cqfm"]},"contained":[{"resourceType":"Parameters","id":"7aa4aa51-75f7-42e9-95fa-5670da13897a-parameters","parameter":[{"name":"subject","valueString":"78cbc6ac-f30d-404b-b539-6b903c7cfeba"}]}],"extension":[{"url":"http://hl7.org/fhir/StructureDefinition/cqf-inputParameters","valueReference":{"reference":"#7aa4aa51-75f7-42e9-95fa-5670da13897a-parameters"}},{"url":"http://hl7.org/fhir/us/cqfmeasures/StructureDefinition/cqfm-testCaseDescription","valueMarkdown":"Adult, age 18 Encounter  first day of MP, time to treatment 61 minutes has mental illness"}],"modifierExtension":[{"url":"http://hl7.org/fhir/us/cqfmeasures/StructureDefinition/cqfm-isTestCase","valueBoolean":true}],"status":"complete","type":"individual","measure":"https://madie.cms.gov/Measure/CMS1244FHIRECATHOQR","period":{"start":"2027-01-01","end":"2027-12-31"},"group":[{"id":"Group_1","population":[{"id":"InitialPopulation_1","code":{"coding":[{"system":"http://terminology.hl7.org/CodeSystem/measure-population","code":"initial-population","display":"Initial Population"}]},"count":1},{"id":"Denominator_1","code":{"coding":[{"system":"http://terminology.hl7.org/CodeSystem/measure-population","code":"denominator","display":"Denominator"}]},"count":1},{"id":"Numerator_1","code":{"coding":[{"system":"http://terminology.hl7.org/CodeSystem/measure-population","code":"numerator","display":"Numerator"}]},"count":1}],"measureScore":{"value":0.0},"stratifier":[{"id":"Stratification_1_1","code":[{"text":"Strata-1"}],"stratum":[{"value":{"text":"Strata-1"},"population":[{"id":"InitialPopulation_1","code":{"coding":[{"system":"http://terminology.hl7.org/CodeSystem/measure-population","code":"initial-population","display":"Initial Population"}]},"count":0},{"id":"Denominator_1","code":{"coding":[{"system":"http://terminology.hl7.org/CodeSystem/measure-population","code":"denominator","display":"Denominator"}]},"count":0},{"id":"Numerator_1","code":{"coding":[{"system":"http://terminology.hl7.org/CodeSystem/measure-population","code":"numerator","display":"Numerator"}]},"count":0}]}]},{"id":"Stratification_1_2","code":[{"text":"Strata-2"}],"stratum":[{"value":{"text":"Strata-2"},"population":[{"id":"InitialPopulation_1","code":{"coding":[{"system":"http://terminology.hl7.org/CodeSystem/measure-population","code":"initial-population","display":"Initial Population"}]},"count":0},{"id":"Denominator_1","code":{"coding":[{"system":"http://terminology.hl7.org/CodeSystem/measure-population","code":"denominator","display":"Denominator"}]},"count":0},{"id":"Numerator_1","code":{"coding":[{"system":"http://terminology.hl7.org/CodeSystem/measure-population","code":"numerator","display":"Numerator"}]},"count":0}]}]},{"id":"Stratification_1_3","code":[{"text":"Strata-3"}],"stratum":[{"value":{"text":"Strata-3"},"population":[{"id":"InitialPopulation_1","code":{"coding":[{"system":"http://terminology.hl7.org/CodeSystem/measure-population","code":"initial-population","display":"Initial Population"}]},"count":0},{"id":"Denominator_1","code":{"coding":[{"system":"http://terminology.hl7.org/CodeSystem/measure-population","code":"denominator","display":"Denominator"}]},"count":0},{"id":"Numerator_1","code":{"coding":[{"system":"http://terminology.hl7.org/CodeSystem/measure-population","code":"numerator","display":"Numerator"}]},"count":0}]}]},{"id":"Stratification_1_4","code":[{"text":"Strata-4"}],"stratum":[{"value":{"text":"Strata-4"},"population":[{"id":"InitialPopulation_1","code":{"coding":[{"system":"http://terminology.hl7.org/CodeSystem/measure-population","code":"initial-population","display":"Initial Population"}]},"count":1},{"id":"Denominator_1","code":{"coding":[{"system":"http://terminology.hl7.org/CodeSystem/measure-population","code":"denominator","display":"Denominator"}]},"count":1},{"id":"Numerator_1","code":{"coding":[{"system":"http://terminology.hl7.org/CodeSystem/measure-population","code":"numerator","display":"Numerator"}]},"count":1}]}]}]}],"evaluatedResource":[{"reference":"Patient/78cbc6ac-f30d-404b-b539-6b903c7cfeba"},{"reference":"Encounter/38507851-55ec-4419-9bac-674f7d1f5cfd"},{"reference":"Location/e2825703-21d6-432c-81a4-629f7f13faf6"},{"reference":"Location/a88dae19-6b4b-41b4-b18d-9eb40913d70a"},{"reference":"Condition/b4940a65-1591-418a-94a0-0b9398247a11"},{"reference":"Location/1929f690-c26d-49f5-a77a-af663a3e20c8"},{"reference":"Location/fd5d4749-c781-4505-95a7-399fcb0c1455"},{"reference":"Claim/ClaimBehavior-NotSubsAbuse"},{"reference":"Coverage/f289edf3-fcff-47d5-8d59-63dea8b728d8"},{"reference":"Organization/c1bcf5c8-c379-40ac-851d-512fe5873eb4"},{"reference":"Practitioner/8f8bcffe-8bc9-4291-82bb-6c693df7ef1c"}]},"request":{"method":"PUT","url":"MeasureReport/d7aee0c7-edd4-44f1-ab57-83af5a3e87c7"}},{"fullUrl":"Location/1929f690-c26d-49f5-a77a-af663a3e20c8","resource":{"resourceType":"Location","id":"1929f690-c26d-49f5-a77a-af663a3e20c8","meta":{"profile":["http://hl7.org/fhir/us/qicore/StructureDefinition/qicore-location"]},"identifier":[{"use":"usual","system":"http://exampleoflocation.com","value":"B1-S.F2"}],"name":"Medical Surgical East, first floor","type":[{"coding":[{"system":"https://www.cdc.gov/nhsn/cdaportal/terminology/codesystem/hsloc.html","version":"2022","code":"1108-0","display":"Emergency Department","userSelected":true}]}]},"request":{"method":"PUT","url":"Location/1929f690-c26d-49f5-a77a-af663a3e20c8"}},{"fullUrl":"Coverage/f289edf3-fcff-47d5-8d59-63dea8b728d8","resource":{"resourceType":"Coverage","id":"f289edf3-fcff-47d5-8d59-63dea8b728d8","meta":{"profile":["http://hl7.org/fhir/us/qicore/StructureDefinition/qicore-coverage"]},"identifier":[{"type":{"coding":[{"system":"http://terminology.hl7.org/CodeSystem/v2-0203","code":"MB"}]}}],"status":"active","beneficiary":{"reference":"Patient/78cbc6ac-f30d-404b-b539-6b903c7cfeba"},"relationship":{"coding":[{"system":"http://terminology.hl7.org/CodeSystem/subscriber-relationship","code":"self"}]},"payor":[{"reference":"Organization/c1bcf5c8-c379-40ac-851d-512fe5873eb4"}]},"request":{"method":"PUT","url":"Coverage/f289edf3-fcff-47d5-8d59-63dea8b728d8"}},{"fullUrl":"Location/fd5d4749-c781-4505-95a7-399fcb0c1455","resource":{"resourceType":"Location","id":"fd5d4749-c781-4505-95a7-399fcb0c1455","meta":{"profile":["http://hl7.org/fhir/us/qicore/StructureDefinition/qicore-location"]},"identifier":[{"use":"usual","system":"http://exampleoflocation.com","value":"B1-S.F2"}],"name":"Medical Surgical East, first floor","type":[{"coding":[{"system":"https://www.cdc.gov/nhsn/cdaportal/terminology/codesystem/hsloc.html","version":"2022","code":"1209-6","display":"Treatment Room"}]}]},"request":{"method":"PUT","url":"Location/fd5d4749-c781-4505-95a7-399fcb0c1455"}},{"fullUrl":"Location/a88dae19-6b4b-41b4-b18d-9eb40913d70a","resource":{"resourceType":"Location","id":"a88dae19-6b4b-41b4-b18d-9eb40913d70a","meta":{"profile":["http://hl7.org/fhir/us/qicore/StructureDefinition/qicore-location"]},"identifier":[{"use":"usual","system":"http://exampleoflocation.com","value":"B1-S.F2"}],"name":"Medical Surgical East, first floor","type":[{"coding":[{"system":"https://www.cdc.gov/nhsn/cdaportal/terminology/codesystem/hsloc.html","version":"2022","code":"1209-6","display":"Treatment Room","userSelected":true}]}]},"request":{"method":"PUT","url":"Location/a88dae19-6b4b-41b4-b18d-9eb40913d70a"}},{"fullUrl":"Encounter/38507851-55ec-4419-9bac-674f7d1f5cfd","resource":{"resourceType":"Encounter","id":"38507851-55ec-4419-9bac-674f7d1f5cfd","meta":{"profile":["http://hl7.org/fhir/us/qicore/StructureDefinition/qicore-encounter"]},"status":"finished","class":{"system":"http://terminology.hl7.org/CodeSystem/v3-ActCode","code":"EMER","display":"emergency"},"type":[{"coding":[{"system":"http://snomed.info/sct","version":"2023-09","code":"4525004","display":"Emergency department patient visit (procedure)","userSelected":true}]}],"subject":{"reference":"Patient/78cbc6ac-f30d-404b-b539-6b903c7cfeba"},"period":{"start":"2027-01-01T08:00:00.000+00:00","end":"2027-01-01T12:15:00.000+00:00"},"diagnosis":[{"condition":{"reference":"Condition/b4940a65-1591-418a-94a0-0b9398247a11"},"use":{"coding":[{"system":"http://terminology.hl7.org/CodeSystem/diagnosis-role","code":"billing"}]},"rank":1}],"location":[{"location":{"reference":"Location/e2825703-21d6-432c-81a4-629f7f13faf6"},"period":{"start":"2027-01-01T07:45:00.000+00:00","end":"2027-01-01T12:15:00.000+00:00"}},{"location":{"reference":"Location/a88dae19-6b4b-41b4-b18d-9eb40913d70a"},"period":{"start":"2027-01-01T09:01:00.000+00:00","end":"2027-01-01T12:15:00.000+00:00"}}]},"request":{"method":"PUT","url":"Encounter/38507851-55ec-4419-9bac-674f7d1f5cfd"}},{"fullUrl":"Patient/78cbc6ac-f30d-404b-b539-6b903c7cfeba","resource":{"resourceType":"Patient","id":"78cbc6ac-f30d-404b-b539-6b903c7cfeba","meta":{"profile":["http://hl7.org/fhir/us/qicore/StructureDefinition/qicore-patient"]},"extension":[{"url":"http://hl7.org/fhir/us/core/StructureDefinition/us-core-race","extension":[{"url":"ombCategory","valueCoding":{"system":"urn:oid:2.16.840.1.113883.6.238","code":"2076-8","display":"Native Hawaiian or Other Pacific Islander","userSelected":true}},{"url":"text","valueString":"Native Hawaiian or Other Pacific Islander"}]},{"url":"http://hl7.org/fhir/us/core/StructureDefinition/us-core-ethnicity","extension":[{"url":"ombCategory","valueCoding":{"system":"urn:oid:2.16.840.1.113883.6.238","code":"2186-5","display":"Not Hispanic or Latino","userSelected":true}},{"url":"text","valueString":"Not Hispanic or Latino"}]},{"url":"http://hl7.org/fhir/us/core/StructureDefinition/us-core-sex","valueCode":"248152002"}],"identifier":[{"type":{"coding":[{"system":"http://terminology.hl7.org/CodeSystem/v2-0203","code":"MR"}]},"system":"https://bonnie-fhir.healthit.gov/","value":"661579e3db207d74c03b8a54"}],"name":[{"family":"NUMERStrat4Pass","given":["TimeToTx61Min"]}],"gender":"female","birthDate":"2008-12-31"},"request":{"method":"PUT","url":"Patient/78cbc6ac-f30d-404b-b539-6b903c7cfeba"}},{"fullUrl":"Location/e2825703-21d6-432c-81a4-629f7f13faf6","resource":{"resourceType":"Location","id":"e2825703-21d6-432c-81a4-629f7f13faf6","meta":{"profile":["http://hl7.org/fhir/us/qicore/StructureDefinition/qicore-location"]},"identifier":[{"use":"usual","system":"http://exampleoflocation.com","value":"B1-S.F1"}],"name":"Medical Surgical East, first floor","type":[{"coding":[{"system":"https://www.cdc.gov/nhsn/cdaportal/terminology/codesystem/hsloc.html","version":"2022","code":"1108-0","display":"Emergency Department","userSelected":true}]}]},"request":{"method":"PUT","url":"Location/e2825703-21d6-432c-81a4-629f7f13faf6"}},{"fullUrl":"Organization/c1bcf5c8-c379-40ac-851d-512fe5873eb4","resource":{"resourceType":"Organization","id":"c1bcf5c8-c379-40ac-851d-512fe5873eb4","meta":{"profile":["http://hl7.org/fhir/us/qicore/StructureDefinition/qicore-organization"]},"identifier":[{"use":"temp","system":"urn:oid:2.16.840.1.113883.4.4","value":"21-3259825"}],"active":true,"type":[{"coding":[{"system":"http://terminology.hl7.org/CodeSystem/organization-type","code":"pay","display":"Payer"}]}],"name":"Blue Cross Blue Shield of Texas","telecom":[{"system":"phone","value":"(+1) 972-766-6900"}],"address":[{"use":"billing","type":"postal","line":["P.O. Box 660044"],"city":"Dallas","state":"TX","postalCode":"75266-0044","country":"USA"}]},"request":{"method":"PUT","url":"Organization/c1bcf5c8-c379-40ac-851d-512fe5873eb4"}},{"fullUrl":"Bundle/661579e3db207d74c03b8a54","resource":{"resourceType":"Bundle","id":"661579e3db207d74c03b8a54","type":"transaction","entry":[{"fullUrl":"https://madie.cms.gov/Patient/78cbc6ac-f30d-404b-b539-6b903c7cfeba","resource":{"resourceType":"Patient","id":"78cbc6ac-f30d-404b-b539-6b903c7cfeba","meta":{"profile":["http://hl7.org/fhir/us/qicore/StructureDefinition/qicore-patient"]},"extension":[{"url":"http://hl7.org/fhir/us/core/StructureDefinition/us-core-race","extension":[{"url":"ombCategory","valueCoding":{"system":"urn:oid:2.16.840.1.113883.6.238","code":"2076-8","display":"Native Hawaiian or Other Pacific Islander","userSelected":true}},{"url":"text","valueString":"Native Hawaiian or Other Pacific Islander"}]},{"url":"http://hl7.org/fhir/us/core/StructureDefinition/us-core-ethnicity","extension":[{"url":"ombCategory","valueCoding":{"system":"urn:oid:2.16.840.1.113883.6.238","code":"2186-5","display":"Not Hispanic or Latino","userSelected":true}},{"url":"text","valueString":"Not Hispanic or Latino"}]},{"url":"http://hl7.org/fhir/us/core/StructureDefinition/us-core-sex","valueCode":"248152002"}],"identifier":[{"type":{"coding":[{"system":"http://terminology.hl7.org/CodeSystem/v2-0203","code":"MR"}]},"system":"https://bonnie-fhir.healthit.gov/","value":"661579e3db207d74c03b8a54"}],"name":[{"family":"NUMERStrat4Pass","given":["TimeToTx61Min"]}],"gender":"female","birthDate":"2008-12-31"},"request":{"method":"PUT","url":"Patient/78cbc6ac-f30d-404b-b539-6b903c7cfeba"}},{"fullUrl":"https://madie.cms.gov/Encounter/38507851-55ec-4419-9bac-674f7d1f5cfd","resource":{"resourceType":"Encounter","id":"38507851-55ec-4419-9bac-674f7d1f5cfd","meta":{"profile":["http://hl7.org/fhir/us/qicore/StructureDefinition/qicore-encounter"]},"status":"finished","class":{"system":"http://terminology.hl7.org/CodeSystem/v3-ActCode","code":"EMER","display":"emergency"},"type":[{"coding":[{"system":"http://snomed.info/sct","version":"2023-09","code":"4525004","display":"Emergency department patient visit (procedure)","userSelected":true}]}],"subject":{"reference":"Patient/78cbc6ac-f30d-404b-b539-6b903c7cfeba"},"period":{"start":"2027-01-01T08:00:00.000+00:00","end":"2027-01-01T12:15:00.000+00:00"},"diagnosis":[{"condition":{"reference":"Condition/b4940a65-1591-418a-94a0-0b9398247a11"},"use":{"coding":[{"system":"http://terminology.hl7.org/CodeSystem/diagnosis-role","code":"billing"}]},"rank":1}],"location":[{"location":{"reference":"Location/e2825703-21d6-432c-81a4-629f7f13faf6"},"period":{"start":"2027-01-01T07:45:00.000+00:00","end":"2027-01-01T12:15:00.000+00:00"}},{"location":{"reference":"Location/a88dae19-6b4b-41b4-b18d-9eb40913d70a"},"period":{"start":"2027-01-01T09:01:00.000+00:00","end":"2027-01-01T12:15:00.000+00:00"}}]},"request":{"method":"PUT","url":"Encounter/38507851-55ec-4419-9bac-674f7d1f5cfd"}},{"fullUrl":"https://madie.cms.gov/Location/e2825703-21d6-432c-81a4-629f7f13faf6","resource":{"resourceType":"Location","id":"e2825703-21d6-432c-81a4-629f7f13faf6","meta":{"profile":["http://hl7.org/fhir/us/qicore/StructureDefinition/qicore-location"]},"identifier":[{"use":"usual","system":"http://exampleoflocation.com","value":"B1-S.F1"}],"name":"Medical Surgical East, first floor","type":[{"coding":[{"system":"https://www.cdc.gov/nhsn/cdaportal/terminology/codesystem/hsloc.html","version":"2022","code":"1108-0","display":"Emergency Department","userSelected":true}]}]},"request":{"method":"PUT","url":"Location/e2825703-21d6-432c-81a4-629f7f13faf6"}},{"fullUrl":"https://madie.cms.gov/Location/a88dae19-6b4b-41b4-b18d-9eb40913d70a","resource":{"resourceType":"Location","id":"a88dae19-6b4b-41b4-b18d-9eb40913d70a","meta":{"profile":["http://hl7.org/fhir/us/qicore/StructureDefinition/qicore-location"]},"identifier":[{"use":"usual","system":"http://exampleoflocation.com","value":"B1-S.F2"}],"name":"Medical Surgical East, first floor","type":[{"coding":[{"system":"https://www.cdc.gov/nhsn/cdaportal/terminology/codesystem/hsloc.html","version":"2022","code":"1209-6","display":"Treatment Room","userSelected":true}]}]},"request":{"method":"PUT","url":"Location/a88dae19-6b4b-41b4-b18d-9eb40913d70a"}},{"fullUrl":"https://madie.cms.gov/Condition/b4940a65-1591-418a-94a0-0b9398247a11","resource":{"resourceType":"Condition","id":"b4940a65-1591-418a-94a0-0b9398247a11","meta":{"profile":["http://hl7.org/fhir/us/qicore/StructureDefinition/qicore-condition-encounter-diagnosis"]},"category":[{"coding":[{"system":"http://terminology.hl7.org/CodeSystem/condition-category","code":"encounter-diagnosis","display":"Encounter Diagnosis"}]}],"code":{"coding":[{"system":"http://snomed.info/sct","version":"2023-09","code":"10349009","display":"Multi-infarct dementia with delirium (disorder)","userSelected":true}]},"subject":{"reference":"Patient/78cbc6ac-f30d-404b-b539-6b903c7cfeba"},"recordedDate":"2027-04-09T08:00:00.000+00:00"},"request":{"method":"PUT","url":"Condition/b4940a65-1591-418a-94a0-0b9398247a11"}},{"fullUrl":"https://madie.cms.gov/Location/1929f690-c26d-49f5-a77a-af663a3e20c8","resource":{"resourceType":"Location","id":"1929f690-c26d-49f5-a77a-af663a3e20c8","meta":{"profile":["http://hl7.org/fhir/us/qicore/StructureDefinition/qicore-location"]},"identifier":[{"use":"usual","system":"http://exampleoflocation.com","value":"B1-S.F2"}],"name":"Medical Surgical East, first floor","type":[{"coding":[{"system":"https://www.cdc.gov/nhsn/cdaportal/terminology/codesystem/hsloc.html","version":"2022","code":"1108-0","display":"Emergency Department","userSelected":true}]}]},"request":{"method":"PUT","url":"Location/1929f690-c26d-49f5-a77a-af663a3e20c8"}},{"fullUrl":"https://madie.cms.gov/Location/fd5d4749-c781-4505-95a7-399fcb0c1455","resource":{"resourceType":"Location","id":"fd5d4749-c781-4505-95a7-399fcb0c1455","meta":{"profile":["http://hl7.org/fhir/us/qicore/StructureDefinition/qicore-location"]},"identifier":[{"use":"usual","system":"http://exampleoflocation.com","value":"B1-S.F2"}],"name":"Medical Surgical East, first floor","type":[{"coding":[{"system":"https://www.cdc.gov/nhsn/cdaportal/terminology/codesystem/hsloc.html","version":"2022","code":"1209-6","display":"Treatment Room"}]}]},"request":{"method":"PUT","url":"Location/fd5d4749-c781-4505-95a7-399fcb0c1455"}},{"fullUrl":"https://madie.cms.gov/claim/ClaimBehavior-NotSubsAbuse","resource":{"resourceType":"Claim","id":"ClaimBehavior-NotSubsAbuse","meta":{"profile":["http://hl7.org/fhir/us/qicore/StructureDefinition/qicore-claim"]},"status":"active","type":{"coding":[{"system":"http://terminology.hl7.org/CodeSystem/claim-type","code":"institutional"}]},"use":"claim","patient":{"reference":"Patient/78cbc6ac-f30d-404b-b539-6b903c7cfeba"},"created":"2027-01-01","provider":{"reference":"Practitioner/8f8bcffe-8bc9-4291-82bb-6c693df7ef1c"},"priority":{"coding":[{"system":"http://terminology.hl7.org/CodeSystem/processpriority","code":"normal"}]},"diagnosis":[{"sequence":1,"diagnosisReference":{"reference":"Condition/b4940a65-1591-418a-94a0-0b9398247a11"},"type":[{"coding":[{"system":"http://terminology.hl7.org/CodeSystem/ex-diagnosistype","code":"principal"}]}]}],"insurance":[{"sequence":1,"focal":true,"coverage":{"reference":"Coverage/f289edf3-fcff-47d5-8d59-63dea8b728d8"}}],"item":[{"sequence":1,"diagnosisSequence":[1],"productOrService":{"coding":[{"system":"http://terminology.hl7.org/CodeSystem/ex-USCLS","code":"99555"}]},"encounter":[{"reference":"Encounter/38507851-55ec-4419-9bac-674f7d1f5cfd"}]}]},"request":{"method":"PUT","url":"Claim/ClaimBehavior-NotSubsAbuse"}},{"fullUrl":"https://madie.cms.gov/Coverage/f289edf3-fcff-47d5-8d59-63dea8b728d8","resource":{"resourceType":"Coverage","id":"f289edf3-fcff-47d5-8d59-63dea8b728d8","meta":{"profile":["http://hl7.org/fhir/us/qicore/StructureDefinition/qicore-coverage"]},"identifier":[{"type":{"coding":[{"system":"http://terminology.hl7.org/CodeSystem/v2-0203","code":"MB"}]}}],"status":"active","beneficiary":{"reference":"Patient/78cbc6ac-f30d-404b-b539-6b903c7cfeba"},"relationship":{"coding":[{"system":"http://terminology.hl7.org/CodeSystem/subscriber-relationship","code":"self"}]},"payor":[{"reference":"Organization/c1bcf5c8-c379-40ac-851d-512fe5873eb4"}]},"request":{"method":"PUT","url":"Coverage/f289edf3-fcff-47d5-8d59-63dea8b728d8"}},{"fullUrl":"https://madie.cms.gov/Organization/c1bcf5c8-c379-40ac-851d-512fe5873eb4","resource":{"resourceType":"Organization","id":"c1bcf5c8-c379-40ac-851d-512fe5873eb4","meta":{"profile":["http://hl7.org/fhir/us/qicore/StructureDefinition/qicore-organization"]},"identifier":[{"use":"temp","system":"urn:oid:2.16.840.1.113883.4.4","value":"21-3259825"}],"active":true,"type":[{"coding":[{"system":"http://terminology.hl7.org/CodeSystem/organization-type","code":"pay","display":"Payer"}]}],"name":"Blue Cross Blue Shield of Texas","telecom":[{"system":"phone","value":"(+1) 972-766-6900"}],"address":[{"use":"billing","type":"postal","line":["P.O. Box 660044"],"city":"Dallas","state":"TX","postalCode":"75266-0044","country":"USA"}]},"request":{"method":"PUT","url":"Organization/c1bcf5c8-c379-40ac-851d-512fe5873eb4"}},{"fullUrl":"https://madie.cms.gov/Practitioner/8f8bcffe-8bc9-4291-82bb-6c693df7ef1c","resource":{"resourceType":"Practitioner","id":"8f8bcffe-8bc9-4291-82bb-6c693df7ef1c","meta":{"profile":["http://hl7.org/fhir/us/qicore/StructureDefinition/qicore-practitioner"]},"identifier":[{"system":"http://hl7.org/fhir/sid/us-npi","value":"9999999896"}],"name":[{"family":"Evil","prefix":["Dr"]}]},"request":{"method":"PUT","url":"Practitioner/8f8bcffe-8bc9-4291-82bb-6c693df7ef1c"}},{"fullUrl":"https://madie.cms.gov/MeasureReport/d7aee0c7-edd4-44f1-ab57-83af5a3e87c7","resource":{"resourceType":"MeasureReport","id":"d7aee0c7-edd4-44f1-ab57-83af5a3e87c7","meta":{"profile":["http://hl7.org/fhir/us/cqfmeasures/StructureDefinition/test-case-cqfm"]},"contained":[{"resourceType":"Parameters","id":"7aa4aa51-75f7-42e9-95fa-5670da13897a-parameters","parameter":[{"name":"subject","valueString":"78cbc6ac-f30d-404b-b539-6b903c7cfeba"}]}],"extension":[{"url":"http://hl7.org/fhir/StructureDefinition/cqf-inputParameters","valueReference":{"reference":"#7aa4aa51-75f7-42e9-95fa-5670da13897a-parameters"}},{"url":"http://hl7.org/fhir/us/cqfmeasures/StructureDefinition/cqfm-testCaseDescription","valueMarkdown":"Adult, age 18 Encounter  first day of MP, time to treatment 61 minutes has mental illness"}],"modifierExtension":[{"url":"http://hl7.org/fhir/us/cqfmeasures/StructureDefinition/cqfm-isTestCase","valueBoolean":true}],"status":"complete","type":"individual","measure":"https://madie.cms.gov/Measure/CMS1244FHIRECATHOQR","period":{"start":"2027-01-01","end":"2027-12-31"},"group":[{"id":"Group_1","population":[{"id":"InitialPopulation_1","code":{"coding":[{"system":"http://terminology.hl7.org/CodeSystem/measure-population","code":"initial-population","display":"Initial Population"}]},"count":1},{"id":"Denominator_1","code":{"coding":[{"system":"http://terminology.hl7.org/CodeSystem/measure-population","code":"denominator","display":"Denominator"}]},"count":1},{"id":"Numerator_1","code":{"coding":[{"system":"http://terminology.hl7.org/CodeSystem/measure-population","code":"numerator","display":"Numerator"}]},"count":1}],"measureScore":{"value":0.0},"stratifier":[{"id":"Stratification_1_1","code":[{"text":"Strata-1"}],"stratum":[{"value":{"text":"Strata-1"},"population":[{"id":"InitialPopulation_1","code":{"coding":[{"system":"http://terminology.hl7.org/CodeSystem/measure-population","code":"initial-population","display":"Initial Population"}]},"count":0},{"id":"Denominator_1","code":{"coding":[{"system":"http://terminology.hl7.org/CodeSystem/measure-population","code":"denominator","display":"Denominator"}]},"count":0},{"id":"Numerator_1","code":{"coding":[{"system":"http://terminology.hl7.org/CodeSystem/measure-population","code":"numerator","display":"Numerator"}]},"count":0}]}]},{"id":"Stratification_1_2","code":[{"text":"Strata-2"}],"stratum":[{"value":{"text":"Strata-2"},"population":[{"id":"InitialPopulation_1","code":{"coding":[{"system":"http://terminology.hl7.org/CodeSystem/measure-population","code":"initial-population","display":"Initial Population"}]},"count":0},{"id":"Denominator_1","code":{"coding":[{"system":"http://terminology.hl7.org/CodeSystem/measure-population","code":"denominator","display":"Denominator"}]},"count":0},{"id":"Numerator_1","code":{"coding":[{"system":"http://terminology.hl7.org/CodeSystem/measure-population","code":"numerator","display":"Numerator"}]},"count":0}]}]},{"id":"Stratification_1_3","code":[{"text":"Strata-3"}],"stratum":[{"value":{"text":"Strata-3"},"population":[{"id":"InitialPopulation_1","code":{"coding":[{"system":"http://terminology.hl7.org/CodeSystem/measure-population","code":"initial-population","display":"Initial Population"}]},"count":0},{"id":"Denominator_1","code":{"coding":[{"system":"http://terminology.hl7.org/CodeSystem/measure-population","code":"denominator","display":"Denominator"}]},"count":0},{"id":"Numerator_1","code":{"coding":[{"system":"http://terminology.hl7.org/CodeSystem/measure-population","code":"numerator","display":"Numerator"}]},"count":0}]}]},{"id":"Stratification_1_4","code":[{"text":"Strata-4"}],"stratum":[{"value":{"text":"Strata-4"},"population":[{"id":"InitialPopulation_1","code":{"coding":[{"system":"http://terminology.hl7.org/CodeSystem/measure-population","code":"initial-population","display":"Initial Population"}]},"count":1},{"id":"Denominator_1","code":{"coding":[{"system":"http://terminology.hl7.org/CodeSystem/measure-population","code":"denominator","display":"Denominator"}]},"count":1},{"id":"Numerator_1","code":{"coding":[{"system":"http://terminology.hl7.org/CodeSystem/measure-population","code":"numerator","display":"Numerator"}]},"count":1}]}]}]}],"evaluatedResource":[{"reference":"Patient/78cbc6ac-f30d-404b-b539-6b903c7cfeba"},{"reference":"Encounter/38507851-55ec-4419-9bac-674f7d1f5cfd"},{"reference":"Location/e2825703-21d6-432c-81a4-629f7f13faf6"},{"reference":"Location/a88dae19-6b4b-41b4-b18d-9eb40913d70a"},{"reference":"Condition/b4940a65-1591-418a-94a0-0b9398247a11"},{"reference":"Location/1929f690-c26d-49f5-a77a-af663a3e20c8"},{"reference":"Location/fd5d4749-c781-4505-95a7-399fcb0c1455"},{"reference":"Claim/ClaimBehavior-NotSubsAbuse"},{"reference":"Coverage/f289edf3-fcff-47d5-8d59-63dea8b728d8"},{"reference":"Organization/c1bcf5c8-c379-40ac-851d-512fe5873eb4"},{"reference":"Practitioner/8f8bcffe-8bc9-4291-82bb-6c693df7ef1c"}]},"request":{"method":"PUT","url":"MeasureReport/d7aee0c7-edd4-44f1-ab57-83af5a3e87c7"}}]},"request":{"method":"PUT","url":"Bundle/661579e3db207d74c03b8a54"}},{"fullUrl":"Condition/b4940a65-1591-418a-94a0-0b9398247a11","resource":{"resourceType":"Condition","id":"b4940a65-1591-418a-94a0-0b9398247a11","meta":{"profile":["http://hl7.org/fhir/us/qicore/StructureDefinition/qicore-condition-encounter-diagnosis"]},"category":[{"coding":[{"system":"http://terminology.hl7.org/CodeSystem/condition-category","code":"encounter-diagnosis","display":"Encounter Diagnosis"}]}],"code":{"coding":[{"system":"http://snomed.info/sct","version":"2023-09","code":"10349009","display":"Multi-infarct dementia with delirium (disorder)","userSelected":true}]},"subject":{"reference":"Patient/78cbc6ac-f30d-404b-b539-6b903c7cfeba"},"recordedDate":"2027-04-09T08:00:00.000+00:00"},"request":{"method":"PUT","url":"Condition/b4940a65-1591-418a-94a0-0b9398247a11"}},{"fullUrl":"Claim/ClaimBehavior-NotSubsAbuse","resource":{"resourceType":"Claim","id":"ClaimBehavior-NotSubsAbuse","meta":{"profile":["http://hl7.org/fhir/us/qicore/StructureDefinition/qicore-claim"]},"status":"active","type":{"coding":[{"system":"http://terminology.hl7.org/CodeSystem/claim-type","code":"institutional"}]},"use":"claim","patient":{"reference":"Patient/78cbc6ac-f30d-404b-b539-6b903c7cfeba"},"created":"2027-01-01","provider":{"reference":"Practitioner/8f8bcffe-8bc9-4291-82bb-6c693df7ef1c"},"priority":{"coding":[{"system":"http://terminology.hl7.org/CodeSystem/processpriority","code":"normal"}]},"diagnosis":[{"sequence":1,"diagnosisReference":{"reference":"Condition/b4940a65-1591-418a-94a0-0b9398247a11"},"type":[{"coding":[{"system":"http://terminology.hl7.org/CodeSystem/ex-diagnosistype","code":"principal"}]}]}],"insurance":[{"sequence":1,"focal":true,"coverage":{"reference":"Coverage/f289edf3-fcff-47d5-8d59-63dea8b728d8"}}],"item":[{"sequence":1,"diagnosisSequence":[1],"productOrService":{"coding":[{"system":"http://terminology.hl7.org/CodeSystem/ex-USCLS","code":"99555"}]},"encounter":[{"reference":"Encounter/38507851-55ec-4419-9bac-674f7d1f5cfd"}]}]},"request":{"method":"PUT","url":"Claim/ClaimBehavior-NotSubsAbuse"}},{"fullUrl":"Practitioner/8f8bcffe-8bc9-4291-82bb-6c693df7ef1c","resource":{"resourceType":"Practitioner","id":"8f8bcffe-8bc9-4291-82bb-6c693df7ef1c","meta":{"profile":["http://hl7.org/fhir/us/qicore/StructureDefinition/qicore-practitioner"]},"identifier":[{"system":"http://hl7.org/fhir/sid/us-npi","value":"9999999896"}],"name":[{"family":"Evil","prefix":["Dr"]}]},"request":{"method":"PUT","url":"Practitioner/8f8bcffe-8bc9-4291-82bb-6c693df7ef1c"}}]}