{"resourceType":"Bundle","id":"tests-cc01e29c-7ebb-4876-b63a-29de550c62f9-bundle","type":"transaction","entry":[{"resource":{"resourceType":"Organization","id":"fd7a32f6-24ae-432f-b7e3-15ffd440b9b8","meta":{"profile":["http://hl7.org/fhir/us/qicore/StructureDefinition/qicore-organization"]},"identifier":[{"use":"temp","system":"urn:oid:2.16.840.1.113883.4.4","value":"21-3259825"}],"active":true,"type":[{"coding":[{"system":"http://terminology.hl7.org/CodeSystem/organization-type","code":"pay","display":"Payer"}]}],"name":"Blue Cross Blue Shield of Texas","telecom":[{"system":"phone","value":"(+1) 972-766-6900"}],"address":[{"use":"billing","type":"postal","line":["P.O. Box 660044"],"city":"Dallas","state":"TX","postalCode":"75266-0044","country":"USA"}]},"request":{"method":"PUT","url":"Organization/fd7a32f6-24ae-432f-b7e3-15ffd440b9b8"}},{"resource":{"resourceType":"Patient","id":"cc01e29c-7ebb-4876-b63a-29de550c62f9","meta":{"profile":["http://hl7.org/fhir/us/qicore/StructureDefinition/qicore-patient"]},"extension":[{"url":"http://hl7.org/fhir/us/core/StructureDefinition/us-core-race","extension":[{"url":"ombCategory","valueCoding":{"system":"urn:oid:2.16.840.1.113883.6.238","code":"1002-5","display":"American Indian or Alaska Native","userSelected":true}},{"url":"text","valueString":"American Indian or Alaska Native"}]},{"url":"http://hl7.org/fhir/us/core/StructureDefinition/us-core-ethnicity","extension":[{"url":"ombCategory","valueCoding":{"system":"urn:oid:2.16.840.1.113883.6.238","code":"2135-2","display":"Hispanic or Latino","userSelected":true}},{"url":"text","valueString":"Hispanic or Latino"}]},{"url":"http://hl7.org/fhir/us/core/StructureDefinition/us-core-sex","valueCode":"248153007"}],"identifier":[{"type":{"coding":[{"system":"http://terminology.hl7.org/CodeSystem/v2-0203","code":"MR"}]},"system":"https://bonnie-fhir.healthit.gov/","value":"661476b015ed5841a5547ebf"}],"name":[{"family":"NUMERStrat3Pass","given":["EDLOS481MinutesLastDayMP"]}],"gender":"male","birthDate":"2011-01-01"},"request":{"method":"PUT","url":"Patient/cc01e29c-7ebb-4876-b63a-29de550c62f9"}},{"resource":{"resourceType":"MeasureReport","id":"1bfe2aa3-4b2c-4dc1-bd75-2fd84b9524c0","meta":{"profile":["http://hl7.org/fhir/us/cqfmeasures/StructureDefinition/test-case-cqfm"]},"contained":[{"resourceType":"Parameters","id":"a207f7b6-dc35-459e-b13e-624cd9e20af1-parameters","parameter":[{"name":"subject","valueString":"cc01e29c-7ebb-4876-b63a-29de550c62f9"}]}],"extension":[{"url":"http://hl7.org/fhir/StructureDefinition/cqf-inputParameters","valueReference":{"reference":"#a207f7b6-dc35-459e-b13e-624cd9e20af1-parameters"}},{"url":"http://hl7.org/fhir/us/cqfmeasures/StructureDefinition/cqfm-testCaseDescription","valueMarkdown":"Child, age 17, ED enc, last day MP, LOS 481 minutes. pt. mental health dx"}],"modifierExtension":[{"url":"http://hl7.org/fhir/us/cqfmeasures/StructureDefinition/cqfm-isTestCase","valueBoolean":true}],"status":"complete","type":"individual","measure":"https://madie.cms.gov/Measure/CMS1244FHIRECATHOQR","period":{"start":"2027-01-01","end":"2027-12-31"},"group":[{"id":"Group_1","population":[{"id":"InitialPopulation_1","code":{"coding":[{"system":"http://terminology.hl7.org/CodeSystem/measure-population","code":"initial-population","display":"Initial Population"}]},"count":1},{"id":"Denominator_1","code":{"coding":[{"system":"http://terminology.hl7.org/CodeSystem/measure-population","code":"denominator","display":"Denominator"}]},"count":1},{"id":"Numerator_1","code":{"coding":[{"system":"http://terminology.hl7.org/CodeSystem/measure-population","code":"numerator","display":"Numerator"}]},"count":1}],"measureScore":{"value":0.0},"stratifier":[{"id":"Stratification_1_1","code":[{"text":"Strata-1"}],"stratum":[{"value":{"text":"Strata-1"},"population":[{"id":"InitialPopulation_1","code":{"coding":[{"system":"http://terminology.hl7.org/CodeSystem/measure-population","code":"initial-population","display":"Initial Population"}]},"count":0},{"id":"Denominator_1","code":{"coding":[{"system":"http://terminology.hl7.org/CodeSystem/measure-population","code":"denominator","display":"Denominator"}]},"count":0},{"id":"Numerator_1","code":{"coding":[{"system":"http://terminology.hl7.org/CodeSystem/measure-population","code":"numerator","display":"Numerator"}]},"count":0}]}]},{"id":"Stratification_1_2","code":[{"text":"Strata-2"}],"stratum":[{"value":{"text":"Strata-2"},"population":[{"id":"InitialPopulation_1","code":{"coding":[{"system":"http://terminology.hl7.org/CodeSystem/measure-population","code":"initial-population","display":"Initial Population"}]},"count":0},{"id":"Denominator_1","code":{"coding":[{"system":"http://terminology.hl7.org/CodeSystem/measure-population","code":"denominator","display":"Denominator"}]},"count":0},{"id":"Numerator_1","code":{"coding":[{"system":"http://terminology.hl7.org/CodeSystem/measure-population","code":"numerator","display":"Numerator"}]},"count":0}]}]},{"id":"Stratification_1_3","code":[{"text":"Strata-3"}],"stratum":[{"value":{"text":"Strata-3"},"population":[{"id":"InitialPopulation_1","code":{"coding":[{"system":"http://terminology.hl7.org/CodeSystem/measure-population","code":"initial-population","display":"Initial Population"}]},"count":1},{"id":"Denominator_1","code":{"coding":[{"system":"http://terminology.hl7.org/CodeSystem/measure-population","code":"denominator","display":"Denominator"}]},"count":1},{"id":"Numerator_1","code":{"coding":[{"system":"http://terminology.hl7.org/CodeSystem/measure-population","code":"numerator","display":"Numerator"}]},"count":1}]}]},{"id":"Stratification_1_4","code":[{"text":"Strata-4"}],"stratum":[{"value":{"text":"Strata-4"},"population":[{"id":"InitialPopulation_1","code":{"coding":[{"system":"http://terminology.hl7.org/CodeSystem/measure-population","code":"initial-population","display":"Initial Population"}]},"count":0},{"id":"Denominator_1","code":{"coding":[{"system":"http://terminology.hl7.org/CodeSystem/measure-population","code":"denominator","display":"Denominator"}]},"count":0},{"id":"Numerator_1","code":{"coding":[{"system":"http://terminology.hl7.org/CodeSystem/measure-population","code":"numerator","display":"Numerator"}]},"count":0}]}]}]}],"evaluatedResource":[{"reference":"Patient/cc01e29c-7ebb-4876-b63a-29de550c62f9"},{"reference":"Encounter/7aed3abd-0688-418f-9f70-40ac4926f332"},{"reference":"Location/0bc2a0ff-5323-4414-a2af-a255713233a5"},{"reference":"Condition/3c26cba9-90cd-401e-af53-49e2df15b9aa"},{"reference":"Claim/ClaimBehavior-NotSubsAbuse"},{"reference":"Coverage/a74b69a5-b207-42d0-a2f2-8683083ed226"},{"reference":"Organization/fd7a32f6-24ae-432f-b7e3-15ffd440b9b8"},{"reference":"Practitioner/e4666f89-1af6-4aff-a019-804f7dd2e5ee"}]},"request":{"method":"PUT","url":"MeasureReport/1bfe2aa3-4b2c-4dc1-bd75-2fd84b9524c0"}},{"resource":{"resourceType":"Coverage","id":"a74b69a5-b207-42d0-a2f2-8683083ed226","meta":{"profile":["http://hl7.org/fhir/us/qicore/StructureDefinition/qicore-coverage"]},"identifier":[{"type":{"coding":[{"system":"http://terminology.hl7.org/CodeSystem/v2-0203","code":"MB"}]}}],"status":"active","beneficiary":{"reference":"Patient/cc01e29c-7ebb-4876-b63a-29de550c62f9"},"relationship":{"coding":[{"system":"http://terminology.hl7.org/CodeSystem/subscriber-relationship","code":"self"}]},"payor":[{"reference":"Organization/fd7a32f6-24ae-432f-b7e3-15ffd440b9b8"}]},"request":{"method":"PUT","url":"Coverage/a74b69a5-b207-42d0-a2f2-8683083ed226"}},{"resource":{"resourceType":"Condition","id":"3c26cba9-90cd-401e-af53-49e2df15b9aa","meta":{"profile":["http://hl7.org/fhir/us/qicore/StructureDefinition/qicore-condition-encounter-diagnosis"]},"category":[{"coding":[{"system":"http://terminology.hl7.org/CodeSystem/condition-category","code":"encounter-diagnosis","display":"Encounter Diagnosis"}]}],"code":{"coding":[{"system":"http://snomed.info/sct","version":"2023-09","code":"10349009","display":"Multi-infarct dementia with delirium (disorder)","userSelected":true}]},"subject":{"reference":"Patient/cc01e29c-7ebb-4876-b63a-29de550c62f9"},"recordedDate":"2027-04-09T08:00:00.000+00:00"},"request":{"method":"PUT","url":"Condition/3c26cba9-90cd-401e-af53-49e2df15b9aa"}},{"resource":{"resourceType":"Encounter","id":"7aed3abd-0688-418f-9f70-40ac4926f332","meta":{"profile":["http://hl7.org/fhir/us/qicore/StructureDefinition/qicore-encounter"]},"status":"finished","class":{"system":"http://terminology.hl7.org/CodeSystem/v3-ActCode","code":"EMER","display":"emergency department"},"type":[{"coding":[{"system":"http://snomed.info/sct","version":"2023-09","code":"4525004","display":"Emergency department patient visit (procedure)","userSelected":true}]}],"subject":{"reference":"Patient/cc01e29c-7ebb-4876-b63a-29de550c62f9"},"period":{"start":"2027-05-01T06:00:00.000+00:00","end":"2027-05-01T14:01:00.000+00:00"},"diagnosis":[{"condition":{"reference":"Condition/3c26cba9-90cd-401e-af53-49e2df15b9aa"},"use":{"coding":[{"system":"http://terminology.hl7.org/CodeSystem/diagnosis-role","code":"billing"}]},"rank":1}],"location":[{"location":{"reference":"Location/0bc2a0ff-5323-4414-a2af-a255713233a5"},"period":{"start":"2027-05-01T06:00:00.000+00:00","end":"2027-05-01T14:01:00.000+00:00"}}]},"request":{"method":"PUT","url":"Encounter/7aed3abd-0688-418f-9f70-40ac4926f332"}},{"resource":{"resourceType":"Claim","id":"ClaimBehavior-NotSubsAbuse","meta":{"profile":["http://hl7.org/fhir/us/qicore/StructureDefinition/qicore-claim"]},"status":"active","type":{"coding":[{"system":"http://terminology.hl7.org/CodeSystem/claim-type","code":"institutional"}]},"use":"claim","patient":{"reference":"Patient/cc01e29c-7ebb-4876-b63a-29de550c62f9"},"created":"2027-05-01","provider":{"reference":"Practitioner/e4666f89-1af6-4aff-a019-804f7dd2e5ee"},"priority":{"coding":[{"system":"http://terminology.hl7.org/CodeSystem/processpriority","code":"normal"}]},"diagnosis":[{"sequence":1,"diagnosisReference":{"reference":"Condition/3c26cba9-90cd-401e-af53-49e2df15b9aa"},"type":[{"coding":[{"system":"http://terminology.hl7.org/CodeSystem/ex-diagnosistype","code":"principal"}]}]}],"insurance":[{"sequence":1,"focal":true,"coverage":{"reference":"Coverage/a74b69a5-b207-42d0-a2f2-8683083ed226"}}],"item":[{"sequence":1,"diagnosisSequence":[1],"productOrService":{"coding":[{"system":"http://terminology.hl7.org/CodeSystem/ex-USCLS","code":"99555"}]},"encounter":[{"reference":"Encounter/7aed3abd-0688-418f-9f70-40ac4926f332"}]}]},"request":{"method":"PUT","url":"Claim/ClaimBehavior-NotSubsAbuse"}},{"resource":{"resourceType":"Location","id":"0bc2a0ff-5323-4414-a2af-a255713233a5","meta":{"profile":["http://hl7.org/fhir/us/qicore/StructureDefinition/qicore-location"]},"identifier":[{"use":"usual","system":"http://exampleoflocation.com","value":"B1-S.F2"}],"name":"Medical Surgical East, first floor","type":[{"coding":[{"system":"https://www.cdc.gov/nhsn/cdaportal/terminology/codesystem/hsloc.html","version":"2022","code":"1108-0","display":"Emergency Department","userSelected":true}]}]},"request":{"method":"PUT","url":"Location/0bc2a0ff-5323-4414-a2af-a255713233a5"}},{"resource":{"resourceType":"Practitioner","id":"e4666f89-1af6-4aff-a019-804f7dd2e5ee","meta":{"profile":["http://hl7.org/fhir/us/qicore/StructureDefinition/qicore-practitioner"]},"identifier":[{"system":"http://hl7.org/fhir/sid/us-npi","value":"9999999896"}],"name":[{"family":"Evil","prefix":["Dr"]}]},"request":{"method":"PUT","url":"Practitioner/e4666f89-1af6-4aff-a019-804f7dd2e5ee"}},{"resource":{"resourceType":"Bundle","id":"661476b015ed5841a5547ebf","type":"transaction","entry":[{"fullUrl":"https://madie.cms.gov/Patient/cc01e29c-7ebb-4876-b63a-29de550c62f9","resource":{"resourceType":"Patient","id":"cc01e29c-7ebb-4876-b63a-29de550c62f9","meta":{"profile":["http://hl7.org/fhir/us/qicore/StructureDefinition/qicore-patient"]},"extension":[{"url":"http://hl7.org/fhir/us/core/StructureDefinition/us-core-race","extension":[{"url":"ombCategory","valueCoding":{"system":"urn:oid:2.16.840.1.113883.6.238","code":"1002-5","display":"American Indian or Alaska Native","userSelected":true}},{"url":"text","valueString":"American Indian or Alaska Native"}]},{"url":"http://hl7.org/fhir/us/core/StructureDefinition/us-core-ethnicity","extension":[{"url":"ombCategory","valueCoding":{"system":"urn:oid:2.16.840.1.113883.6.238","code":"2135-2","display":"Hispanic or Latino","userSelected":true}},{"url":"text","valueString":"Hispanic or Latino"}]},{"url":"http://hl7.org/fhir/us/core/StructureDefinition/us-core-sex","valueCode":"248153007"}],"identifier":[{"type":{"coding":[{"system":"http://terminology.hl7.org/CodeSystem/v2-0203","code":"MR"}]},"system":"https://bonnie-fhir.healthit.gov/","value":"661476b015ed5841a5547ebf"}],"name":[{"family":"NUMERStrat3Pass","given":["EDLOS481MinutesLastDayMP"]}],"gender":"male","birthDate":"2011-01-01"},"request":{"method":"PUT","url":"Patient/cc01e29c-7ebb-4876-b63a-29de550c62f9"}},{"fullUrl":"https://madie.cms.gov/Encounter/7aed3abd-0688-418f-9f70-40ac4926f332","resource":{"resourceType":"Encounter","id":"7aed3abd-0688-418f-9f70-40ac4926f332","meta":{"profile":["http://hl7.org/fhir/us/qicore/StructureDefinition/qicore-encounter"]},"status":"finished","class":{"system":"http://terminology.hl7.org/CodeSystem/v3-ActCode","code":"EMER","display":"emergency department"},"type":[{"coding":[{"system":"http://snomed.info/sct","version":"2023-09","code":"4525004","display":"Emergency department patient visit (procedure)","userSelected":true}]}],"subject":{"reference":"Patient/cc01e29c-7ebb-4876-b63a-29de550c62f9"},"period":{"start":"2027-05-01T06:00:00.000+00:00","end":"2027-05-01T14:01:00.000+00:00"},"diagnosis":[{"condition":{"reference":"Condition/3c26cba9-90cd-401e-af53-49e2df15b9aa"},"use":{"coding":[{"system":"http://terminology.hl7.org/CodeSystem/diagnosis-role","code":"billing"}]},"rank":1}],"location":[{"location":{"reference":"Location/0bc2a0ff-5323-4414-a2af-a255713233a5"},"period":{"start":"2027-05-01T06:00:00.000+00:00","end":"2027-05-01T14:01:00.000+00:00"}}]},"request":{"method":"PUT","url":"Encounter/7aed3abd-0688-418f-9f70-40ac4926f332"}},{"fullUrl":"https://madie.cms.gov/Location/0bc2a0ff-5323-4414-a2af-a255713233a5","resource":{"resourceType":"Location","id":"0bc2a0ff-5323-4414-a2af-a255713233a5","meta":{"profile":["http://hl7.org/fhir/us/qicore/StructureDefinition/qicore-location"]},"identifier":[{"use":"usual","system":"http://exampleoflocation.com","value":"B1-S.F2"}],"name":"Medical Surgical East, first floor","type":[{"coding":[{"system":"https://www.cdc.gov/nhsn/cdaportal/terminology/codesystem/hsloc.html","version":"2022","code":"1108-0","display":"Emergency Department","userSelected":true}]}]},"request":{"method":"PUT","url":"Location/0bc2a0ff-5323-4414-a2af-a255713233a5"}},{"fullUrl":"https://madie.cms.gov/Condition/3c26cba9-90cd-401e-af53-49e2df15b9aa","resource":{"resourceType":"Condition","id":"3c26cba9-90cd-401e-af53-49e2df15b9aa","meta":{"profile":["http://hl7.org/fhir/us/qicore/StructureDefinition/qicore-condition-encounter-diagnosis"]},"category":[{"coding":[{"system":"http://terminology.hl7.org/CodeSystem/condition-category","code":"encounter-diagnosis","display":"Encounter Diagnosis"}]}],"code":{"coding":[{"system":"http://snomed.info/sct","version":"2023-09","code":"10349009","display":"Multi-infarct dementia with delirium (disorder)","userSelected":true}]},"subject":{"reference":"Patient/cc01e29c-7ebb-4876-b63a-29de550c62f9"},"recordedDate":"2027-04-09T08:00:00.000+00:00"},"request":{"method":"PUT","url":"Condition/3c26cba9-90cd-401e-af53-49e2df15b9aa"}},{"fullUrl":"https://madie.cms.gov/claim/ClaimBehavior-NotSubsAbuse","resource":{"resourceType":"Claim","id":"ClaimBehavior-NotSubsAbuse","meta":{"profile":["http://hl7.org/fhir/us/qicore/StructureDefinition/qicore-claim"]},"status":"active","type":{"coding":[{"system":"http://terminology.hl7.org/CodeSystem/claim-type","code":"institutional"}]},"use":"claim","patient":{"reference":"Patient/cc01e29c-7ebb-4876-b63a-29de550c62f9"},"created":"2027-05-01","provider":{"reference":"Practitioner/e4666f89-1af6-4aff-a019-804f7dd2e5ee"},"priority":{"coding":[{"system":"http://terminology.hl7.org/CodeSystem/processpriority","code":"normal"}]},"diagnosis":[{"sequence":1,"diagnosisReference":{"reference":"Condition/3c26cba9-90cd-401e-af53-49e2df15b9aa"},"type":[{"coding":[{"system":"http://terminology.hl7.org/CodeSystem/ex-diagnosistype","code":"principal"}]}]}],"insurance":[{"sequence":1,"focal":true,"coverage":{"reference":"Coverage/a74b69a5-b207-42d0-a2f2-8683083ed226"}}],"item":[{"sequence":1,"diagnosisSequence":[1],"productOrService":{"coding":[{"system":"http://terminology.hl7.org/CodeSystem/ex-USCLS","code":"99555"}]},"encounter":[{"reference":"Encounter/7aed3abd-0688-418f-9f70-40ac4926f332"}]}]},"request":{"method":"PUT","url":"Claim/ClaimBehavior-NotSubsAbuse"}},{"fullUrl":"https://madie.cms.gov/Coverage/a74b69a5-b207-42d0-a2f2-8683083ed226","resource":{"resourceType":"Coverage","id":"a74b69a5-b207-42d0-a2f2-8683083ed226","meta":{"profile":["http://hl7.org/fhir/us/qicore/StructureDefinition/qicore-coverage"]},"identifier":[{"type":{"coding":[{"system":"http://terminology.hl7.org/CodeSystem/v2-0203","code":"MB"}]}}],"status":"active","beneficiary":{"reference":"Patient/cc01e29c-7ebb-4876-b63a-29de550c62f9"},"relationship":{"coding":[{"system":"http://terminology.hl7.org/CodeSystem/subscriber-relationship","code":"self"}]},"payor":[{"reference":"Organization/fd7a32f6-24ae-432f-b7e3-15ffd440b9b8"}]},"request":{"method":"PUT","url":"Coverage/a74b69a5-b207-42d0-a2f2-8683083ed226"}},{"fullUrl":"https://madie.cms.gov/Organization/fd7a32f6-24ae-432f-b7e3-15ffd440b9b8","resource":{"resourceType":"Organization","id":"fd7a32f6-24ae-432f-b7e3-15ffd440b9b8","meta":{"profile":["http://hl7.org/fhir/us/qicore/StructureDefinition/qicore-organization"]},"identifier":[{"use":"temp","system":"urn:oid:2.16.840.1.113883.4.4","value":"21-3259825"}],"active":true,"type":[{"coding":[{"system":"http://terminology.hl7.org/CodeSystem/organization-type","code":"pay","display":"Payer"}]}],"name":"Blue Cross Blue Shield of Texas","telecom":[{"system":"phone","value":"(+1) 972-766-6900"}],"address":[{"use":"billing","type":"postal","line":["P.O. Box 660044"],"city":"Dallas","state":"TX","postalCode":"75266-0044","country":"USA"}]},"request":{"method":"PUT","url":"Organization/fd7a32f6-24ae-432f-b7e3-15ffd440b9b8"}},{"fullUrl":"https://madie.cms.gov/Practitioner/e4666f89-1af6-4aff-a019-804f7dd2e5ee","resource":{"resourceType":"Practitioner","id":"e4666f89-1af6-4aff-a019-804f7dd2e5ee","meta":{"profile":["http://hl7.org/fhir/us/qicore/StructureDefinition/qicore-practitioner"]},"identifier":[{"system":"http://hl7.org/fhir/sid/us-npi","value":"9999999896"}],"name":[{"family":"Evil","prefix":["Dr"]}]},"request":{"method":"PUT","url":"Practitioner/e4666f89-1af6-4aff-a019-804f7dd2e5ee"}},{"fullUrl":"https://madie.cms.gov/MeasureReport/1bfe2aa3-4b2c-4dc1-bd75-2fd84b9524c0","resource":{"resourceType":"MeasureReport","id":"1bfe2aa3-4b2c-4dc1-bd75-2fd84b9524c0","meta":{"profile":["http://hl7.org/fhir/us/cqfmeasures/StructureDefinition/test-case-cqfm"]},"contained":[{"resourceType":"Parameters","id":"a207f7b6-dc35-459e-b13e-624cd9e20af1-parameters","parameter":[{"name":"subject","valueString":"cc01e29c-7ebb-4876-b63a-29de550c62f9"}]}],"extension":[{"url":"http://hl7.org/fhir/StructureDefinition/cqf-inputParameters","valueReference":{"reference":"#a207f7b6-dc35-459e-b13e-624cd9e20af1-parameters"}},{"url":"http://hl7.org/fhir/us/cqfmeasures/StructureDefinition/cqfm-testCaseDescription","valueMarkdown":"Child, age 17, ED enc, last day MP, LOS 481 minutes. pt. mental health dx"}],"modifierExtension":[{"url":"http://hl7.org/fhir/us/cqfmeasures/StructureDefinition/cqfm-isTestCase","valueBoolean":true}],"status":"complete","type":"individual","measure":"https://madie.cms.gov/Measure/CMS1244FHIRECATHOQR","period":{"start":"2027-01-01","end":"2027-12-31"},"group":[{"id":"Group_1","population":[{"id":"InitialPopulation_1","code":{"coding":[{"system":"http://terminology.hl7.org/CodeSystem/measure-population","code":"initial-population","display":"Initial Population"}]},"count":1},{"id":"Denominator_1","code":{"coding":[{"system":"http://terminology.hl7.org/CodeSystem/measure-population","code":"denominator","display":"Denominator"}]},"count":1},{"id":"Numerator_1","code":{"coding":[{"system":"http://terminology.hl7.org/CodeSystem/measure-population","code":"numerator","display":"Numerator"}]},"count":1}],"measureScore":{"value":0.0},"stratifier":[{"id":"Stratification_1_1","code":[{"text":"Strata-1"}],"stratum":[{"value":{"text":"Strata-1"},"population":[{"id":"InitialPopulation_1","code":{"coding":[{"system":"http://terminology.hl7.org/CodeSystem/measure-population","code":"initial-population","display":"Initial Population"}]},"count":0},{"id":"Denominator_1","code":{"coding":[{"system":"http://terminology.hl7.org/CodeSystem/measure-population","code":"denominator","display":"Denominator"}]},"count":0},{"id":"Numerator_1","code":{"coding":[{"system":"http://terminology.hl7.org/CodeSystem/measure-population","code":"numerator","display":"Numerator"}]},"count":0}]}]},{"id":"Stratification_1_2","code":[{"text":"Strata-2"}],"stratum":[{"value":{"text":"Strata-2"},"population":[{"id":"InitialPopulation_1","code":{"coding":[{"system":"http://terminology.hl7.org/CodeSystem/measure-population","code":"initial-population","display":"Initial Population"}]},"count":0},{"id":"Denominator_1","code":{"coding":[{"system":"http://terminology.hl7.org/CodeSystem/measure-population","code":"denominator","display":"Denominator"}]},"count":0},{"id":"Numerator_1","code":{"coding":[{"system":"http://terminology.hl7.org/CodeSystem/measure-population","code":"numerator","display":"Numerator"}]},"count":0}]}]},{"id":"Stratification_1_3","code":[{"text":"Strata-3"}],"stratum":[{"value":{"text":"Strata-3"},"population":[{"id":"InitialPopulation_1","code":{"coding":[{"system":"http://terminology.hl7.org/CodeSystem/measure-population","code":"initial-population","display":"Initial Population"}]},"count":1},{"id":"Denominator_1","code":{"coding":[{"system":"http://terminology.hl7.org/CodeSystem/measure-population","code":"denominator","display":"Denominator"}]},"count":1},{"id":"Numerator_1","code":{"coding":[{"system":"http://terminology.hl7.org/CodeSystem/measure-population","code":"numerator","display":"Numerator"}]},"count":1}]}]},{"id":"Stratification_1_4","code":[{"text":"Strata-4"}],"stratum":[{"value":{"text":"Strata-4"},"population":[{"id":"InitialPopulation_1","code":{"coding":[{"system":"http://terminology.hl7.org/CodeSystem/measure-population","code":"initial-population","display":"Initial Population"}]},"count":0},{"id":"Denominator_1","code":{"coding":[{"system":"http://terminology.hl7.org/CodeSystem/measure-population","code":"denominator","display":"Denominator"}]},"count":0},{"id":"Numerator_1","code":{"coding":[{"system":"http://terminology.hl7.org/CodeSystem/measure-population","code":"numerator","display":"Numerator"}]},"count":0}]}]}]}],"evaluatedResource":[{"reference":"Patient/cc01e29c-7ebb-4876-b63a-29de550c62f9"},{"reference":"Encounter/7aed3abd-0688-418f-9f70-40ac4926f332"},{"reference":"Location/0bc2a0ff-5323-4414-a2af-a255713233a5"},{"reference":"Condition/3c26cba9-90cd-401e-af53-49e2df15b9aa"},{"reference":"Claim/ClaimBehavior-NotSubsAbuse"},{"reference":"Coverage/a74b69a5-b207-42d0-a2f2-8683083ed226"},{"reference":"Organization/fd7a32f6-24ae-432f-b7e3-15ffd440b9b8"},{"reference":"Practitioner/e4666f89-1af6-4aff-a019-804f7dd2e5ee"}]},"request":{"method":"PUT","url":"MeasureReport/1bfe2aa3-4b2c-4dc1-bd75-2fd84b9524c0"}}]},"request":{"method":"PUT","url":"Bundle/661476b015ed5841a5547ebf"}}]}