{
  "resourceType": "Bundle",
  "id": "98116841646686466847",
  "type": "transaction",
  "entry": [ {
    "fullUrl": "https://madie.cms.gov/Patient/07455a0e-a64a-45f9-bc9f-93eb7078274c",
    "resource": {
      "resourceType": "Patient",
      "id": "07455a0e-a64a-45f9-bc9f-93eb7078274c",
      "meta": {
        "profile": [ "http://hl7.org/fhir/us/qicore/StructureDefinition/qicore-patient" ]
      },
      "extension": [ {
        "url": "http://hl7.org/fhir/us/core/StructureDefinition/us-core-race",
        "extension": [ {
          "url": "ombCategory",
          "valueCoding": {
            "system": "urn:oid:2.16.840.1.113883.6.238",
            "code": "2106-3",
            "display": "White"
          }
        }, {
          "url": "text",
          "valueString": "White"
        } ]
      }, {
        "url": "http://hl7.org/fhir/us/core/StructureDefinition/us-core-ethnicity",
        "extension": [ {
          "url": "ombCategory",
          "valueCoding": {
            "system": "urn:oid:2.16.840.1.113883.6.238",
            "code": "2186-5",
            "display": "Not Hispanic or Latino"
          }
        }, {
          "url": "text",
          "valueString": "Not Hispanic or Latino"
        } ]
      } ],
      "identifier": [ {
        "type": {
          "coding": [ {
            "system": "http://terminology.hl7.org/CodeSystem/v2-0203",
            "code": "MR"
          } ]
        },
        "system": "https://bonnie-fhir.healthit.gov/",
        "value": "6546841651641616513421"
      } ],
      "name": [ {
        "family": "DENEXPopStrat1Pass",
        "given": [ "PallCareDXDuringMP" ]
      } ],
      "gender": "female",
      "birthDate": "2011-01-01"
    },
    "request": {
      "method": "PUT",
      "url": "Patient/07455a0e-a64a-45f9-bc9f-93eb7078274c"
    }
  }, {
    "fullUrl": "https://madie.cms.gov/Encounter/31974bfd-4899-423f-8f77-586b8c68f235",
    "resource": {
      "resourceType": "Encounter",
      "id": "31974bfd-4899-423f-8f77-586b8c68f235",
      "meta": {
        "profile": [ "http://hl7.org/fhir/us/qicore/StructureDefinition/qicore-encounter" ]
      },
      "status": "finished",
      "class": {
        "system": "http://terminology.hl7.org/CodeSystem/v3-ActCode",
        "code": "AMB",
        "display": "ambulatory"
      },
      "type": [ {
        "coding": [ {
          "system": "http://www.ama-assn.org/go/cpt",
          "version": "2024",
          "code": "90791"
        } ]
      } ],
      "subject": {
        "reference": "Patient/07455a0e-a64a-45f9-bc9f-93eb7078274c"
      },
      "period": {
        "start": "2025-02-25T14:30:00+00:00",
        "end": "2025-02-25T14:50:00+00:00"
      },
      "length": {
        "value": 0,
        "unit": "days"
      }
    },
    "request": {
      "method": "PUT",
      "url": "Encounter/31974bfd-4899-423f-8f77-586b8c68f235"
    }
  }, {
    "fullUrl": "https://madie.cms.gov/Observation/bdbc1cfd-c9d8-4e2b-abd1-9baa21fb8b4c",
    "resource": {
      "resourceType": "Observation",
      "id": "bdbc1cfd-c9d8-4e2b-abd1-9baa21fb8b4c",
      "meta": {
        "profile": [ "http://hl7.org/fhir/us/qicore/StructureDefinition/qicore-observation-screening-assessment" ]
      },
      "status": "final",
      "category": [ {
        "coding": [ {
          "system": "http://terminology.hl7.org/CodeSystem/observation-category",
          "code": "survey",
          "display": "Survey"
        } ]
      } ],
      "code": {
        "coding": [ {
          "system": "http://loinc.org",
          "version": "2.76",
          "code": "44261-6"
        } ]
      },
      "subject": {
        "reference": "Patient/07455a0e-a64a-45f9-bc9f-93eb7078274c"
      },
      "effectiveDateTime": "2025-02-25T14:35:00+00:00",
      "valueInteger": 10
    },
    "request": {
      "method": "PUT",
      "url": "Observation/bdbc1cfd-c9d8-4e2b-abd1-9baa21fb8b4c"
    }
  }, {
    "fullUrl": "https://madie.cms.gov/Observation/1c5fdefc-0c49-4fd5-bb00-d0ba2b64804e",
    "resource": {
      "resourceType": "Observation",
      "id": "1c5fdefc-0c49-4fd5-bb00-d0ba2b64804e",
      "meta": {
        "profile": [ "http://hl7.org/fhir/us/qicore/StructureDefinition/qicore-observation-screening-assessment" ]
      },
      "status": "final",
      "category": [ {
        "coding": [ {
          "system": "http://terminology.hl7.org/CodeSystem/observation-category",
          "code": "survey",
          "display": "Survey"
        } ]
      } ],
      "code": {
        "coding": [ {
          "system": "http://loinc.org",
          "version": "2.76",
          "code": "44261-6"
        } ]
      },
      "subject": {
        "reference": "Patient/07455a0e-a64a-45f9-bc9f-93eb7078274c"
      },
      "effectiveDateTime": "2025-02-19T14:30:00+00:00",
      "valueInteger": 3
    },
    "request": {
      "method": "PUT",
      "url": "Observation/1c5fdefc-0c49-4fd5-bb00-d0ba2b64804e"
    }
  }, {
    "fullUrl": "https://madie.cms.gov/Condition/1c5ed96a-c51d-4048-9626-1979b51ea4da",
    "resource": {
      "resourceType": "Condition",
      "id": "1c5ed96a-c51d-4048-9626-1979b51ea4da",
      "meta": {
        "profile": [ "http://hl7.org/fhir/us/qicore/StructureDefinition/qicore-condition-problems-health-concerns" ]
      },
      "clinicalStatus": {
        "coding": [ {
          "system": "http://terminology.hl7.org/CodeSystem/condition-clinical",
          "code": "active",
          "display": "active"
        } ]
      },
      "verificationStatus": {
        "coding": [ {
          "system": "http://terminology.hl7.org/CodeSystem/condition-ver-status",
          "code": "confirmed"
        } ]
      },
      "category": [ {
        "coding": [ {
          "system": "http://terminology.hl7.org/CodeSystem/condition-category",
          "code": "problem-list-item",
          "display": "Problem List Item"
        } ]
      } ],
      "code": {
        "coding": [ {
          "system": "http://hl7.org/fhir/sid/icd-10-cm",
          "version": "2024",
          "code": "F32.9"
        } ]
      },
      "subject": {
        "reference": "Patient/07455a0e-a64a-45f9-bc9f-93eb7078274c"
      },
      "onsetDateTime": "2025-02-25T14:35:00+00:00"
    },
    "request": {
      "method": "PUT",
      "url": "Condition/1c5ed96a-c51d-4048-9626-1979b51ea4da"
    }
  }, {
    "fullUrl": "https://madie.cms.gov/Condition/23453588-e8e2-4142-bde5-61e72548f47e",
    "resource": {
      "resourceType": "Condition",
      "id": "23453588-e8e2-4142-bde5-61e72548f47e",
      "meta": {
        "profile": [ "http://hl7.org/fhir/us/qicore/StructureDefinition/qicore-condition-encounter-diagnosis" ]
      },
      "clinicalStatus": {
        "coding": [ {
          "system": "http://terminology.hl7.org/CodeSystem/condition-clinical",
          "code": "active",
          "display": "active"
        } ]
      },
      "verificationStatus": {
        "coding": [ {
          "system": "http://terminology.hl7.org/CodeSystem/condition-ver-status",
          "code": "confirmed"
        } ]
      },
      "category": [ {
        "coding": [ {
          "system": "http://terminology.hl7.org/CodeSystem/condition-category",
          "code": "encounter-diagnosis",
          "display": "Encounter Diagnosis"
        } ]
      } ],
      "code": {
        "coding": [ {
          "system": "http://hl7.org/fhir/sid/icd-10-cm",
          "version": "2024",
          "code": "Z51.5"
        } ]
      },
      "subject": {
        "reference": "Patient/07455a0e-a64a-45f9-bc9f-93eb7078274c"
      },
      "onsetDateTime": "2026-01-25T14:35:00+00:00"
    },
    "request": {
      "method": "PUT",
      "url": "Condition/23453588-e8e2-4142-bde5-61e72548f47e"
    }
  }, {
    "fullUrl": "https://madie.cms.gov/MeasureReport/3d6a3917-d3e5-4261-9753-1436dcf0044d",
    "resource": {
      "resourceType": "MeasureReport",
      "id": "3d6a3917-d3e5-4261-9753-1436dcf0044d",
      "meta": {
        "profile": [ "http://hl7.org/fhir/us/cqfmeasures/StructureDefinition/test-case-cqfm" ]
      },
      "contained": [ {
        "resourceType": "Parameters",
        "id": "a11afc36-3d14-4e37-ab5a-3a1454524bb9-parameters",
        "parameter": [ {
          "name": "subject",
          "valueString": "07455a0e-a64a-45f9-bc9f-93eb7078274c"
        } ]
      } ],
      "extension": [ {
        "url": "http://hl7.org/fhir/StructureDefinition/cqf-inputParameters",
        "valueReference": {
          "reference": "#a11afc36-3d14-4e37-ab5a-3a1454524bb9-parameters"
        }
      }, {
        "url": "http://hl7.org/fhir/us/cqfmeasures/StructureDefinition/cqfm-testCaseDescription",
        "valueMarkdown": "Patient is 15 years old and has a Major Depressive Dx and PHQ-9>9 during the denom ID period. Patient has palliative care Encounter DX before end of MAP Should be in denominator exclusion for Strat 1. "
      } ],
      "modifierExtension": [ {
        "url": "http://hl7.org/fhir/us/cqfmeasures/StructureDefinition/cqfm-isTestCase",
        "valueBoolean": true
      } ],
      "status": "complete",
      "type": "individual",
      "measure": "https://madie.cms.gov/Measure/CMS159FHIRDepressionRemissionatTwelveMonths",
      "period": {
        "start": "2026-01-01",
        "end": "2026-12-31"
      },
      "group": [ {
        "id": "Group_1",
        "population": [ {
          "id": "InitialPopulation_1",
          "code": {
            "coding": [ {
              "system": "http://terminology.hl7.org/CodeSystem/measure-population",
              "code": "initial-population",
              "display": "Initial Population"
            } ]
          },
          "count": 1
        }, {
          "id": "Denominator_1",
          "code": {
            "coding": [ {
              "system": "http://terminology.hl7.org/CodeSystem/measure-population",
              "code": "denominator",
              "display": "Denominator"
            } ]
          },
          "count": 1
        }, {
          "id": "DenominatorExclusion_1",
          "code": {
            "coding": [ {
              "system": "http://terminology.hl7.org/CodeSystem/measure-population",
              "code": "denominator-exclusion",
              "display": "Denominator Exclusion"
            } ]
          },
          "count": 1
        }, {
          "id": "Numerator_1",
          "code": {
            "coding": [ {
              "system": "http://terminology.hl7.org/CodeSystem/measure-population",
              "code": "numerator",
              "display": "Numerator"
            } ]
          },
          "count": 0
        } ],
        "measureScore": {
          "value": 1.0
        }
      } ],
      "evaluatedResource": [ {
        "reference": "Patient/07455a0e-a64a-45f9-bc9f-93eb7078274c"
      }, {
        "reference": "Encounter/31974bfd-4899-423f-8f77-586b8c68f235"
      }, {
        "reference": "Observation/bdbc1cfd-c9d8-4e2b-abd1-9baa21fb8b4c"
      }, {
        "reference": "Observation/1c5fdefc-0c49-4fd5-bb00-d0ba2b64804e"
      }, {
        "reference": "Condition/1c5ed96a-c51d-4048-9626-1979b51ea4da"
      }, {
        "reference": "Condition/23453588-e8e2-4142-bde5-61e72548f47e"
      } ]
    },
    "request": {
      "method": "PUT",
      "url": "MeasureReport/3d6a3917-d3e5-4261-9753-1436dcf0044d"
    }
  } ]
}