{
  "resourceType": "Bundle",
  "id": "612e6a6602c62a011f2e9f67",
  "type": "transaction",
  "entry": [ {
    "fullUrl": "https://madie.cms.gov/Patient/5741c41a-04ec-4967-83b2-b0d746bd0ed5",
    "resource": {
      "resourceType": "Patient",
      "id": "5741c41a-04ec-4967-83b2-b0d746bd0ed5",
      "meta": {
        "profile": [ "http://hl7.org/fhir/us/qicore/StructureDefinition/qicore-patient" ]
      },
      "text": {
        "status": "generated",
        "div": "<div xmlns=\"http://www.w3.org/1999/xhtml\"><div class=\"hapiHeaderText\">INRGT3_1DayAFEnc <b>NUMERPASS </b></div><table class=\"hapiPropertyTable\"><tbody><tr><td>Identifier</td><td>349f9a26f7e54660aa55a3feeea5c73c</td></tr><tr><td>Date of birth</td><td><span>02 January 1974</span></td></tr></tbody></table></div>"
      },
      "extension": [ {
        "url": "http://hl7.org/fhir/us/core/StructureDefinition/us-core-race",
        "extension": [ {
          "url": "ombCategory",
          "valueCoding": {
            "system": "urn:oid:2.16.840.1.113883.6.238",
            "code": "1002-5",
            "display": "American Indian or Alaska Native",
            "userSelected": true
          }
        }, {
          "url": "text",
          "valueString": "American Indian or Alaska Native"
        } ]
      }, {
        "url": "http://hl7.org/fhir/us/core/StructureDefinition/us-core-ethnicity",
        "extension": [ {
          "url": "ombCategory",
          "valueCoding": {
            "system": "urn:oid:2.16.840.1.113883.6.238",
            "code": "2135-2",
            "display": "Hispanic or Latino",
            "userSelected": true
          }
        }, {
          "url": "text",
          "valueString": "Hispanic or Latino"
        } ]
      } ],
      "identifier": [ {
        "type": {
          "coding": [ {
            "system": "http://terminology.hl7.org/CodeSystem/v2-0203",
            "code": "MR"
          } ]
        },
        "system": "https://bonnie-fhir.healthit.gov/",
        "value": "612e6a6602c62a011f2e9f67"
      } ],
      "active": true,
      "name": [ {
        "use": "usual",
        "family": "NUMERPass",
        "given": [ "INRGT31DayAFEnc" ]
      } ],
      "gender": "male",
      "birthDate": "1975-01-02"
    },
    "request": {
      "method": "PUT",
      "url": "Patient/5741c41a-04ec-4967-83b2-b0d746bd0ed5"
    }
  }, {
    "fullUrl": "https://madie.cms.gov/Encounter/67bd7004-0e7c-4ef3-9e8b-1cdfd5b6a9f3",
    "resource": {
      "resourceType": "Encounter",
      "id": "67bd7004-0e7c-4ef3-9e8b-1cdfd5b6a9f3",
      "meta": {
        "profile": [ "http://hl7.org/fhir/us/qicore/StructureDefinition/qicore-encounter" ]
      },
      "status": "finished",
      "class": {
        "system": "http://terminology.hl7.org/CodeSystem/v3-ActCode",
        "code": "IMP",
        "display": "inpatient encounter"
      },
      "type": [ {
        "coding": [ {
          "system": "http://snomed.info/sct",
          "code": "8715000"
        } ]
      } ],
      "subject": {
        "reference": "Patient/5741c41a-04ec-4967-83b2-b0d746bd0ed5"
      },
      "period": {
        "start": "2026-11-01T08:00:00.000+00:00",
        "end": "2026-11-26T08:15:00.000+00:00"
      },
      "length": {
        "value": 25,
        "unit": "days"
      }
    },
    "request": {
      "method": "PUT",
      "url": "Encounter/67bd7004-0e7c-4ef3-9e8b-1cdfd5b6a9f3"
    }
  }, {
    "fullUrl": "https://madie.cms.gov/Coverage/8c895f40-6172-4c28-b008-d50a782620c7",
    "resource": {
      "resourceType": "Coverage",
      "id": "8c895f40-6172-4c28-b008-d50a782620c7",
      "status": "active",
      "beneficiary": {
        "reference": "Patient/5741c41a-04ec-4967-83b2-b0d746bd0ed5"
      },
      "period": {
        "start": "1975-01-02T08:00:00.000+00:00"
      },
      "payor": [ {
        "reference": "Organization/8abb8428-15dc-43c9-b3c9-03b78d332f09"
      } ]
    },
    "request": {
      "method": "PUT",
      "url": "Coverage/8c895f40-6172-4c28-b008-d50a782620c7"
    }
  }, {
    "fullUrl": "https://madie.cms.gov/Observation/77ba9578-ac32-4331-a8e4-e6f32eef28d6",
    "resource": {
      "resourceType": "Observation",
      "id": "77ba9578-ac32-4331-a8e4-e6f32eef28d6",
      "meta": {
        "profile": [ "http://hl7.org/fhir/us/qicore/StructureDefinition/qicore-observation-lab" ]
      },
      "status": "amended",
      "category": [ {
        "coding": [ {
          "system": "http://terminology.hl7.org/CodeSystem/observation-category",
          "code": "laboratory",
          "display": "Laboratory"
        } ]
      } ],
      "code": {
        "coding": [ {
          "system": "http://loinc.org",
          "code": "34714-6"
        } ]
      },
      "subject": {
        "reference": "Patient/5741c41a-04ec-4967-83b2-b0d746bd0ed5"
      },
      "issued": "2026-11-01T09:00:00.000+00:00",
      "valueQuantity": {
        "value": 3.5,
        "unit": "{INR}"
      }
    },
    "request": {
      "method": "PUT",
      "url": "Observation/77ba9578-ac32-4331-a8e4-e6f32eef28d6"
    }
  }, {
    "fullUrl": "https://madie.cms.gov/Organization/8abb8428-15dc-43c9-b3c9-03b78d332f09",
    "resource": {
      "resourceType": "Organization",
      "id": "8abb8428-15dc-43c9-b3c9-03b78d332f09",
      "meta": {
        "profile": [ "http://hl7.org/fhir/us/qicore/StructureDefinition/qicore-organization" ]
      },
      "identifier": [ {
        "use": "temp",
        "system": "urn:oid:2.16.840.1.113883.4.4",
        "value": "21-3259825"
      } ],
      "active": true,
      "type": [ {
        "coding": [ {
          "system": "http://terminology.hl7.org/CodeSystem/organization-type",
          "code": "pay",
          "display": "Payer"
        } ]
      } ],
      "name": "Blue Cross Blue Shield of Texas",
      "telecom": [ {
        "system": "phone",
        "value": "(+1) 972-766-6900"
      } ],
      "address": [ {
        "use": "billing",
        "type": "postal",
        "line": [ "P.O. Box 660044" ],
        "city": "Dallas",
        "state": "TX",
        "postalCode": "75266-0044",
        "country": "USA"
      } ]
    },
    "request": {
      "method": "PUT",
      "url": "Organization/8abb8428-15dc-43c9-b3c9-03b78d332f09"
    }
  }, {
    "fullUrl": "https://madie.cms.gov/Practitioner/d96f16d0-57a4-433e-adef-89919a504c8c",
    "resource": {
      "resourceType": "Practitioner",
      "id": "d96f16d0-57a4-433e-adef-89919a504c8c",
      "identifier": [ {
        "system": "http://hl7.org/fhir/sid/us-npi",
        "value": "123456"
      } ],
      "name": [ {
        "family": "Evil",
        "prefix": [ "Dr" ]
      } ]
    },
    "request": {
      "method": "PUT",
      "url": "Practitioner/d96f16d0-57a4-433e-adef-89919a504c8c"
    }
  }, {
    "fullUrl": "https://madie.cms.gov/MeasureReport/af980329-8ffe-4a18-af6a-ffbd54bd9758",
    "resource": {
      "resourceType": "MeasureReport",
      "id": "af980329-8ffe-4a18-af6a-ffbd54bd9758",
      "meta": {
        "profile": [ "http://hl7.org/fhir/us/cqfmeasures/StructureDefinition/test-case-cqfm" ]
      },
      "contained": [ {
        "resourceType": "Parameters",
        "id": "91fb6ea8-fd44-4d8c-8a69-52a72241f204-parameters",
        "parameter": [ {
          "name": "subject",
          "valueString": "5741c41a-04ec-4967-83b2-b0d746bd0ed5"
        } ]
      } ],
      "extension": [ {
        "url": "http://hl7.org/fhir/StructureDefinition/cqf-inputParameters",
        "valueReference": {
          "reference": "#91fb6ea8-fd44-4d8c-8a69-52a72241f204-parameters"
        }
      }, {
        "url": "http://hl7.org/fhir/us/cqfmeasures/StructureDefinition/cqfm-testCaseDescription",
        "valueMarkdown": "INR > 3 = 1 day after start of IP encounter\n"
      } ],
      "modifierExtension": [ {
        "url": "http://hl7.org/fhir/us/cqfmeasures/StructureDefinition/cqfm-isTestCase",
        "valueBoolean": true
      } ],
      "status": "complete",
      "type": "individual",
      "measure": "https://madie.cms.gov/Measure/CMS108FHIRVTEProphylaxis",
      "period": {
        "start": "2026-01-01",
        "end": "2026-12-31"
      },
      "group": [ {
        "id": "Group_1",
        "population": [ {
          "id": "InitialPopulation_1",
          "code": {
            "coding": [ {
              "system": "http://terminology.hl7.org/CodeSystem/measure-population",
              "code": "initial-population",
              "display": "Initial Population"
            } ]
          },
          "count": 1
        }, {
          "id": "Denominator_1",
          "code": {
            "coding": [ {
              "system": "http://terminology.hl7.org/CodeSystem/measure-population",
              "code": "denominator",
              "display": "Denominator"
            } ]
          },
          "count": 1
        }, {
          "id": "DenominatorExclusion_1",
          "code": {
            "coding": [ {
              "system": "http://terminology.hl7.org/CodeSystem/measure-population",
              "code": "denominator-exclusion",
              "display": "Denominator Exclusion"
            } ]
          },
          "count": 0
        }, {
          "id": "Numerator_1",
          "code": {
            "coding": [ {
              "system": "http://terminology.hl7.org/CodeSystem/measure-population",
              "code": "numerator",
              "display": "Numerator"
            } ]
          },
          "count": 1
        } ],
        "measureScore": {
          "value": 0.0
        }
      } ],
      "evaluatedResource": [ {
        "reference": "Patient/5741c41a-04ec-4967-83b2-b0d746bd0ed5"
      }, {
        "reference": "Encounter/67bd7004-0e7c-4ef3-9e8b-1cdfd5b6a9f3"
      }, {
        "reference": "Coverage/8c895f40-6172-4c28-b008-d50a782620c7"
      }, {
        "reference": "Observation/77ba9578-ac32-4331-a8e4-e6f32eef28d6"
      }, {
        "reference": "Organization/8abb8428-15dc-43c9-b3c9-03b78d332f09"
      }, {
        "reference": "Practitioner/d96f16d0-57a4-433e-adef-89919a504c8c"
      } ]
    },
    "request": {
      "method": "PUT",
      "url": "MeasureReport/af980329-8ffe-4a18-af6a-ffbd54bd9758"
    }
  } ]
}