{
  "resourceType": "Bundle",
  "id": "60f82c3098086b570510e2ed",
  "type": "transaction",
  "entry": [ {
    "fullUrl": "https://madie.cms.gov/Patient/c417d5e6-4cef-4d7b-93c6-d25a61a8a6ca",
    "resource": {
      "resourceType": "Patient",
      "id": "c417d5e6-4cef-4d7b-93c6-d25a61a8a6ca",
      "meta": {
        "profile": [ "http://hl7.org/fhir/us/qicore/StructureDefinition/qicore-patient" ]
      },
      "text": {
        "status": "generated",
        "div": "<div xmlns=\"http://www.w3.org/1999/xhtml\"><div class=\"hapiHeaderText\">CMP_DayOf_RelvPerStart_1MinAfterObsEnd_EDEndLT1hrB4Obs_ObsEndLT1hrB4IP <b>DENEXPASS </b></div><table class=\"hapiPropertyTable\"><tbody><tr><td>Date of birth</td><td><span>01 January 1980</span></td></tr></tbody></table></div>"
      },
      "extension": [ {
        "url": "http://hl7.org/fhir/us/core/StructureDefinition/us-core-race",
        "extension": [ {
          "url": "ombCategory",
          "valueCoding": {
            "system": "urn:oid:2.16.840.1.113883.6.238",
            "code": "2106-3",
            "display": "White",
            "userSelected": true
          }
        }, {
          "url": "text",
          "valueString": "White"
        } ]
      }, {
        "url": "http://hl7.org/fhir/us/core/StructureDefinition/us-core-ethnicity",
        "extension": [ {
          "url": "ombCategory",
          "valueCoding": {
            "system": "urn:oid:2.16.840.1.113883.6.238",
            "code": "2186-5",
            "display": "Not Hispanic or Latino",
            "userSelected": true
          }
        }, {
          "url": "text",
          "valueString": "Not Hispanic or Latino"
        } ]
      } ],
      "identifier": [ {
        "type": {
          "coding": [ {
            "system": "http://terminology.hl7.org/CodeSystem/v2-0203",
            "code": "MR"
          } ]
        },
        "system": "https://bonnie-fhir.healthit.gov/",
        "value": "60f82c3098086b570510e2ed"
      } ],
      "active": true,
      "name": [ {
        "use": "usual",
        "family": "DENEXPass",
        "given": [ "CMPDayOfRelvPerStart1MinAfterObsEndEDEndLT1hrB4ObsObsEndLT1hrB4IP" ]
      } ],
      "gender": "female",
      "birthDate": "1981-01-01"
    },
    "request": {
      "method": "PUT",
      "url": "Patient/c417d5e6-4cef-4d7b-93c6-d25a61a8a6ca"
    }
  }, {
    "fullUrl": "https://madie.cms.gov/Encounter/b8cd944d-818a-4461-b2c4-fc4ab4d79c1f",
    "resource": {
      "resourceType": "Encounter",
      "id": "b8cd944d-818a-4461-b2c4-fc4ab4d79c1f",
      "meta": {
        "profile": [ "http://hl7.org/fhir/us/qicore/StructureDefinition/qicore-encounter" ]
      },
      "status": "finished",
      "class": {
        "system": "http://terminology.hl7.org/CodeSystem/v3-ActCode",
        "code": "EMER",
        "display": "emergency"
      },
      "type": [ {
        "coding": [ {
          "system": "http://snomed.info/sct",
          "code": "4525004"
        } ]
      } ],
      "subject": {
        "reference": "Patient/c417d5e6-4cef-4d7b-93c6-d25a61a8a6ca"
      },
      "period": {
        "start": "2026-11-18T07:00:00Z",
        "end": "2026-11-18T08:01:00.000+00:00"
      },
      "diagnosis": [ {
        "condition": {
          "reference": "Condition/88777434-679c-4651-a6dd-be0e370d2dcf"
        },
        "use": {
          "coding": [ {
            "system": "http://terminology.hl7.org/CodeSystem/diagnosis-role",
            "code": "billing",
            "display": "Billing"
          } ]
        },
        "rank": 1
      } ]
    },
    "request": {
      "method": "PUT",
      "url": "Encounter/b8cd944d-818a-4461-b2c4-fc4ab4d79c1f"
    }
  }, {
    "fullUrl": "https://madie.cms.gov/Encounter/f713f667-b7a5-4578-a314-afbad55b21bc",
    "resource": {
      "resourceType": "Encounter",
      "id": "f713f667-b7a5-4578-a314-afbad55b21bc",
      "meta": {
        "profile": [ "http://hl7.org/fhir/us/qicore/StructureDefinition/qicore-encounter" ]
      },
      "status": "finished",
      "class": {
        "system": "http://terminology.hl7.org/CodeSystem/v3-ActCode",
        "code": "OBSENC",
        "display": "observation encounter"
      },
      "type": [ {
        "coding": [ {
          "system": "http://snomed.info/sct",
          "code": "448951000124107"
        } ]
      } ],
      "subject": {
        "reference": "Patient/c417d5e6-4cef-4d7b-93c6-d25a61a8a6ca"
      },
      "period": {
        "start": "2026-11-18T09:00:00Z",
        "end": "2026-11-18T10:01:00.000+00:00"
      }
    },
    "request": {
      "method": "PUT",
      "url": "Encounter/f713f667-b7a5-4578-a314-afbad55b21bc"
    }
  }, {
    "fullUrl": "https://madie.cms.gov/Encounter/3a14928c-ae50-453d-b8db-2d519165869d",
    "resource": {
      "resourceType": "Encounter",
      "id": "3a14928c-ae50-453d-b8db-2d519165869d",
      "meta": {
        "profile": [ "http://hl7.org/fhir/us/qicore/StructureDefinition/qicore-encounter" ]
      },
      "status": "finished",
      "class": {
        "system": "http://terminology.hl7.org/CodeSystem/v3-ActCode",
        "code": "IMP",
        "display": "inpatient encounter"
      },
      "type": [ {
        "coding": [ {
          "system": "http://snomed.info/sct",
          "code": "183452005"
        } ]
      } ],
      "subject": {
        "reference": "Patient/c417d5e6-4cef-4d7b-93c6-d25a61a8a6ca"
      },
      "period": {
        "start": "2026-11-18T11:00:00Z",
        "end": "2026-11-20T08:15:00.000+00:00"
      },
      "reasonReference": [ {
        "reference": "Condition/88777434-679c-4651-a6dd-be0e370d2dcf"
      } ]
    },
    "request": {
      "method": "PUT",
      "url": "Encounter/3a14928c-ae50-453d-b8db-2d519165869d"
    }
  }, {
    "fullUrl": "https://madie.cms.gov/claim/5ca62962b8484628b8de1ec5",
    "resource": {
      "resourceType": "Claim",
      "id": "5ca62962b8484628b8de1ec5",
      "meta": {
        "profile": [ "http://hl7.org/fhir/us/qicore/StructureDefinition/qicore-claim" ]
      },
      "status": "active",
      "type": {
        "coding": [ {
          "system": "http://terminology.hl7.org/CodeSystem/claim-type",
          "code": "institutional"
        } ]
      },
      "use": "claim",
      "patient": {
        "reference": "Patient/c417d5e6-4cef-4d7b-93c6-d25a61a8a6ca"
      },
      "created": "2026-12-01",
      "provider": {
        "reference": "Practitioner/practitioner-123456"
      },
      "priority": {
        "coding": [ {
          "system": "http://terminology.hl7.org/CodeSystem/processpriority",
          "code": "normal"
        } ]
      },
      "diagnosis": [ {
        "sequence": 1,
        "diagnosisCodeableConcept": {
          "coding": [ {
            "system": "http://hl7.org/fhir/sid/icd-10-cm",
            "code": "I63.00"
          } ]
        },
        "type": [ {
          "coding": [ {
            "system": "http://terminology.hl7.org/CodeSystem/ex-diagnosistype",
            "code": "principal"
          } ]
        } ]
      } ],
      "insurance": [ {
        "sequence": 1,
        "focal": true,
        "coverage": {
          "reference": "Coverage/fb8fe5c7-2ae7-4f42-94e7-bd9b273af114"
        }
      } ],
      "item": [ {
        "sequence": 1,
        "diagnosisSequence": [ 1 ],
        "productOrService": {
          "coding": [ {
            "system": "http://terminology.hl7.org/CodeSystem/ex-USCLS",
            "code": "99555"
          } ]
        },
        "encounter": [ {
          "reference": "Encounter/3a14928c-ae50-453d-b8db-2d519165869d"
        } ]
      } ]
    },
    "request": {
      "method": "PUT",
      "url": "Claim/5ca62962b8484628b8de1ec5"
    }
  }, {
    "fullUrl": "https://madie.cms.gov/Procedure/f2889b22-3c13-4a69-b52d-c4fe77d81b08",
    "resource": {
      "resourceType": "Procedure",
      "id": "f2889b22-3c13-4a69-b52d-c4fe77d81b08",
      "meta": {
        "profile": [ "http://hl7.org/fhir/us/qicore/StructureDefinition/qicore-procedure" ]
      },
      "extension": [ {
        "url": "http://hl7.org/fhir/us/qicore/StructureDefinition/qicore-recorded",
        "valueDateTime": "2026-11-19T13:35:00Z"
      } ],
      "status": "completed",
      "code": {
        "coding": [ {
          "system": "http://snomed.info/sct",
          "code": "133918004"
        } ]
      },
      "subject": {
        "reference": "Patient/c417d5e6-4cef-4d7b-93c6-d25a61a8a6ca"
      },
      "performedPeriod": {
        "start": "2026-11-18T10:02:00Z",
        "end": "2026-11-18T10:02:00.000+00:00"
      }
    },
    "request": {
      "method": "PUT",
      "url": "Procedure/f2889b22-3c13-4a69-b52d-c4fe77d81b08"
    }
  }, {
    "fullUrl": "https://madie.cms.gov/Condition/88777434-679c-4651-a6dd-be0e370d2dcf",
    "resource": {
      "resourceType": "Condition",
      "id": "88777434-679c-4651-a6dd-be0e370d2dcf",
      "meta": {
        "profile": [ "http://hl7.org/fhir/us/qicore/StructureDefinition/qicore-condition-encounter-diagnosis" ]
      },
      "clinicalStatus": {
        "coding": [ {
          "system": "http://terminology.hl7.org/CodeSystem/condition-clinical",
          "code": "active"
        } ]
      },
      "verificationStatus": {
        "coding": [ {
          "system": "http://terminology.hl7.org/CodeSystem/condition-ver-status",
          "code": "confirmed"
        } ]
      },
      "category": [ {
        "coding": [ {
          "system": "http://terminology.hl7.org/CodeSystem/condition-category",
          "code": "encounter-diagnosis",
          "display": "Encounter Diagnosis"
        } ]
      } ],
      "code": {
        "coding": [ {
          "system": "http://snomed.info/sct",
          "version": "2020-09",
          "code": "111297002",
          "display": "Nonparalytic stroke (disorder)",
          "userSelected": true
        } ]
      },
      "subject": {
        "reference": "Patient/c417d5e6-4cef-4d7b-93c6-d25a61a8a6ca"
      },
      "recordedDate": "2026-08-13T08:00:00Z"
    },
    "request": {
      "method": "PUT",
      "url": "Condition/88777434-679c-4651-a6dd-be0e370d2dcf"
    }
  }, {
    "fullUrl": "https://madie.cms.gov/Coverage/fb8fe5c7-2ae7-4f42-94e7-bd9b273af114",
    "resource": {
      "resourceType": "Coverage",
      "id": "fb8fe5c7-2ae7-4f42-94e7-bd9b273af114",
      "meta": {
        "profile": [ "http://hl7.org/fhir/us/qicore/StructureDefinition/qicore-coverage" ]
      },
      "status": "active",
      "beneficiary": {
        "reference": "Patient/c417d5e6-4cef-4d7b-93c6-d25a61a8a6ca"
      },
      "payor": [ {
        "reference": "Organization/729d309f-a1fa-4f60-9ef0-c05f1f4289e1"
      } ]
    },
    "request": {
      "method": "PUT",
      "url": "Coverage/fb8fe5c7-2ae7-4f42-94e7-bd9b273af114"
    }
  }, {
    "fullUrl": "https://madie.cms.gov/Organization/729d309f-a1fa-4f60-9ef0-c05f1f4289e1",
    "resource": {
      "resourceType": "Organization",
      "id": "729d309f-a1fa-4f60-9ef0-c05f1f4289e1",
      "meta": {
        "profile": [ "http://hl7.org/fhir/us/qicore/StructureDefinition/qicore-organization" ]
      },
      "identifier": [ {
        "use": "temp",
        "system": "urn:oid:2.16.840.1.113883.4.4",
        "value": "21-3259825"
      } ],
      "active": true,
      "type": [ {
        "coding": [ {
          "system": "http://terminology.hl7.org/CodeSystem/organization-type",
          "code": "pay",
          "display": "Payer"
        } ]
      } ],
      "name": "Blue Cross Blue Shield of Texas",
      "telecom": [ {
        "system": "phone",
        "value": "(+1) 972-766-6900"
      } ],
      "address": [ {
        "use": "billing",
        "type": "postal",
        "line": [ "P.O. Box 660044" ],
        "city": "Dallas",
        "state": "TX",
        "postalCode": "75266-0044",
        "country": "USA"
      } ]
    },
    "request": {
      "method": "PUT",
      "url": "Organization/729d309f-a1fa-4f60-9ef0-c05f1f4289e1"
    }
  }, {
    "fullUrl": "https://madie.cms.gov/MeasureReport/8d88bc1d-00fe-4076-b6ab-7f71f5877457",
    "resource": {
      "resourceType": "MeasureReport",
      "id": "8d88bc1d-00fe-4076-b6ab-7f71f5877457",
      "meta": {
        "profile": [ "http://hl7.org/fhir/us/cqfmeasures/StructureDefinition/test-case-cqfm" ]
      },
      "contained": [ {
        "resourceType": "Parameters",
        "id": "86e2b4f2-c61c-4377-ba90-daf71d3d6032-parameters",
        "parameter": [ {
          "name": "subject",
          "valueString": "c417d5e6-4cef-4d7b-93c6-d25a61a8a6ca"
        } ]
      } ],
      "extension": [ {
        "url": "http://hl7.org/fhir/StructureDefinition/cqf-inputParameters",
        "valueReference": {
          "reference": "#86e2b4f2-c61c-4377-ba90-daf71d3d6032-parameters"
        }
      }, {
        "url": "http://hl7.org/fhir/us/cqfmeasures/StructureDefinition/cqfm-testCaseDescription",
        "valueMarkdown": "Patient receives comfort measures performed on the day of hospital arrival, 1 min after Obs end. ED ends less than 1 hour before Obs Start, Obs ends less than 1 hour before IP start.\n"
      } ],
      "modifierExtension": [ {
        "url": "http://hl7.org/fhir/us/cqfmeasures/StructureDefinition/cqfm-isTestCase",
        "valueBoolean": true
      } ],
      "status": "complete",
      "type": "individual",
      "measure": "https://madie.cms.gov/Measure/CMS72FHIRSTKAntithromboticDay2",
      "period": {
        "start": "2026-01-01",
        "end": "2026-12-31"
      },
      "group": [ {
        "id": "Group_1",
        "population": [ {
          "id": "InitialPopulation_1",
          "code": {
            "coding": [ {
              "system": "http://terminology.hl7.org/CodeSystem/measure-population",
              "code": "initial-population",
              "display": "Initial Population"
            } ]
          },
          "count": 1
        }, {
          "id": "Denominator_1",
          "code": {
            "coding": [ {
              "system": "http://terminology.hl7.org/CodeSystem/measure-population",
              "code": "denominator",
              "display": "Denominator"
            } ]
          },
          "count": 1
        }, {
          "id": "DenominatorExclusion_1",
          "code": {
            "coding": [ {
              "system": "http://terminology.hl7.org/CodeSystem/measure-population",
              "code": "denominator-exclusion",
              "display": "Denominator Exclusion"
            } ]
          },
          "count": 1
        }, {
          "id": "Numerator_1",
          "code": {
            "coding": [ {
              "system": "http://terminology.hl7.org/CodeSystem/measure-population",
              "code": "numerator",
              "display": "Numerator"
            } ]
          },
          "count": 0
        }, {
          "id": "DenominatorException_1",
          "code": {
            "coding": [ {
              "system": "http://terminology.hl7.org/CodeSystem/measure-population",
              "code": "denominator-exception",
              "display": "Denominator Exception"
            } ]
          },
          "count": 0
        } ],
        "measureScore": {
          "value": 0.0
        }
      } ],
      "evaluatedResource": [ {
        "reference": "Patient/c417d5e6-4cef-4d7b-93c6-d25a61a8a6ca"
      }, {
        "reference": "Encounter/b8cd944d-818a-4461-b2c4-fc4ab4d79c1f"
      }, {
        "reference": "Encounter/f713f667-b7a5-4578-a314-afbad55b21bc"
      }, {
        "reference": "Encounter/3a14928c-ae50-453d-b8db-2d519165869d"
      }, {
        "reference": "Claim/5ca62962b8484628b8de1ec5"
      }, {
        "reference": "Procedure/f2889b22-3c13-4a69-b52d-c4fe77d81b08"
      }, {
        "reference": "Condition/88777434-679c-4651-a6dd-be0e370d2dcf"
      }, {
        "reference": "Coverage/fb8fe5c7-2ae7-4f42-94e7-bd9b273af114"
      }, {
        "reference": "Organization/729d309f-a1fa-4f60-9ef0-c05f1f4289e1"
      } ]
    },
    "request": {
      "method": "PUT",
      "url": "MeasureReport/8d88bc1d-00fe-4076-b6ab-7f71f5877457"
    }
  } ]
}