{"resourceType":"Bundle","id":"tests-47e2c410-9c00-4f05-96b4-b925e0c158b1-bundle","type":"transaction","entry":[{"resource":{"resourceType":"MeasureReport","id":"910e1221-e25c-4088-8c7e-09db436f06f2","meta":{"profile":["http://hl7.org/fhir/us/cqfmeasures/StructureDefinition/test-case-cqfm"]},"contained":[{"resourceType":"Parameters","id":"43372614-1039-4e28-899d-8ecf2d1bceef-parameters","parameter":[{"name":"subject","valueString":"47e2c410-9c00-4f05-96b4-b925e0c158b1"}]}],"extension":[{"url":"http://hl7.org/fhir/StructureDefinition/cqf-inputParameters","valueReference":{"reference":"#43372614-1039-4e28-899d-8ecf2d1bceef-parameters"}},{"url":"http://hl7.org/fhir/us/cqfmeasures/StructureDefinition/cqfm-testCaseDescription","valueMarkdown":"Encounter inpatient 3 days. Given antagonist, but no opioid administered. Fails IPP/denom"}],"modifierExtension":[{"url":"http://hl7.org/fhir/us/cqfmeasures/StructureDefinition/cqfm-isTestCase","valueBoolean":true}],"status":"complete","type":"individual","measure":"https://madie.cms.gov/Measure/CMS819FHIRHHORAE","period":{"start":"2026-01-01","end":"2026-12-31"},"group":[{"id":"Group_1","population":[{"id":"InitialPopulation_1","code":{"coding":[{"system":"http://terminology.hl7.org/CodeSystem/measure-population","code":"initial-population","display":"Initial Population"}]},"count":0},{"id":"Denominator_1","code":{"coding":[{"system":"http://terminology.hl7.org/CodeSystem/measure-population","code":"denominator","display":"Denominator"}]},"count":0},{"id":"Numerator_1","code":{"coding":[{"system":"http://terminology.hl7.org/CodeSystem/measure-population","code":"numerator","display":"Numerator"}]},"count":0}],"measureScore":{"value":0.0}}],"evaluatedResource":[{"reference":"MedicationAdministration/252ed3a0-4b52-4bc9-a2ec-48903df70464"},{"reference":"Encounter/2c50a05f-c67d-47bf-8df6-28a0e39cad5a"},{"reference":"Patient/47e2c410-9c00-4f05-96b4-b925e0c158b1"}]},"request":{"method":"PUT","url":"MeasureReport/910e1221-e25c-4088-8c7e-09db436f06f2"}},{"resource":{"resourceType":"Patient","id":"47e2c410-9c00-4f05-96b4-b925e0c158b1","meta":{"profile":["http://hl7.org/fhir/us/qicore/StructureDefinition/qicore-patient"]},"extension":[{"url":"http://hl7.org/fhir/us/core/StructureDefinition/us-core-race","extension":[{"url":"ombCategory","valueCoding":{"system":"urn:oid:2.16.840.1.113883.6.238","code":"2106-3","display":"White"}},{"url":"text","valueString":"White"}]},{"url":"http://hl7.org/fhir/us/core/StructureDefinition/us-core-ethnicity","extension":[{"url":"ombCategory","valueCoding":{"system":"urn:oid:2.16.840.1.113883.6.238","code":"2135-2","display":"Hispanic or Latino"}},{"url":"text","valueString":"Hispanic or Latino"}]},{"url":"http://hl7.org/fhir/us/core/StructureDefinition/us-core-sex","valueCode":"248153007"}],"identifier":[{"system":"http://hospital.smarthealthit.org","value":"999999999"}],"name":[{"family":"Example","given":["Patient"]}],"gender":"female","birthDate":"1956-01-01"},"request":{"method":"PUT","url":"Patient/47e2c410-9c00-4f05-96b4-b925e0c158b1"}},{"resource":{"resourceType":"Bundle","id":"tests-IPPFail-AntagonistButNoOpioid-bundle","type":"transaction","entry":[{"fullUrl":"https://madie.cms.gov/MedicationAdministration/252ed3a0-4b52-4bc9-a2ec-48903df70464","resource":{"resourceType":"MedicationAdministration","id":"252ed3a0-4b52-4bc9-a2ec-48903df70464","meta":{"profile":["http://hl7.org/fhir/us/qicore/StructureDefinition/qicore-medicationadministration"]},"status":"completed","medicationCodeableConcept":{"coding":[{"system":"http://www.nlm.nih.gov/research/umls/rxnorm","code":"1191222","display":"Opioid Antagonist"}]},"subject":{"reference":"Patient/47e2c410-9c00-4f05-96b4-b925e0c158b1"},"context":{"reference":"Encounter/2c50a05f-c67d-47bf-8df6-28a0e39cad5a"},"effectiveDateTime":"2026-02-13T08:00:00.000+00:00","note":[{"text":"Administered opioid antagonist as prescribed."}],"dosage":{"route":{"coding":[{"system":"http://snomed.info/sct","code":"34206005","display":"Oral"}]},"rateQuantity":{"value":1,"unit":"mg"}}},"request":{"method":"PUT","url":"MedicationAdministration/252ed3a0-4b52-4bc9-a2ec-48903df70464"}},{"fullUrl":"https://madie.cms.gov/Encounter/2c50a05f-c67d-47bf-8df6-28a0e39cad5a","resource":{"resourceType":"Encounter","id":"2c50a05f-c67d-47bf-8df6-28a0e39cad5a","meta":{"profile":["http://hl7.org/fhir/us/qicore/StructureDefinition/qicore-encounter"]},"status":"finished","class":{"system":"http://terminology.hl7.org/CodeSystem/v3-ActCode","code":"IMP","display":"inpatient encounter"},"type":[{"coding":[{"system":"http://snomed.info/sct","code":"183452005","display":"Inpatient encounter"}]}],"subject":{"reference":"Patient/47e2c410-9c00-4f05-96b4-b925e0c158b1"},"period":{"start":"2026-02-12T08:00:00.000+00:00","end":"2026-02-15T08:15:00.000+00:00"}},"request":{"method":"PUT","url":"Encounter/2c50a05f-c67d-47bf-8df6-28a0e39cad5a"}},{"fullUrl":"https://madie.cms.gov/Patient/47e2c410-9c00-4f05-96b4-b925e0c158b1","resource":{"resourceType":"Patient","id":"47e2c410-9c00-4f05-96b4-b925e0c158b1","meta":{"profile":["http://hl7.org/fhir/us/qicore/StructureDefinition/qicore-patient"]},"extension":[{"url":"http://hl7.org/fhir/us/core/StructureDefinition/us-core-race","extension":[{"url":"ombCategory","valueCoding":{"system":"urn:oid:2.16.840.1.113883.6.238","code":"2106-3","display":"White"}},{"url":"text","valueString":"White"}]},{"url":"http://hl7.org/fhir/us/core/StructureDefinition/us-core-ethnicity","extension":[{"url":"ombCategory","valueCoding":{"system":"urn:oid:2.16.840.1.113883.6.238","code":"2135-2","display":"Hispanic or Latino"}},{"url":"text","valueString":"Hispanic or Latino"}]},{"url":"http://hl7.org/fhir/us/core/StructureDefinition/us-core-sex","valueCode":"248153007"}],"identifier":[{"system":"http://hospital.smarthealthit.org","value":"999999999"}],"name":[{"family":"Example","given":["Patient"]}],"gender":"female","birthDate":"1956-01-01"},"request":{"method":"PUT","url":"Patient/47e2c410-9c00-4f05-96b4-b925e0c158b1"}},{"fullUrl":"https://madie.cms.gov/MeasureReport/910e1221-e25c-4088-8c7e-09db436f06f2","resource":{"resourceType":"MeasureReport","id":"910e1221-e25c-4088-8c7e-09db436f06f2","meta":{"profile":["http://hl7.org/fhir/us/cqfmeasures/StructureDefinition/test-case-cqfm"]},"contained":[{"resourceType":"Parameters","id":"43372614-1039-4e28-899d-8ecf2d1bceef-parameters","parameter":[{"name":"subject","valueString":"47e2c410-9c00-4f05-96b4-b925e0c158b1"}]}],"extension":[{"url":"http://hl7.org/fhir/StructureDefinition/cqf-inputParameters","valueReference":{"reference":"#43372614-1039-4e28-899d-8ecf2d1bceef-parameters"}},{"url":"http://hl7.org/fhir/us/cqfmeasures/StructureDefinition/cqfm-testCaseDescription","valueMarkdown":"Encounter inpatient 3 days. Given antagonist, but no opioid administered. Fails IPP/denom"}],"modifierExtension":[{"url":"http://hl7.org/fhir/us/cqfmeasures/StructureDefinition/cqfm-isTestCase","valueBoolean":true}],"status":"complete","type":"individual","measure":"https://madie.cms.gov/Measure/CMS819FHIRHHORAE","period":{"start":"2026-01-01","end":"2026-12-31"},"group":[{"id":"Group_1","population":[{"id":"InitialPopulation_1","code":{"coding":[{"system":"http://terminology.hl7.org/CodeSystem/measure-population","code":"initial-population","display":"Initial Population"}]},"count":0},{"id":"Denominator_1","code":{"coding":[{"system":"http://terminology.hl7.org/CodeSystem/measure-population","code":"denominator","display":"Denominator"}]},"count":0},{"id":"Numerator_1","code":{"coding":[{"system":"http://terminology.hl7.org/CodeSystem/measure-population","code":"numerator","display":"Numerator"}]},"count":0}],"measureScore":{"value":0.0}}],"evaluatedResource":[{"reference":"MedicationAdministration/252ed3a0-4b52-4bc9-a2ec-48903df70464"},{"reference":"Encounter/2c50a05f-c67d-47bf-8df6-28a0e39cad5a"},{"reference":"Patient/47e2c410-9c00-4f05-96b4-b925e0c158b1"}]},"request":{"method":"PUT","url":"MeasureReport/910e1221-e25c-4088-8c7e-09db436f06f2"}}]},"request":{"method":"PUT","url":"Bundle/tests-IPPFail-AntagonistButNoOpioid-bundle"}},{"resource":{"resourceType":"Encounter","id":"2c50a05f-c67d-47bf-8df6-28a0e39cad5a","meta":{"profile":["http://hl7.org/fhir/us/qicore/StructureDefinition/qicore-encounter"]},"status":"finished","class":{"system":"http://terminology.hl7.org/CodeSystem/v3-ActCode","code":"IMP","display":"inpatient encounter"},"type":[{"coding":[{"system":"http://snomed.info/sct","code":"183452005","display":"Inpatient encounter"}]}],"subject":{"reference":"Patient/47e2c410-9c00-4f05-96b4-b925e0c158b1"},"period":{"start":"2026-02-12T08:00:00.000+00:00","end":"2026-02-15T08:15:00.000+00:00"}},"request":{"method":"PUT","url":"Encounter/2c50a05f-c67d-47bf-8df6-28a0e39cad5a"}},{"resource":{"resourceType":"MedicationAdministration","id":"252ed3a0-4b52-4bc9-a2ec-48903df70464","meta":{"profile":["http://hl7.org/fhir/us/qicore/StructureDefinition/qicore-medicationadministration"]},"status":"completed","medicationCodeableConcept":{"coding":[{"system":"http://www.nlm.nih.gov/research/umls/rxnorm","code":"1191222","display":"Opioid Antagonist"}]},"subject":{"reference":"Patient/47e2c410-9c00-4f05-96b4-b925e0c158b1"},"context":{"reference":"Encounter/2c50a05f-c67d-47bf-8df6-28a0e39cad5a"},"effectiveDateTime":"2026-02-13T08:00:00.000+00:00","note":[{"text":"Administered opioid antagonist as prescribed."}],"dosage":{"route":{"coding":[{"system":"http://snomed.info/sct","code":"34206005","display":"Oral"}]},"rateQuantity":{"value":1,"unit":"mg"}}},"request":{"method":"PUT","url":"MedicationAdministration/252ed3a0-4b52-4bc9-a2ec-48903df70464"}}]}