{"resourceType":"Bundle","id":"tests-bdd17c60-c755-4150-8137-fa3884903970-bundle","type":"transaction","entry":[{"fullUrl":"Patient/bdd17c60-c755-4150-8137-fa3884903970","resource":{"resourceType":"Patient","id":"bdd17c60-c755-4150-8137-fa3884903970","meta":{"profile":["http://hl7.org/fhir/us/qicore/StructureDefinition/qicore-patient"]},"extension":[{"url":"http://hl7.org/fhir/us/core/StructureDefinition/us-core-race","extension":[{"url":"ombCategory","valueCoding":{"system":"urn:oid:2.16.840.1.113883.6.238","code":"2106-3","display":"White"}},{"url":"text","valueString":"White"}]},{"url":"http://hl7.org/fhir/us/core/StructureDefinition/us-core-ethnicity","extension":[{"url":"ombCategory","valueCoding":{"system":"urn:oid:2.16.840.1.113883.6.238","code":"2135-2","display":"Hispanic or Latino"}},{"url":"text","valueString":"Hispanic or Latino"}]},{"url":"http://hl7.org/fhir/us/core/StructureDefinition/us-core-sex","valueCode":"248153007"}],"identifier":[{"system":"http://hospital.smarthealthit.org","value":"999999999"}],"name":[{"family":"Example","given":["Patient"]}],"gender":"female","birthDate":"1956-01-01"},"request":{"method":"PUT","url":"Patient/bdd17c60-c755-4150-8137-fa3884903970"}},{"fullUrl":"Bundle/tests-DenomPass-OpioidDuringEncounter-bundle","resource":{"resourceType":"Bundle","id":"tests-DenomPass-OpioidDuringEncounter-bundle","type":"transaction","entry":[{"fullUrl":"https://madie.cms.gov/MedicationAdministration/42de7c1f-b92d-4c18-9d3b-9e168fee2f66","resource":{"resourceType":"MedicationAdministration","id":"42de7c1f-b92d-4c18-9d3b-9e168fee2f66","meta":{"profile":["http://hl7.org/fhir/us/qicore/StructureDefinition/qicore-medicationadministration"]},"status":"completed","medicationCodeableConcept":{"coding":[{"system":"http://www.nlm.nih.gov/research/umls/rxnorm","code":"1010600","display":"Opioids, All"}]},"subject":{"reference":"Patient/bdd17c60-c755-4150-8137-fa3884903970"},"effectiveDateTime":"2026-04-07T08:00:00.000+00:00"},"request":{"method":"PUT","url":"MedicationAdministration/42de7c1f-b92d-4c18-9d3b-9e168fee2f66"}},{"fullUrl":"https://madie.cms.gov/Encounter/858c663a-49cc-4c70-947f-2f30938a0522","resource":{"resourceType":"Encounter","id":"858c663a-49cc-4c70-947f-2f30938a0522","meta":{"profile":["http://hl7.org/fhir/us/qicore/StructureDefinition/qicore-encounter"]},"status":"finished","class":{"system":"http://terminology.hl7.org/CodeSystem/v3-ActCode","code":"IMP","display":"inpatient encounter"},"type":[{"coding":[{"system":"http://snomed.info/sct","code":"183452005","display":"Inpatient encounter"}]}],"subject":{"reference":"Patient/bdd17c60-c755-4150-8137-fa3884903970"},"period":{"start":"2026-04-07T08:00:00.000+00:00","end":"2026-04-09T08:15:00.000+00:00"}},"request":{"method":"PUT","url":"Encounter/858c663a-49cc-4c70-947f-2f30938a0522"}},{"fullUrl":"https://madie.cms.gov/Patient/bdd17c60-c755-4150-8137-fa3884903970","resource":{"resourceType":"Patient","id":"bdd17c60-c755-4150-8137-fa3884903970","meta":{"profile":["http://hl7.org/fhir/us/qicore/StructureDefinition/qicore-patient"]},"extension":[{"url":"http://hl7.org/fhir/us/core/StructureDefinition/us-core-race","extension":[{"url":"ombCategory","valueCoding":{"system":"urn:oid:2.16.840.1.113883.6.238","code":"2106-3","display":"White"}},{"url":"text","valueString":"White"}]},{"url":"http://hl7.org/fhir/us/core/StructureDefinition/us-core-ethnicity","extension":[{"url":"ombCategory","valueCoding":{"system":"urn:oid:2.16.840.1.113883.6.238","code":"2135-2","display":"Hispanic or Latino"}},{"url":"text","valueString":"Hispanic or Latino"}]},{"url":"http://hl7.org/fhir/us/core/StructureDefinition/us-core-sex","valueCode":"248153007"}],"identifier":[{"system":"http://hospital.smarthealthit.org","value":"999999999"}],"name":[{"family":"Example","given":["Patient"]}],"gender":"female","birthDate":"1956-01-01"},"request":{"method":"PUT","url":"Patient/bdd17c60-c755-4150-8137-fa3884903970"}},{"fullUrl":"https://madie.cms.gov/MeasureReport/5cd6fa63-1b20-4f47-8e84-d93c57d20cab","resource":{"resourceType":"MeasureReport","id":"5cd6fa63-1b20-4f47-8e84-d93c57d20cab","meta":{"profile":["http://hl7.org/fhir/us/cqfmeasures/StructureDefinition/test-case-cqfm"]},"contained":[{"resourceType":"Parameters","id":"24fc94d7-e325-4031-8447-8ba277169c65-parameters","parameter":[{"name":"subject","valueString":"bdd17c60-c755-4150-8137-fa3884903970"}]}],"extension":[{"url":"http://hl7.org/fhir/StructureDefinition/cqf-inputParameters","valueReference":{"reference":"#24fc94d7-e325-4031-8447-8ba277169c65-parameters"}},{"url":"http://hl7.org/fhir/us/cqfmeasures/StructureDefinition/cqfm-testCaseDescription","valueMarkdown":"Inpatient encounter. Opioid given during encounter and outside of OR. Meets IPP/Denom"}],"modifierExtension":[{"url":"http://hl7.org/fhir/us/cqfmeasures/StructureDefinition/cqfm-isTestCase","valueBoolean":true}],"status":"complete","type":"individual","measure":"https://madie.cms.gov/Measure/CMS819FHIRHHORAE","period":{"start":"2026-01-01","end":"2026-12-31"},"group":[{"id":"Group_1","population":[{"id":"InitialPopulation_1","code":{"coding":[{"system":"http://terminology.hl7.org/CodeSystem/measure-population","code":"initial-population","display":"Initial Population"}]},"count":1},{"id":"Denominator_1","code":{"coding":[{"system":"http://terminology.hl7.org/CodeSystem/measure-population","code":"denominator","display":"Denominator"}]},"count":1},{"id":"Numerator_1","code":{"coding":[{"system":"http://terminology.hl7.org/CodeSystem/measure-population","code":"numerator","display":"Numerator"}]},"count":0}],"measureScore":{"value":0.0}}],"evaluatedResource":[{"reference":"MedicationAdministration/42de7c1f-b92d-4c18-9d3b-9e168fee2f66"},{"reference":"Encounter/858c663a-49cc-4c70-947f-2f30938a0522"},{"reference":"Patient/bdd17c60-c755-4150-8137-fa3884903970"}]},"request":{"method":"PUT","url":"MeasureReport/5cd6fa63-1b20-4f47-8e84-d93c57d20cab"}}]},"request":{"method":"PUT","url":"Bundle/tests-DenomPass-OpioidDuringEncounter-bundle"}},{"fullUrl":"MeasureReport/5cd6fa63-1b20-4f47-8e84-d93c57d20cab","resource":{"resourceType":"MeasureReport","id":"5cd6fa63-1b20-4f47-8e84-d93c57d20cab","meta":{"profile":["http://hl7.org/fhir/us/cqfmeasures/StructureDefinition/test-case-cqfm"]},"contained":[{"resourceType":"Parameters","id":"24fc94d7-e325-4031-8447-8ba277169c65-parameters","parameter":[{"name":"subject","valueString":"bdd17c60-c755-4150-8137-fa3884903970"}]}],"extension":[{"url":"http://hl7.org/fhir/StructureDefinition/cqf-inputParameters","valueReference":{"reference":"#24fc94d7-e325-4031-8447-8ba277169c65-parameters"}},{"url":"http://hl7.org/fhir/us/cqfmeasures/StructureDefinition/cqfm-testCaseDescription","valueMarkdown":"Inpatient encounter. Opioid given during encounter and outside of OR. Meets IPP/Denom"}],"modifierExtension":[{"url":"http://hl7.org/fhir/us/cqfmeasures/StructureDefinition/cqfm-isTestCase","valueBoolean":true}],"status":"complete","type":"individual","measure":"https://madie.cms.gov/Measure/CMS819FHIRHHORAE","period":{"start":"2026-01-01","end":"2026-12-31"},"group":[{"id":"Group_1","population":[{"id":"InitialPopulation_1","code":{"coding":[{"system":"http://terminology.hl7.org/CodeSystem/measure-population","code":"initial-population","display":"Initial Population"}]},"count":1},{"id":"Denominator_1","code":{"coding":[{"system":"http://terminology.hl7.org/CodeSystem/measure-population","code":"denominator","display":"Denominator"}]},"count":1},{"id":"Numerator_1","code":{"coding":[{"system":"http://terminology.hl7.org/CodeSystem/measure-population","code":"numerator","display":"Numerator"}]},"count":0}],"measureScore":{"value":0.0}}],"evaluatedResource":[{"reference":"MedicationAdministration/42de7c1f-b92d-4c18-9d3b-9e168fee2f66"},{"reference":"Encounter/858c663a-49cc-4c70-947f-2f30938a0522"},{"reference":"Patient/bdd17c60-c755-4150-8137-fa3884903970"}]},"request":{"method":"PUT","url":"MeasureReport/5cd6fa63-1b20-4f47-8e84-d93c57d20cab"}},{"fullUrl":"MedicationAdministration/42de7c1f-b92d-4c18-9d3b-9e168fee2f66","resource":{"resourceType":"MedicationAdministration","id":"42de7c1f-b92d-4c18-9d3b-9e168fee2f66","meta":{"profile":["http://hl7.org/fhir/us/qicore/StructureDefinition/qicore-medicationadministration"]},"status":"completed","medicationCodeableConcept":{"coding":[{"system":"http://www.nlm.nih.gov/research/umls/rxnorm","code":"1010600","display":"Opioids, All"}]},"subject":{"reference":"Patient/bdd17c60-c755-4150-8137-fa3884903970"},"effectiveDateTime":"2026-04-07T08:00:00.000+00:00"},"request":{"method":"PUT","url":"MedicationAdministration/42de7c1f-b92d-4c18-9d3b-9e168fee2f66"}},{"fullUrl":"Encounter/858c663a-49cc-4c70-947f-2f30938a0522","resource":{"resourceType":"Encounter","id":"858c663a-49cc-4c70-947f-2f30938a0522","meta":{"profile":["http://hl7.org/fhir/us/qicore/StructureDefinition/qicore-encounter"]},"status":"finished","class":{"system":"http://terminology.hl7.org/CodeSystem/v3-ActCode","code":"IMP","display":"inpatient encounter"},"type":[{"coding":[{"system":"http://snomed.info/sct","code":"183452005","display":"Inpatient encounter"}]}],"subject":{"reference":"Patient/bdd17c60-c755-4150-8137-fa3884903970"},"period":{"start":"2026-04-07T08:00:00.000+00:00","end":"2026-04-09T08:15:00.000+00:00"}},"request":{"method":"PUT","url":"Encounter/858c663a-49cc-4c70-947f-2f30938a0522"}}]}