{"resourceType":"Bundle","id":"tests-cf4e9832-fad4-4041-9c6b-e7605bf0b3a0-bundle","type":"transaction","entry":[{"fullUrl":"Encounter/135ea71a-6e25-4e11-9c12-91cd23e22b47","resource":{"resourceType":"Encounter","id":"135ea71a-6e25-4e11-9c12-91cd23e22b47","meta":{"profile":["http://hl7.org/fhir/us/qicore/StructureDefinition/qicore-encounter"]},"status":"finished","class":{"system":"http://terminology.hl7.org/CodeSystem/v3-ActCode","code":"IMP","display":"inpatient encounter"},"type":[{"coding":[{"system":"http://snomed.info/sct","code":"183452005"}]}],"subject":{"reference":"Patient/cf4e9832-fad4-4041-9c6b-e7605bf0b3a0"},"period":{"start":"2026-08-11T08:00:00.000+00:00","end":"2026-08-14T08:15:00.000+00:00"},"location":[{"location":{"reference":"Location/f334ae9f-85a3-4346-8ad4-ffb5b61d3598"},"period":{"start":"2026-08-11T08:00:00.000+00:00","end":"2026-08-13T08:00:00.000+00:00"}}]},"request":{"method":"PUT","url":"Encounter/135ea71a-6e25-4e11-9c12-91cd23e22b47"}},{"fullUrl":"MedicationAdministration/4d30a5ad-5750-4b2a-a87c-5476f5f6deb3","resource":{"resourceType":"MedicationAdministration","id":"4d30a5ad-5750-4b2a-a87c-5476f5f6deb3","meta":{"profile":["http://hl7.org/fhir/us/qicore/StructureDefinition/qicore-medicationadministration"]},"status":"completed","medicationCodeableConcept":{"coding":[{"system":"http://www.nlm.nih.gov/research/umls/rxnorm","code":"1010600"}]},"subject":{"reference":"Patient/cf4e9832-fad4-4041-9c6b-e7605bf0b3a0"},"effectivePeriod":{"start":"2026-08-11T08:00:00.000+00:00","end":"2026-08-11T08:15:00.000+00:00"}},"request":{"method":"PUT","url":"MedicationAdministration/4d30a5ad-5750-4b2a-a87c-5476f5f6deb3"}},{"fullUrl":"MeasureReport/c297d81d-905f-455d-b1bf-8984c0d97347","resource":{"resourceType":"MeasureReport","id":"c297d81d-905f-455d-b1bf-8984c0d97347","meta":{"profile":["http://hl7.org/fhir/us/cqfmeasures/StructureDefinition/test-case-cqfm"]},"contained":[{"resourceType":"Parameters","id":"a7fa3533-bdbb-4553-a2d9-05444b314e53-parameters","parameter":[{"name":"subject","valueString":"cf4e9832-fad4-4041-9c6b-e7605bf0b3a0"}]}],"extension":[{"url":"http://hl7.org/fhir/StructureDefinition/cqf-inputParameters","valueReference":{"reference":"#a7fa3533-bdbb-4553-a2d9-05444b314e53-parameters"}},{"url":"http://hl7.org/fhir/us/cqfmeasures/StructureDefinition/cqfm-testCaseDescription","valueMarkdown":"Encounter with Opioid Administration Within The Operating Room"}],"modifierExtension":[{"url":"http://hl7.org/fhir/us/cqfmeasures/StructureDefinition/cqfm-isTestCase","valueBoolean":true}],"status":"complete","type":"individual","measure":"https://madie.cms.gov/Measure/CMS819FHIRHHORAE","period":{"start":"2026-01-01","end":"2026-12-31"},"group":[{"id":"Group_1","population":[{"id":"InitialPopulation_1","code":{"coding":[{"system":"http://terminology.hl7.org/CodeSystem/measure-population","code":"initial-population","display":"Initial Population"}]},"count":0},{"id":"Denominator_1","code":{"coding":[{"system":"http://terminology.hl7.org/CodeSystem/measure-population","code":"denominator","display":"Denominator"}]},"count":0},{"id":"Numerator_1","code":{"coding":[{"system":"http://terminology.hl7.org/CodeSystem/measure-population","code":"numerator","display":"Numerator"}]},"count":0}],"measureScore":{"value":0.0}}],"evaluatedResource":[{"reference":"Patient/cf4e9832-fad4-4041-9c6b-e7605bf0b3a0"},{"reference":"Encounter/135ea71a-6e25-4e11-9c12-91cd23e22b47"},{"reference":"MedicationAdministration/4d30a5ad-5750-4b2a-a87c-5476f5f6deb3"},{"reference":"MedicationAdministration/acb95ccc-b8a6-45a6-b7bb-54d31de9cb1d"},{"reference":"MedicationAdministration/b254964f-fafb-4232-8082-9902facc46b9"},{"reference":"Location/f334ae9f-85a3-4346-8ad4-ffb5b61d3598"}]},"request":{"method":"PUT","url":"MeasureReport/c297d81d-905f-455d-b1bf-8984c0d97347"}},{"fullUrl":"Bundle/627a80a15a0d870123c7253e","resource":{"resourceType":"Bundle","id":"627a80a15a0d870123c7253e","type":"transaction","entry":[{"fullUrl":"https://madie.cms.gov/Patient/cf4e9832-fad4-4041-9c6b-e7605bf0b3a0","resource":{"resourceType":"Patient","id":"cf4e9832-fad4-4041-9c6b-e7605bf0b3a0","meta":{"profile":["http://hl7.org/fhir/us/qicore/StructureDefinition/qicore-patient"]},"text":{"status":"generated","div":"<div xmlns=\"http://www.w3.org/1999/xhtml\"><div class=\"hapiHeaderText\">Opioid exactly 12 hrs before Naloxone <b>NUMERPASS </b></div><table class=\"hapiPropertyTable\"><tbody><tr><td>Date of birth</td><td><span>14 November 1980</span></td></tr></tbody></table></div>"},"extension":[{"url":"http://hl7.org/fhir/us/core/StructureDefinition/us-core-race","extension":[{"url":"ombCategory","valueCoding":{"system":"urn:oid:2.16.840.1.113883.6.238","code":"1002-5","display":"American Indian or Alaska Native","userSelected":true}},{"url":"text","valueString":"American Indian or Alaska Native"}]},{"url":"http://hl7.org/fhir/us/core/StructureDefinition/us-core-ethnicity","extension":[{"url":"ombCategory","valueCoding":{"system":"urn:oid:2.16.840.1.113883.6.238","code":"2135-2","display":"Hispanic or Latino","userSelected":true}},{"url":"text","valueString":"Hispanic or Latino"}]}],"identifier":[{"type":{"coding":[{"system":"http://terminology.hl7.org/CodeSystem/v2-0203","code":"MR"}]},"system":"https://bonnie-fhir.healthit.gov/","value":"627a80a15a0d870123c7253e"}],"active":true,"name":[{"use":"usual","family":"NUMERPass","given":["OpioidExactly12hrsBeforeAntagonist"]}],"gender":"female","birthDate":"1981-11-14"},"request":{"method":"PUT","url":"Patient/cf4e9832-fad4-4041-9c6b-e7605bf0b3a0"}},{"fullUrl":"https://madie.cms.gov/Encounter/135ea71a-6e25-4e11-9c12-91cd23e22b47","resource":{"resourceType":"Encounter","id":"135ea71a-6e25-4e11-9c12-91cd23e22b47","meta":{"profile":["http://hl7.org/fhir/us/qicore/StructureDefinition/qicore-encounter"]},"status":"finished","class":{"system":"http://terminology.hl7.org/CodeSystem/v3-ActCode","code":"IMP","display":"inpatient encounter"},"type":[{"coding":[{"system":"http://snomed.info/sct","code":"183452005"}]}],"subject":{"reference":"Patient/cf4e9832-fad4-4041-9c6b-e7605bf0b3a0"},"period":{"start":"2026-08-11T08:00:00.000+00:00","end":"2026-08-14T08:15:00.000+00:00"},"location":[{"location":{"reference":"Location/f334ae9f-85a3-4346-8ad4-ffb5b61d3598"},"period":{"start":"2026-08-11T08:00:00.000+00:00","end":"2026-08-13T08:00:00.000+00:00"}}]},"request":{"method":"PUT","url":"Encounter/135ea71a-6e25-4e11-9c12-91cd23e22b47"}},{"fullUrl":"https://madie.cms.gov/MedicationAdministration/4d30a5ad-5750-4b2a-a87c-5476f5f6deb3","resource":{"resourceType":"MedicationAdministration","id":"4d30a5ad-5750-4b2a-a87c-5476f5f6deb3","meta":{"profile":["http://hl7.org/fhir/us/qicore/StructureDefinition/qicore-medicationadministration"]},"status":"completed","medicationCodeableConcept":{"coding":[{"system":"http://www.nlm.nih.gov/research/umls/rxnorm","code":"1010600"}]},"subject":{"reference":"Patient/cf4e9832-fad4-4041-9c6b-e7605bf0b3a0"},"effectivePeriod":{"start":"2026-08-11T08:00:00.000+00:00","end":"2026-08-11T08:15:00.000+00:00"}},"request":{"method":"PUT","url":"MedicationAdministration/4d30a5ad-5750-4b2a-a87c-5476f5f6deb3"}},{"fullUrl":"https://madie.cms.gov/MedicationAdministration/acb95ccc-b8a6-45a6-b7bb-54d31de9cb1d","resource":{"resourceType":"MedicationAdministration","id":"acb95ccc-b8a6-45a6-b7bb-54d31de9cb1d","meta":{"profile":["http://hl7.org/fhir/us/qicore/StructureDefinition/qicore-medicationadministration"]},"status":"completed","medicationCodeableConcept":{"coding":[{"system":"http://www.nlm.nih.gov/research/umls/rxnorm","version":"2022-04","code":"1659929","display":"1 ML naloxone hydrochloride 0.4 MG/ML Injection","userSelected":true}]},"subject":{"reference":"Patient/cf4e9832-fad4-4041-9c6b-e7605bf0b3a0"},"effectivePeriod":{"start":"2026-08-11T20:15:00.000+00:00"},"dosage":{"route":{"coding":[{"system":"http://snomed.info/sct","code":"34206005","display":"Subcutaneous route (qualifier value)","userSelected":true}]},"dose":{"value":0.4,"unit":"mg","system":"http://unitsofmeasure.org","code":"mg"}}},"request":{"method":"PUT","url":"MedicationAdministration/acb95ccc-b8a6-45a6-b7bb-54d31de9cb1d"}},{"fullUrl":"https://madie.cms.gov/MedicationAdministration/b254964f-fafb-4232-8082-9902facc46b9","resource":{"resourceType":"MedicationAdministration","id":"b254964f-fafb-4232-8082-9902facc46b9","meta":{"profile":["http://hl7.org/fhir/us/qicore/StructureDefinition/qicore-medicationadministration"]},"status":"completed","medicationCodeableConcept":{"coding":[{"system":"http://www.nlm.nih.gov/research/umls/rxnorm","code":"199059","display":"Naloxone Hydrochloride Injection","userSelected":true}]},"subject":{"reference":"Patient/cf4e9832-fad4-4041-9c6b-e7605bf0b3a0"},"effectivePeriod":{"start":"2026-08-11T19:45:00.000+00:00"},"dosage":{"route":{"coding":[{"system":"http://snomed.info/sct","code":"34206005","display":"Subcutaneous route (qualifier value)","userSelected":true}]},"dose":{"value":0.4,"unit":"mg","system":"http://unitsofmeasure.org","code":"mg"}}},"request":{"method":"PUT","url":"MedicationAdministration/b254964f-fafb-4232-8082-9902facc46b9"}},{"fullUrl":"https://madie.cms.gov/Location/f334ae9f-85a3-4346-8ad4-ffb5b61d3598","resource":{"resourceType":"Location","id":"f334ae9f-85a3-4346-8ad4-ffb5b61d3598","meta":{"profile":["http://hl7.org/fhir/us/qicore/StructureDefinition/qicore-location"]},"identifier":[{"use":"usual","system":"http://exampleoflocation.com","value":"B1-S.F2"}],"name":"Medical Surgical East, first floor","type":[{"coding":[{"system":"https://www.cdc.gov/nhsn/cdaportal/terminology/codesystem/hsloc.html","code":"1096-7","display":"Operating Room/Suite"}]}]},"request":{"method":"PUT","url":"Location/f334ae9f-85a3-4346-8ad4-ffb5b61d3598"}},{"fullUrl":"https://madie.cms.gov/MeasureReport/c297d81d-905f-455d-b1bf-8984c0d97347","resource":{"resourceType":"MeasureReport","id":"c297d81d-905f-455d-b1bf-8984c0d97347","meta":{"profile":["http://hl7.org/fhir/us/cqfmeasures/StructureDefinition/test-case-cqfm"]},"contained":[{"resourceType":"Parameters","id":"a7fa3533-bdbb-4553-a2d9-05444b314e53-parameters","parameter":[{"name":"subject","valueString":"cf4e9832-fad4-4041-9c6b-e7605bf0b3a0"}]}],"extension":[{"url":"http://hl7.org/fhir/StructureDefinition/cqf-inputParameters","valueReference":{"reference":"#a7fa3533-bdbb-4553-a2d9-05444b314e53-parameters"}},{"url":"http://hl7.org/fhir/us/cqfmeasures/StructureDefinition/cqfm-testCaseDescription","valueMarkdown":"Encounter with Opioid Administration Within The Operating Room"}],"modifierExtension":[{"url":"http://hl7.org/fhir/us/cqfmeasures/StructureDefinition/cqfm-isTestCase","valueBoolean":true}],"status":"complete","type":"individual","measure":"https://madie.cms.gov/Measure/CMS819FHIRHHORAE","period":{"start":"2026-01-01","end":"2026-12-31"},"group":[{"id":"Group_1","population":[{"id":"InitialPopulation_1","code":{"coding":[{"system":"http://terminology.hl7.org/CodeSystem/measure-population","code":"initial-population","display":"Initial Population"}]},"count":0},{"id":"Denominator_1","code":{"coding":[{"system":"http://terminology.hl7.org/CodeSystem/measure-population","code":"denominator","display":"Denominator"}]},"count":0},{"id":"Numerator_1","code":{"coding":[{"system":"http://terminology.hl7.org/CodeSystem/measure-population","code":"numerator","display":"Numerator"}]},"count":0}],"measureScore":{"value":0.0}}],"evaluatedResource":[{"reference":"Patient/cf4e9832-fad4-4041-9c6b-e7605bf0b3a0"},{"reference":"Encounter/135ea71a-6e25-4e11-9c12-91cd23e22b47"},{"reference":"MedicationAdministration/4d30a5ad-5750-4b2a-a87c-5476f5f6deb3"},{"reference":"MedicationAdministration/acb95ccc-b8a6-45a6-b7bb-54d31de9cb1d"},{"reference":"MedicationAdministration/b254964f-fafb-4232-8082-9902facc46b9"},{"reference":"Location/f334ae9f-85a3-4346-8ad4-ffb5b61d3598"}]},"request":{"method":"PUT","url":"MeasureReport/c297d81d-905f-455d-b1bf-8984c0d97347"}}]},"request":{"method":"PUT","url":"Bundle/627a80a15a0d870123c7253e"}},{"fullUrl":"Patient/cf4e9832-fad4-4041-9c6b-e7605bf0b3a0","resource":{"resourceType":"Patient","id":"cf4e9832-fad4-4041-9c6b-e7605bf0b3a0","meta":{"profile":["http://hl7.org/fhir/us/qicore/StructureDefinition/qicore-patient"]},"text":{"status":"generated","div":"<div xmlns=\"http://www.w3.org/1999/xhtml\"><div class=\"hapiHeaderText\">Opioid exactly 12 hrs before Naloxone <b>NUMERPASS </b></div><table class=\"hapiPropertyTable\"><tbody><tr><td>Date of birth</td><td><span>14 November 1980</span></td></tr></tbody></table></div>"},"extension":[{"url":"http://hl7.org/fhir/us/core/StructureDefinition/us-core-race","extension":[{"url":"ombCategory","valueCoding":{"system":"urn:oid:2.16.840.1.113883.6.238","code":"1002-5","display":"American Indian or Alaska Native","userSelected":true}},{"url":"text","valueString":"American Indian or Alaska Native"}]},{"url":"http://hl7.org/fhir/us/core/StructureDefinition/us-core-ethnicity","extension":[{"url":"ombCategory","valueCoding":{"system":"urn:oid:2.16.840.1.113883.6.238","code":"2135-2","display":"Hispanic or Latino","userSelected":true}},{"url":"text","valueString":"Hispanic or Latino"}]}],"identifier":[{"type":{"coding":[{"system":"http://terminology.hl7.org/CodeSystem/v2-0203","code":"MR"}]},"system":"https://bonnie-fhir.healthit.gov/","value":"627a80a15a0d870123c7253e"}],"active":true,"name":[{"use":"usual","family":"NUMERPass","given":["OpioidExactly12hrsBeforeAntagonist"]}],"gender":"female","birthDate":"1981-11-14"},"request":{"method":"PUT","url":"Patient/cf4e9832-fad4-4041-9c6b-e7605bf0b3a0"}},{"fullUrl":"MedicationAdministration/b254964f-fafb-4232-8082-9902facc46b9","resource":{"resourceType":"MedicationAdministration","id":"b254964f-fafb-4232-8082-9902facc46b9","meta":{"profile":["http://hl7.org/fhir/us/qicore/StructureDefinition/qicore-medicationadministration"]},"status":"completed","medicationCodeableConcept":{"coding":[{"system":"http://www.nlm.nih.gov/research/umls/rxnorm","code":"199059","display":"Naloxone Hydrochloride Injection","userSelected":true}]},"subject":{"reference":"Patient/cf4e9832-fad4-4041-9c6b-e7605bf0b3a0"},"effectivePeriod":{"start":"2026-08-11T19:45:00.000+00:00"},"dosage":{"route":{"coding":[{"system":"http://snomed.info/sct","code":"34206005","display":"Subcutaneous route (qualifier value)","userSelected":true}]},"dose":{"value":0.4,"unit":"mg","system":"http://unitsofmeasure.org","code":"mg"}}},"request":{"method":"PUT","url":"MedicationAdministration/b254964f-fafb-4232-8082-9902facc46b9"}},{"fullUrl":"MedicationAdministration/acb95ccc-b8a6-45a6-b7bb-54d31de9cb1d","resource":{"resourceType":"MedicationAdministration","id":"acb95ccc-b8a6-45a6-b7bb-54d31de9cb1d","meta":{"profile":["http://hl7.org/fhir/us/qicore/StructureDefinition/qicore-medicationadministration"]},"status":"completed","medicationCodeableConcept":{"coding":[{"system":"http://www.nlm.nih.gov/research/umls/rxnorm","version":"2022-04","code":"1659929","display":"1 ML naloxone hydrochloride 0.4 MG/ML Injection","userSelected":true}]},"subject":{"reference":"Patient/cf4e9832-fad4-4041-9c6b-e7605bf0b3a0"},"effectivePeriod":{"start":"2026-08-11T20:15:00.000+00:00"},"dosage":{"route":{"coding":[{"system":"http://snomed.info/sct","code":"34206005","display":"Subcutaneous route (qualifier value)","userSelected":true}]},"dose":{"value":0.4,"unit":"mg","system":"http://unitsofmeasure.org","code":"mg"}}},"request":{"method":"PUT","url":"MedicationAdministration/acb95ccc-b8a6-45a6-b7bb-54d31de9cb1d"}},{"fullUrl":"Location/f334ae9f-85a3-4346-8ad4-ffb5b61d3598","resource":{"resourceType":"Location","id":"f334ae9f-85a3-4346-8ad4-ffb5b61d3598","meta":{"profile":["http://hl7.org/fhir/us/qicore/StructureDefinition/qicore-location"]},"identifier":[{"use":"usual","system":"http://exampleoflocation.com","value":"B1-S.F2"}],"name":"Medical Surgical East, first floor","type":[{"coding":[{"system":"https://www.cdc.gov/nhsn/cdaportal/terminology/codesystem/hsloc.html","code":"1096-7","display":"Operating Room/Suite"}]}]},"request":{"method":"PUT","url":"Location/f334ae9f-85a3-4346-8ad4-ffb5b61d3598"}}]}