{"resourceType":"Bundle","id":"tests-b88740a3-5143-4b36-ae0d-75a6b95db7e2-bundle","type":"transaction","entry":[{"fullUrl":"MeasureReport/58b8bb5d-c84f-4946-9494-c4affb56a883","resource":{"resourceType":"MeasureReport","id":"58b8bb5d-c84f-4946-9494-c4affb56a883","meta":{"profile":["http://hl7.org/fhir/us/cqfmeasures/StructureDefinition/test-case-cqfm"]},"contained":[{"resourceType":"Parameters","id":"a742ed99-64b0-4107-b9cc-d2190f6e5c8d-parameters","parameter":[{"name":"subject","valueString":"b88740a3-5143-4b36-ae0d-75a6b95db7e2"}]}],"extension":[{"url":"http://hl7.org/fhir/StructureDefinition/cqf-inputParameters","valueReference":{"reference":"#a742ed99-64b0-4107-b9cc-d2190f6e5c8d-parameters"}},{"url":"http://hl7.org/fhir/us/cqfmeasures/StructureDefinition/cqfm-testCaseDescription","valueMarkdown":"Opioid antagonist outside of OR given 1 minute after encounter end date time. Must be during encounter to meet. Numerator fails."}],"modifierExtension":[{"url":"http://hl7.org/fhir/us/cqfmeasures/StructureDefinition/cqfm-isTestCase","valueBoolean":true}],"status":"complete","type":"individual","measure":"https://madie.cms.gov/Measure/CMS819FHIRHHORAE","period":{"start":"2026-01-01","end":"2026-12-31"},"group":[{"id":"Group_1","population":[{"id":"InitialPopulation_1","code":{"coding":[{"system":"http://terminology.hl7.org/CodeSystem/measure-population","code":"initial-population","display":"Initial Population"}]},"count":1},{"id":"Denominator_1","code":{"coding":[{"system":"http://terminology.hl7.org/CodeSystem/measure-population","code":"denominator","display":"Denominator"}]},"count":1},{"id":"Numerator_1","code":{"coding":[{"system":"http://terminology.hl7.org/CodeSystem/measure-population","code":"numerator","display":"Numerator"}]},"count":0}],"measureScore":{"value":0.0}}],"evaluatedResource":[{"reference":"MedicationAdministration/48817db3-aec8-4b53-a9e9-453f719ac221"},{"reference":"MedicationAdministration/673df3d8-3bc0-4a7e-bd14-97d04432f018"},{"reference":"Encounter/0c0287ba-89f4-432d-952d-b5bff2294697"},{"reference":"Patient/b88740a3-5143-4b36-ae0d-75a6b95db7e2"}]},"request":{"method":"PUT","url":"MeasureReport/58b8bb5d-c84f-4946-9494-c4affb56a883"}},{"fullUrl":"MedicationAdministration/48817db3-aec8-4b53-a9e9-453f719ac221","resource":{"resourceType":"MedicationAdministration","id":"48817db3-aec8-4b53-a9e9-453f719ac221","meta":{"profile":["http://hl7.org/fhir/us/qicore/StructureDefinition/qicore-medicationadministration"]},"status":"completed","medicationCodeableConcept":{"coding":[{"system":"http://www.nlm.nih.gov/research/umls/rxnorm","code":"1191222","display":"Opioid Antagonist"}]},"subject":{"reference":"Patient/b88740a3-5143-4b36-ae0d-75a6b95db7e2"},"context":{"reference":"Encounter/0c0287ba-89f4-432d-952d-b5bff2294697"},"effectiveDateTime":"2026-10-31T08:16:00.000+00:00","note":[{"text":"Administered opioid antagonist intravenously as prescribed."}],"dosage":{"route":{"coding":[{"system":"http://terminology.hl7.org/CodeSystem/v3-RouteOfAdministration","code":"26643006","display":"Intravenous"}]},"rateQuantity":{"value":2,"unit":"mg"}}},"request":{"method":"PUT","url":"MedicationAdministration/48817db3-aec8-4b53-a9e9-453f719ac221"}},{"fullUrl":"Bundle/tests-NUMERFail-AntagonistAfterEncounterEnds-bundle","resource":{"resourceType":"Bundle","id":"tests-NUMERFail-AntagonistAfterEncounterEnds-bundle","type":"transaction","entry":[{"fullUrl":"https://madie.cms.gov/MedicationAdministration/48817db3-aec8-4b53-a9e9-453f719ac221","resource":{"resourceType":"MedicationAdministration","id":"48817db3-aec8-4b53-a9e9-453f719ac221","meta":{"profile":["http://hl7.org/fhir/us/qicore/StructureDefinition/qicore-medicationadministration"]},"status":"completed","medicationCodeableConcept":{"coding":[{"system":"http://www.nlm.nih.gov/research/umls/rxnorm","code":"1191222","display":"Opioid Antagonist"}]},"subject":{"reference":"Patient/b88740a3-5143-4b36-ae0d-75a6b95db7e2"},"context":{"reference":"Encounter/0c0287ba-89f4-432d-952d-b5bff2294697"},"effectiveDateTime":"2026-10-31T08:16:00.000+00:00","note":[{"text":"Administered opioid antagonist intravenously as prescribed."}],"dosage":{"route":{"coding":[{"system":"http://terminology.hl7.org/CodeSystem/v3-RouteOfAdministration","code":"26643006","display":"Intravenous"}]},"rateQuantity":{"value":2,"unit":"mg"}}},"request":{"method":"PUT","url":"MedicationAdministration/48817db3-aec8-4b53-a9e9-453f719ac221"}},{"fullUrl":"https://madie.cms.gov/MedicationAdministration/673df3d8-3bc0-4a7e-bd14-97d04432f018","resource":{"resourceType":"MedicationAdministration","id":"673df3d8-3bc0-4a7e-bd14-97d04432f018","meta":{"profile":["http://hl7.org/fhir/us/qicore/StructureDefinition/qicore-medicationadministration"]},"status":"completed","medicationCodeableConcept":{"coding":[{"system":"http://www.nlm.nih.gov/research/umls/rxnorm","code":"1010600","display":"Opioids, All"}]},"subject":{"reference":"Patient/b88740a3-5143-4b36-ae0d-75a6b95db7e2"},"context":{"reference":"Encounter/0c0287ba-89f4-432d-952d-b5bff2294697"},"effectiveDateTime":"2026-10-31T08:00:00.000+00:00","note":[{"text":"Administered opioid medication as prescribed."}],"dosage":{"rateQuantity":{"value":1,"unit":"mg"}}},"request":{"method":"PUT","url":"MedicationAdministration/673df3d8-3bc0-4a7e-bd14-97d04432f018"}},{"fullUrl":"https://madie.cms.gov/Encounter/0c0287ba-89f4-432d-952d-b5bff2294697","resource":{"resourceType":"Encounter","id":"0c0287ba-89f4-432d-952d-b5bff2294697","meta":{"profile":["http://hl7.org/fhir/us/qicore/StructureDefinition/qicore-encounter"]},"status":"finished","class":{"system":"http://terminology.hl7.org/CodeSystem/v3-ActCode","code":"IMP","display":"inpatient encounter"},"type":[{"coding":[{"system":"http://snomed.info/sct","code":"183452005","display":"Inpatient encounter"}]}],"subject":{"reference":"Patient/b88740a3-5143-4b36-ae0d-75a6b95db7e2"},"period":{"start":"2026-10-30T08:00:00.000+00:00","end":"2026-10-31T08:15:00.000+00:00"}},"request":{"method":"PUT","url":"Encounter/0c0287ba-89f4-432d-952d-b5bff2294697"}},{"fullUrl":"https://madie.cms.gov/Patient/b88740a3-5143-4b36-ae0d-75a6b95db7e2","resource":{"resourceType":"Patient","id":"b88740a3-5143-4b36-ae0d-75a6b95db7e2","meta":{"profile":["http://hl7.org/fhir/us/qicore/StructureDefinition/qicore-patient"]},"extension":[{"url":"http://hl7.org/fhir/us/core/StructureDefinition/us-core-race","extension":[{"url":"ombCategory","valueCoding":{"system":"urn:oid:2.16.840.1.113883.6.238","code":"2106-3","display":"White"}},{"url":"text","valueString":"White"}]},{"url":"http://hl7.org/fhir/us/core/StructureDefinition/us-core-ethnicity","extension":[{"url":"ombCategory","valueCoding":{"system":"urn:oid:2.16.840.1.113883.6.238","code":"2135-2","display":"Hispanic or Latino"}},{"url":"text","valueString":"Hispanic or Latino"}]},{"url":"http://hl7.org/fhir/us/core/StructureDefinition/us-core-sex","valueCode":"248153007"}],"identifier":[{"system":"http://hospital.smarthealthit.org","value":"999999999"}],"name":[{"family":"Example","given":["Patient"]}],"gender":"female","birthDate":"1956-01-01"},"request":{"method":"PUT","url":"Patient/b88740a3-5143-4b36-ae0d-75a6b95db7e2"}},{"fullUrl":"https://madie.cms.gov/MeasureReport/58b8bb5d-c84f-4946-9494-c4affb56a883","resource":{"resourceType":"MeasureReport","id":"58b8bb5d-c84f-4946-9494-c4affb56a883","meta":{"profile":["http://hl7.org/fhir/us/cqfmeasures/StructureDefinition/test-case-cqfm"]},"contained":[{"resourceType":"Parameters","id":"a742ed99-64b0-4107-b9cc-d2190f6e5c8d-parameters","parameter":[{"name":"subject","valueString":"b88740a3-5143-4b36-ae0d-75a6b95db7e2"}]}],"extension":[{"url":"http://hl7.org/fhir/StructureDefinition/cqf-inputParameters","valueReference":{"reference":"#a742ed99-64b0-4107-b9cc-d2190f6e5c8d-parameters"}},{"url":"http://hl7.org/fhir/us/cqfmeasures/StructureDefinition/cqfm-testCaseDescription","valueMarkdown":"Opioid antagonist outside of OR given 1 minute after encounter end date time. Must be during encounter to meet. Numerator fails."}],"modifierExtension":[{"url":"http://hl7.org/fhir/us/cqfmeasures/StructureDefinition/cqfm-isTestCase","valueBoolean":true}],"status":"complete","type":"individual","measure":"https://madie.cms.gov/Measure/CMS819FHIRHHORAE","period":{"start":"2026-01-01","end":"2026-12-31"},"group":[{"id":"Group_1","population":[{"id":"InitialPopulation_1","code":{"coding":[{"system":"http://terminology.hl7.org/CodeSystem/measure-population","code":"initial-population","display":"Initial Population"}]},"count":1},{"id":"Denominator_1","code":{"coding":[{"system":"http://terminology.hl7.org/CodeSystem/measure-population","code":"denominator","display":"Denominator"}]},"count":1},{"id":"Numerator_1","code":{"coding":[{"system":"http://terminology.hl7.org/CodeSystem/measure-population","code":"numerator","display":"Numerator"}]},"count":0}],"measureScore":{"value":0.0}}],"evaluatedResource":[{"reference":"MedicationAdministration/48817db3-aec8-4b53-a9e9-453f719ac221"},{"reference":"MedicationAdministration/673df3d8-3bc0-4a7e-bd14-97d04432f018"},{"reference":"Encounter/0c0287ba-89f4-432d-952d-b5bff2294697"},{"reference":"Patient/b88740a3-5143-4b36-ae0d-75a6b95db7e2"}]},"request":{"method":"PUT","url":"MeasureReport/58b8bb5d-c84f-4946-9494-c4affb56a883"}}]},"request":{"method":"PUT","url":"Bundle/tests-NUMERFail-AntagonistAfterEncounterEnds-bundle"}},{"fullUrl":"MedicationAdministration/673df3d8-3bc0-4a7e-bd14-97d04432f018","resource":{"resourceType":"MedicationAdministration","id":"673df3d8-3bc0-4a7e-bd14-97d04432f018","meta":{"profile":["http://hl7.org/fhir/us/qicore/StructureDefinition/qicore-medicationadministration"]},"status":"completed","medicationCodeableConcept":{"coding":[{"system":"http://www.nlm.nih.gov/research/umls/rxnorm","code":"1010600","display":"Opioids, All"}]},"subject":{"reference":"Patient/b88740a3-5143-4b36-ae0d-75a6b95db7e2"},"context":{"reference":"Encounter/0c0287ba-89f4-432d-952d-b5bff2294697"},"effectiveDateTime":"2026-10-31T08:00:00.000+00:00","note":[{"text":"Administered opioid medication as prescribed."}],"dosage":{"rateQuantity":{"value":1,"unit":"mg"}}},"request":{"method":"PUT","url":"MedicationAdministration/673df3d8-3bc0-4a7e-bd14-97d04432f018"}},{"fullUrl":"Patient/b88740a3-5143-4b36-ae0d-75a6b95db7e2","resource":{"resourceType":"Patient","id":"b88740a3-5143-4b36-ae0d-75a6b95db7e2","meta":{"profile":["http://hl7.org/fhir/us/qicore/StructureDefinition/qicore-patient"]},"extension":[{"url":"http://hl7.org/fhir/us/core/StructureDefinition/us-core-race","extension":[{"url":"ombCategory","valueCoding":{"system":"urn:oid:2.16.840.1.113883.6.238","code":"2106-3","display":"White"}},{"url":"text","valueString":"White"}]},{"url":"http://hl7.org/fhir/us/core/StructureDefinition/us-core-ethnicity","extension":[{"url":"ombCategory","valueCoding":{"system":"urn:oid:2.16.840.1.113883.6.238","code":"2135-2","display":"Hispanic or Latino"}},{"url":"text","valueString":"Hispanic or Latino"}]},{"url":"http://hl7.org/fhir/us/core/StructureDefinition/us-core-sex","valueCode":"248153007"}],"identifier":[{"system":"http://hospital.smarthealthit.org","value":"999999999"}],"name":[{"family":"Example","given":["Patient"]}],"gender":"female","birthDate":"1956-01-01"},"request":{"method":"PUT","url":"Patient/b88740a3-5143-4b36-ae0d-75a6b95db7e2"}},{"fullUrl":"Encounter/0c0287ba-89f4-432d-952d-b5bff2294697","resource":{"resourceType":"Encounter","id":"0c0287ba-89f4-432d-952d-b5bff2294697","meta":{"profile":["http://hl7.org/fhir/us/qicore/StructureDefinition/qicore-encounter"]},"status":"finished","class":{"system":"http://terminology.hl7.org/CodeSystem/v3-ActCode","code":"IMP","display":"inpatient encounter"},"type":[{"coding":[{"system":"http://snomed.info/sct","code":"183452005","display":"Inpatient encounter"}]}],"subject":{"reference":"Patient/b88740a3-5143-4b36-ae0d-75a6b95db7e2"},"period":{"start":"2026-10-30T08:00:00.000+00:00","end":"2026-10-31T08:15:00.000+00:00"}},"request":{"method":"PUT","url":"Encounter/0c0287ba-89f4-432d-952d-b5bff2294697"}}]}