{
  "resourceType": "Bundle",
  "id": "60f82c2d98086b570510e249",
  "type": "transaction",
  "entry": [ {
    "fullUrl": "https://madie.cms.gov/Patient/4b6a9c86-3aad-4828-be61-bab6cd0c3140",
    "resource": {
      "resourceType": "Patient",
      "id": "4b6a9c86-3aad-4828-be61-bab6cd0c3140",
      "meta": {
        "profile": [ "http://hl7.org/fhir/us/qicore/StructureDefinition/qicore-patient" ]
      },
      "text": {
        "status": "generated",
        "div": "<div xmlns=\"http://www.w3.org/1999/xhtml\"><div class=\"hapiHeaderText\">MedOrdMedReason_eq0dayduringEncIPwEd <b>DENEXCEPPASS </b></div><table class=\"hapiPropertyTable\"><tbody><tr><td>Identifier</td><td>148bb09e8ba76a518ba8b4ef4326af51</td></tr><tr><td>Date of birth</td><td><span>26 September 1975</span></td></tr></tbody></table></div>"
      },
      "extension": [ {
        "url": "http://hl7.org/fhir/us/core/StructureDefinition/us-core-race",
        "extension": [ {
          "url": "ombCategory",
          "valueCoding": {
            "system": "urn:oid:2.16.840.1.113883.6.238",
            "code": "2054-5",
            "display": "Black or African American",
            "userSelected": true
          }
        }, {
          "url": "text",
          "valueString": "Black or African American"
        } ]
      }, {
        "url": "http://hl7.org/fhir/us/core/StructureDefinition/us-core-ethnicity",
        "extension": [ {
          "url": "ombCategory",
          "valueCoding": {
            "system": "urn:oid:2.16.840.1.113883.6.238",
            "code": "2186-5",
            "display": "Not Hispanic or Latino",
            "userSelected": true
          }
        }, {
          "url": "text",
          "valueString": "Not Hispanic or Latino"
        } ]
      } ],
      "identifier": [ {
        "type": {
          "coding": [ {
            "system": "http://terminology.hl7.org/CodeSystem/v2-0203",
            "code": "MR"
          } ]
        },
        "system": "https://bonnie-fhir.healthit.gov/",
        "value": "60f82c2d98086b570510e249"
      } ],
      "active": true,
      "name": [ {
        "use": "usual",
        "family": "DENEXCEPPass",
        "given": [ "MedAdmMedReason_eq0dayduringEncIPwEd" ]
      } ],
      "gender": "female",
      "birthDate": "1976-09-26"
    },
    "request": {
      "method": "PUT",
      "url": "Patient/4b6a9c86-3aad-4828-be61-bab6cd0c3140"
    }
  }, {
    "fullUrl": "https://madie.cms.gov/Encounter/77742aed-2b21-476a-b458-2a6cc8485ec7",
    "resource": {
      "resourceType": "Encounter",
      "id": "77742aed-2b21-476a-b458-2a6cc8485ec7",
      "meta": {
        "profile": [ "http://hl7.org/fhir/us/qicore/StructureDefinition/qicore-encounter" ]
      },
      "status": "finished",
      "class": {
        "system": "http://terminology.hl7.org/CodeSystem/v3-ActCode",
        "code": "EMER",
        "display": "emergency",
        "userSelected": true
      },
      "type": [ {
        "coding": [ {
          "system": "http://snomed.info/sct",
          "code": "4525004"
        } ]
      } ],
      "subject": {
        "reference": "Patient/4b6a9c86-3aad-4828-be61-bab6cd0c3140"
      },
      "period": {
        "start": "2026-10-10T08:00:00Z",
        "end": "2026-10-10T08:15:00.000+00:00"
      },
      "length": {
        "value": 0,
        "unit": "days"
      }
    },
    "request": {
      "method": "PUT",
      "url": "Encounter/77742aed-2b21-476a-b458-2a6cc8485ec7"
    }
  }, {
    "fullUrl": "https://madie.cms.gov/Encounter/e6af0b8f-825e-4a01-a714-57bb63726328",
    "resource": {
      "resourceType": "Encounter",
      "id": "e6af0b8f-825e-4a01-a714-57bb63726328",
      "meta": {
        "profile": [ "http://hl7.org/fhir/us/qicore/StructureDefinition/qicore-encounter" ]
      },
      "status": "finished",
      "class": {
        "system": "http://terminology.hl7.org/CodeSystem/v3-ActCode",
        "code": "IMP",
        "display": "inpatient encounter",
        "userSelected": true
      },
      "type": [ {
        "coding": [ {
          "system": "http://snomed.info/sct",
          "code": "32485007"
        } ]
      } ],
      "subject": {
        "reference": "Patient/4b6a9c86-3aad-4828-be61-bab6cd0c3140"
      },
      "period": {
        "start": "2026-10-10T09:00:00Z",
        "end": "2026-10-12T11:15:00.000+00:00"
      },
      "length": {
        "value": 2,
        "unit": "days"
      },
      "reasonReference": [ {
        "reference": "Condition/1587ebee-2f45-4b33-8038-015e542734ef"
      } ]
    },
    "request": {
      "method": "PUT",
      "url": "Encounter/e6af0b8f-825e-4a01-a714-57bb63726328"
    }
  }, {
    "fullUrl": "https://madie.cms.gov/claim/5ca62962b8484628b8de1ec5",
    "resource": {
      "resourceType": "Claim",
      "id": "5ca62962b8484628b8de1ec5",
      "meta": {
        "profile": [ "http://hl7.org/fhir/us/qicore/StructureDefinition/qicore-claim" ]
      },
      "status": "active",
      "type": {
        "coding": [ {
          "system": "http://terminology.hl7.org/CodeSystem/claim-type",
          "code": "institutional"
        } ]
      },
      "use": "claim",
      "patient": {
        "reference": "Patient/d170a0a8-b5ad-4303-b6df-e304dd5f92ad"
      },
      "created": "2026-12-01",
      "provider": {
        "reference": "Practitioner/practitioner-123456"
      },
      "priority": {
        "coding": [ {
          "system": "http://terminology.hl7.org/CodeSystem/processpriority",
          "code": "normal"
        } ]
      },
      "diagnosis": [ {
        "sequence": 1,
        "diagnosisCodeableConcept": {
          "coding": [ {
            "system": "http://hl7.org/fhir/sid/icd-10-cm",
            "code": "I63.00"
          } ]
        },
        "type": [ {
          "coding": [ {
            "system": "http://terminology.hl7.org/CodeSystem/ex-diagnosistype",
            "code": "principal"
          } ]
        } ]
      } ],
      "insurance": [ {
        "sequence": 1,
        "focal": true,
        "coverage": {
          "reference": "Coverage/5fa041661c76ba66d9959367"
        }
      } ],
      "item": [ {
        "sequence": 1,
        "diagnosisSequence": [ 1 ],
        "productOrService": {
          "coding": [ {
            "system": "http://terminology.hl7.org/CodeSystem/ex-USCLS",
            "code": "99555"
          } ]
        },
        "encounter": [ {
          "reference": "Encounter/e6af0b8f-825e-4a01-a714-57bb63726328"
        } ]
      } ]
    },
    "request": {
      "method": "PUT",
      "url": "Claim/5ca62962b8484628b8de1ec5"
    }
  }, {
    "fullUrl": "https://madie.cms.gov/MedicationRequest/c9bc24db-2824-48bf-9867-34442e8cd14e",
    "resource": {
      "resourceType": "MedicationRequest",
      "id": "c9bc24db-2824-48bf-9867-34442e8cd14e",
      "meta": {
        "profile": [ "http://hl7.org/fhir/us/qicore/StructureDefinition/qicore-medicationnotrequested" ]
      },
      "status": "completed",
      "intent": "order",
      "category": [ {
        "coding": [ {
          "system": "http://terminology.hl7.org/CodeSystem/medicationrequest-category",
          "code": "community"
        } ]
      } ],
      "doNotPerform": true,
      "medicationCodeableConcept": {
        "coding": [ {
          "system": "http://www.nlm.nih.gov/research/umls/rxnorm",
          "code": "1037045"
        } ]
      },
      "subject": {
        "reference": "Patient/ab024aef-425c-43ba-a856-882a3e3c91f1"
      },
      "authoredOn": "2026-10-11T11:00:00Z",
      "requester": {
        "reference": "Practitioner/example"
      },
      "reasonCode": [ {
        "coding": [ {
          "system": "http://snomed.info/sct",
          "code": "410536001"
        } ]
      } ],
      "dosageInstruction": [ {
        "timing": {
          "repeat": {
            "boundsPeriod": {
              "start": "2026-10-11T11:00:00Z"
            }
          }
        }
      } ]
    },
    "request": {
      "method": "PUT",
      "url": "MedicationRequest/c9bc24db-2824-48bf-9867-34442e8cd14e"
    }
  }, {
    "fullUrl": "https://madie.cms.gov/Coverage/7fa36b01-a768-45c1-9c2a-967d4fa3108e",
    "resource": {
      "resourceType": "Coverage",
      "id": "7fa36b01-a768-45c1-9c2a-967d4fa3108e",
      "status": "active",
      "subscriberId": "523435",
      "beneficiary": {
        "reference": "Patient/4b6a9c86-3aad-4828-be61-bab6cd0c3140"
      },
      "relationship": {
        "coding": [ {
          "system": "http://terminology.hl7.org/CodeSystem/subscriber-relationship",
          "code": "self"
        } ]
      },
      "period": {
        "start": "1976-09-26T08:00:00Z"
      },
      "payor": [ {
        "reference": "Organization/25e0158f-31d3-41c5-9976-7b15c1a4643b"
      } ]
    },
    "request": {
      "method": "PUT",
      "url": "Coverage/7fa36b01-a768-45c1-9c2a-967d4fa3108e"
    }
  }, {
    "fullUrl": "https://madie.cms.gov/Condition/1587ebee-2f45-4b33-8038-015e542734ef",
    "resource": {
      "resourceType": "Condition",
      "id": "1587ebee-2f45-4b33-8038-015e542734ef",
      "meta": {
        "profile": [ "http://hl7.org/fhir/us/qicore/StructureDefinition/qicore-condition-encounter-diagnosis" ]
      },
      "clinicalStatus": {
        "coding": [ {
          "system": "http://terminology.hl7.org/CodeSystem/condition-clinical",
          "code": "active"
        } ]
      },
      "verificationStatus": {
        "coding": [ {
          "system": "http://terminology.hl7.org/CodeSystem/condition-ver-status",
          "code": "confirmed"
        } ]
      },
      "category": [ {
        "coding": [ {
          "system": "http://terminology.hl7.org/CodeSystem/condition-category",
          "code": "encounter-diagnosis",
          "display": "Encounter Diagnosis"
        } ]
      } ],
      "code": {
        "coding": [ {
          "system": "http://snomed.info/sct",
          "version": "2020-09",
          "code": "111297002",
          "display": "Nonparalytic stroke (disorder)",
          "userSelected": true
        } ]
      },
      "subject": {
        "reference": "Patient/4b6a9c86-3aad-4828-be61-bab6cd0c3140"
      },
      "recordedDate": "2026-08-06T08:00:00Z"
    },
    "request": {
      "method": "PUT",
      "url": "Condition/1587ebee-2f45-4b33-8038-015e542734ef"
    }
  }, {
    "fullUrl": "https://madie.cms.gov/Organization/25e0158f-31d3-41c5-9976-7b15c1a4643b",
    "resource": {
      "resourceType": "Organization",
      "id": "25e0158f-31d3-41c5-9976-7b15c1a4643b",
      "meta": {
        "profile": [ "http://hl7.org/fhir/us/qicore/StructureDefinition/qicore-organization" ]
      },
      "identifier": [ {
        "use": "temp",
        "system": "urn:oid:2.16.840.1.113883.4.4",
        "value": "21-3259825"
      } ],
      "active": true,
      "type": [ {
        "coding": [ {
          "system": "http://terminology.hl7.org/CodeSystem/organization-type",
          "code": "pay",
          "display": "Payer"
        } ]
      } ],
      "name": "Blue Cross Blue Shield of Texas",
      "telecom": [ {
        "system": "phone",
        "value": "(+1) 972-766-6900"
      } ],
      "address": [ {
        "use": "billing",
        "type": "postal",
        "line": [ "P.O. Box 660044" ],
        "city": "Dallas",
        "state": "TX",
        "postalCode": "75266-0044",
        "country": "USA"
      } ]
    },
    "request": {
      "method": "PUT",
      "url": "Organization/25e0158f-31d3-41c5-9976-7b15c1a4643b"
    }
  }, {
    "fullUrl": "https://madie.cms.gov/MeasureReport/09ab9f11-efcc-46d3-b121-d73511c51177",
    "resource": {
      "resourceType": "MeasureReport",
      "id": "09ab9f11-efcc-46d3-b121-d73511c51177",
      "meta": {
        "profile": [ "http://hl7.org/fhir/us/cqfmeasures/StructureDefinition/test-case-cqfm" ]
      },
      "contained": [ {
        "resourceType": "Parameters",
        "id": "7da1c66e-7e51-4b92-9522-22c44722a406-parameters",
        "parameter": [ {
          "name": "subject",
          "valueString": "4b6a9c86-3aad-4828-be61-bab6cd0c3140"
        } ]
      } ],
      "extension": [ {
        "url": "http://hl7.org/fhir/StructureDefinition/cqf-inputParameters",
        "valueReference": {
          "reference": "#7da1c66e-7e51-4b92-9522-22c44722a406-parameters"
        }
      }, {
        "url": "http://hl7.org/fhir/us/cqfmeasures/StructureDefinition/cqfm-testCaseDescription",
        "valueMarkdown": "antithrombotic not administered due to medical reason concurrent with IP admission, global.\"Hospitalization\" =(Ed+IP)\n"
      } ],
      "modifierExtension": [ {
        "url": "http://hl7.org/fhir/us/cqfmeasures/StructureDefinition/cqfm-isTestCase",
        "valueBoolean": true
      } ],
      "status": "complete",
      "type": "individual",
      "measure": "https://madie.cms.gov/Measure/CMS72FHIRSTKAntithromboticDay2",
      "period": {
        "start": "2026-01-01",
        "end": "2026-12-31"
      },
      "group": [ {
        "id": "Group_1",
        "population": [ {
          "id": "InitialPopulation_1",
          "code": {
            "coding": [ {
              "system": "http://terminology.hl7.org/CodeSystem/measure-population",
              "code": "initial-population",
              "display": "Initial Population"
            } ]
          },
          "count": 1
        }, {
          "id": "Denominator_1",
          "code": {
            "coding": [ {
              "system": "http://terminology.hl7.org/CodeSystem/measure-population",
              "code": "denominator",
              "display": "Denominator"
            } ]
          },
          "count": 1
        }, {
          "id": "DenominatorExclusion_1",
          "code": {
            "coding": [ {
              "system": "http://terminology.hl7.org/CodeSystem/measure-population",
              "code": "denominator-exclusion",
              "display": "Denominator Exclusion"
            } ]
          },
          "count": 0
        }, {
          "id": "Numerator_1",
          "code": {
            "coding": [ {
              "system": "http://terminology.hl7.org/CodeSystem/measure-population",
              "code": "numerator",
              "display": "Numerator"
            } ]
          },
          "count": 0
        }, {
          "id": "DenominatorException_1",
          "code": {
            "coding": [ {
              "system": "http://terminology.hl7.org/CodeSystem/measure-population",
              "code": "denominator-exception",
              "display": "Denominator Exception"
            } ]
          },
          "count": 1
        } ],
        "measureScore": {
          "value": 0.0
        }
      } ],
      "evaluatedResource": [ {
        "reference": "Patient/4b6a9c86-3aad-4828-be61-bab6cd0c3140"
      }, {
        "reference": "Encounter/77742aed-2b21-476a-b458-2a6cc8485ec7"
      }, {
        "reference": "Encounter/e6af0b8f-825e-4a01-a714-57bb63726328"
      }, {
        "reference": "Claim/5ca62962b8484628b8de1ec5"
      }, {
        "reference": "MedicationRequest/c9bc24db-2824-48bf-9867-34442e8cd14e"
      }, {
        "reference": "Coverage/7fa36b01-a768-45c1-9c2a-967d4fa3108e"
      }, {
        "reference": "Condition/1587ebee-2f45-4b33-8038-015e542734ef"
      }, {
        "reference": "Organization/25e0158f-31d3-41c5-9976-7b15c1a4643b"
      } ]
    },
    "request": {
      "method": "PUT",
      "url": "MeasureReport/09ab9f11-efcc-46d3-b121-d73511c51177"
    }
  } ]
}