{
  "resourceType": "Bundle",
  "id": "62df25800056b6e23ec675a1",
  "type": "transaction",
  "entry": [ {
    "fullUrl": "https://madie.cms.gov/Patient/27849d59-3cef-40bf-8338-a6ec7c0bcf81",
    "resource": {
      "resourceType": "Patient",
      "id": "27849d59-3cef-40bf-8338-a6ec7c0bcf81",
      "meta": {
        "profile": [ "http://hl7.org/fhir/us/qicore/StructureDefinition/qicore-patient" ]
      },
      "extension": [ {
        "url": "http://hl7.org/fhir/us/core/StructureDefinition/us-core-race",
        "extension": [ {
          "url": "ombCategory",
          "valueCoding": {
            "system": "urn:oid:2.16.840.1.113883.6.238",
            "code": "2106-3",
            "display": "White",
            "userSelected": true
          }
        }, {
          "url": "text",
          "valueString": "White"
        } ]
      }, {
        "url": "http://hl7.org/fhir/us/core/StructureDefinition/us-core-ethnicity",
        "extension": [ {
          "url": "ombCategory",
          "valueCoding": {
            "system": "urn:oid:2.16.840.1.113883.6.238",
            "code": "2186-5",
            "display": "Not Hispanic or Latino",
            "userSelected": true
          }
        }, {
          "url": "text",
          "valueString": "Not Hispanic or Latino"
        } ]
      } ],
      "identifier": [ {
        "type": {
          "coding": [ {
            "system": "http://terminology.hl7.org/CodeSystem/v2-0203",
            "code": "MR"
          } ]
        },
        "system": "https://bonnie-fhir.healthit.gov/",
        "value": "62df25800056b6e23ec675a1"
      } ],
      "name": [ {
        "family": "NUMERPass",
        "given": [ "LowBMIAndInterventionOrderedMedication" ]
      } ],
      "gender": "male",
      "birthDate": "1957-11-07"
    },
    "request": {
      "method": "PUT",
      "url": "Patient/27849d59-3cef-40bf-8338-a6ec7c0bcf81"
    }
  }, {
    "fullUrl": "https://madie.cms.gov/Encounter/e6d2cb3e-4657-4dc2-9f6a-2da0ec2540e6",
    "resource": {
      "resourceType": "Encounter",
      "id": "e6d2cb3e-4657-4dc2-9f6a-2da0ec2540e6",
      "meta": {
        "profile": [ "http://hl7.org/fhir/us/qicore/StructureDefinition/qicore-encounter" ]
      },
      "status": "finished",
      "class": {
        "system": "http://terminology.hl7.org/CodeSystem/v3-ActCode",
        "code": "AMB",
        "display": "ambulatory"
      },
      "type": [ {
        "coding": [ {
          "system": "http://snomed.info/sct",
          "version": "2022-03",
          "code": "10197000",
          "display": "Psychiatric interview and evaluation (procedure)",
          "userSelected": true
        } ]
      } ],
      "subject": {
        "reference": "Patient/27849d59-3cef-40bf-8338-a6ec7c0bcf81"
      },
      "period": {
        "start": "2026-12-31T23:30:00.000+00:00",
        "end": "2026-12-31T23:59:00.000+00:00"
      }
    },
    "request": {
      "method": "PUT",
      "url": "Encounter/e6d2cb3e-4657-4dc2-9f6a-2da0ec2540e6"
    }
  }, {
    "fullUrl": "https://madie.cms.gov/Observation/cbc0a34a-233b-48f4-b835-a4afd341c3fc",
    "resource": {
      "resourceType": "Observation",
      "id": "cbc0a34a-233b-48f4-b835-a4afd341c3fc",
      "meta": {
        "profile": [ "http://hl7.org/fhir/us/core/StructureDefinition/us-core-bmi" ]
      },
      "status": "final",
      "category": [ {
        "coding": [ {
          "system": "http://terminology.hl7.org/CodeSystem/observation-category",
          "code": "vital-signs",
          "display": "Vital Signs"
        } ]
      } ],
      "code": {
        "coding": [ {
          "system": "http://loinc.org",
          "code": "39156-5",
          "display": "Body mass index (BMI) [Ratio]",
          "userSelected": true
        } ]
      },
      "subject": {
        "reference": "Patient/27849d59-3cef-40bf-8338-a6ec7c0bcf81"
      },
      "effectiveDateTime": "2026-12-31T23:59:00.000+00:00",
      "valueQuantity": {
        "value": 18.4,
        "unit": "kg/m2",
        "system": "http://unitsofmeasure.org",
        "code": "kg/m2"
      }
    },
    "request": {
      "method": "PUT",
      "url": "Observation/cbc0a34a-233b-48f4-b835-a4afd341c3fc"
    }
  }, {
    "fullUrl": "https://madie.cms.gov/MedicationRequest/bd944817-b345-474a-82c9-acae72789fa1",
    "resource": {
      "resourceType": "MedicationRequest",
      "id": "bd944817-b345-474a-82c9-acae72789fa1",
      "meta": {
        "profile": [ "http://hl7.org/fhir/us/qicore/StructureDefinition/qicore-medicationrequest" ]
      },
      "status": "active",
      "intent": "order",
      "medicationCodeableConcept": {
        "coding": [ {
          "system": "http://www.nlm.nih.gov/research/umls/rxnorm",
          "code": "1928948",
          "display": "dronabinol 5 MG/ML Oral Solution",
          "userSelected": true
        } ]
      },
      "subject": {
        "reference": "Patient/27849d59-3cef-40bf-8338-a6ec7c0bcf81"
      },
      "authoredOn": "2026-12-31T23:59:00.000+00:00",
      "requester": {
        "reference": "Practitioner/f007",
        "display": "Patrick Pump"
      },
      "reasonCode": [ {
        "coding": [ {
          "system": "http://hl7.org/fhir/sid/icd-10-cm",
          "code": "R63.6",
          "display": "Underweight",
          "userSelected": true
        } ]
      } ]
    },
    "request": {
      "method": "PUT",
      "url": "MedicationRequest/bd944817-b345-474a-82c9-acae72789fa1"
    }
  }, {
    "fullUrl": "https://madie.cms.gov/Coverage/de390553-ef7b-4a1b-8f0d-ffb2ec278ae0",
    "resource": {
      "resourceType": "Coverage",
      "id": "de390553-ef7b-4a1b-8f0d-ffb2ec278ae0",
      "meta": {
        "profile": [ "http://hl7.org/fhir/us/qicore/StructureDefinition/qicore-coverage" ]
      },
      "status": "active",
      "beneficiary": {
        "reference": "Patient/27849d59-3cef-40bf-8338-a6ec7c0bcf81"
      },
      "payor": [ {
        "reference": "Organization/0fc5cf04-fd60-4d68-9b32-8e7cc1b57349"
      } ]
    },
    "request": {
      "method": "PUT",
      "url": "Coverage/de390553-ef7b-4a1b-8f0d-ffb2ec278ae0"
    }
  }, {
    "fullUrl": "https://madie.cms.gov/Organization/0fc5cf04-fd60-4d68-9b32-8e7cc1b57349",
    "resource": {
      "resourceType": "Organization",
      "id": "0fc5cf04-fd60-4d68-9b32-8e7cc1b57349",
      "meta": {
        "profile": [ "http://hl7.org/fhir/us/qicore/StructureDefinition/qicore-organization" ]
      },
      "identifier": [ {
        "use": "temp",
        "system": "urn:oid:2.16.840.1.113883.4.4",
        "value": "21-3259825"
      } ],
      "active": true,
      "type": [ {
        "coding": [ {
          "system": "http://terminology.hl7.org/CodeSystem/organization-type",
          "code": "pay",
          "display": "Payer"
        } ]
      } ],
      "name": "Blue Cross Blue Shield of Texas",
      "telecom": [ {
        "system": "phone",
        "value": "(+1) 972-766-6900"
      } ],
      "address": [ {
        "use": "billing",
        "type": "postal",
        "line": [ "P.O. Box 660044" ],
        "city": "Dallas",
        "state": "TX",
        "postalCode": "75266-0044",
        "country": "USA"
      } ]
    },
    "request": {
      "method": "PUT",
      "url": "Organization/0fc5cf04-fd60-4d68-9b32-8e7cc1b57349"
    }
  }, {
    "fullUrl": "https://madie.cms.gov/MeasureReport/d12fcf47-3662-4398-b11a-062bacbe58ad",
    "resource": {
      "resourceType": "MeasureReport",
      "id": "d12fcf47-3662-4398-b11a-062bacbe58ad",
      "meta": {
        "profile": [ "http://hl7.org/fhir/us/cqfmeasures/StructureDefinition/test-case-cqfm" ]
      },
      "contained": [ {
        "resourceType": "Parameters",
        "id": "3a7f257c-d876-4580-b3ed-3305b69ffc93-parameters",
        "parameter": [ {
          "name": "subject",
          "valueString": "27849d59-3cef-40bf-8338-a6ec7c0bcf81"
        } ]
      } ],
      "extension": [ {
        "url": "http://hl7.org/fhir/StructureDefinition/cqf-inputParameters",
        "valueReference": {
          "reference": "#3a7f257c-d876-4580-b3ed-3305b69ffc93-parameters"
        }
      }, {
        "url": "http://hl7.org/fhir/us/cqfmeasures/StructureDefinition/cqfm-testCaseDescription",
        "valueMarkdown": "Amb enc last 30 minutes of the last day of MP Low BMI at 18.4 kg/m2 with intervention ordered - medications, reason code"
      } ],
      "modifierExtension": [ {
        "url": "http://hl7.org/fhir/us/cqfmeasures/StructureDefinition/cqfm-isTestCase",
        "valueBoolean": true
      } ],
      "status": "complete",
      "type": "individual",
      "measure": "https://madie.cms.gov/Measure/CMS69FHIRPCSBMIScreenAndFollowUp",
      "period": {
        "start": "2026-01-01",
        "end": "2026-12-31"
      },
      "group": [ {
        "id": "Group_1",
        "population": [ {
          "id": "InitialPopulation_1",
          "code": {
            "coding": [ {
              "system": "http://terminology.hl7.org/CodeSystem/measure-population",
              "code": "initial-population",
              "display": "Initial Population"
            } ]
          },
          "count": 1
        }, {
          "id": "Denominator_1",
          "code": {
            "coding": [ {
              "system": "http://terminology.hl7.org/CodeSystem/measure-population",
              "code": "denominator",
              "display": "Denominator"
            } ]
          },
          "count": 1
        }, {
          "id": "DenominatorExclusion_1",
          "code": {
            "coding": [ {
              "system": "http://terminology.hl7.org/CodeSystem/measure-population",
              "code": "denominator-exclusion",
              "display": "Denominator Exclusion"
            } ]
          },
          "count": 0
        }, {
          "id": "Numerator_1",
          "code": {
            "coding": [ {
              "system": "http://terminology.hl7.org/CodeSystem/measure-population",
              "code": "numerator",
              "display": "Numerator"
            } ]
          },
          "count": 1
        }, {
          "id": "DenominatorException_1",
          "code": {
            "coding": [ {
              "system": "http://terminology.hl7.org/CodeSystem/measure-population",
              "code": "denominator-exception",
              "display": "Denominator Exception"
            } ]
          },
          "count": 0
        } ],
        "measureScore": {
          "value": 1.0
        }
      } ],
      "evaluatedResource": [ {
        "reference": "Patient/27849d59-3cef-40bf-8338-a6ec7c0bcf81"
      }, {
        "reference": "Encounter/e6d2cb3e-4657-4dc2-9f6a-2da0ec2540e6"
      }, {
        "reference": "Observation/cbc0a34a-233b-48f4-b835-a4afd341c3fc"
      }, {
        "reference": "MedicationRequest/bd944817-b345-474a-82c9-acae72789fa1"
      }, {
        "reference": "Coverage/de390553-ef7b-4a1b-8f0d-ffb2ec278ae0"
      }, {
        "reference": "Organization/0fc5cf04-fd60-4d68-9b32-8e7cc1b57349"
      } ]
    },
    "request": {
      "method": "PUT",
      "url": "MeasureReport/d12fcf47-3662-4398-b11a-062bacbe58ad"
    }
  } ]
}