{
  "resourceType": "Bundle",
  "id": "633b3f9f0968f80122503cdb",
  "type": "transaction",
  "entry": [ {
    "fullUrl": "https://madie.cms.gov/Patient/5ef8fd93-3a42-4729-b2a7-7975aa4743d8",
    "resource": {
      "resourceType": "Patient",
      "id": "5ef8fd93-3a42-4729-b2a7-7975aa4743d8",
      "meta": {
        "profile": [ "http://hl7.org/fhir/us/qicore/StructureDefinition/qicore-patient" ]
      },
      "text": {
        "status": "generated",
        "div": "<div xmlns=\"http://www.w3.org/1999/xhtml\"><div class=\"hapiHeaderText\">HystInED12HrAftOnSameDayAsDelAndDelEncEnd<b>NUMERFail</b></div><table class=\"hapiPropertyTable\"><tbody><tr><td>Date of birth</td><td><span>01 February 2004</span></td></tr></tbody></table></div>"
      },
      "extension": [ {
        "url": "http://hl7.org/fhir/us/core/StructureDefinition/us-core-race",
        "extension": [ {
          "url": "ombCategory",
          "valueCoding": {
            "system": "urn:oid:2.16.840.1.113883.6.238",
            "code": "1002-5",
            "display": "American Indian or Alaska Native",
            "userSelected": true
          }
        }, {
          "url": "text",
          "valueString": "American Indian or Alaska Native"
        } ]
      }, {
        "url": "http://hl7.org/fhir/us/core/StructureDefinition/us-core-ethnicity",
        "extension": [ {
          "url": "ombCategory",
          "valueCoding": {
            "system": "urn:oid:2.16.840.1.113883.6.238",
            "code": "2135-2",
            "display": "Hispanic or Latino",
            "userSelected": true
          }
        }, {
          "url": "text",
          "valueString": "Hispanic or Latino"
        } ]
      } ],
      "identifier": [ {
        "type": {
          "coding": [ {
            "system": "http://terminology.hl7.org/CodeSystem/v2-0203",
            "code": "MR"
          } ]
        },
        "system": "https://bonnie-fhir.healthit.gov/",
        "value": "633b3f9f0968f80122503cdb"
      } ],
      "active": true,
      "name": [ {
        "use": "usual",
        "family": "NUMERFail",
        "given": [ "HystInED12HrAftOnSameDayAsDelAndDelEncEnd" ]
      } ],
      "gender": "female",
      "birthDate": "2005-02-01"
    },
    "request": {
      "method": "PUT",
      "url": "Patient/5ef8fd93-3a42-4729-b2a7-7975aa4743d8"
    }
  }, {
    "fullUrl": "https://madie.cms.gov/Observation/e8d07760-4849-4529-b221-54bd1a6dafb1",
    "resource": {
      "resourceType": "Observation",
      "id": "e8d07760-4849-4529-b221-54bd1a6dafb1",
      "meta": {
        "profile": [ "http://hl7.org/fhir/us/qicore/StructureDefinition/qicore-simple-observation" ]
      },
      "status": "final",
      "category": [ {
        "coding": [ {
          "system": "http://terminology.hl7.org/CodeSystem/observation-category",
          "code": "exam",
          "display": "exam",
          "userSelected": true
        } ]
      } ],
      "code": {
        "coding": [ {
          "system": "http://loinc.org",
          "code": "93857-1"
        } ]
      },
      "subject": {
        "reference": "Patient/5ef8fd93-3a42-4729-b2a7-7975aa4743d8"
      },
      "effectiveDateTime": "2026-02-05T08:00:00Z",
      "performer": [ {
        "reference": "Organization/example1",
        "display": "Hendricks Country Hospital"
      } ],
      "valueDateTime": "2026-02-05T08:00:00Z"
    },
    "request": {
      "method": "PUT",
      "url": "Observation/e8d07760-4849-4529-b221-54bd1a6dafb1"
    }
  }, {
    "fullUrl": "https://madie.cms.gov/Observation/cef45d93-f7f9-45ae-8a76-711217433041",
    "resource": {
      "resourceType": "Observation",
      "id": "cef45d93-f7f9-45ae-8a76-711217433041",
      "meta": {
        "profile": [ "http://hl7.org/fhir/us/qicore/StructureDefinition/qicore-simple-observation" ]
      },
      "status": "final",
      "category": [ {
        "coding": [ {
          "system": "http://terminology.hl7.org/CodeSystem/observation-category",
          "code": "exam",
          "display": "exam",
          "userSelected": true
        } ]
      } ],
      "code": {
        "coding": [ {
          "system": "http://loinc.org",
          "code": "11884-4"
        } ]
      },
      "subject": {
        "reference": "Patient/5ef8fd93-3a42-4729-b2a7-7975aa4743d8"
      },
      "effectiveDateTime": "2026-02-05T08:00:00Z",
      "performer": [ {
        "reference": "Organization/example1",
        "display": "Hendricks Country Hospital"
      } ],
      "valueQuantity": {
        "value": 21,
        "system": "http://unitsofmeasure.org",
        "code": "wk"
      }
    },
    "request": {
      "method": "PUT",
      "url": "Observation/cef45d93-f7f9-45ae-8a76-711217433041"
    }
  }, {
    "fullUrl": "https://madie.cms.gov/Condition/4790b7de-3e58-4422-b0dc-705b28a21641",
    "resource": {
      "resourceType": "Condition",
      "id": "4790b7de-3e58-4422-b0dc-705b28a21641",
      "meta": {
        "profile": [ "http://hl7.org/fhir/us/qicore/StructureDefinition/qicore-condition-encounter-diagnosis" ]
      },
      "category": [ {
        "coding": [ {
          "system": "http://terminology.hl7.org/CodeSystem/condition-category",
          "code": "encounter-diagnosis",
          "display": "Encounter Diagnosis"
        } ]
      } ],
      "code": {
        "coding": [ {
          "system": "http://hl7.org/fhir/sid/icd-10-cm",
          "version": "2023",
          "code": "Z3A.21",
          "display": "21 weeks gestation",
          "userSelected": true
        } ]
      },
      "subject": {
        "reference": "Patient/5ef8fd93-3a42-4729-b2a7-7975aa4743d8"
      },
      "recordedDate": "2026-10-26T08:00:00Z"
    },
    "request": {
      "method": "PUT",
      "url": "Condition/4790b7de-3e58-4422-b0dc-705b28a21641"
    }
  }, {
    "fullUrl": "https://madie.cms.gov/Encounter/2dfb8893-973b-43dd-9fcd-00f63ba6733a",
    "resource": {
      "resourceType": "Encounter",
      "id": "2dfb8893-973b-43dd-9fcd-00f63ba6733a",
      "meta": {
        "profile": [ "http://hl7.org/fhir/us/qicore/StructureDefinition/qicore-encounter" ]
      },
      "status": "finished",
      "class": {
        "system": "http://terminology.hl7.org/CodeSystem/v3-ActCode",
        "code": "IMP",
        "display": "inpatient encounter"
      },
      "type": [ {
        "coding": [ {
          "system": "http://snomed.info/sct",
          "code": "183452005"
        } ]
      } ],
      "subject": {
        "reference": "Patient/5ef8fd93-3a42-4729-b2a7-7975aa4743d8"
      },
      "period": {
        "start": "2026-02-01T08:00:00Z",
        "end": "2026-02-05T08:15:00Z"
      },
      "reasonReference": [ {
        "reference": "Condition/4790b7de-3e58-4422-b0dc-705b28a21641"
      } ]
    },
    "request": {
      "method": "PUT",
      "url": "Encounter/2dfb8893-973b-43dd-9fcd-00f63ba6733a"
    }
  }, {
    "fullUrl": "https://madie.cms.gov/Coverage/448b7e1a-0890-4361-b705-94d31b66b8a6",
    "resource": {
      "resourceType": "Coverage",
      "id": "448b7e1a-0890-4361-b705-94d31b66b8a6",
      "status": "active",
      "subscriberId": "523435",
      "beneficiary": {
        "reference": "Patient/5ef8fd93-3a42-4729-b2a7-7975aa4743d8"
      },
      "relationship": {
        "coding": [ {
          "system": "http://terminology.hl7.org/CodeSystem/subscriber-relationship",
          "code": "self"
        } ]
      },
      "period": {
        "start": "2005-02-01T08:00:00Z"
      },
      "payor": [ {
        "reference": "Organization/635f2e53-ce0a-48e8-89e9-9e52f1a65ee0"
      } ]
    },
    "request": {
      "method": "PUT",
      "url": "Coverage/448b7e1a-0890-4361-b705-94d31b66b8a6"
    }
  }, {
    "fullUrl": "https://madie.cms.gov/Procedure/b05f8e3a-5027-4e54-b339-aed67fc1d3be",
    "resource": {
      "resourceType": "Procedure",
      "id": "b05f8e3a-5027-4e54-b339-aed67fc1d3be",
      "meta": {
        "profile": [ "http://hl7.org/fhir/us/qicore/StructureDefinition/qicore-procedure" ]
      },
      "extension": [ {
        "url": "http://hl7.org/fhir/us/qicore/StructureDefinition/qicore-recorded",
        "valueDateTime": "2014-04-05T13:35:00Z"
      } ],
      "status": "completed",
      "code": {
        "coding": [ {
          "system": "http://snomed.info/sct",
          "code": "10745001"
        } ]
      },
      "subject": {
        "reference": "Patient/5ef8fd93-3a42-4729-b2a7-7975aa4743d8"
      },
      "performedPeriod": {
        "start": "2026-02-01T08:00:00Z",
        "end": "2026-02-01T08:15:00Z"
      }
    },
    "request": {
      "method": "PUT",
      "url": "Procedure/b05f8e3a-5027-4e54-b339-aed67fc1d3be"
    }
  }, {
    "fullUrl": "https://madie.cms.gov/Encounter/0cc6f03f-b6dd-4749-ad2e-6edbb5d996e8",
    "resource": {
      "resourceType": "Encounter",
      "id": "0cc6f03f-b6dd-4749-ad2e-6edbb5d996e8",
      "meta": {
        "profile": [ "http://hl7.org/fhir/us/qicore/StructureDefinition/qicore-encounter" ]
      },
      "status": "finished",
      "class": {
        "system": "http://terminology.hl7.org/CodeSystem/v3-ActCode",
        "code": "IMP",
        "display": "inpatient encounter"
      },
      "type": [ {
        "coding": [ {
          "system": "http://snomed.info/sct",
          "code": "183452005"
        } ]
      } ],
      "subject": {
        "reference": "Patient/5ef8fd93-3a42-4729-b2a7-7975aa4743d8"
      },
      "period": {
        "start": "2026-02-05T19:00:00Z",
        "end": "2026-02-06T08:15:00Z"
      },
      "diagnosis": [ {
        "extension": [ {
          "url": "http://hl7.org/fhir/us/qicore/StructureDefinition/qicore-encounter-diagnosisPresentOnAdmission",
          "valueCodeableConcept": {
            "coding": [ {
              "system": "https://www.cms.gov/Medicare/Medicare-Fee-for-Service-Payment/HospitalAcqCond/Coding",
              "code": "N"
            } ]
          }
        } ],
        "condition": {
          "reference": "Condition/severe-maternal-morbidity-diagnoses-adc2"
        }
      } ]
    },
    "request": {
      "method": "PUT",
      "url": "Encounter/0cc6f03f-b6dd-4749-ad2e-6edbb5d996e8"
    }
  }, {
    "fullUrl": "https://madie.cms.gov/Procedure/6137ab4e-6f26-4ac4-a910-319896de2b62",
    "resource": {
      "resourceType": "Procedure",
      "id": "6137ab4e-6f26-4ac4-a910-319896de2b62",
      "meta": {
        "profile": [ "http://hl7.org/fhir/us/qicore/StructureDefinition/qicore-procedure" ]
      },
      "extension": [ {
        "url": "http://hl7.org/fhir/us/qicore/StructureDefinition/qicore-recorded",
        "valueDateTime": "2026-02-06T00:00:00Z"
      } ],
      "status": "completed",
      "code": {
        "coding": [ {
          "system": "http://snomed.info/sct",
          "code": "11050006"
        } ]
      },
      "subject": {
        "reference": "Patient/5ef8fd93-3a42-4729-b2a7-7975aa4743d8"
      },
      "performedPeriod": {
        "start": "2026-02-05T20:00:00Z",
        "end": "2026-02-05T21:00:00Z"
      }
    },
    "request": {
      "method": "PUT",
      "url": "Procedure/6137ab4e-6f26-4ac4-a910-319896de2b62"
    }
  }, {
    "fullUrl": "https://madie.cms.gov/Organization/635f2e53-ce0a-48e8-89e9-9e52f1a65ee0",
    "resource": {
      "resourceType": "Organization",
      "id": "635f2e53-ce0a-48e8-89e9-9e52f1a65ee0",
      "meta": {
        "profile": [ "http://hl7.org/fhir/us/qicore/StructureDefinition/qicore-organization" ]
      },
      "identifier": [ {
        "use": "temp",
        "system": "urn:oid:2.16.840.1.113883.4.4",
        "value": "21-3259825"
      } ],
      "active": true,
      "type": [ {
        "coding": [ {
          "system": "http://terminology.hl7.org/CodeSystem/organization-type",
          "code": "pay",
          "display": "Payer"
        } ]
      } ],
      "name": "Blue Cross Blue Shield of Texas",
      "telecom": [ {
        "system": "phone",
        "value": "(+1) 972-766-6900"
      } ],
      "address": [ {
        "use": "billing",
        "type": "postal",
        "line": [ "P.O. Box 660044" ],
        "city": "Dallas",
        "state": "TX",
        "postalCode": "75266-0044",
        "country": "USA"
      } ]
    },
    "request": {
      "method": "PUT",
      "url": "Organization/635f2e53-ce0a-48e8-89e9-9e52f1a65ee0"
    }
  }, {
    "fullUrl": "https://madie.cms.gov/Practitioner/b4528262-34fa-4689-92f6-a178411d415f",
    "resource": {
      "resourceType": "Practitioner",
      "id": "b4528262-34fa-4689-92f6-a178411d415f",
      "meta": {
        "profile": [ "http://hl7.org/fhir/us/qicore/StructureDefinition/qicore-practitioner" ]
      },
      "identifier": [ {
        "system": "http://hl7.org/fhir/sid/us-npi",
        "value": "9999999896"
      } ],
      "name": [ {
        "family": "Evil",
        "prefix": [ "Dr" ]
      } ]
    },
    "request": {
      "method": "PUT",
      "url": "Practitioner/b4528262-34fa-4689-92f6-a178411d415f"
    }
  }, {
    "fullUrl": "https://madie.cms.gov/MeasureReport/e2d718f0-ebb1-4414-86a1-7ed999e420de",
    "resource": {
      "resourceType": "MeasureReport",
      "id": "e2d718f0-ebb1-4414-86a1-7ed999e420de",
      "meta": {
        "profile": [ "http://hl7.org/fhir/us/cqfmeasures/StructureDefinition/test-case-cqfm" ]
      },
      "contained": [ {
        "resourceType": "Parameters",
        "id": "02ff7d88-fb3d-48b7-9295-45b8487d27b2-parameters",
        "parameter": [ {
          "name": "subject",
          "valueString": "5ef8fd93-3a42-4729-b2a7-7975aa4743d8"
        } ]
      } ],
      "extension": [ {
        "url": "http://hl7.org/fhir/StructureDefinition/cqf-inputParameters",
        "valueReference": {
          "reference": "#02ff7d88-fb3d-48b7-9295-45b8487d27b2-parameters"
        }
      }, {
        "url": "http://hl7.org/fhir/us/cqfmeasures/StructureDefinition/cqfm-testCaseDescription",
        "valueMarkdown": "Hysterectomy in ED 12 hours after, on same day as delivery encounter ends"
      } ],
      "modifierExtension": [ {
        "url": "http://hl7.org/fhir/us/cqfmeasures/StructureDefinition/cqfm-isTestCase",
        "valueBoolean": true
      } ],
      "status": "complete",
      "type": "individual",
      "measure": "https://madie.cms.gov/Measure/CMS1028FHIRPCSevereOBComps",
      "period": {
        "start": "2026-01-01",
        "end": "2026-12-31"
      },
      "group": [ {
        "id": "Group_1",
        "population": [ {
          "id": "InitialPopulation_1",
          "code": {
            "coding": [ {
              "system": "http://terminology.hl7.org/CodeSystem/measure-population",
              "code": "initial-population",
              "display": "Initial Population"
            } ]
          },
          "count": 1
        }, {
          "id": "Denominator_1",
          "code": {
            "coding": [ {
              "system": "http://terminology.hl7.org/CodeSystem/measure-population",
              "code": "denominator",
              "display": "Denominator"
            } ]
          },
          "count": 1
        }, {
          "id": "Numerator_1",
          "code": {
            "coding": [ {
              "system": "http://terminology.hl7.org/CodeSystem/measure-population",
              "code": "numerator",
              "display": "Numerator"
            } ]
          },
          "count": 0
        }, {
          "id": "NumeratorExclusion_1",
          "code": {
            "coding": [ {
              "system": "http://terminology.hl7.org/CodeSystem/measure-population",
              "code": "numerator-exclusion",
              "display": "Numerator Exclusion"
            } ]
          },
          "count": 0
        } ],
        "measureScore": {
          "value": 0.0
        }
      }, {
        "id": "Group_2",
        "population": [ {
          "id": "InitialPopulation_2",
          "code": {
            "coding": [ {
              "system": "http://terminology.hl7.org/CodeSystem/measure-population",
              "code": "initial-population",
              "display": "Initial Population"
            } ]
          },
          "count": 1
        }, {
          "id": "Denominator_2",
          "code": {
            "coding": [ {
              "system": "http://terminology.hl7.org/CodeSystem/measure-population",
              "code": "denominator",
              "display": "Denominator"
            } ]
          },
          "count": 1
        }, {
          "id": "Numerator_2",
          "code": {
            "coding": [ {
              "system": "http://terminology.hl7.org/CodeSystem/measure-population",
              "code": "numerator",
              "display": "Numerator"
            } ]
          },
          "count": 0
        }, {
          "id": "NumeratorExclusion_2",
          "code": {
            "coding": [ {
              "system": "http://terminology.hl7.org/CodeSystem/measure-population",
              "code": "numerator-exclusion",
              "display": "Numerator Exclusion"
            } ]
          },
          "count": 0
        } ],
        "measureScore": {
          "value": 0.0
        }
      } ],
      "evaluatedResource": [ {
        "reference": "Patient/5ef8fd93-3a42-4729-b2a7-7975aa4743d8"
      }, {
        "reference": "Observation/e8d07760-4849-4529-b221-54bd1a6dafb1"
      }, {
        "reference": "Observation/cef45d93-f7f9-45ae-8a76-711217433041"
      }, {
        "reference": "Condition/4790b7de-3e58-4422-b0dc-705b28a21641"
      }, {
        "reference": "Encounter/2dfb8893-973b-43dd-9fcd-00f63ba6733a"
      }, {
        "reference": "Coverage/448b7e1a-0890-4361-b705-94d31b66b8a6"
      }, {
        "reference": "Procedure/b05f8e3a-5027-4e54-b339-aed67fc1d3be"
      }, {
        "reference": "Encounter/0cc6f03f-b6dd-4749-ad2e-6edbb5d996e8"
      }, {
        "reference": "Procedure/6137ab4e-6f26-4ac4-a910-319896de2b62"
      }, {
        "reference": "Organization/635f2e53-ce0a-48e8-89e9-9e52f1a65ee0"
      }, {
        "reference": "Practitioner/b4528262-34fa-4689-92f6-a178411d415f"
      } ]
    },
    "request": {
      "method": "PUT",
      "url": "MeasureReport/e2d718f0-ebb1-4414-86a1-7ed999e420de"
    }
  } ]
}