{
  "resourceType": "Bundle",
  "id": "633b3f9f0968f80122503ce9",
  "type": "transaction",
  "entry": [ {
    "fullUrl": "https://madie.cms.gov/Patient/134ba0d1-1c06-4eb0-b2ec-46f30421d947",
    "resource": {
      "resourceType": "Patient",
      "id": "134ba0d1-1c06-4eb0-b2ec-46f30421d947",
      "meta": {
        "profile": [ "http://hl7.org/fhir/us/qicore/StructureDefinition/qicore-patient" ]
      },
      "text": {
        "status": "generated",
        "div": "<div xmlns=\"http://www.w3.org/1999/xhtml\"><div class=\"hapiHeaderText\">AgeGT65<b>IPFAIL</b></div><table class=\"hapiPropertyTable\"><tbody><tr><td>Date of birth</td><td><span>01 February 1946</span></td></tr></tbody></table></div>"
      },
      "extension": [ {
        "url": "http://hl7.org/fhir/us/core/StructureDefinition/us-core-race",
        "extension": [ {
          "url": "ombCategory",
          "valueCoding": {
            "system": "urn:oid:2.16.840.1.113883.6.238",
            "code": "1002-5",
            "display": "American Indian or Alaska Native",
            "userSelected": true
          }
        }, {
          "url": "text",
          "valueString": "American Indian or Alaska Native"
        } ]
      }, {
        "url": "http://hl7.org/fhir/us/core/StructureDefinition/us-core-ethnicity",
        "extension": [ {
          "url": "ombCategory",
          "valueCoding": {
            "system": "urn:oid:2.16.840.1.113883.6.238",
            "code": "2135-2",
            "display": "Hispanic or Latino",
            "userSelected": true
          }
        }, {
          "url": "text",
          "valueString": "Hispanic or Latino"
        } ]
      } ],
      "identifier": [ {
        "type": {
          "coding": [ {
            "system": "http://terminology.hl7.org/CodeSystem/v2-0203",
            "code": "MR"
          } ]
        },
        "system": "https://bonnie-fhir.healthit.gov/",
        "value": "633b3f9f0968f80122503ce9"
      } ],
      "active": true,
      "name": [ {
        "use": "usual",
        "family": "IPFail",
        "given": [ "AgeGT65" ]
      } ],
      "gender": "female",
      "birthDate": "1959-02-01"
    },
    "request": {
      "method": "PUT",
      "url": "Patient/134ba0d1-1c06-4eb0-b2ec-46f30421d947"
    }
  }, {
    "fullUrl": "https://madie.cms.gov/Encounter/43659b23-3754-465d-8ca0-8ca2de4c5d6e",
    "resource": {
      "resourceType": "Encounter",
      "id": "43659b23-3754-465d-8ca0-8ca2de4c5d6e",
      "meta": {
        "profile": [ "http://hl7.org/fhir/us/qicore/StructureDefinition/qicore-encounter" ]
      },
      "status": "finished",
      "class": {
        "system": "http://terminology.hl7.org/CodeSystem/v3-ActCode",
        "code": "IMP",
        "display": "inpatient encounter"
      },
      "type": [ {
        "coding": [ {
          "system": "http://snomed.info/sct",
          "code": "183452005"
        } ]
      } ],
      "subject": {
        "reference": "Patient/134ba0d1-1c06-4eb0-b2ec-46f30421d947"
      },
      "period": {
        "start": "2026-02-01T08:00:00Z",
        "end": "2026-02-05T08:15:00.000+00:00"
      }
    },
    "request": {
      "method": "PUT",
      "url": "Encounter/43659b23-3754-465d-8ca0-8ca2de4c5d6e"
    }
  }, {
    "fullUrl": "https://madie.cms.gov/Procedure/11fd33a6-8bef-4fbc-ace8-293a859acbae",
    "resource": {
      "resourceType": "Procedure",
      "id": "11fd33a6-8bef-4fbc-ace8-293a859acbae",
      "meta": {
        "profile": [ "http://hl7.org/fhir/us/qicore/StructureDefinition/qicore-procedure" ]
      },
      "extension": [ {
        "url": "http://hl7.org/fhir/us/qicore/StructureDefinition/qicore-recorded",
        "valueDateTime": "2014-04-05T13:35:00Z"
      } ],
      "status": "completed",
      "code": {
        "coding": [ {
          "system": "http://snomed.info/sct",
          "code": "10745001"
        } ]
      },
      "subject": {
        "reference": "Patient/134ba0d1-1c06-4eb0-b2ec-46f30421d947"
      },
      "performedPeriod": {
        "start": "2026-02-01T08:00:00Z",
        "end": "2026-02-05T08:15:00.000+00:00"
      }
    },
    "request": {
      "method": "PUT",
      "url": "Procedure/11fd33a6-8bef-4fbc-ace8-293a859acbae"
    }
  }, {
    "fullUrl": "https://madie.cms.gov/Coverage/2913135d-d406-4204-8bdf-3def93ea6bfe",
    "resource": {
      "resourceType": "Coverage",
      "id": "2913135d-d406-4204-8bdf-3def93ea6bfe",
      "meta": {
        "profile": [ "http://hl7.org/fhir/us/qicore/StructureDefinition/qicore-coverage" ]
      },
      "status": "active",
      "beneficiary": {
        "reference": "Patient/134ba0d1-1c06-4eb0-b2ec-46f30421d947"
      },
      "payor": [ {
        "reference": "Organization/7520c9a6-ed71-4854-9433-0d0dc1166898"
      } ]
    },
    "request": {
      "method": "PUT",
      "url": "Coverage/2913135d-d406-4204-8bdf-3def93ea6bfe"
    }
  }, {
    "fullUrl": "https://madie.cms.gov/Organization/7520c9a6-ed71-4854-9433-0d0dc1166898",
    "resource": {
      "resourceType": "Organization",
      "id": "7520c9a6-ed71-4854-9433-0d0dc1166898",
      "meta": {
        "profile": [ "http://hl7.org/fhir/us/qicore/StructureDefinition/qicore-organization" ]
      },
      "identifier": [ {
        "use": "temp",
        "system": "urn:oid:2.16.840.1.113883.4.4",
        "value": "21-3259825"
      } ],
      "active": true,
      "type": [ {
        "coding": [ {
          "system": "http://terminology.hl7.org/CodeSystem/organization-type",
          "code": "pay",
          "display": "Payer"
        } ]
      } ],
      "name": "Blue Cross Blue Shield of Texas",
      "telecom": [ {
        "system": "phone",
        "value": "(+1) 972-766-6900"
      } ],
      "address": [ {
        "use": "billing",
        "type": "postal",
        "line": [ "P.O. Box 660044" ],
        "city": "Dallas",
        "state": "TX",
        "postalCode": "75266-0044",
        "country": "USA"
      } ]
    },
    "request": {
      "method": "PUT",
      "url": "Organization/7520c9a6-ed71-4854-9433-0d0dc1166898"
    }
  }, {
    "fullUrl": "https://madie.cms.gov/Practitioner/248ad533-3747-422e-960c-bdacb085e053",
    "resource": {
      "resourceType": "Practitioner",
      "id": "248ad533-3747-422e-960c-bdacb085e053",
      "identifier": [ {
        "system": "http://hl7.org/fhir/sid/us-npi",
        "value": "123456"
      } ],
      "name": [ {
        "family": "Evil",
        "prefix": [ "Dr" ]
      } ]
    },
    "request": {
      "method": "PUT",
      "url": "Practitioner/248ad533-3747-422e-960c-bdacb085e053"
    }
  }, {
    "fullUrl": "https://madie.cms.gov/MeasureReport/d3e534ee-92b3-43ab-9c84-71a70aba9159",
    "resource": {
      "resourceType": "MeasureReport",
      "id": "d3e534ee-92b3-43ab-9c84-71a70aba9159",
      "meta": {
        "profile": [ "http://hl7.org/fhir/us/cqfmeasures/StructureDefinition/test-case-cqfm" ]
      },
      "contained": [ {
        "resourceType": "Parameters",
        "id": "026b241a-8023-4d49-8f8c-ba231e205eac-parameters",
        "parameter": [ {
          "name": "subject",
          "valueString": "134ba0d1-1c06-4eb0-b2ec-46f30421d947"
        } ]
      } ],
      "extension": [ {
        "url": "http://hl7.org/fhir/StructureDefinition/cqf-inputParameters",
        "valueReference": {
          "reference": "#026b241a-8023-4d49-8f8c-ba231e205eac-parameters"
        }
      }, {
        "url": "http://hl7.org/fhir/us/cqfmeasures/StructureDefinition/cqfm-testCaseDescription",
        "valueMarkdown": "Patient is 66 years of age on day encounter starts.\n"
      } ],
      "modifierExtension": [ {
        "url": "http://hl7.org/fhir/us/cqfmeasures/StructureDefinition/cqfm-isTestCase",
        "valueBoolean": true
      } ],
      "status": "complete",
      "type": "individual",
      "measure": "https://madie.cms.gov/Measure/CMS1028FHIRPCSevereOBComps",
      "period": {
        "start": "2026-01-01",
        "end": "2026-12-31"
      },
      "group": [ {
        "id": "Group_1",
        "population": [ {
          "id": "InitialPopulation_1",
          "code": {
            "coding": [ {
              "system": "http://terminology.hl7.org/CodeSystem/measure-population",
              "code": "initial-population",
              "display": "Initial Population"
            } ]
          },
          "count": 0
        }, {
          "id": "Denominator_1",
          "code": {
            "coding": [ {
              "system": "http://terminology.hl7.org/CodeSystem/measure-population",
              "code": "denominator",
              "display": "Denominator"
            } ]
          },
          "count": 0
        }, {
          "id": "Numerator_1",
          "code": {
            "coding": [ {
              "system": "http://terminology.hl7.org/CodeSystem/measure-population",
              "code": "numerator",
              "display": "Numerator"
            } ]
          },
          "count": 0
        }, {
          "id": "NumeratorExclusion_1",
          "code": {
            "coding": [ {
              "system": "http://terminology.hl7.org/CodeSystem/measure-population",
              "code": "numerator-exclusion",
              "display": "Numerator Exclusion"
            } ]
          },
          "count": 0
        } ],
        "measureScore": {
          "value": 0.0
        }
      }, {
        "id": "Group_2",
        "population": [ {
          "id": "InitialPopulation_2",
          "code": {
            "coding": [ {
              "system": "http://terminology.hl7.org/CodeSystem/measure-population",
              "code": "initial-population",
              "display": "Initial Population"
            } ]
          },
          "count": 0
        }, {
          "id": "Denominator_2",
          "code": {
            "coding": [ {
              "system": "http://terminology.hl7.org/CodeSystem/measure-population",
              "code": "denominator",
              "display": "Denominator"
            } ]
          },
          "count": 0
        }, {
          "id": "Numerator_2",
          "code": {
            "coding": [ {
              "system": "http://terminology.hl7.org/CodeSystem/measure-population",
              "code": "numerator",
              "display": "Numerator"
            } ]
          },
          "count": 0
        }, {
          "id": "NumeratorExclusion_2",
          "code": {
            "coding": [ {
              "system": "http://terminology.hl7.org/CodeSystem/measure-population",
              "code": "numerator-exclusion",
              "display": "Numerator Exclusion"
            } ]
          },
          "count": 0
        } ],
        "measureScore": {
          "value": 0.0
        }
      } ],
      "evaluatedResource": [ {
        "reference": "Patient/134ba0d1-1c06-4eb0-b2ec-46f30421d947"
      }, {
        "reference": "Encounter/43659b23-3754-465d-8ca0-8ca2de4c5d6e"
      }, {
        "reference": "Procedure/11fd33a6-8bef-4fbc-ace8-293a859acbae"
      }, {
        "reference": "Coverage/2913135d-d406-4204-8bdf-3def93ea6bfe"
      }, {
        "reference": "Organization/7520c9a6-ed71-4854-9433-0d0dc1166898"
      }, {
        "reference": "Practitioner/248ad533-3747-422e-960c-bdacb085e053"
      } ]
    },
    "request": {
      "method": "PUT",
      "url": "MeasureReport/d3e534ee-92b3-43ab-9c84-71a70aba9159"
    }
  } ]
}