{
  "resourceType": "Bundle",
  "id": "ScreNotatriRefAsseModDxNocp",
  "type": "transaction",
  "entry": [ {
    "fullUrl": "https://madie.cms.gov/Patient/dc38b27c-8138-4d45-8540-f7fe92317375",
    "resource": {
      "resourceType": "Patient",
      "id": "dc38b27c-8138-4d45-8540-f7fe92317375",
      "meta": {
        "profile": [ "http://hl7.org/fhir/us/qicore/StructureDefinition/qicore-patient" ]
      },
      "extension": [ {
        "url": "http://hl7.org/fhir/us/core/StructureDefinition/us-core-race",
        "extension": [ {
          "url": "ombCategory",
          "valueCoding": {
            "system": "urn:oid:2.16.840.1.113883.6.238",
            "code": "1002-5",
            "display": "American Indian or Alaska Native",
            "userSelected": true
          }
        }, {
          "url": "text",
          "valueString": "American Indian or Alaska Native"
        } ]
      }, {
        "url": "http://hl7.org/fhir/us/core/StructureDefinition/us-core-ethnicity",
        "extension": [ {
          "url": "ombCategory",
          "valueCoding": {
            "system": "urn:oid:2.16.840.1.113883.6.238",
            "code": "2135-2",
            "display": "Hispanic or Latino",
            "userSelected": true
          }
        }, {
          "url": "text",
          "valueString": "Hispanic or Latino"
        } ]
      }, {
        "url": "http://hl7.org/fhir/us/core/StructureDefinition/us-core-sex",
        "valueCode": "248153007"
      } ],
      "identifier": [ {
        "type": {
          "coding": [ {
            "system": "http://terminology.hl7.org/CodeSystem/v2-0203",
            "code": "MR"
          } ]
        },
        "system": "https://madie.cms.gov/",
        "value": "ScreNotatriRefAsseModDxNocp"
      } ],
      "active": true,
      "name": [ {
        "use": "usual",
        "text": "ScreNotatriRefAsseModDxNocp",
        "family": "MSROBSPass4",
        "given": [ "ScreNotatriRefAsseModDxNocp" ]
      } ],
      "gender": "male",
      "birthDate": "1940-03-24",
      "address": [ {
        "text": "ScreNotatriRefAsseModDxNocp, Screened Not at risk Assessed Severely Malnourished Diagnosed Care Plan, ID=ScreNotatriRefAsseModDxNocp, DOB: 23 Aug 2008"
      } ]
    },
    "request": {
      "method": "PUT",
      "url": "Patient/dc38b27c-8138-4d45-8540-f7fe92317375"
    }
  }, {
    "fullUrl": "https://madie.cms.gov/Encounter/004141c5-a273-4e55-9216-e66de63cc9ee",
    "resource": {
      "resourceType": "Encounter",
      "id": "004141c5-a273-4e55-9216-e66de63cc9ee",
      "meta": {
        "profile": [ "http://hl7.org/fhir/us/qicore/StructureDefinition/qicore-encounter" ]
      },
      "status": "finished",
      "class": {
        "system": "http://terminology.hl7.org/CodeSystem/v3-ActCode",
        "code": "IMP",
        "display": "inpatient encounter"
      },
      "type": [ {
        "coding": [ {
          "system": "http://snomed.info/sct",
          "code": "183452005"
        } ]
      } ],
      "subject": {
        "reference": "Patient/dc38b27c-8138-4d45-8540-f7fe92317375"
      },
      "period": {
        "start": "2026-08-24T08:00:00.000+00:00",
        "end": "2026-08-27T08:15:00.000+00:00"
      },
      "reasonReference": [ {
        "reference": "Condition/e48b4e65-f3ac-4c6f-aefb-d39504ead0d1"
      } ]
    },
    "request": {
      "method": "PUT",
      "url": "Encounter/004141c5-a273-4e55-9216-e66de63cc9ee"
    }
  }, {
    "fullUrl": "https://madie.cms.gov/Condition/e48b4e65-f3ac-4c6f-aefb-d39504ead0d1",
    "resource": {
      "resourceType": "Condition",
      "id": "e48b4e65-f3ac-4c6f-aefb-d39504ead0d1",
      "meta": {
        "profile": [ "http://hl7.org/fhir/us/qicore/StructureDefinition/qicore-condition-encounter-diagnosis" ]
      },
      "clinicalStatus": {
        "coding": [ {
          "system": "http://terminology.hl7.org/CodeSystem/condition-clinical",
          "code": "active",
          "display": "Active",
          "userSelected": true
        } ]
      },
      "verificationStatus": {
        "coding": [ {
          "system": "http://terminology.hl7.org/CodeSystem/condition-ver-status",
          "code": "confirmed",
          "display": "Confirmed",
          "userSelected": true
        } ]
      },
      "category": [ {
        "coding": [ {
          "system": "http://terminology.hl7.org/CodeSystem/condition-category",
          "code": "encounter-diagnosis",
          "display": "Encounter Diagnosis",
          "userSelected": true
        } ]
      } ],
      "code": {
        "coding": [ {
          "system": "http://snomed.info/sct",
          "code": "2492009",
          "display": "Nutritional disorder (disorder)",
          "userSelected": true
        } ]
      },
      "subject": {
        "reference": "Patient/dc38b27c-8138-4d45-8540-f7fe92317375"
      },
      "onsetPeriod": {
        "start": "2026-08-24T08:00:00.000+00:00"
      },
      "recordedDate": "2026-08-24T11:00:00.000+00:00"
    },
    "request": {
      "method": "PUT",
      "url": "Condition/e48b4e65-f3ac-4c6f-aefb-d39504ead0d1"
    }
  }, {
    "fullUrl": "https://madie.cms.gov/Observation/ccf77eaf-71e1-4a6e-a788-2c312931e72c",
    "resource": {
      "resourceType": "Observation",
      "id": "ccf77eaf-71e1-4a6e-a788-2c312931e72c",
      "meta": {
        "profile": [ "http://hl7.org/fhir/us/qicore/StructureDefinition/qicore-observation-screening-assessment" ]
      },
      "status": "final",
      "category": [ {
        "coding": [ {
          "system": "http://terminology.hl7.org/CodeSystem/observation-category",
          "code": "survey",
          "display": "Survey"
        } ]
      } ],
      "code": {
        "coding": [ {
          "system": "http://loinc.org",
          "code": "98968-1",
          "display": "Initial screening NRS_2002",
          "userSelected": true
        } ]
      },
      "subject": {
        "reference": "Patient/dc38b27c-8138-4d45-8540-f7fe92317375"
      },
      "effectiveDateTime": "2026-08-24T09:00:00.000+00:00",
      "valueCodeableConcept": {
        "coding": [ {
          "system": "http://loinc.org",
          "code": "LA33699-2",
          "display": "Not at risk for malnutrition",
          "userSelected": true
        } ]
      }
    },
    "request": {
      "method": "PUT",
      "url": "Observation/ccf77eaf-71e1-4a6e-a788-2c312931e72c"
    }
  }, {
    "fullUrl": "https://madie.cms.gov/Observation/a909447e-9cfa-48ac-8aae-b60a873efc9e",
    "resource": {
      "resourceType": "Observation",
      "id": "a909447e-9cfa-48ac-8aae-b60a873efc9e",
      "meta": {
        "profile": [ "http://hl7.org/fhir/us/qicore/StructureDefinition/qicore-observation-screening-assessment" ]
      },
      "status": "final",
      "category": [ {
        "coding": [ {
          "system": "http://terminology.hl7.org/CodeSystem/observation-category",
          "code": "survey",
          "display": "Survey"
        } ]
      } ],
      "code": {
        "coding": [ {
          "system": "http://loinc.org",
          "code": "75282-4",
          "display": "Nutrition assessment panel",
          "userSelected": true
        } ]
      },
      "subject": {
        "reference": "Patient/dc38b27c-8138-4d45-8540-f7fe92317375"
      },
      "effectiveDateTime": "2026-08-24T10:00:00.000+00:00",
      "valueCodeableConcept": {
        "coding": [ {
          "system": "http://snomed.info/sct",
          "code": "432788009",
          "display": "Pediatric failure to thrive (disorder)",
          "userSelected": true
        } ]
      }
    },
    "request": {
      "method": "PUT",
      "url": "Observation/a909447e-9cfa-48ac-8aae-b60a873efc9e"
    }
  }, {
    "fullUrl": "https://madie.cms.gov/Procedure/8f8890c5-a0d3-4c3d-aa7d-8363996b1de9",
    "resource": {
      "resourceType": "Procedure",
      "id": "8f8890c5-a0d3-4c3d-aa7d-8363996b1de9",
      "meta": {
        "profile": [ "http://hl7.org/fhir/us/qicore/StructureDefinition/qicore-procedure" ]
      },
      "extension": [ {
        "url": "http://hl7.org/fhir/us/qicore/StructureDefinition/qicore-recorded",
        "valueDateTime": "2026-08-24T11:30:00.000+00:00"
      } ],
      "status": "completed",
      "code": {
        "coding": [ {
          "system": "http://snomed.info/sct",
          "code": "306165000",
          "display": "Referral to hospital-based dietetics service (procedure)"
        } ],
        "text": "Referral to hospital-based dietetics service (procedure)"
      },
      "subject": {
        "reference": "Patient/dc38b27c-8138-4d45-8540-f7fe92317375"
      },
      "encounter": {
        "reference": "Encounter/ScreNotatriRefAsseModDxNocpMSROBSPass4"
      },
      "performedPeriod": {
        "start": "2026-08-24T11:30:00.000+00:00",
        "end": "2026-08-27T08:15:00.000+00:00"
      }
    },
    "request": {
      "method": "PUT",
      "url": "Procedure/8f8890c5-a0d3-4c3d-aa7d-8363996b1de9"
    }
  }, {
    "fullUrl": "https://madie.cms.gov/Coverage/f99385ef-4a6a-4c08-972d-d1a0341d27fb",
    "resource": {
      "resourceType": "Coverage",
      "id": "f99385ef-4a6a-4c08-972d-d1a0341d27fb",
      "meta": {
        "profile": [ "http://hl7.org/fhir/us/qicore/StructureDefinition/qicore-coverage" ]
      },
      "status": "active",
      "type": {
        "coding": [ {
          "system": "https://nahdo.org/sopt",
          "version": "9.2",
          "code": "11",
          "display": "Medicare Managed Care (Includes Medicare Advantage Plans)"
        } ]
      },
      "subscriberId": "97531",
      "beneficiary": {
        "reference": "Patient/dc38b27c-8138-4d45-8540-f7fe92317375"
      },
      "dependent": "0",
      "relationship": {
        "coding": [ {
          "system": "http://terminology.hl7.org/CodeSystem/subscriber-relationship",
          "code": "self"
        } ]
      },
      "period": {
        "start": "2025-10-01T00:00:00.000+00:00"
      },
      "payor": [ {
        "reference": "Organization/a7a955dc-35b1-474e-aa89-582d011e2b88"
      } ]
    },
    "request": {
      "method": "PUT",
      "url": "Coverage/f99385ef-4a6a-4c08-972d-d1a0341d27fb"
    }
  }, {
    "fullUrl": "https://madie.cms.gov/Organization/a7a955dc-35b1-474e-aa89-582d011e2b88",
    "resource": {
      "resourceType": "Organization",
      "id": "a7a955dc-35b1-474e-aa89-582d011e2b88",
      "meta": {
        "profile": [ "http://hl7.org/fhir/us/qicore/StructureDefinition/qicore-organization" ]
      },
      "identifier": [ {
        "use": "temp",
        "system": "urn:oid:2.16.840.1.113883.4.4",
        "value": "21-3259825"
      } ],
      "active": true,
      "type": [ {
        "coding": [ {
          "system": "http://terminology.hl7.org/CodeSystem/organization-type",
          "code": "pay",
          "display": "Payer"
        } ]
      } ],
      "name": "Blue Cross Blue Shield of Texas",
      "telecom": [ {
        "system": "phone",
        "value": "(+1) 972-766-6900"
      } ],
      "address": [ {
        "use": "billing",
        "type": "postal",
        "line": [ "P.O. Box 660044" ],
        "city": "Dallas",
        "state": "TX",
        "postalCode": "75266-0044",
        "country": "USA"
      } ]
    },
    "request": {
      "method": "PUT",
      "url": "Organization/a7a955dc-35b1-474e-aa89-582d011e2b88"
    }
  }, {
    "fullUrl": "https://madie.cms.gov/MeasureReport/011e82db-49aa-46c7-8da9-e810f96a3f1a",
    "resource": {
      "resourceType": "MeasureReport",
      "id": "011e82db-49aa-46c7-8da9-e810f96a3f1a",
      "meta": {
        "profile": [ "http://hl7.org/fhir/us/cqfmeasures/StructureDefinition/test-case-cqfm" ]
      },
      "contained": [ {
        "resourceType": "Parameters",
        "id": "135a86b6-089d-4ffb-ac51-80c4585b2e9c-parameters",
        "parameter": [ {
          "name": "subject",
          "valueString": "dc38b27c-8138-4d45-8540-f7fe92317375"
        } ]
      } ],
      "extension": [ {
        "url": "http://hl7.org/fhir/StructureDefinition/cqf-inputParameters",
        "valueReference": {
          "reference": "#135a86b6-089d-4ffb-ac51-80c4585b2e9c-parameters"
        }
      }, {
        "url": "http://hl7.org/fhir/us/cqfmeasures/StructureDefinition/cqfm-testCaseDescription",
        "valueMarkdown": "Screened, Not at Risk, Referral, Assessed, Moderate Malnutrition, Diagnosis, No Care Plan"
      } ],
      "modifierExtension": [ {
        "url": "http://hl7.org/fhir/us/cqfmeasures/StructureDefinition/cqfm-isTestCase",
        "valueBoolean": true
      } ],
      "status": "complete",
      "type": "individual",
      "measure": "https://madie.cms.gov/Measure/CMS986FHIRMalnutritionScore",
      "period": {
        "start": "2026-01-01",
        "end": "2026-12-31"
      },
      "group": [ {
        "id": "Group_1",
        "population": [ {
          "id": "InitialPopulation_1",
          "code": {
            "coding": [ {
              "system": "http://terminology.hl7.org/CodeSystem/measure-population",
              "code": "initial-population",
              "display": "Initial Population"
            } ]
          },
          "count": 1
        }, {
          "id": "MeasurePopulation_1",
          "code": {
            "coding": [ {
              "system": "http://terminology.hl7.org/CodeSystem/measure-population",
              "code": "measure-population",
              "display": "Measure Population"
            } ]
          },
          "count": 1
        }, {
          "id": "MeasurePopulationExclusion_1",
          "code": {
            "coding": [ {
              "system": "http://terminology.hl7.org/CodeSystem/measure-population",
              "code": "measure-population-exclusion",
              "display": "Measure Population Exclusion"
            } ]
          },
          "count": 0
        }, {
          "id": "MeasureObservation_1_1",
          "code": {
            "coding": [ {
              "system": "http://terminology.hl7.org/CodeSystem/measure-population",
              "code": "measure-population-observation",
              "display": "Measure Population Observation"
            } ]
          },
          "count": 1
        } ],
        "measureScore": {
          "value": 0.0
        }
      }, {
        "id": "Group_2",
        "population": [ {
          "id": "InitialPopulation_2",
          "code": {
            "coding": [ {
              "system": "http://terminology.hl7.org/CodeSystem/measure-population",
              "code": "initial-population",
              "display": "Initial Population"
            } ]
          },
          "count": 1
        }, {
          "id": "MeasurePopulation_2",
          "code": {
            "coding": [ {
              "system": "http://terminology.hl7.org/CodeSystem/measure-population",
              "code": "measure-population",
              "display": "Measure Population"
            } ]
          },
          "count": 1
        }, {
          "id": "MeasurePopulationExclusion_2",
          "code": {
            "coding": [ {
              "system": "http://terminology.hl7.org/CodeSystem/measure-population",
              "code": "measure-population-exclusion",
              "display": "Measure Population Exclusion"
            } ]
          },
          "count": 0
        }, {
          "id": "MeasureObservation_2_1",
          "code": {
            "coding": [ {
              "system": "http://terminology.hl7.org/CodeSystem/measure-population",
              "code": "measure-population-observation",
              "display": "Measure Population Observation"
            } ]
          },
          "count": 1
        } ],
        "measureScore": {
          "value": 0.0
        }
      }, {
        "id": "Group_3",
        "population": [ {
          "id": "InitialPopulation_3",
          "code": {
            "coding": [ {
              "system": "http://terminology.hl7.org/CodeSystem/measure-population",
              "code": "initial-population",
              "display": "Initial Population"
            } ]
          },
          "count": 1
        }, {
          "id": "MeasurePopulation_3",
          "code": {
            "coding": [ {
              "system": "http://terminology.hl7.org/CodeSystem/measure-population",
              "code": "measure-population",
              "display": "Measure Population"
            } ]
          },
          "count": 1
        }, {
          "id": "MeasurePopulationExclusion_3",
          "code": {
            "coding": [ {
              "system": "http://terminology.hl7.org/CodeSystem/measure-population",
              "code": "measure-population-exclusion",
              "display": "Measure Population Exclusion"
            } ]
          },
          "count": 0
        }, {
          "id": "MeasureObservation_3_1",
          "code": {
            "coding": [ {
              "system": "http://terminology.hl7.org/CodeSystem/measure-population",
              "code": "measure-population-observation",
              "display": "Measure Population Observation"
            } ]
          },
          "count": 1
        } ],
        "measureScore": {
          "value": 0.0
        }
      }, {
        "id": "Group_4",
        "population": [ {
          "id": "InitialPopulation_4",
          "code": {
            "coding": [ {
              "system": "http://terminology.hl7.org/CodeSystem/measure-population",
              "code": "initial-population",
              "display": "Initial Population"
            } ]
          },
          "count": 1
        }, {
          "id": "MeasurePopulation_4",
          "code": {
            "coding": [ {
              "system": "http://terminology.hl7.org/CodeSystem/measure-population",
              "code": "measure-population",
              "display": "Measure Population"
            } ]
          },
          "count": 1
        }, {
          "id": "MeasurePopulationExclusion_4",
          "code": {
            "coding": [ {
              "system": "http://terminology.hl7.org/CodeSystem/measure-population",
              "code": "measure-population-exclusion",
              "display": "Measure Population Exclusion"
            } ]
          },
          "count": 0
        }, {
          "id": "MeasureObservation_4_1",
          "code": {
            "coding": [ {
              "system": "http://terminology.hl7.org/CodeSystem/measure-population",
              "code": "measure-population-observation",
              "display": "Measure Population Observation"
            } ]
          },
          "count": 0
        } ],
        "measureScore": {
          "value": 0.0
        }
      }, {
        "id": "Group_5",
        "population": [ {
          "id": "InitialPopulation_5",
          "code": {
            "coding": [ {
              "system": "http://terminology.hl7.org/CodeSystem/measure-population",
              "code": "initial-population",
              "display": "Initial Population"
            } ]
          },
          "count": 1
        }, {
          "id": "MeasurePopulation_5",
          "code": {
            "coding": [ {
              "system": "http://terminology.hl7.org/CodeSystem/measure-population",
              "code": "measure-population",
              "display": "Measure Population"
            } ]
          },
          "count": 1
        }, {
          "id": "MeasurePopulationExclusion_5",
          "code": {
            "coding": [ {
              "system": "http://terminology.hl7.org/CodeSystem/measure-population",
              "code": "measure-population-exclusion",
              "display": "Measure Population Exclusion"
            } ]
          },
          "count": 0
        }, {
          "id": "MeasureObservation_5_1",
          "code": {
            "coding": [ {
              "system": "http://terminology.hl7.org/CodeSystem/measure-population",
              "code": "measure-population-observation",
              "display": "Measure Population Observation"
            } ]
          },
          "count": 3
        } ],
        "measureScore": {
          "value": 0.0
        }
      }, {
        "id": "Group_6",
        "population": [ {
          "id": "InitialPopulation_6",
          "code": {
            "coding": [ {
              "system": "http://terminology.hl7.org/CodeSystem/measure-population",
              "code": "initial-population",
              "display": "Initial Population"
            } ]
          },
          "count": 1
        }, {
          "id": "MeasurePopulation_6",
          "code": {
            "coding": [ {
              "system": "http://terminology.hl7.org/CodeSystem/measure-population",
              "code": "measure-population",
              "display": "Measure Population"
            } ]
          },
          "count": 1
        }, {
          "id": "MeasurePopulationExclusion_6",
          "code": {
            "coding": [ {
              "system": "http://terminology.hl7.org/CodeSystem/measure-population",
              "code": "measure-population-exclusion",
              "display": "Measure Population Exclusion"
            } ]
          },
          "count": 0
        }, {
          "id": "MeasureObservation_6_1",
          "code": {
            "coding": [ {
              "system": "http://terminology.hl7.org/CodeSystem/measure-population",
              "code": "measure-population-observation",
              "display": "Measure Population Observation"
            } ]
          },
          "count": 75
        } ],
        "measureScore": {
          "value": 0.0
        }
      } ],
      "evaluatedResource": [ {
        "reference": "Patient/dc38b27c-8138-4d45-8540-f7fe92317375"
      }, {
        "reference": "Encounter/004141c5-a273-4e55-9216-e66de63cc9ee"
      }, {
        "reference": "Condition/e48b4e65-f3ac-4c6f-aefb-d39504ead0d1"
      }, {
        "reference": "Observation/ccf77eaf-71e1-4a6e-a788-2c312931e72c"
      }, {
        "reference": "Observation/a909447e-9cfa-48ac-8aae-b60a873efc9e"
      }, {
        "reference": "Procedure/8f8890c5-a0d3-4c3d-aa7d-8363996b1de9"
      }, {
        "reference": "Coverage/f99385ef-4a6a-4c08-972d-d1a0341d27fb"
      }, {
        "reference": "Organization/a7a955dc-35b1-474e-aa89-582d011e2b88"
      } ]
    },
    "request": {
      "method": "PUT",
      "url": "MeasureReport/011e82db-49aa-46c7-8da9-e810f96a3f1a"
    }
  } ]
}