{
  "resourceType": "Bundle",
  "id": "DENEXPass-FrailtyDeviceUsed",
  "type": "transaction",
  "entry": [ {
    "fullUrl": "https://madie.cms.gov/Patient/474b2964-23a1-4c77-ad16-8a21543b2ed3",
    "resource": {
      "resourceType": "Patient",
      "id": "474b2964-23a1-4c77-ad16-8a21543b2ed3",
      "meta": {
        "profile": [ "http://hl7.org/fhir/us/qicore/StructureDefinition/qicore-patient" ]
      },
      "extension": [ {
        "url": "http://hl7.org/fhir/us/core/StructureDefinition/us-core-race",
        "extension": [ {
          "url": "ombCategory",
          "valueCoding": {
            "system": "urn:oid:2.16.840.1.113883.6.238",
            "code": "2028-9",
            "display": "Asian"
          }
        }, {
          "url": "text",
          "valueString": "Asian"
        } ]
      }, {
        "url": "http://hl7.org/fhir/us/core/StructureDefinition/us-core-ethnicity",
        "extension": [ {
          "url": "ombCategory",
          "valueCoding": {
            "system": "urn:oid:2.16.840.1.113883.6.238",
            "code": "2135-2",
            "display": "Hispanic or Latino"
          }
        }, {
          "url": "text",
          "valueString": "Hispanic or Latino"
        } ]
      } ],
      "identifier": [ {
        "system": "http://hospital.smarthealthit.org",
        "value": "999999995"
      } ],
      "name": [ {
        "family": "DENEXPass",
        "given": [ "FrailtyDeviceUsed" ]
      } ],
      "gender": "female",
      "birthDate": "1959-12-31"
    },
    "request": {
      "method": "PUT",
      "url": "Patient/474b2964-23a1-4c77-ad16-8a21543b2ed3"
    }
  }, {
    "fullUrl": "https://madie.cms.gov/Encounter/4e12e66b-d17c-444c-a2d0-b2cecae673e1",
    "resource": {
      "resourceType": "Encounter",
      "id": "4e12e66b-d17c-444c-a2d0-b2cecae673e1",
      "meta": {
        "profile": [ "http://hl7.org/fhir/us/qicore/StructureDefinition/qicore-encounter" ]
      },
      "status": "finished",
      "class": {
        "system": "http://terminology.hl7.org/CodeSystem/v3-ActCode",
        "code": "AMB",
        "display": "ambulatory"
      },
      "type": [ {
        "coding": [ {
          "system": "http://snomed.info/sct",
          "code": "3391000175108",
          "display": "Office visit for pediatric care and assessment (procedure)"
        } ]
      } ],
      "subject": {
        "reference": "Patient/474b2964-23a1-4c77-ad16-8a21543b2ed3"
      },
      "period": {
        "start": "2026-01-01T00:00:00.000+00:00",
        "end": "2026-01-01T01:00:00.000+00:00"
      }
    },
    "request": {
      "method": "PUT",
      "url": "Encounter/4e12e66b-d17c-444c-a2d0-b2cecae673e1"
    }
  }, {
    "fullUrl": "https://madie.cms.gov/Condition/865f3056-2687-4a2b-b65b-99daedbd1296",
    "resource": {
      "resourceType": "Condition",
      "id": "865f3056-2687-4a2b-b65b-99daedbd1296",
      "meta": {
        "profile": [ "http://hl7.org/fhir/us/qicore/StructureDefinition/qicore-condition-problems-health-concerns" ]
      },
      "clinicalStatus": {
        "coding": [ {
          "system": "http://terminology.hl7.org/CodeSystem/condition-clinical",
          "code": "active"
        } ]
      },
      "category": [ {
        "coding": [ {
          "system": "http://terminology.hl7.org/CodeSystem/condition-category",
          "code": "problem-list-item",
          "display": "Problem List Item"
        } ]
      } ],
      "code": {
        "coding": [ {
          "system": "http://snomed.info/sct",
          "code": "371125006",
          "display": "Labile essential hypertension (disorder)"
        } ]
      },
      "subject": {
        "reference": "Patient/474b2964-23a1-4c77-ad16-8a21543b2ed3"
      },
      "onsetDateTime": "2026-06-29T23:59:59.000+00:00"
    },
    "request": {
      "method": "PUT",
      "url": "Condition/865f3056-2687-4a2b-b65b-99daedbd1296"
    }
  }, {
    "fullUrl": "https://madie.cms.gov/MedicationRequest/4661f313-fae6-48d6-a0b9-d94234584de9",
    "resource": {
      "resourceType": "MedicationRequest",
      "id": "4661f313-fae6-48d6-a0b9-d94234584de9",
      "meta": {
        "profile": [ "http://hl7.org/fhir/us/qicore/StructureDefinition/qicore-medicationrequest" ]
      },
      "status": "active",
      "intent": "order",
      "doNotPerform": false,
      "medicationCodeableConcept": {
        "coding": [ {
          "system": "http://www.nlm.nih.gov/research/umls/rxnorm",
          "code": "312836",
          "display": "rivastigmine 6 MG Oral Capsule"
        } ]
      },
      "subject": {
        "reference": "Patient/474b2964-23a1-4c77-ad16-8a21543b2ed3"
      },
      "authoredOn": "2026-01-01T00:00:00.000+00:00",
      "requester": {
        "reference": "Practitioner/example"
      },
      "dispenseRequest": {
        "expectedSupplyDuration": {
          "value": 90,
          "system": "http://unitsofmeasure.org",
          "code": "days"
        }
      }
    },
    "request": {
      "method": "PUT",
      "url": "MedicationRequest/4661f313-fae6-48d6-a0b9-d94234584de9"
    }
  }, {
    "fullUrl": "https://madie.cms.gov/Observation/2b50da4a-3f97-4e3b-ae7c-01b23dc7713a",
    "resource": {
      "resourceType": "Observation",
      "id": "2b50da4a-3f97-4e3b-ae7c-01b23dc7713a",
      "meta": {
        "profile": [ "http://hl7.org/fhir/us/qicore/StructureDefinition/qicore-observation-screening-assessment" ]
      },
      "status": "final",
      "category": [ {
        "coding": [ {
          "system": "http://terminology.hl7.org/CodeSystem/observation-category",
          "code": "survey"
        } ]
      } ],
      "code": {
        "coding": [ {
          "system": "http://loinc.org",
          "code": "98181-1",
          "display": "Medical equipment used"
        } ]
      },
      "subject": {
        "reference": "Patient/474b2964-23a1-4c77-ad16-8a21543b2ed3"
      },
      "effectivePeriod": {
        "start": "2026-01-01T00:00:00.000+00:00",
        "end": "2026-01-01T01:00:00.000+00:00"
      },
      "valueCodeableConcept": {
        "coding": [ {
          "system": "http://snomed.info/sct",
          "code": "262177002",
          "display": "Static oxygen cylinder (physical object)"
        } ]
      }
    },
    "request": {
      "method": "PUT",
      "url": "Observation/2b50da4a-3f97-4e3b-ae7c-01b23dc7713a"
    }
  }, {
    "fullUrl": "https://madie.cms.gov/MeasureReport/c4b80e1d-6d0e-4a61-8576-1be3b5ddaf05",
    "resource": {
      "resourceType": "MeasureReport",
      "id": "c4b80e1d-6d0e-4a61-8576-1be3b5ddaf05",
      "meta": {
        "profile": [ "http://hl7.org/fhir/us/cqfmeasures/StructureDefinition/test-case-cqfm" ]
      },
      "contained": [ {
        "resourceType": "Parameters",
        "id": "f5853a57-6c5a-4570-9be9-396f98452b6a-parameters",
        "parameter": [ {
          "name": "subject",
          "valueString": "474b2964-23a1-4c77-ad16-8a21543b2ed3"
        } ]
      } ],
      "extension": [ {
        "url": "http://hl7.org/fhir/StructureDefinition/cqf-inputParameters",
        "valueReference": {
          "reference": "#f5853a57-6c5a-4570-9be9-396f98452b6a-parameters"
        }
      }, {
        "url": "http://hl7.org/fhir/us/cqfmeasures/StructureDefinition/cqfm-testCaseDescription",
        "valueMarkdown": "Medical equipment use observation indicates frailty device used"
      } ],
      "modifierExtension": [ {
        "url": "http://hl7.org/fhir/us/cqfmeasures/StructureDefinition/cqfm-isTestCase",
        "valueBoolean": true
      } ],
      "status": "complete",
      "type": "individual",
      "measure": "https://madie.cms.gov/Measure/CMS165FHIRControllingHighBloodPressure",
      "period": {
        "start": "2026-01-01",
        "end": "2026-12-31"
      },
      "group": [ {
        "id": "Group_1",
        "population": [ {
          "id": "InitialPopulation_1",
          "code": {
            "coding": [ {
              "system": "http://terminology.hl7.org/CodeSystem/measure-population",
              "code": "initial-population",
              "display": "Initial Population"
            } ]
          },
          "count": 1
        }, {
          "id": "Denominator_1",
          "code": {
            "coding": [ {
              "system": "http://terminology.hl7.org/CodeSystem/measure-population",
              "code": "denominator",
              "display": "Denominator"
            } ]
          },
          "count": 1
        }, {
          "id": "DenominatorExclusion_1",
          "code": {
            "coding": [ {
              "system": "http://terminology.hl7.org/CodeSystem/measure-population",
              "code": "denominator-exclusion",
              "display": "Denominator Exclusion"
            } ]
          },
          "count": 1
        }, {
          "id": "Numerator_1",
          "code": {
            "coding": [ {
              "system": "http://terminology.hl7.org/CodeSystem/measure-population",
              "code": "numerator",
              "display": "Numerator"
            } ]
          },
          "count": 0
        } ],
        "measureScore": {
          "value": 1.0
        }
      } ],
      "evaluatedResource": [ {
        "reference": "Patient/474b2964-23a1-4c77-ad16-8a21543b2ed3"
      }, {
        "reference": "Encounter/4e12e66b-d17c-444c-a2d0-b2cecae673e1"
      }, {
        "reference": "Condition/865f3056-2687-4a2b-b65b-99daedbd1296"
      }, {
        "reference": "MedicationRequest/4661f313-fae6-48d6-a0b9-d94234584de9"
      }, {
        "reference": "Observation/2b50da4a-3f97-4e3b-ae7c-01b23dc7713a"
      } ]
    },
    "request": {
      "method": "PUT",
      "url": "MeasureReport/c4b80e1d-6d0e-4a61-8576-1be3b5ddaf05"
    }
  } ]
}