{
  "resourceType": "Bundle",
  "id": "60f82c2e98086b570510e266",
  "type": "transaction",
  "entry": [ {
    "fullUrl": "https://madie.cms.gov/Patient/89275dc4-f4c1-41b5-a215-9c7228933cc0",
    "resource": {
      "resourceType": "Patient",
      "id": "89275dc4-f4c1-41b5-a215-9c7228933cc0",
      "meta": {
        "profile": [ "http://hl7.org/fhir/us/qicore/StructureDefinition/qicore-patient" ]
      },
      "text": {
        "status": "generated",
        "div": "<div xmlns=\"http://www.w3.org/1999/xhtml\"><div class=\"hapiHeaderText\">CMP=1Day_DuringEncIP <b>DENEXPASS </b></div><table class=\"hapiPropertyTable\"><tbody><tr><td>Identifier</td><td>912400d032c570bbcae9bbdbf6e22fb5</td></tr><tr><td>Date of birth</td><td><span>26 September 1975</span></td></tr></tbody></table></div>"
      },
      "extension": [ {
        "url": "http://hl7.org/fhir/us/core/StructureDefinition/us-core-race",
        "extension": [ {
          "url": "ombCategory",
          "valueCoding": {
            "system": "urn:oid:2.16.840.1.113883.6.238",
            "code": "2054-5",
            "display": "Black or African American",
            "userSelected": true
          }
        }, {
          "url": "text",
          "valueString": "Black or African American"
        } ]
      }, {
        "url": "http://hl7.org/fhir/us/core/StructureDefinition/us-core-ethnicity",
        "extension": [ {
          "url": "ombCategory",
          "valueCoding": {
            "system": "urn:oid:2.16.840.1.113883.6.238",
            "code": "2186-5",
            "display": "Not Hispanic or Latino",
            "userSelected": true
          }
        }, {
          "url": "text",
          "valueString": "Not Hispanic or Latino"
        } ]
      } ],
      "identifier": [ {
        "type": {
          "coding": [ {
            "system": "http://terminology.hl7.org/CodeSystem/v2-0203",
            "code": "MR"
          } ]
        },
        "system": "https://bonnie-fhir.healthit.gov/",
        "value": "60f82c2e98086b570510e266"
      } ],
      "active": true,
      "name": [ {
        "use": "usual",
        "family": "DENEXPass",
        "given": [ "CMP=1Day_DuringEncIP" ]
      } ],
      "gender": "female",
      "birthDate": "1976-09-26"
    },
    "request": {
      "method": "PUT",
      "url": "Patient/89275dc4-f4c1-41b5-a215-9c7228933cc0"
    }
  }, {
    "fullUrl": "https://madie.cms.gov/Encounter/d6e1c618-7aea-4c86-b681-7256b4b6f2a5",
    "resource": {
      "resourceType": "Encounter",
      "id": "d6e1c618-7aea-4c86-b681-7256b4b6f2a5",
      "meta": {
        "profile": [ "http://hl7.org/fhir/us/qicore/StructureDefinition/qicore-encounter" ]
      },
      "status": "finished",
      "class": {
        "system": "http://terminology.hl7.org/CodeSystem/v3-ActCode",
        "code": "EMER",
        "display": "emergency",
        "userSelected": true
      },
      "type": [ {
        "coding": [ {
          "system": "http://snomed.info/sct",
          "code": "4525004"
        } ]
      } ],
      "subject": {
        "reference": "Patient/89275dc4-f4c1-41b5-a215-9c7228933cc0"
      },
      "period": {
        "start": "2026-10-10T04:00:00Z",
        "end": "2026-10-10T06:15:00.000+00:00"
      },
      "length": {
        "value": 0,
        "unit": "days"
      }
    },
    "request": {
      "method": "PUT",
      "url": "Encounter/d6e1c618-7aea-4c86-b681-7256b4b6f2a5"
    }
  }, {
    "fullUrl": "https://madie.cms.gov/Encounter/e6d8c136-a0b8-4f9a-861a-922ef80ae4e1",
    "resource": {
      "resourceType": "Encounter",
      "id": "e6d8c136-a0b8-4f9a-861a-922ef80ae4e1",
      "meta": {
        "profile": [ "http://hl7.org/fhir/us/qicore/StructureDefinition/qicore-encounter" ]
      },
      "status": "finished",
      "class": {
        "system": "http://terminology.hl7.org/CodeSystem/v3-ActCode",
        "code": "IMP",
        "display": "inpatient encounter",
        "userSelected": true
      },
      "type": [ {
        "coding": [ {
          "system": "http://snomed.info/sct",
          "code": "32485007"
        } ]
      } ],
      "subject": {
        "reference": "Patient/89275dc4-f4c1-41b5-a215-9c7228933cc0"
      },
      "period": {
        "start": "2026-10-10T06:16:00Z",
        "end": "2026-10-12T06:31:00.000+00:00"
      },
      "length": {
        "value": 2,
        "unit": "days"
      },
      "reasonReference": [ {
        "reference": "Condition/66ed6ac4-30d4-4714-aac1-d80665ee7c96"
      } ]
    },
    "request": {
      "method": "PUT",
      "url": "Encounter/e6d8c136-a0b8-4f9a-861a-922ef80ae4e1"
    }
  }, {
    "fullUrl": "https://madie.cms.gov/claim/5ca62962b8484628b8de1ec5",
    "resource": {
      "resourceType": "Claim",
      "id": "5ca62962b8484628b8de1ec5",
      "meta": {
        "profile": [ "http://hl7.org/fhir/us/qicore/StructureDefinition/qicore-claim" ]
      },
      "status": "active",
      "type": {
        "coding": [ {
          "system": "http://terminology.hl7.org/CodeSystem/claim-type",
          "code": "institutional"
        } ]
      },
      "use": "claim",
      "patient": {
        "reference": "Patient/d170a0a8-b5ad-4303-b6df-e304dd5f92ad"
      },
      "created": "2026-12-01",
      "provider": {
        "reference": "Practitioner/practitioner-123456"
      },
      "priority": {
        "coding": [ {
          "system": "http://terminology.hl7.org/CodeSystem/processpriority",
          "code": "normal"
        } ]
      },
      "diagnosis": [ {
        "sequence": 1,
        "diagnosisCodeableConcept": {
          "coding": [ {
            "system": "http://hl7.org/fhir/sid/icd-10-cm",
            "code": "I63.00"
          } ]
        },
        "type": [ {
          "coding": [ {
            "system": "http://terminology.hl7.org/CodeSystem/ex-diagnosistype",
            "code": "principal"
          } ]
        } ]
      } ],
      "insurance": [ {
        "sequence": 1,
        "focal": true,
        "coverage": {
          "reference": "Coverage/cb34d935-5ace-437b-97eb-983fb878c0ec"
        }
      } ],
      "item": [ {
        "sequence": 1,
        "diagnosisSequence": [ 1 ],
        "productOrService": {
          "coding": [ {
            "system": "http://terminology.hl7.org/CodeSystem/ex-USCLS",
            "code": "99555"
          } ]
        },
        "encounter": [ {
          "reference": "Encounter/e6d8c136-a0b8-4f9a-861a-922ef80ae4e1"
        } ]
      } ]
    },
    "request": {
      "method": "PUT",
      "url": "Claim/5ca62962b8484628b8de1ec5"
    }
  }, {
    "fullUrl": "https://madie.cms.gov/Procedure/27212596-a566-4b2c-8428-353a6304cec3",
    "resource": {
      "resourceType": "Procedure",
      "id": "27212596-a566-4b2c-8428-353a6304cec3",
      "meta": {
        "profile": [ "http://hl7.org/fhir/us/qicore/StructureDefinition/qicore-procedure" ]
      },
      "extension": [ {
        "url": "http://hl7.org/fhir/us/qicore/StructureDefinition/qicore-recorded",
        "valueDateTime": "2014-04-05T13:35:00Z"
      } ],
      "status": "completed",
      "code": {
        "coding": [ {
          "system": "http://snomed.info/sct",
          "code": "133918004"
        } ]
      },
      "subject": {
        "reference": "Patient/89275dc4-f4c1-41b5-a215-9c7228933cc0"
      },
      "performedPeriod": {
        "start": "2026-10-11T23:59:00Z"
      }
    },
    "request": {
      "method": "PUT",
      "url": "Procedure/27212596-a566-4b2c-8428-353a6304cec3"
    }
  }, {
    "fullUrl": "https://madie.cms.gov/Coverage/cb34d935-5ace-437b-97eb-983fb878c0ec",
    "resource": {
      "resourceType": "Coverage",
      "id": "cb34d935-5ace-437b-97eb-983fb878c0ec",
      "status": "active",
      "beneficiary": {
        "reference": "Patient/89275dc4-f4c1-41b5-a215-9c7228933cc0"
      },
      "period": {
        "start": "1976-09-26T08:00:00Z"
      },
      "payor": [ {
        "reference": "Organization/4bd302b2-1375-4247-9677-6ff48187f94c"
      } ]
    },
    "request": {
      "method": "PUT",
      "url": "Coverage/cb34d935-5ace-437b-97eb-983fb878c0ec"
    }
  }, {
    "fullUrl": "https://madie.cms.gov/Condition/66ed6ac4-30d4-4714-aac1-d80665ee7c96",
    "resource": {
      "resourceType": "Condition",
      "id": "66ed6ac4-30d4-4714-aac1-d80665ee7c96",
      "meta": {
        "profile": [ "http://hl7.org/fhir/us/qicore/StructureDefinition/qicore-condition" ]
      },
      "clinicalStatus": {
        "coding": [ {
          "system": "http://terminology.hl7.org/CodeSystem/condition-clinical",
          "code": "active"
        } ]
      },
      "verificationStatus": {
        "coding": [ {
          "system": "http://terminology.hl7.org/CodeSystem/condition-ver-status",
          "code": "confirmed"
        } ]
      },
      "category": [ {
        "coding": [ {
          "system": "http://terminology.hl7.org/CodeSystem/condition-category",
          "code": "encounter-diagnosis",
          "display": "Encounter Diagnosis"
        } ]
      } ],
      "code": {
        "coding": [ {
          "system": "http://snomed.info/sct",
          "version": "2020-09",
          "code": "111297002",
          "display": "Nonparalytic stroke (disorder)",
          "userSelected": true
        } ]
      },
      "subject": {
        "reference": "Patient/89275dc4-f4c1-41b5-a215-9c7228933cc0"
      },
      "recordedDate": "2026-08-13T08:00:00Z"
    },
    "request": {
      "method": "PUT",
      "url": "Condition/66ed6ac4-30d4-4714-aac1-d80665ee7c96"
    }
  }, {
    "fullUrl": "https://madie.cms.gov/Organization/4bd302b2-1375-4247-9677-6ff48187f94c",
    "resource": {
      "resourceType": "Organization",
      "id": "4bd302b2-1375-4247-9677-6ff48187f94c",
      "meta": {
        "profile": [ "http://hl7.org/fhir/us/qicore/StructureDefinition/qicore-organization" ]
      },
      "identifier": [ {
        "use": "temp",
        "system": "urn:oid:2.16.840.1.113883.4.4",
        "value": "21-3259825"
      } ],
      "active": true,
      "type": [ {
        "coding": [ {
          "system": "http://terminology.hl7.org/CodeSystem/organization-type",
          "code": "pay",
          "display": "Payer"
        } ]
      } ],
      "name": "Blue Cross Blue Shield of Texas",
      "telecom": [ {
        "system": "phone",
        "value": "(+1) 972-766-6900"
      } ],
      "address": [ {
        "use": "billing",
        "type": "postal",
        "line": [ "P.O. Box 660044" ],
        "city": "Dallas",
        "state": "TX",
        "postalCode": "75266-0044",
        "country": "USA"
      } ]
    },
    "request": {
      "method": "PUT",
      "url": "Organization/4bd302b2-1375-4247-9677-6ff48187f94c"
    }
  }, {
    "fullUrl": "https://madie.cms.gov/MeasureReport/55f2aec7-97da-4592-ae57-96b3c0657a93",
    "resource": {
      "resourceType": "MeasureReport",
      "id": "55f2aec7-97da-4592-ae57-96b3c0657a93",
      "meta": {
        "profile": [ "http://hl7.org/fhir/us/cqfmeasures/StructureDefinition/test-case-cqfm" ]
      },
      "contained": [ {
        "resourceType": "Parameters",
        "id": "77fe4789-c97c-4445-9abf-18343d805144-parameters",
        "parameter": [ {
          "name": "subject",
          "valueString": "89275dc4-f4c1-41b5-a215-9c7228933cc0"
        } ]
      } ],
      "extension": [ {
        "url": "http://hl7.org/fhir/StructureDefinition/cqf-inputParameters",
        "valueReference": {
          "reference": "#77fe4789-c97c-4445-9abf-18343d805144-parameters"
        }
      }, {
        "url": "http://hl7.org/fhir/us/cqfmeasures/StructureDefinition/cqfm-testCaseDescription",
        "valueMarkdown": "DENEXPass CMP=1Day_DuringEncIP"
      } ],
      "modifierExtension": [ {
        "url": "http://hl7.org/fhir/us/cqfmeasures/StructureDefinition/cqfm-isTestCase",
        "valueBoolean": true
      } ],
      "status": "complete",
      "type": "individual",
      "measure": "https://madie.cms.gov/Measure/CMS72FHIRSTKAntithromboticDay2",
      "period": {
        "start": "2026-01-01",
        "end": "2026-12-31"
      },
      "group": [ {
        "id": "Group_1",
        "population": [ {
          "id": "InitialPopulation_1",
          "code": {
            "coding": [ {
              "system": "http://terminology.hl7.org/CodeSystem/measure-population",
              "code": "initial-population",
              "display": "Initial Population"
            } ]
          },
          "count": 1
        }, {
          "id": "Denominator_1",
          "code": {
            "coding": [ {
              "system": "http://terminology.hl7.org/CodeSystem/measure-population",
              "code": "denominator",
              "display": "Denominator"
            } ]
          },
          "count": 1
        }, {
          "id": "DenominatorExclusion_1",
          "code": {
            "coding": [ {
              "system": "http://terminology.hl7.org/CodeSystem/measure-population",
              "code": "denominator-exclusion",
              "display": "Denominator Exclusion"
            } ]
          },
          "count": 1
        }, {
          "id": "Numerator_1",
          "code": {
            "coding": [ {
              "system": "http://terminology.hl7.org/CodeSystem/measure-population",
              "code": "numerator",
              "display": "Numerator"
            } ]
          },
          "count": 0
        }, {
          "id": "DenominatorException_1",
          "code": {
            "coding": [ {
              "system": "http://terminology.hl7.org/CodeSystem/measure-population",
              "code": "denominator-exception",
              "display": "Denominator Exception"
            } ]
          },
          "count": 0
        } ],
        "measureScore": {
          "value": 0.0
        }
      } ],
      "evaluatedResource": [ {
        "reference": "Patient/89275dc4-f4c1-41b5-a215-9c7228933cc0"
      }, {
        "reference": "Encounter/d6e1c618-7aea-4c86-b681-7256b4b6f2a5"
      }, {
        "reference": "Encounter/e6d8c136-a0b8-4f9a-861a-922ef80ae4e1"
      }, {
        "reference": "Claim/5ca62962b8484628b8de1ec5"
      }, {
        "reference": "Procedure/27212596-a566-4b2c-8428-353a6304cec3"
      }, {
        "reference": "Coverage/cb34d935-5ace-437b-97eb-983fb878c0ec"
      }, {
        "reference": "Condition/66ed6ac4-30d4-4714-aac1-d80665ee7c96"
      }, {
        "reference": "Organization/4bd302b2-1375-4247-9677-6ff48187f94c"
      } ]
    },
    "request": {
      "method": "PUT",
      "url": "MeasureReport/55f2aec7-97da-4592-ae57-96b3c0657a93"
    }
  } ]
}