{
  "resourceType": "Bundle",
  "id": "IPPass-PsychVisitDxEval",
  "type": "transaction",
  "entry": [ {
    "fullUrl": "https://madie.cms.gov/Patient/ce747de2-3f8f-4ad8-8370-3ed53b990094",
    "resource": {
      "resourceType": "Patient",
      "id": "ce747de2-3f8f-4ad8-8370-3ed53b990094",
      "meta": {
        "profile": [ "http://hl7.org/fhir/us/qicore/StructureDefinition/qicore-patient" ]
      },
      "extension": [ {
        "url": "http://hl7.org/fhir/us/core/StructureDefinition/us-core-race",
        "extension": [ {
          "url": "ombCategory",
          "valueCoding": {
            "system": "urn:oid:2.16.840.1.113883.6.238",
            "code": "2028-9",
            "display": "Asian",
            "userSelected": true
          }
        }, {
          "url": "text",
          "valueString": "Asian"
        } ]
      }, {
        "url": "http://hl7.org/fhir/us/core/StructureDefinition/us-core-ethnicity",
        "extension": [ {
          "url": "ombCategory",
          "valueCoding": {
            "system": "urn:oid:2.16.840.1.113883.6.238",
            "code": "2135-2",
            "display": "Hispanic or Latino",
            "userSelected": true
          }
        }, {
          "url": "text",
          "valueString": "Hispanic or Latino"
        } ]
      } ],
      "identifier": [ {
        "type": {
          "coding": [ {
            "system": "http://terminology.hl7.org/CodeSystem/v2-0203",
            "code": "MR"
          } ]
        },
        "system": "http://hospital.smarthealthit.org",
        "value": "999999995"
      } ],
      "name": [ {
        "family": "Bertha",
        "given": [ "Betty" ]
      } ],
      "gender": "male",
      "birthDate": "2007-01-01"
    },
    "request": {
      "method": "PUT",
      "url": "Patient/ce747de2-3f8f-4ad8-8370-3ed53b990094"
    }
  }, {
    "fullUrl": "https://madie.cms.gov/Encounter/aefae8f5-7bbb-4eb1-8446-cdce2bab4b96",
    "resource": {
      "resourceType": "Encounter",
      "id": "aefae8f5-7bbb-4eb1-8446-cdce2bab4b96",
      "meta": {
        "profile": [ "http://hl7.org/fhir/us/qicore/StructureDefinition/qicore-encounter" ]
      },
      "status": "finished",
      "class": {
        "system": "http://terminology.hl7.org/CodeSystem/v3-ActCode",
        "code": "AMB",
        "display": "ambulatory"
      },
      "type": [ {
        "coding": [ {
          "system": "http://www.ama-assn.org/go/cpt",
          "code": "90791",
          "display": "Psychiatric diagnostic evaluation"
        } ]
      } ],
      "subject": {
        "reference": "Patient/ce747de2-3f8f-4ad8-8370-3ed53b990094"
      },
      "period": {
        "start": "2026-01-01T00:00:00.000Z",
        "end": "2026-01-01T01:00:00.000Z"
      }
    },
    "request": {
      "method": "PUT",
      "url": "Encounter/aefae8f5-7bbb-4eb1-8446-cdce2bab4b96"
    }
  }, {
    "fullUrl": "https://madie.cms.gov/MedicationDispense/220216e9-e65e-48ba-9c47-dbc16c9d9439",
    "resource": {
      "resourceType": "MedicationDispense",
      "id": "220216e9-e65e-48ba-9c47-dbc16c9d9439",
      "meta": {
        "profile": [ "http://hl7.org/fhir/us/qicore/StructureDefinition/qicore-medicationdispense" ]
      },
      "status": "completed",
      "medicationCodeableConcept": {
        "coding": [ {
          "system": "http://www.nlm.nih.gov/research/umls/rxnorm",
          "code": "1099316",
          "display": "desipramine hydrochloride 75 MG Oral Tablet"
        } ]
      },
      "subject": {
        "reference": "Patient/ce747de2-3f8f-4ad8-8370-3ed53b990094"
      },
      "daysSupply": {
        "value": 10,
        "system": "http://unitsofmeasure.org",
        "code": "days"
      },
      "whenHandedOver": "2026-01-01T01:00:00.000Z"
    },
    "request": {
      "method": "PUT",
      "url": "MedicationDispense/220216e9-e65e-48ba-9c47-dbc16c9d9439"
    }
  }, {
    "fullUrl": "https://madie.cms.gov/MedicationDispense/3cc31e2e-5119-4451-a0a1-d4090ba3c39b",
    "resource": {
      "resourceType": "MedicationDispense",
      "id": "3cc31e2e-5119-4451-a0a1-d4090ba3c39b",
      "meta": {
        "profile": [ "http://hl7.org/fhir/us/qicore/StructureDefinition/qicore-medicationdispense" ]
      },
      "status": "completed",
      "medicationCodeableConcept": {
        "coding": [ {
          "system": "http://www.nlm.nih.gov/research/umls/rxnorm",
          "code": "1099316",
          "display": "desipramine hydrochloride 75 MG Oral Tablet"
        } ]
      },
      "subject": {
        "reference": "Patient/ce747de2-3f8f-4ad8-8370-3ed53b990094"
      },
      "daysSupply": {
        "value": 10,
        "system": "http://unitsofmeasure.org",
        "code": "days"
      },
      "whenHandedOver": "2026-03-01T01:00:00.000Z"
    },
    "request": {
      "method": "PUT",
      "url": "MedicationDispense/3cc31e2e-5119-4451-a0a1-d4090ba3c39b"
    }
  }, {
    "fullUrl": "https://madie.cms.gov/Condition/9c3dacf1-9d70-4caf-9b5b-697418d80e6e",
    "resource": {
      "resourceType": "Condition",
      "id": "9c3dacf1-9d70-4caf-9b5b-697418d80e6e",
      "meta": {
        "profile": [ "http://hl7.org/fhir/us/qicore/StructureDefinition/qicore-condition-encounter-diagnosis" ]
      },
      "clinicalStatus": {
        "coding": [ {
          "system": "http://terminology.hl7.org/CodeSystem/condition-clinical",
          "code": "active"
        } ]
      },
      "category": [ {
        "coding": [ {
          "system": "http://terminology.hl7.org/CodeSystem/condition-category",
          "code": "problem-list-item",
          "display": "Problem List Item"
        } ]
      } ],
      "code": {
        "coding": [ {
          "system": "http://snomed.info/sct",
          "code": "15193003",
          "display": "Severe recurrent major depression with psychotic features, mood-incongruent (disorder)"
        } ]
      },
      "subject": {
        "reference": "Patient/ce747de2-3f8f-4ad8-8370-3ed53b990094"
      },
      "onsetDateTime": "2026-01-01T01:00:00.000Z"
    },
    "request": {
      "method": "PUT",
      "url": "Condition/9c3dacf1-9d70-4caf-9b5b-697418d80e6e"
    }
  }, {
    "fullUrl": "https://madie.cms.gov/MeasureReport/bbd3f7ae-ef29-4017-b331-0fe142c91ad7",
    "resource": {
      "resourceType": "MeasureReport",
      "id": "bbd3f7ae-ef29-4017-b331-0fe142c91ad7",
      "meta": {
        "profile": [ "http://hl7.org/fhir/us/cqfmeasures/StructureDefinition/test-case-cqfm" ]
      },
      "contained": [ {
        "resourceType": "Parameters",
        "id": "be36191e-a411-48a5-accc-d7a2b09a03d0-parameters",
        "parameter": [ {
          "name": "subject",
          "valueString": "ce747de2-3f8f-4ad8-8370-3ed53b990094"
        } ]
      } ],
      "extension": [ {
        "url": "http://hl7.org/fhir/StructureDefinition/cqf-inputParameters",
        "valueReference": {
          "reference": "#be36191e-a411-48a5-accc-d7a2b09a03d0-parameters"
        }
      }, {
        "url": "http://hl7.org/fhir/us/cqfmeasures/StructureDefinition/cqfm-testCaseDescription",
        "valueMarkdown": "Qualifying encounter is Psych Visit Diagnostic Evaluation"
      } ],
      "modifierExtension": [ {
        "url": "http://hl7.org/fhir/us/cqfmeasures/StructureDefinition/cqfm-isTestCase",
        "valueBoolean": true
      } ],
      "status": "complete",
      "type": "individual",
      "measure": "https://madie.cms.gov/Measure/CMS128FHIRAntidepressantMedManagement",
      "period": {
        "start": "2026-01-01",
        "end": "2026-12-31"
      },
      "group": [ {
        "id": "Group_1",
        "population": [ {
          "id": "InitialPopulation_1",
          "code": {
            "coding": [ {
              "system": "http://terminology.hl7.org/CodeSystem/measure-population",
              "code": "initial-population",
              "display": "Initial Population"
            } ]
          },
          "count": 1
        }, {
          "id": "Denominator_1",
          "code": {
            "coding": [ {
              "system": "http://terminology.hl7.org/CodeSystem/measure-population",
              "code": "denominator",
              "display": "Denominator"
            } ]
          },
          "count": 1
        }, {
          "id": "DenominatorExclusion_1",
          "code": {
            "coding": [ {
              "system": "http://terminology.hl7.org/CodeSystem/measure-population",
              "code": "denominator-exclusion",
              "display": "Denominator Exclusion"
            } ]
          },
          "count": 0
        }, {
          "id": "Numerator_1",
          "code": {
            "coding": [ {
              "system": "http://terminology.hl7.org/CodeSystem/measure-population",
              "code": "numerator",
              "display": "Numerator"
            } ]
          },
          "count": 0
        } ],
        "measureScore": {
          "value": 1.0
        }
      }, {
        "id": "Group_2",
        "population": [ {
          "id": "InitialPopulation_2",
          "code": {
            "coding": [ {
              "system": "http://terminology.hl7.org/CodeSystem/measure-population",
              "code": "initial-population",
              "display": "Initial Population"
            } ]
          },
          "count": 1
        }, {
          "id": "Denominator_2",
          "code": {
            "coding": [ {
              "system": "http://terminology.hl7.org/CodeSystem/measure-population",
              "code": "denominator",
              "display": "Denominator"
            } ]
          },
          "count": 1
        }, {
          "id": "DenominatorExclusion_2",
          "code": {
            "coding": [ {
              "system": "http://terminology.hl7.org/CodeSystem/measure-population",
              "code": "denominator-exclusion",
              "display": "Denominator Exclusion"
            } ]
          },
          "count": 0
        }, {
          "id": "Numerator_2",
          "code": {
            "coding": [ {
              "system": "http://terminology.hl7.org/CodeSystem/measure-population",
              "code": "numerator",
              "display": "Numerator"
            } ]
          },
          "count": 0
        } ],
        "measureScore": {
          "value": 1.0
        }
      } ],
      "evaluatedResource": [ {
        "reference": "Patient/ce747de2-3f8f-4ad8-8370-3ed53b990094"
      }, {
        "reference": "Encounter/aefae8f5-7bbb-4eb1-8446-cdce2bab4b96"
      }, {
        "reference": "MedicationDispense/220216e9-e65e-48ba-9c47-dbc16c9d9439"
      }, {
        "reference": "MedicationDispense/3cc31e2e-5119-4451-a0a1-d4090ba3c39b"
      }, {
        "reference": "Condition/9c3dacf1-9d70-4caf-9b5b-697418d80e6e"
      } ]
    },
    "request": {
      "method": "PUT",
      "url": "MeasureReport/bbd3f7ae-ef29-4017-b331-0fe142c91ad7"
    }
  } ]
}