{
    "entry": [
        {
            "request": {
                "method": "PUT",
                "url": "Patient/4a1f1d8c-0de8-4819-a0a3-28f6caaf6265"
            },
            "resource": {
                "identifier": [{
                    "system": "https://bonnie-fhir.healthit.gov/",
                    "type": {"coding": [{
                        "system": "http://terminology.hl7.org/CodeSystem/v2-0203",
                        "code": "MR"
                    }]},
                    "value": "62f663525efef5272905e70e"
                }],
                "extension": [
                    {
                        "extension": [
                            {
                                "valueCoding": {
                                    "system": "urn:oid:2.16.840.1.113883.6.238",
                                    "code": "1002-5",
                                    "userSelected": true,
                                    "display": "American Indian or Alaska Native"
                                },
                                "url": "ombCategory"
                            },
                            {
                                "valueString": "American Indian or Alaska Native",
                                "url": "text"
                            }
                        ],
                        "url": "http://hl7.org/fhir/us/core/StructureDefinition/us-core-race"
                    },
                    {
                        "extension": [
                            {
                                "valueCoding": {
                                    "system": "urn:oid:2.16.840.1.113883.6.238",
                                    "code": "2135-2",
                                    "userSelected": true,
                                    "display": "Hispanic or Latino"
                                },
                                "url": "ombCategory"
                            },
                            {
                                "valueString": "Hispanic or Latino",
                                "url": "text"
                            }
                        ],
                        "url": "http://hl7.org/fhir/us/core/StructureDefinition/us-core-ethnicity"
                    }
                ],
                "gender": "male",
                "meta": {"profile": ["http://hl7.org/fhir/us/qicore/StructureDefinition/qicore-patient"]},
                "name": [{
                    "given": ["AdultPhysicalTherapyEvaluation"],
                    "family": "DENOMPass"
                }],
                "id": "4a1f1d8c-0de8-4819-a0a3-28f6caaf6265",
                "birthDate": "2008-12-31",
                "resourceType": "Patient"
            },
            "fullUrl": "https://madie.cms.gov/Patient/4a1f1d8c-0de8-4819-a0a3-28f6caaf6265"
        },
        {
            "request": {
                "method": "PUT",
                "url": "Encounter/8ee0fcc9-7b3c-4b02-b890-61f191819cee"
            },
            "resource": {
                "period": {
                    "start": "2026-08-12T08:00:00.000+00:00",
                    "end": "2026-08-12T08:15:00.000+00:00"
                },
                "meta": {"profile": ["http://hl7.org/fhir/us/qicore/StructureDefinition/qicore-encounter"]},
                "subject": {"reference": "Patient/4a1f1d8c-0de8-4819-a0a3-28f6caaf6265"},
                "id": "8ee0fcc9-7b3c-4b02-b890-61f191819cee",
                "type": [{"coding": [{
                    "system": "http://snomed.info/sct",
                    "code": "183326003",
                    "userSelected": true,
                    "display": "Combined physical therapy (regime/therapy)",
                    "version": "2021-09"
                }]}],
                "class": {
                    "system": "http://terminology.hl7.org/CodeSystem/v3-ActCode",
                    "code": "IMP",
                    "display": "inpatient encounter"
                },
                "resourceType": "Encounter",
                "status": "finished"
            },
            "fullUrl": "https://madie.cms.gov/Encounter/8ee0fcc9-7b3c-4b02-b890-61f191819cee"
        },
        {
            "request": {
                "method": "PUT",
                "url": "Coverage/c8dba0f0-b8c2-4c59-bdaa-6bd5da02b1e8"
            },
            "resource": {
                "payor": [{"reference": "Organization/5a14ae26-a21a-4576-8fc7-0175e826c25e"}],
                "beneficiary": {"reference": "Patient/4a1f1d8c-0de8-4819-a0a3-28f6caaf6265"},
                "meta": {"profile": ["http://hl7.org/fhir/us/qicore/StructureDefinition/qicore-coverage"]},
                "id": "c8dba0f0-b8c2-4c59-bdaa-6bd5da02b1e8",
                "resourceType": "Coverage",
                "status": "active"
            },
            "fullUrl": "https://madie.cms.gov/Coverage/c8dba0f0-b8c2-4c59-bdaa-6bd5da02b1e8"
        },
        {
            "request": {
                "method": "PUT",
                "url": "Organization/5a14ae26-a21a-4576-8fc7-0175e826c25e"
            },
            "resource": {
                "identifier": [{
                    "system": "urn:oid:2.16.840.1.113883.4.4",
                    "use": "temp",
                    "value": "21-3259825"
                }],
                "address": [{
                    "country": "USA",
                    "city": "Dallas",
                    "use": "billing",
                    "line": ["P.O. Box 660044"],
                    "postalCode": "75266-0044",
                    "state": "TX",
                    "type": "postal"
                }],
                "meta": {"profile": ["http://hl7.org/fhir/us/qicore/StructureDefinition/qicore-organization"]},
                "name": "Blue Cross Blue Shield of Texas",
                "active": true,
                "telecom": [{
                    "system": "phone",
                    "value": "(+1) 972-766-6900"
                }],
                "id": "5a14ae26-a21a-4576-8fc7-0175e826c25e",
                "type": [{"coding": [{
                    "system": "http://terminology.hl7.org/CodeSystem/organization-type",
                    "code": "pay",
                    "display": "Payer"
                }]}],
                "resourceType": "Organization"
            },
            "fullUrl": "https://madie.cms.gov/Organization/5a14ae26-a21a-4576-8fc7-0175e826c25e"
        },
        {
            "request": {
                "method": "PUT",
                "url": "Practitioner/063c39e0-6843-431f-a1a9-2a4f80af6fe3"
            },
            "resource": {
                "identifier": [{
                    "system": "http://hl7.org/fhir/sid/us-npi",
                    "value": "123456"
                }],
                "meta": {"profile": ["http://hl7.org/fhir/us/qicore/StructureDefinition/qicore-practitioner"]},
                "name": [{
                    "prefix": ["Dr"],
                    "family": "Evil"
                }],
                "id": "063c39e0-6843-431f-a1a9-2a4f80af6fe3",
                "resourceType": "Practitioner"
            },
            "fullUrl": "https://madie.cms.gov/Practitioner/063c39e0-6843-431f-a1a9-2a4f80af6fe3"
        },
        {
            "request": {
                "method": "PUT",
                "url": "MeasureReport/f03e542f-f2c0-495a-a59c-b0b3ac17abab"
            },
            "resource": {
                "contained": [{
                    "parameter": [{
                        "valueString": "4a1f1d8c-0de8-4819-a0a3-28f6caaf6265",
                        "name": "subject"
                    }],
                    "id": "ef7999a9-83db-45fc-9144-ab02d3b80f1d-parameters",
                    "resourceType": "Parameters"
                }],
                "extension": [
                    {
                        "valueReference": {"reference": "#ef7999a9-83db-45fc-9144-ab02d3b80f1d-parameters"},
                        "url": "http://hl7.org/fhir/StructureDefinition/cqf-inputParameters"
                    },
                    {
                        "valueMarkdown": "18 yo male with physical therapy evaluation",
                        "url": "http://hl7.org/fhir/us/cqfmeasures/StructureDefinition/cqfm-testCaseDescription"
                    }
                ],
                "period": {
                    "start": "2026-01-01",
                    "end": "2026-12-31"
                },
                "measure": "https://madie.cms.gov/Measure/CMS2FHIRPCSDepressionScreenAndFollowUp",
                "meta": {"profile": ["http://hl7.org/fhir/us/cqfmeasures/StructureDefinition/test-case-cqfm"]},
                "modifierExtension": [{
                    "valueBoolean": true,
                    "url": "http://hl7.org/fhir/us/cqfmeasures/StructureDefinition/cqfm-isTestCase"
                }],
                "id": "f03e542f-f2c0-495a-a59c-b0b3ac17abab",
                "evaluatedResource": [
                    {"reference": "Patient/4a1f1d8c-0de8-4819-a0a3-28f6caaf6265"},
                    {"reference": "Encounter/8ee0fcc9-7b3c-4b02-b890-61f191819cee"},
                    {"reference": "Coverage/c8dba0f0-b8c2-4c59-bdaa-6bd5da02b1e8"},
                    {"reference": "Organization/5a14ae26-a21a-4576-8fc7-0175e826c25e"},
                    {"reference": "Practitioner/063c39e0-6843-431f-a1a9-2a4f80af6fe3"}
                ],
                "type": "individual",
                "resourceType": "MeasureReport",
                "status": "complete",
                "group": [{
                    "id": "Group_1",
                    "measureScore": {"value": 1},
                    "population": [
                        {
                            "code": {"coding": [{
                                "system": "http://terminology.hl7.org/CodeSystem/measure-population",
                                "code": "initial-population",
                                "display": "Initial Population"
                            }]},
                            "count": 1,
                            "id": "InitialPopulation_1"
                        },
                        {
                            "code": {"coding": [{
                                "system": "http://terminology.hl7.org/CodeSystem/measure-population",
                                "code": "denominator",
                                "display": "Denominator"
                            }]},
                            "count": 1,
                            "id": "Denominator_1"
                        },
                        {
                            "code": {"coding": [{
                                "system": "http://terminology.hl7.org/CodeSystem/measure-population",
                                "code": "denominator-exclusion",
                                "display": "Denominator Exclusion"
                            }]},
                            "count": 0,
                            "id": "DenominatorExclusion_1"
                        },
                        {
                            "code": {"coding": [{
                                "system": "http://terminology.hl7.org/CodeSystem/measure-population",
                                "code": "numerator",
                                "display": "Numerator"
                            }]},
                            "count": 0,
                            "id": "Numerator_1"
                        },
                        {
                            "code": {"coding": [{
                                "system": "http://terminology.hl7.org/CodeSystem/measure-population",
                                "code": "denominator-exception",
                                "display": "Denominator Exception"
                            }]},
                            "count": 0,
                            "id": "DenominatorException_1"
                        }
                    ]
                }]
            },
            "fullUrl": "https://madie.cms.gov/MeasureReport/f03e542f-f2c0-495a-a59c-b0b3ac17abab"
        }
    ],
    "id": "62f663525efef5272905e70e",
    "type": "transaction",
    "resourceType": "Bundle"
}