{
  "resourceType": "Bundle",
  "id": "657cbdc9b4f1f0343662347a",
  "type": "transaction",
  "entry": [ {
    "fullUrl": "https://madie.cms.gov/Patient/7ce282c2-9138-457b-9ef5-3de129f81dac",
    "resource": {
      "resourceType": "Patient",
      "id": "7ce282c2-9138-457b-9ef5-3de129f81dac",
      "meta": {
        "profile": [ "http://hl7.org/fhir/us/qicore/StructureDefinition/qicore-patient" ]
      },
      "extension": [ {
        "url": "http://hl7.org/fhir/us/core/StructureDefinition/us-core-race",
        "extension": [ {
          "url": "ombCategory",
          "valueCoding": {
            "system": "urn:oid:2.16.840.1.113883.6.238",
            "code": "2106-3",
            "display": "White",
            "userSelected": true
          }
        }, {
          "url": "text",
          "valueString": "White"
        } ]
      }, {
        "url": "http://hl7.org/fhir/us/core/StructureDefinition/us-core-ethnicity",
        "extension": [ {
          "url": "ombCategory",
          "valueCoding": {
            "system": "urn:oid:2.16.840.1.113883.6.238",
            "code": "2186-5",
            "display": "Not Hispanic or Latino",
            "userSelected": true
          }
        }, {
          "url": "text",
          "valueString": "Not Hispanic or Latino"
        } ]
      } ],
      "identifier": [ {
        "type": {
          "coding": [ {
            "system": "http://terminology.hl7.org/CodeSystem/v2-0203",
            "code": "MR"
          } ]
        },
        "system": "https://bonnie-fhir.healthit.gov/",
        "value": "657cbdc9b4f1f0343662347a"
      } ],
      "name": [ {
        "family": "IPOPPass",
        "given": [ "InptEncStatusOnLeave" ]
      } ],
      "gender": "female",
      "birthDate": "2008-01-01"
    },
    "request": {
      "method": "PUT",
      "url": "Patient/7ce282c2-9138-457b-9ef5-3de129f81dac"
    }
  }, {
    "fullUrl": "https://madie.cms.gov/Encounter/7814ae6b-37de-4071-8dc0-99fdee648bb2",
    "resource": {
      "resourceType": "Encounter",
      "id": "7814ae6b-37de-4071-8dc0-99fdee648bb2",
      "meta": {
        "profile": [ "http://hl7.org/fhir/us/qicore/StructureDefinition/qicore-encounter" ]
      },
      "status": "onleave",
      "class": {
        "system": "http://terminology.hl7.org/CodeSystem/v3-ActCode",
        "code": "ACUTE",
        "display": "inpatient acute"
      },
      "type": [ {
        "coding": [ {
          "system": "http://snomed.info/sct",
          "version": "2024",
          "code": "32485007",
          "display": "Hospital admission (procedure)",
          "userSelected": true
        } ]
      } ],
      "subject": {
        "reference": "Patient/7ce282c2-9138-457b-9ef5-3de129f81dac"
      },
      "period": {
        "start": "2026-01-01T08:00:00Z",
        "end": "2026-01-02T09:15:00Z"
      }
    },
    "request": {
      "method": "PUT",
      "url": "Encounter/7814ae6b-37de-4071-8dc0-99fdee648bb2"
    }
  }, {
    "fullUrl": "https://madie.cms.gov/Location/563126b6-d98b-4ad7-b8a7-fe33c1e86393",
    "resource": {
      "resourceType": "Location",
      "id": "563126b6-d98b-4ad7-b8a7-fe33c1e86393",
      "meta": {
        "profile": [ "http://hl7.org/fhir/us/qicore/StructureDefinition/qicore-location" ]
      },
      "identifier": [ {
        "use": "usual",
        "system": "http://exampleoflocation.com",
        "value": "B1-S.F2"
      } ],
      "name": "Medical Surgical East, first floor",
      "type": [ {
        "coding": [ {
          "system": "https://www.cdc.gov/nhsn/cdaportal/terminology/codesystem/hsloc.html",
          "code": "1028-0",
          "display": "Medical Cardiac Critical Care",
          "userSelected": true
        } ]
      } ]
    },
    "request": {
      "method": "PUT",
      "url": "Location/563126b6-d98b-4ad7-b8a7-fe33c1e86393"
    }
  }, {
    "fullUrl": "https://madie.cms.gov/MedicationRequest/6eaad893-9f50-4e94-af82-2086162f0b4b",
    "resource": {
      "resourceType": "MedicationRequest",
      "id": "6eaad893-9f50-4e94-af82-2086162f0b4b",
      "meta": {
        "profile": [ "http://hl7.org/fhir/us/qicore/StructureDefinition/qicore-medicationrequest" ]
      },
      "status": "completed",
      "intent": "order",
      "medicationCodeableConcept": {
        "coding": [ {
          "system": "http://www.nlm.nih.gov/research/umls/rxnorm",
          "version": "06052023",
          "code": "1007184"
        } ]
      },
      "subject": {
        "reference": "Patient/7ce282c2-9138-457b-9ef5-3de129f81dac"
      },
      "authoredOn": "2026-01-01T08:15:00Z",
      "requester": {
        "reference": "Practitioner/33d87640-6b2a-40b0-ab11-542478a88d5a"
      },
      "dosageInstruction": [ {
        "timing": {
          "repeat": {
            "boundsPeriod": {
              "start": "2025-01-01T08:15:00Z"
            }
          }
        }
      } ]
    },
    "request": {
      "method": "PUT",
      "url": "MedicationRequest/6eaad893-9f50-4e94-af82-2086162f0b4b"
    }
  }, {
    "fullUrl": "https://madie.cms.gov/Coverage/96461d4c-93be-4820-841c-28bf10cd6e0b",
    "resource": {
      "resourceType": "Coverage",
      "id": "96461d4c-93be-4820-841c-28bf10cd6e0b",
      "meta": {
        "profile": [ "http://hl7.org/fhir/us/qicore/StructureDefinition/qicore-coverage" ]
      },
      "identifier": [ {
        "system": "http://benefitsinc.com/certificate",
        "value": "12345"
      } ],
      "status": "active",
      "type": {
        "coding": [ {
          "system": "https://nahdo.org/sopt",
          "version": "1.0.1",
          "code": "1",
          "display": "MEDICARE",
          "userSelected": true
        } ]
      },
      "subscriberId": "AB9876",
      "beneficiary": {
        "reference": "Patient/7ce282c2-9138-457b-9ef5-3de129f81dac"
      },
      "relationship": {
        "coding": [ {
          "system": "http://terminology.hl7.org/CodeSystem/subscriber-relationship",
          "code": "self"
        } ]
      },
      "payor": [ {
        "reference": "Organization/e86e4293-38d0-4a2f-998c-a85907e7abcf"
      } ]
    },
    "request": {
      "method": "PUT",
      "url": "Coverage/96461d4c-93be-4820-841c-28bf10cd6e0b"
    }
  }, {
    "fullUrl": "https://madie.cms.gov/Organization/e86e4293-38d0-4a2f-998c-a85907e7abcf",
    "resource": {
      "resourceType": "Organization",
      "id": "e86e4293-38d0-4a2f-998c-a85907e7abcf",
      "meta": {
        "profile": [ "http://hl7.org/fhir/us/qicore/StructureDefinition/qicore-organization" ]
      },
      "identifier": [ {
        "use": "temp",
        "system": "urn:oid:2.16.840.1.113883.4.4",
        "value": "21-3259825"
      } ],
      "active": true,
      "type": [ {
        "coding": [ {
          "system": "http://terminology.hl7.org/CodeSystem/organization-type",
          "code": "pay",
          "display": "Payer"
        } ]
      } ],
      "name": "Blue Cross Blue Shield of Texas",
      "telecom": [ {
        "system": "phone",
        "value": "(+1) 972-766-6900"
      } ],
      "address": [ {
        "use": "billing",
        "type": "postal",
        "line": [ "P.O. Box 660044" ],
        "city": "Dallas",
        "state": "TX",
        "postalCode": "75266-0044",
        "country": "USA"
      } ]
    },
    "request": {
      "method": "PUT",
      "url": "Organization/e86e4293-38d0-4a2f-998c-a85907e7abcf"
    }
  }, {
    "fullUrl": "https://madie.cms.gov/Practitioner/5c531b05-418d-4e48-abea-e773db7257f8",
    "resource": {
      "resourceType": "Practitioner",
      "id": "5c531b05-418d-4e48-abea-e773db7257f8",
      "meta": {
        "profile": [ "http://hl7.org/fhir/us/qicore/StructureDefinition/qicore-practitioner" ]
      },
      "identifier": [ {
        "system": "http://hl7.org/fhir/sid/us-npi",
        "value": "0723660813"
      } ],
      "name": [ {
        "family": "Evil",
        "prefix": [ "Dr" ]
      } ]
    },
    "request": {
      "method": "PUT",
      "url": "Practitioner/5c531b05-418d-4e48-abea-e773db7257f8"
    }
  }, {
    "fullUrl": "https://madie.cms.gov/MeasureReport/73920ac4-c1f7-4183-8bf9-df3b1750fd95",
    "resource": {
      "resourceType": "MeasureReport",
      "id": "73920ac4-c1f7-4183-8bf9-df3b1750fd95",
      "meta": {
        "profile": [ "http://hl7.org/fhir/us/cqfmeasures/StructureDefinition/test-case-cqfm" ]
      },
      "contained": [ {
        "resourceType": "Parameters",
        "id": "cb100585-a8dd-44e1-80a9-9b343e7a1b11-parameters",
        "parameter": [ {
          "name": "subject",
          "valueString": "7ce282c2-9138-457b-9ef5-3de129f81dac"
        } ]
      } ],
      "extension": [ {
        "url": "http://hl7.org/fhir/StructureDefinition/cqf-inputParameters",
        "valueReference": {
          "reference": "#cb100585-a8dd-44e1-80a9-9b343e7a1b11-parameters"
        }
      }, {
        "url": "http://hl7.org/fhir/us/cqfmeasures/StructureDefinition/cqfm-testCaseDescription",
        "valueMarkdown": "Inpatient encounter with diabetic medication - status on leave"
      } ],
      "modifierExtension": [ {
        "url": "http://hl7.org/fhir/us/cqfmeasures/StructureDefinition/cqfm-isTestCase",
        "valueBoolean": true
      } ],
      "status": "complete",
      "type": "individual",
      "measure": "https://madie.cms.gov/Measure/NHSNGlycemicControlHypoglycemiaInitialPopulation",
      "period": {
        "start": "2026-01-01",
        "end": "2026-12-31"
      },
      "group": [ {
        "id": "Group_1",
        "population": [ {
          "id": "InitialPopulation_1",
          "code": {
            "coding": [ {
              "system": "http://terminology.hl7.org/CodeSystem/measure-population",
              "code": "initial-population",
              "display": "Initial Population"
            } ]
          },
          "count": 1
        } ],
        "measureScore": {
          "value": 0.0
        }
      } ],
      "evaluatedResource": [ {
        "reference": "Patient/7ce282c2-9138-457b-9ef5-3de129f81dac"
      }, {
        "reference": "Encounter/7814ae6b-37de-4071-8dc0-99fdee648bb2"
      }, {
        "reference": "Location/563126b6-d98b-4ad7-b8a7-fe33c1e86393"
      }, {
        "reference": "MedicationRequest/6eaad893-9f50-4e94-af82-2086162f0b4b"
      }, {
        "reference": "Coverage/96461d4c-93be-4820-841c-28bf10cd6e0b"
      }, {
        "reference": "Organization/e86e4293-38d0-4a2f-998c-a85907e7abcf"
      }, {
        "reference": "Practitioner/5c531b05-418d-4e48-abea-e773db7257f8"
      } ]
    },
    "request": {
      "method": "PUT",
      "url": "MeasureReport/73920ac4-c1f7-4183-8bf9-df3b1750fd95"
    }
  } ]
}