{
  "resourceType": "Bundle",
  "id": "63487c2f0968f80122540192",
  "type": "transaction",
  "entry": [ {
    "fullUrl": "https://madie.cms.gov/Patient/6a8804e3-d7cc-494e-8cb8-0befa0566c14",
    "resource": {
      "resourceType": "Patient",
      "id": "6a8804e3-d7cc-494e-8cb8-0befa0566c14",
      "meta": {
        "profile": [ "http://hl7.org/fhir/us/qicore/StructureDefinition/qicore-patient" ]
      },
      "text": {
        "status": "generated",
        "div": "<div xmlns=\"http://www.w3.org/1999/xhtml\"><div class=\"hapiHeaderText\">AssessP0RelDateTime42wkB4TimeOfDeliv <b>DENPASS </b></div><table class=\"hapiPropertyTable\"><tbody><tr><td>Identifier</td><td>49e75344440120387e89419ee36282f99bbbbc9526c96f4d2baf4981f8757fa2</td></tr><tr><td>Date of birth</td><td><span>14 February 1985</span></td></tr></tbody></table></div>"
      },
      "extension": [ {
        "url": "http://hl7.org/fhir/us/core/StructureDefinition/us-core-race",
        "extension": [ {
          "url": "ombCategory",
          "valueCoding": {
            "system": "urn:oid:2.16.840.1.113883.6.238",
            "code": "1002-5",
            "display": "American Indian or Alaska Native",
            "userSelected": true
          }
        }, {
          "url": "text",
          "valueString": "American Indian or Alaska Native"
        } ]
      }, {
        "url": "http://hl7.org/fhir/us/core/StructureDefinition/us-core-ethnicity",
        "extension": [ {
          "url": "ombCategory",
          "valueCoding": {
            "system": "urn:oid:2.16.840.1.113883.6.238",
            "code": "2135-2",
            "display": "Hispanic or Latino",
            "userSelected": true
          }
        }, {
          "url": "text",
          "valueString": "Hispanic or Latino"
        } ]
      } ],
      "identifier": [ {
        "type": {
          "coding": [ {
            "system": "http://terminology.hl7.org/CodeSystem/v2-0203",
            "code": "MR"
          } ]
        },
        "system": "https://bonnie-fhir.healthit.gov/",
        "value": "63487c2f0968f80122540192"
      } ],
      "active": true,
      "name": [ {
        "use": "usual",
        "family": "DENPass",
        "given": [ "AssessP0RelDateTime42wkB4TimeOfDeliv" ]
      } ],
      "gender": "female",
      "birthDate": "1998-02-14"
    },
    "request": {
      "method": "PUT",
      "url": "Patient/6a8804e3-d7cc-494e-8cb8-0befa0566c14"
    }
  }, {
    "fullUrl": "https://madie.cms.gov/Observation/76b08696-5159-4dc8-a065-454ddbf0e518",
    "resource": {
      "resourceType": "Observation",
      "id": "76b08696-5159-4dc8-a065-454ddbf0e518",
      "meta": {
        "profile": [ "http://hl7.org/fhir/us/qicore/StructureDefinition/qicore-simple-observation" ]
      },
      "status": "final",
      "category": [ {
        "coding": [ {
          "system": "http://terminology.hl7.org/CodeSystem/observation-category",
          "code": "exam",
          "display": "exam",
          "userSelected": true
        } ]
      } ],
      "code": {
        "coding": [ {
          "system": "http://loinc.org",
          "code": "11977-6"
        } ]
      },
      "subject": {
        "reference": "Patient/6a8804e3-d7cc-494e-8cb8-0befa0566c14"
      },
      "effectiveDateTime": "2025-08-19T20:00:00.000+00:00",
      "valueInteger": 0
    },
    "request": {
      "method": "PUT",
      "url": "Observation/76b08696-5159-4dc8-a065-454ddbf0e518"
    }
  }, {
    "fullUrl": "https://madie.cms.gov/Observation/3fae2363-e32a-4c88-83bc-b27a6882c116",
    "resource": {
      "resourceType": "Observation",
      "id": "3fae2363-e32a-4c88-83bc-b27a6882c116",
      "meta": {
        "profile": [ "http://hl7.org/fhir/us/qicore/StructureDefinition/qicore-simple-observation" ]
      },
      "status": "final",
      "category": [ {
        "coding": [ {
          "system": "http://terminology.hl7.org/CodeSystem/observation-category",
          "code": "exam",
          "display": "exam",
          "userSelected": true
        } ]
      } ],
      "code": {
        "coding": [ {
          "system": "http://loinc.org",
          "code": "11884-4"
        } ]
      },
      "subject": {
        "reference": "Patient/6a8804e3-d7cc-494e-8cb8-0befa0566c14"
      },
      "effectiveDateTime": "2026-06-08T20:00:00.000+00:00",
      "valueQuantity": {
        "value": 37,
        "system": "http://unitsofmeasure.org",
        "code": "wk"
      }
    },
    "request": {
      "method": "PUT",
      "url": "Observation/3fae2363-e32a-4c88-83bc-b27a6882c116"
    }
  }, {
    "fullUrl": "https://madie.cms.gov/Observation/abe9ea67-ef5f-4ce6-bdfd-d4f44ef55589",
    "resource": {
      "resourceType": "Observation",
      "id": "abe9ea67-ef5f-4ce6-bdfd-d4f44ef55589",
      "meta": {
        "profile": [ "http://hl7.org/fhir/us/qicore/StructureDefinition/qicore-simple-observation" ]
      },
      "status": "final",
      "category": [ {
        "coding": [ {
          "system": "http://terminology.hl7.org/CodeSystem/observation-category",
          "code": "exam",
          "display": "exam",
          "userSelected": true
        } ]
      } ],
      "code": {
        "coding": [ {
          "system": "http://loinc.org",
          "code": "93857-1"
        } ]
      },
      "subject": {
        "reference": "Patient/6a8804e3-d7cc-494e-8cb8-0befa0566c14"
      },
      "effectiveDateTime": "2026-06-08T20:00:00.000+00:00",
      "valueDateTime": "2026-06-08T20:00:00.000+00:00"
    },
    "request": {
      "method": "PUT",
      "url": "Observation/abe9ea67-ef5f-4ce6-bdfd-d4f44ef55589"
    }
  }, {
    "fullUrl": "https://madie.cms.gov/Encounter/599b4d80-861b-40ec-804c-c6006bcdddb0",
    "resource": {
      "resourceType": "Encounter",
      "id": "599b4d80-861b-40ec-804c-c6006bcdddb0",
      "meta": {
        "profile": [ "http://hl7.org/fhir/us/qicore/StructureDefinition/qicore-encounter" ]
      },
      "status": "finished",
      "class": {
        "system": "http://terminology.hl7.org/CodeSystem/v3-ActCode",
        "code": "IMP",
        "display": "inpatient encounter"
      },
      "type": [ {
        "coding": [ {
          "system": "http://snomed.info/sct",
          "code": "8715000"
        } ]
      } ],
      "subject": {
        "reference": "Patient/6a8804e3-d7cc-494e-8cb8-0befa0566c14"
      },
      "period": {
        "start": "2026-06-08T08:00:00.000+00:00",
        "end": "2026-06-10T08:15:00.000+00:00"
      },
      "length": {
        "value": 2,
        "unit": "days"
      },
      "reasonReference": [ {
        "reference": "Condition/467b8cba-3059-4499-92ff-3e9b21c348f9"
      } ]
    },
    "request": {
      "method": "PUT",
      "url": "Encounter/599b4d80-861b-40ec-804c-c6006bcdddb0"
    }
  }, {
    "fullUrl": "https://madie.cms.gov/Procedure/2503c4d9-59d2-479c-aef0-21b86c2d2c73",
    "resource": {
      "resourceType": "Procedure",
      "id": "2503c4d9-59d2-479c-aef0-21b86c2d2c73",
      "meta": {
        "profile": [ "http://hl7.org/fhir/us/qicore/StructureDefinition/qicore-procedure" ]
      },
      "extension": [ {
        "url": "http://hl7.org/fhir/us/qicore/StructureDefinition/qicore-recorded",
        "valueDateTime": "2014-04-05T13:35:00.000+00:00"
      } ],
      "status": "completed",
      "code": {
        "coding": [ {
          "system": "http://www.cms.gov/Medicare/Coding/ICD10",
          "code": "10D00Z0"
        } ]
      },
      "subject": {
        "reference": "Patient/6a8804e3-d7cc-494e-8cb8-0befa0566c14"
      },
      "performedPeriod": {
        "start": "2026-06-08T20:00:00.000+00:00",
        "end": "2026-06-08T20:15:00.000+00:00"
      }
    },
    "request": {
      "method": "PUT",
      "url": "Procedure/2503c4d9-59d2-479c-aef0-21b86c2d2c73"
    }
  }, {
    "fullUrl": "https://madie.cms.gov/Condition/467b8cba-3059-4499-92ff-3e9b21c348f9",
    "resource": {
      "resourceType": "Condition",
      "id": "467b8cba-3059-4499-92ff-3e9b21c348f9",
      "meta": {
        "profile": [ "http://hl7.org/fhir/us/qicore/StructureDefinition/qicore-condition-encounter-diagnosis" ]
      },
      "category": [ {
        "coding": [ {
          "system": "http://terminology.hl7.org/CodeSystem/condition-category",
          "code": "encounter-diagnosis",
          "display": "Encounter Diagnosis"
        } ]
      } ],
      "code": {
        "coding": [ {
          "system": "http://snomed.info/sct",
          "version": "2022-09",
          "code": "169826009",
          "display": "Single live birth from singleton pregnancy (finding)",
          "userSelected": true
        } ]
      },
      "subject": {
        "reference": "Patient/6a8804e3-d7cc-494e-8cb8-0befa0566c14"
      },
      "encounter": {
        "reference": "Encounter/599b4d80-861b-40ec-804c-c6006bcdddb0"
      },
      "recordedDate": "2026-10-18T08:00:00.000+00:00"
    },
    "request": {
      "method": "PUT",
      "url": "Condition/467b8cba-3059-4499-92ff-3e9b21c348f9"
    }
  }, {
    "fullUrl": "https://madie.cms.gov/Coverage/3bfe2460-c804-413e-abeb-a567223e0bf1",
    "resource": {
      "resourceType": "Coverage",
      "id": "3bfe2460-c804-413e-abeb-a567223e0bf1",
      "meta": {
        "profile": [ "http://hl7.org/fhir/us/qicore/StructureDefinition/qicore-coverage" ]
      },
      "status": "active",
      "subscriberId": "523435",
      "beneficiary": {
        "reference": "Patient/6a8804e3-d7cc-494e-8cb8-0befa0566c14"
      },
      "relationship": {
        "coding": [ {
          "system": "http://terminology.hl7.org/CodeSystem/subscriber-relationship",
          "code": "self"
        } ]
      },
      "payor": [ {
        "reference": "Organization/001d820d-02d8-418a-a90f-0aca41afd312"
      } ]
    },
    "request": {
      "method": "PUT",
      "url": "Coverage/3bfe2460-c804-413e-abeb-a567223e0bf1"
    }
  }, {
    "fullUrl": "https://madie.cms.gov/Organization/001d820d-02d8-418a-a90f-0aca41afd312",
    "resource": {
      "resourceType": "Organization",
      "id": "001d820d-02d8-418a-a90f-0aca41afd312",
      "meta": {
        "profile": [ "http://hl7.org/fhir/us/qicore/StructureDefinition/qicore-organization" ]
      },
      "identifier": [ {
        "use": "temp",
        "system": "urn:oid:2.16.840.1.113883.4.4",
        "value": "21-3259825"
      } ],
      "active": true,
      "type": [ {
        "coding": [ {
          "system": "http://terminology.hl7.org/CodeSystem/organization-type",
          "code": "pay",
          "display": "Payer"
        } ]
      } ],
      "name": "Blue Cross Blue Shield of Texas",
      "telecom": [ {
        "system": "phone",
        "value": "(+1) 972-766-6900"
      } ],
      "address": [ {
        "use": "billing",
        "type": "postal",
        "line": [ "P.O. Box 660044" ],
        "city": "Dallas",
        "state": "TX",
        "postalCode": "75266-0044",
        "country": "USA"
      } ]
    },
    "request": {
      "method": "PUT",
      "url": "Organization/001d820d-02d8-418a-a90f-0aca41afd312"
    }
  }, {
    "fullUrl": "https://madie.cms.gov/Practitioner/f10497f6-3466-4fec-8ef0-fd7b38260364",
    "resource": {
      "resourceType": "Practitioner",
      "id": "f10497f6-3466-4fec-8ef0-fd7b38260364",
      "meta": {
        "profile": [ "http://hl7.org/fhir/us/qicore/StructureDefinition/qicore-practitioner" ]
      },
      "identifier": [ {
        "system": "http://hl7.org/fhir/sid/us-npi",
        "value": "1234567890"
      } ],
      "name": [ {
        "family": "Evil",
        "prefix": [ "Dr" ]
      } ]
    },
    "request": {
      "method": "PUT",
      "url": "Practitioner/f10497f6-3466-4fec-8ef0-fd7b38260364"
    }
  }, {
    "fullUrl": "https://madie.cms.gov/MeasureReport/c3896aa9-d51f-49b1-a807-796c81ebfaa2",
    "resource": {
      "resourceType": "MeasureReport",
      "id": "c3896aa9-d51f-49b1-a807-796c81ebfaa2",
      "meta": {
        "profile": [ "http://hl7.org/fhir/us/cqfmeasures/StructureDefinition/test-case-cqfm" ]
      },
      "contained": [ {
        "resourceType": "Parameters",
        "id": "f7c25303-d3a2-4a05-9758-937fe2feb646-parameters",
        "parameter": [ {
          "name": "subject",
          "valueString": "6a8804e3-d7cc-494e-8cb8-0befa0566c14"
        } ]
      } ],
      "extension": [ {
        "url": "http://hl7.org/fhir/StructureDefinition/cqf-inputParameters",
        "valueReference": {
          "reference": "#f7c25303-d3a2-4a05-9758-937fe2feb646-parameters"
        }
      }, {
        "url": "http://hl7.org/fhir/us/cqfmeasures/StructureDefinition/cqfm-testCaseDescription",
        "valueMarkdown": "Parity=0, relevant date/time exactly 42 weeks prior to delivery date/time.  \n"
      } ],
      "modifierExtension": [ {
        "url": "http://hl7.org/fhir/us/cqfmeasures/StructureDefinition/cqfm-isTestCase",
        "valueBoolean": true
      } ],
      "status": "complete",
      "type": "individual",
      "measure": "https://madie.cms.gov/Measure/CMS0334FHIRPCCesareanBirth",
      "period": {
        "start": "2026-01-01",
        "end": "2026-12-31"
      },
      "group": [ {
        "id": "Group_1",
        "population": [ {
          "id": "InitialPopulation_1",
          "code": {
            "coding": [ {
              "system": "http://terminology.hl7.org/CodeSystem/measure-population",
              "code": "initial-population",
              "display": "Initial Population"
            } ]
          },
          "count": 1
        }, {
          "id": "Denominator_1",
          "code": {
            "coding": [ {
              "system": "http://terminology.hl7.org/CodeSystem/measure-population",
              "code": "denominator",
              "display": "Denominator"
            } ]
          },
          "count": 1
        }, {
          "id": "DenominatorExclusion_1",
          "code": {
            "coding": [ {
              "system": "http://terminology.hl7.org/CodeSystem/measure-population",
              "code": "denominator-exclusion",
              "display": "Denominator Exclusion"
            } ]
          },
          "count": 0
        }, {
          "id": "Numerator_1",
          "code": {
            "coding": [ {
              "system": "http://terminology.hl7.org/CodeSystem/measure-population",
              "code": "numerator",
              "display": "Numerator"
            } ]
          },
          "count": 1
        } ],
        "measureScore": {
          "value": 0.0
        }
      } ],
      "evaluatedResource": [ {
        "reference": "Patient/6a8804e3-d7cc-494e-8cb8-0befa0566c14"
      }, {
        "reference": "Observation/76b08696-5159-4dc8-a065-454ddbf0e518"
      }, {
        "reference": "Observation/3fae2363-e32a-4c88-83bc-b27a6882c116"
      }, {
        "reference": "Observation/abe9ea67-ef5f-4ce6-bdfd-d4f44ef55589"
      }, {
        "reference": "Encounter/599b4d80-861b-40ec-804c-c6006bcdddb0"
      }, {
        "reference": "Procedure/2503c4d9-59d2-479c-aef0-21b86c2d2c73"
      }, {
        "reference": "Condition/467b8cba-3059-4499-92ff-3e9b21c348f9"
      }, {
        "reference": "Coverage/3bfe2460-c804-413e-abeb-a567223e0bf1"
      }, {
        "reference": "Organization/001d820d-02d8-418a-a90f-0aca41afd312"
      }, {
        "reference": "Practitioner/f10497f6-3466-4fec-8ef0-fd7b38260364"
      } ]
    },
    "request": {
      "method": "PUT",
      "url": "MeasureReport/c3896aa9-d51f-49b1-a807-796c81ebfaa2"
    }
  } ]
}