{
    "entry": [
        {
            "request": {
                "method": "PUT",
                "url": "Patient/9f2a5e21-9d12-4acc-82a4-f6f9e20f073a"
            },
            "resource": {
                "identifier": [{
                    "system": "https://bonnie-fhir.healthit.gov/",
                    "type": {"coding": [{
                        "system": "http://terminology.hl7.org/CodeSystem/v2-0203",
                        "code": "MR"
                    }]},
                    "value": "62d95b63f0347d1abcae6c07"
                }],
                "extension": [
                    {
                        "extension": [
                            {
                                "valueCoding": {
                                    "system": "urn:oid:2.16.840.1.113883.6.238",
                                    "code": "1002-5",
                                    "userSelected": true,
                                    "display": "American Indian or Alaska Native"
                                },
                                "url": "ombCategory"
                            },
                            {
                                "valueString": "American Indian or Alaska Native",
                                "url": "text"
                            }
                        ],
                        "url": "http://hl7.org/fhir/us/core/StructureDefinition/us-core-race"
                    },
                    {
                        "extension": [
                            {
                                "valueCoding": {
                                    "system": "urn:oid:2.16.840.1.113883.6.238",
                                    "code": "2135-2",
                                    "userSelected": true,
                                    "display": "Hispanic or Latino"
                                },
                                "url": "ombCategory"
                            },
                            {
                                "valueString": "Hispanic or Latino",
                                "url": "text"
                            }
                        ],
                        "url": "http://hl7.org/fhir/us/core/StructureDefinition/us-core-ethnicity"
                    }
                ],
                "gender": "male",
                "meta": {"profile": ["http://hl7.org/fhir/us/qicore/StructureDefinition/qicore-patient"]},
                "name": [{
                    "given": ["VirtualEnc"],
                    "family": "IPFail"
                }],
                "id": "9f2a5e21-9d12-4acc-82a4-f6f9e20f073a",
                "birthDate": "2005-12-31",
                "resourceType": "Patient"
            },
            "fullUrl": "https://madie.cms.gov/Patient/9f2a5e21-9d12-4acc-82a4-f6f9e20f073a"
        },
        {
            "request": {
                "method": "PUT",
                "url": "Encounter/3c013754-224a-40b6-8bed-2cff1ed70c74"
            },
            "resource": {
                "period": {
                    "start": "2026-07-21T08:00:00.000+00:00",
                    "end": "2026-07-21T08:30:00.000+00:00"
                },
                "meta": {"profile": ["http://hl7.org/fhir/us/qicore/StructureDefinition/qicore-encounter"]},
                "subject": {"reference": "Patient/9f2a5e21-9d12-4acc-82a4-f6f9e20f073a"},
                "id": "3c013754-224a-40b6-8bed-2cff1ed70c74",
                "type": [{"coding": [{
                    "system": "http://snomed.info/sct",
                    "code": "103705002",
                    "userSelected": true,
                    "display": "Patient status observation (procedure)",
                    "version": "2022-03"
                }]}],
                "class": {
                    "system": "http://terminology.hl7.org/CodeSystem/v3-ActCode",
                    "code": "VR",
                    "userSelected": true,
                    "display": "virtual"
                },
                "resourceType": "Encounter",
                "status": "finished"
            },
            "fullUrl": "https://madie.cms.gov/Encounter/3c013754-224a-40b6-8bed-2cff1ed70c74"
        },
        {
            "request": {
                "method": "PUT",
                "url": "Coverage/9910df83-165f-40c7-8558-e3a538c1743f"
            },
            "resource": {
                "payor": [{"reference": "Organization/421b95b1-3362-40c1-9d4e-4f36ae9b7dbf"}],
                "beneficiary": {"reference": "Patient/9f2a5e21-9d12-4acc-82a4-f6f9e20f073a"},
                "meta": {"profile": ["http://hl7.org/fhir/us/qicore/StructureDefinition/qicore-coverage"]},
                "id": "9910df83-165f-40c7-8558-e3a538c1743f",
                "resourceType": "Coverage",
                "status": "active"
            },
            "fullUrl": "https://madie.cms.gov/Coverage/9910df83-165f-40c7-8558-e3a538c1743f"
        },
        {
            "request": {
                "method": "PUT",
                "url": "Organization/421b95b1-3362-40c1-9d4e-4f36ae9b7dbf"
            },
            "resource": {
                "identifier": [{
                    "system": "urn:oid:2.16.840.1.113883.4.4",
                    "use": "temp",
                    "value": "21-3259825"
                }],
                "address": [{
                    "country": "USA",
                    "city": "Dallas",
                    "use": "billing",
                    "line": ["P.O. Box 660044"],
                    "postalCode": "75266-0044",
                    "state": "TX",
                    "type": "postal"
                }],
                "meta": {"profile": ["http://hl7.org/fhir/us/qicore/StructureDefinition/qicore-organization"]},
                "name": "Blue Cross Blue Shield of Texas",
                "active": true,
                "telecom": [{
                    "system": "phone",
                    "value": "(+1) 972-766-6900"
                }],
                "id": "421b95b1-3362-40c1-9d4e-4f36ae9b7dbf",
                "type": [{"coding": [{
                    "system": "http://terminology.hl7.org/CodeSystem/organization-type",
                    "code": "pay",
                    "display": "Payer"
                }]}],
                "resourceType": "Organization"
            },
            "fullUrl": "https://madie.cms.gov/Organization/421b95b1-3362-40c1-9d4e-4f36ae9b7dbf"
        },
        {
            "request": {
                "method": "PUT",
                "url": "Practitioner/9f1abd4d-df21-4482-a3ca-b43e9879564b"
            },
            "resource": {
                "identifier": [{
                    "system": "http://hl7.org/fhir/sid/us-npi",
                    "value": "123456"
                }],
                "meta": {"profile": ["http://hl7.org/fhir/us/qicore/StructureDefinition/qicore-practitioner"]},
                "name": [{
                    "prefix": ["Dr"],
                    "family": "Evil"
                }],
                "id": "9f1abd4d-df21-4482-a3ca-b43e9879564b",
                "resourceType": "Practitioner"
            },
            "fullUrl": "https://madie.cms.gov/Practitioner/9f1abd4d-df21-4482-a3ca-b43e9879564b"
        },
        {
            "request": {
                "method": "PUT",
                "url": "MeasureReport/dc5bc79d-06f0-4910-a083-e50fc5631160"
            },
            "resource": {
                "contained": [{
                    "parameter": [{
                        "valueString": "9f2a5e21-9d12-4acc-82a4-f6f9e20f073a",
                        "name": "subject"
                    }],
                    "id": "a3cd2728-b0d8-408a-a4d0-691d70198e97-parameters",
                    "resourceType": "Parameters"
                }],
                "extension": [
                    {
                        "valueReference": {"reference": "#a3cd2728-b0d8-408a-a4d0-691d70198e97-parameters"},
                        "url": "http://hl7.org/fhir/StructureDefinition/cqf-inputParameters"
                    },
                    {
                        "valueMarkdown": "Virtual encounters are not accepted for this measure since BP needs to be taken by qualified personnel.",
                        "url": "http://hl7.org/fhir/us/cqfmeasures/StructureDefinition/cqfm-testCaseDescription"
                    }
                ],
                "period": {
                    "start": "2026-01-01",
                    "end": "2026-12-31"
                },
                "measure": "https://madie.cms.gov/Measure/CMS22FHIRPCSBPScreeningFollowUp",
                "meta": {"profile": ["http://hl7.org/fhir/us/cqfmeasures/StructureDefinition/test-case-cqfm"]},
                "modifierExtension": [{
                    "valueBoolean": true,
                    "url": "http://hl7.org/fhir/us/cqfmeasures/StructureDefinition/cqfm-isTestCase"
                }],
                "id": "dc5bc79d-06f0-4910-a083-e50fc5631160",
                "evaluatedResource": [
                    {"reference": "Patient/9f2a5e21-9d12-4acc-82a4-f6f9e20f073a"},
                    {"reference": "Encounter/3c013754-224a-40b6-8bed-2cff1ed70c74"},
                    {"reference": "Coverage/9910df83-165f-40c7-8558-e3a538c1743f"},
                    {"reference": "Organization/421b95b1-3362-40c1-9d4e-4f36ae9b7dbf"},
                    {"reference": "Practitioner/9f1abd4d-df21-4482-a3ca-b43e9879564b"}
                ],
                "type": "individual",
                "resourceType": "MeasureReport",
                "status": "complete",
                "group": [{
                    "id": "Group_1",
                    "measureScore": {"value": 0},
                    "population": [
                        {
                            "code": {"coding": [{
                                "system": "http://terminology.hl7.org/CodeSystem/measure-population",
                                "code": "initial-population",
                                "display": "Initial Population"
                            }]},
                            "count": 0,
                            "id": "InitialPopulation_1"
                        },
                        {
                            "code": {"coding": [{
                                "system": "http://terminology.hl7.org/CodeSystem/measure-population",
                                "code": "denominator",
                                "display": "Denominator"
                            }]},
                            "count": 0,
                            "id": "Denominator_1"
                        },
                        {
                            "code": {"coding": [{
                                "system": "http://terminology.hl7.org/CodeSystem/measure-population",
                                "code": "denominator-exclusion",
                                "display": "Denominator Exclusion"
                            }]},
                            "count": 0,
                            "id": "DenominatorExclusion_1"
                        },
                        {
                            "code": {"coding": [{
                                "system": "http://terminology.hl7.org/CodeSystem/measure-population",
                                "code": "numerator",
                                "display": "Numerator"
                            }]},
                            "count": 0,
                            "id": "Numerator_1"
                        },
                        {
                            "code": {"coding": [{
                                "system": "http://terminology.hl7.org/CodeSystem/measure-population",
                                "code": "denominator-exception",
                                "display": "Denominator Exception"
                            }]},
                            "count": 0,
                            "id": "DenominatorException_1"
                        }
                    ]
                }]
            },
            "fullUrl": "https://madie.cms.gov/MeasureReport/dc5bc79d-06f0-4910-a083-e50fc5631160"
        }
    ],
    "id": "62d95b63f0347d1abcae6c07",
    "type": "transaction",
    "resourceType": "Bundle"
}