{
  "resourceType": "Bundle",
  "id": "612e6ee902c62a011f2f0062",
  "type": "transaction",
  "entry": [ {
    "fullUrl": "https://madie.cms.gov/Patient/17d5aec6-089f-4b23-bfaf-71f7f4c7e4c5",
    "resource": {
      "resourceType": "Patient",
      "id": "17d5aec6-089f-4b23-bfaf-71f7f4c7e4c5",
      "meta": {
        "profile": [ "http://hl7.org/fhir/us/qicore/StructureDefinition/qicore-patient" ]
      },
      "text": {
        "status": "generated",
        "div": "<div xmlns=\"http://www.w3.org/1999/xhtml\"><div class=\"hapiHeaderText\">ThrombinDayOfICU_2ICUs <b>NUMERPASS </b></div><table class=\"hapiPropertyTable\"><tbody><tr><td>Identifier</td><td>43ef95d6b3f73d13035a41554ca78585</td></tr><tr><td>Date of birth</td><td><span>03 March 1974</span></td></tr></tbody></table></div>"
      },
      "extension": [ {
        "url": "http://hl7.org/fhir/us/core/StructureDefinition/us-core-race",
        "extension": [ {
          "url": "ombCategory",
          "valueCoding": {
            "system": "urn:oid:2.16.840.1.113883.6.238",
            "code": "1002-5",
            "display": "American Indian or Alaska Native",
            "userSelected": true
          }
        }, {
          "url": "text",
          "valueString": "American Indian or Alaska Native"
        } ]
      }, {
        "url": "http://hl7.org/fhir/us/core/StructureDefinition/us-core-ethnicity",
        "extension": [ {
          "url": "ombCategory",
          "valueCoding": {
            "system": "urn:oid:2.16.840.1.113883.6.238",
            "code": "2135-2",
            "display": "Hispanic or Latino",
            "userSelected": true
          }
        }, {
          "url": "text",
          "valueString": "Hispanic or Latino"
        } ]
      } ],
      "identifier": [ {
        "type": {
          "coding": [ {
            "system": "http://terminology.hl7.org/CodeSystem/v2-0203",
            "code": "MR"
          } ]
        },
        "system": "https://bonnie-fhir.healthit.gov/",
        "value": "612e6ee902c62a011f2f0062"
      } ],
      "active": true,
      "name": [ {
        "use": "usual",
        "family": "NUMERPass",
        "given": [ "ThrombinDayOfICU2ICUs" ]
      } ],
      "gender": "female",
      "birthDate": "1975-03-03"
    },
    "request": {
      "method": "PUT",
      "url": "Patient/17d5aec6-089f-4b23-bfaf-71f7f4c7e4c5"
    }
  }, {
    "fullUrl": "https://madie.cms.gov/Encounter/d2222483-5ee1-4784-8bd5-eaec70eca437",
    "resource": {
      "resourceType": "Encounter",
      "id": "d2222483-5ee1-4784-8bd5-eaec70eca437",
      "meta": {
        "profile": [ "http://hl7.org/fhir/us/qicore/StructureDefinition/qicore-encounter" ]
      },
      "status": "finished",
      "class": {
        "system": "http://terminology.hl7.org/CodeSystem/v3-ActCode",
        "code": "EMER",
        "display": "emergency"
      },
      "type": [ {
        "coding": [ {
          "system": "http://snomed.info/sct",
          "code": "4525004"
        } ]
      } ],
      "subject": {
        "reference": "Patient/17d5aec6-089f-4b23-bfaf-71f7f4c7e4c5"
      },
      "period": {
        "start": "2026-12-02T08:00:00.000+00:00",
        "end": "2026-12-04T07:15:00.000+00:00"
      },
      "length": {
        "value": 2.0,
        "unit": "days"
      }
    },
    "request": {
      "method": "PUT",
      "url": "Encounter/d2222483-5ee1-4784-8bd5-eaec70eca437"
    }
  }, {
    "fullUrl": "https://madie.cms.gov/Encounter/ebb5fba1-d33c-4ca6-acf7-3b3fc131cdc0",
    "resource": {
      "resourceType": "Encounter",
      "id": "ebb5fba1-d33c-4ca6-acf7-3b3fc131cdc0",
      "meta": {
        "profile": [ "http://hl7.org/fhir/us/qicore/StructureDefinition/qicore-encounter" ]
      },
      "status": "finished",
      "class": {
        "system": "http://terminology.hl7.org/CodeSystem/v3-ActCode",
        "code": "IMP",
        "display": "inpatient encounter"
      },
      "type": [ {
        "coding": [ {
          "system": "http://snomed.info/sct",
          "code": "8715000"
        } ]
      } ],
      "subject": {
        "reference": "Patient/17d5aec6-089f-4b23-bfaf-71f7f4c7e4c5"
      },
      "period": {
        "start": "2026-12-04T08:00:00.000+00:00",
        "end": "2026-12-30T08:15:00.000+00:00"
      },
      "length": {
        "value": 26.0,
        "unit": "days"
      },
      "location": [ {
        "location": {
          "reference": "Location/intensive-care-unit-cc82"
        },
        "period": {
          "start": "2026-12-02T11:00:00.000+00:00",
          "end": "2026-12-03T08:15:00.000+00:00"
        }
      }, {
        "location": {
          "reference": "Location/bbbfb011-5605-467d-976a-288f6526e139"
        },
        "period": {
          "start": "2026-12-06T08:00:00.000+00:00",
          "end": "2026-12-12T08:15:00.000+00:00"
        }
      } ]
    },
    "request": {
      "method": "PUT",
      "url": "Encounter/ebb5fba1-d33c-4ca6-acf7-3b3fc131cdc0"
    }
  }, {
    "fullUrl": "https://madie.cms.gov/Coverage/f4045bd7-e99c-4594-924b-107dfa81780e",
    "resource": {
      "resourceType": "Coverage",
      "id": "f4045bd7-e99c-4594-924b-107dfa81780e",
      "status": "active",
      "beneficiary": {
        "reference": "Patient/17d5aec6-089f-4b23-bfaf-71f7f4c7e4c5"
      },
      "period": {
        "start": "1975-03-03T08:00:00.000+00:00"
      },
      "payor": [ {
        "reference": "Organization/2fccec75-6be1-4a1e-8519-a96b6b0904d8"
      } ]
    },
    "request": {
      "method": "PUT",
      "url": "Coverage/f4045bd7-e99c-4594-924b-107dfa81780e"
    }
  }, {
    "fullUrl": "https://madie.cms.gov/MedicationAdministration/e2552a2f-99e4-454f-a939-9104203f7520",
    "resource": {
      "resourceType": "MedicationAdministration",
      "id": "e2552a2f-99e4-454f-a939-9104203f7520",
      "meta": {
        "profile": [ "http://hl7.org/fhir/us/qicore/StructureDefinition/qicore-medicationadministration" ]
      },
      "status": "completed",
      "medicationCodeableConcept": {
        "coding": [ {
          "system": "http://www.nlm.nih.gov/research/umls/rxnorm",
          "code": "308351"
        } ]
      },
      "subject": {
        "reference": "Patient/17d5aec6-089f-4b23-bfaf-71f7f4c7e4c5"
      },
      "effectivePeriod": {
        "start": "2026-12-06T11:30:00.000+00:00",
        "end": "2026-12-06T11:45:00.000+00:00"
      }
    },
    "request": {
      "method": "PUT",
      "url": "MedicationAdministration/e2552a2f-99e4-454f-a939-9104203f7520"
    }
  }, {
    "fullUrl": "https://madie.cms.gov/Procedure/d0c979b3-474b-48f8-8160-a62acce92a0e",
    "resource": {
      "resourceType": "Procedure",
      "id": "d0c979b3-474b-48f8-8160-a62acce92a0e",
      "meta": {
        "profile": [ "http://hl7.org/fhir/us/qicore/StructureDefinition/qicore-procedure" ]
      },
      "extension": [ {
        "url": "http://hl7.org/fhir/us/qicore/StructureDefinition/qicore-recorded",
        "valueDateTime": "2013-12-04T13:35:00.000+00:00"
      } ],
      "status": "completed",
      "code": {
        "coding": [ {
          "system": "http://snomed.info/sct",
          "code": "18946005"
        } ]
      },
      "subject": {
        "reference": "Patient/17d5aec6-089f-4b23-bfaf-71f7f4c7e4c5"
      },
      "performedPeriod": {
        "start": "2026-12-04T11:00:00.000+00:00",
        "end": "2026-12-06T11:15:00.000+00:00"
      }
    },
    "request": {
      "method": "PUT",
      "url": "Procedure/d0c979b3-474b-48f8-8160-a62acce92a0e"
    }
  }, {
    "fullUrl": "https://madie.cms.gov/Location/bbbfb011-5605-467d-976a-288f6526e139",
    "resource": {
      "resourceType": "Location",
      "id": "bbbfb011-5605-467d-976a-288f6526e139",
      "meta": {
        "profile": [ "http://hl7.org/fhir/us/qicore/StructureDefinition/qicore-location" ]
      },
      "identifier": [ {
        "use": "usual",
        "system": "http://exampleoflocation.com",
        "value": "B1-S.F2"
      } ],
      "name": "Medical Surgical East, first floor",
      "type": [ {
        "coding": [ {
          "system": "https://www.cdc.gov/nhsn/cdaportal/terminology/codesystem/hsloc.html",
          "code": "1025-6",
          "display": "Trauma Critical Care",
          "userSelected": true
        } ]
      } ]
    },
    "request": {
      "method": "PUT",
      "url": "Location/bbbfb011-5605-467d-976a-288f6526e139"
    }
  }, {
    "fullUrl": "https://madie.cms.gov/Organization/2fccec75-6be1-4a1e-8519-a96b6b0904d8",
    "resource": {
      "resourceType": "Organization",
      "id": "2fccec75-6be1-4a1e-8519-a96b6b0904d8",
      "meta": {
        "profile": [ "http://hl7.org/fhir/us/qicore/StructureDefinition/qicore-organization" ]
      },
      "identifier": [ {
        "use": "temp",
        "system": "urn:oid:2.16.840.1.113883.4.4",
        "value": "21-3259825"
      } ],
      "active": true,
      "type": [ {
        "coding": [ {
          "system": "http://terminology.hl7.org/CodeSystem/organization-type",
          "code": "pay",
          "display": "Payer"
        } ]
      } ],
      "name": "Blue Cross Blue Shield of Texas",
      "telecom": [ {
        "system": "phone",
        "value": "(+1) 972-766-6900"
      } ],
      "address": [ {
        "use": "billing",
        "type": "postal",
        "line": [ "P.O. Box 660044" ],
        "city": "Dallas",
        "state": "TX",
        "postalCode": "75266-0044",
        "country": "USA"
      } ]
    },
    "request": {
      "method": "PUT",
      "url": "Organization/2fccec75-6be1-4a1e-8519-a96b6b0904d8"
    }
  }, {
    "fullUrl": "https://madie.cms.gov/Practitioner/3076703a-1ab2-4898-9d05-112231995056",
    "resource": {
      "resourceType": "Practitioner",
      "id": "3076703a-1ab2-4898-9d05-112231995056",
      "identifier": [ {
        "system": "http://hl7.org/fhir/sid/us-npi",
        "value": "123456"
      } ],
      "name": [ {
        "family": "Evil",
        "prefix": [ "Dr" ]
      } ]
    },
    "request": {
      "method": "PUT",
      "url": "Practitioner/3076703a-1ab2-4898-9d05-112231995056"
    }
  }, {
    "fullUrl": "https://madie.cms.gov/MeasureReport/ed13c945-d29a-4450-995d-802664b742b5",
    "resource": {
      "resourceType": "MeasureReport",
      "id": "ed13c945-d29a-4450-995d-802664b742b5",
      "meta": {
        "profile": [ "http://hl7.org/fhir/us/cqfmeasures/StructureDefinition/test-case-cqfm" ]
      },
      "contained": [ {
        "resourceType": "Parameters",
        "id": "a697a27b-7e6b-4403-95d2-3cf89aac1d89-parameters",
        "parameter": [ {
          "name": "subject",
          "valueString": "17d5aec6-089f-4b23-bfaf-71f7f4c7e4c5"
        } ]
      } ],
      "extension": [ {
        "url": "http://hl7.org/fhir/StructureDefinition/cqf-inputParameters",
        "valueReference": {
          "reference": "#a697a27b-7e6b-4403-95d2-3cf89aac1d89-parameters"
        }
      }, {
        "url": "http://hl7.org/fhir/us/cqfmeasures/StructureDefinition/cqfm-testCaseDescription",
        "valueMarkdown": "2 ICU, one is in ED. meets IPP, meets Denominator, medication administered:Thrombin, Thrombin end<=1day after start of First ICU Admission during Inpatient.\n"
      } ],
      "modifierExtension": [ {
        "url": "http://hl7.org/fhir/us/cqfmeasures/StructureDefinition/cqfm-isTestCase",
        "valueBoolean": true
      } ],
      "status": "complete",
      "type": "individual",
      "measure": "https://madie.cms.gov/Measure/CMS190VTEProphylaxisICUFHIR",
      "period": {
        "start": "2026-01-01",
        "end": "2026-12-31"
      },
      "group": [ {
        "id": "Group_1",
        "population": [ {
          "id": "InitialPopulation_1",
          "code": {
            "coding": [ {
              "system": "http://terminology.hl7.org/CodeSystem/measure-population",
              "code": "initial-population",
              "display": "Initial Population"
            } ]
          },
          "count": 1
        }, {
          "id": "Denominator_1",
          "code": {
            "coding": [ {
              "system": "http://terminology.hl7.org/CodeSystem/measure-population",
              "code": "denominator",
              "display": "Denominator"
            } ]
          },
          "count": 1
        }, {
          "id": "DenominatorExclusion_1",
          "code": {
            "coding": [ {
              "system": "http://terminology.hl7.org/CodeSystem/measure-population",
              "code": "denominator-exclusion",
              "display": "Denominator Exclusion"
            } ]
          },
          "count": 0
        }, {
          "id": "Numerator_1",
          "code": {
            "coding": [ {
              "system": "http://terminology.hl7.org/CodeSystem/measure-population",
              "code": "numerator",
              "display": "Numerator"
            } ]
          },
          "count": 1
        }, {
          "id": "DenominatorException_1",
          "code": {
            "coding": [ {
              "system": "http://terminology.hl7.org/CodeSystem/measure-population",
              "code": "denominator-exception",
              "display": "Denominator Exception"
            } ]
          },
          "count": 0
        } ],
        "measureScore": {
          "value": 0.0
        }
      } ],
      "evaluatedResource": [ {
        "reference": "Patient/17d5aec6-089f-4b23-bfaf-71f7f4c7e4c5"
      }, {
        "reference": "Encounter/d2222483-5ee1-4784-8bd5-eaec70eca437"
      }, {
        "reference": "Encounter/ebb5fba1-d33c-4ca6-acf7-3b3fc131cdc0"
      }, {
        "reference": "Coverage/f4045bd7-e99c-4594-924b-107dfa81780e"
      }, {
        "reference": "MedicationAdministration/e2552a2f-99e4-454f-a939-9104203f7520"
      }, {
        "reference": "Procedure/d0c979b3-474b-48f8-8160-a62acce92a0e"
      }, {
        "reference": "Location/bbbfb011-5605-467d-976a-288f6526e139"
      }, {
        "reference": "Organization/2fccec75-6be1-4a1e-8519-a96b6b0904d8"
      }, {
        "reference": "Practitioner/3076703a-1ab2-4898-9d05-112231995056"
      } ]
    },
    "request": {
      "method": "PUT",
      "url": "MeasureReport/ed13c945-d29a-4450-995d-802664b742b5"
    }
  } ]
}