{
  "resourceType": "Bundle",
  "id": "633b3fa00968f80122503d15",
  "type": "transaction",
  "entry": [ {
    "fullUrl": "https://madie.cms.gov/Patient/f6d7f2da-f584-4f84-a6c6-f25f82bb9b3a",
    "resource": {
      "resourceType": "Patient",
      "id": "f6d7f2da-f584-4f84-a6c6-f25f82bb9b3a",
      "meta": {
        "profile": [ "http://hl7.org/fhir/us/qicore/StructureDefinition/qicore-patient" ]
      },
      "text": {
        "status": "generated",
        "div": "<div xmlns=\"http://www.w3.org/1999/xhtml\"><div class=\"hapiHeaderText\">DelProcRelDtTmEQOBSStart<b>IPPASS</b></div><table class=\"hapiPropertyTable\"><tbody><tr><td>Date of birth</td><td><span>31 January 2004</span></td></tr></tbody></table></div>"
      },
      "extension": [ {
        "url": "http://hl7.org/fhir/us/core/StructureDefinition/us-core-race",
        "extension": [ {
          "url": "ombCategory",
          "valueCoding": {
            "system": "urn:oid:2.16.840.1.113883.6.238",
            "code": "1002-5",
            "display": "American Indian or Alaska Native",
            "userSelected": true
          }
        }, {
          "url": "text",
          "valueString": "American Indian or Alaska Native"
        } ]
      }, {
        "url": "http://hl7.org/fhir/us/core/StructureDefinition/us-core-ethnicity",
        "extension": [ {
          "url": "ombCategory",
          "valueCoding": {
            "system": "urn:oid:2.16.840.1.113883.6.238",
            "code": "2135-2",
            "display": "Hispanic or Latino",
            "userSelected": true
          }
        }, {
          "url": "text",
          "valueString": "Hispanic or Latino"
        } ]
      } ],
      "identifier": [ {
        "type": {
          "coding": [ {
            "system": "http://terminology.hl7.org/CodeSystem/v2-0203",
            "code": "MR"
          } ]
        },
        "system": "https://bonnie-fhir.healthit.gov/",
        "value": "633b3fa00968f80122503d15"
      } ],
      "active": true,
      "name": [ {
        "use": "usual",
        "family": "IPPass",
        "given": [ "DelProcRelDtTmEQOBSStart" ]
      } ],
      "gender": "female",
      "birthDate": "2005-01-31"
    },
    "request": {
      "method": "PUT",
      "url": "Patient/f6d7f2da-f584-4f84-a6c6-f25f82bb9b3a"
    }
  }, {
    "fullUrl": "https://madie.cms.gov/Encounter/caca5133-7aa7-4119-b600-46301132a02d",
    "resource": {
      "resourceType": "Encounter",
      "id": "caca5133-7aa7-4119-b600-46301132a02d",
      "meta": {
        "profile": [ "http://hl7.org/fhir/us/qicore/StructureDefinition/qicore-encounter" ]
      },
      "status": "finished",
      "class": {
        "system": "http://terminology.hl7.org/CodeSystem/v3-ActCode",
        "code": "IMP",
        "display": "inpatient encounter"
      },
      "type": [ {
        "coding": [ {
          "system": "http://snomed.info/sct",
          "code": "183452005"
        } ]
      } ],
      "subject": {
        "reference": "Patient/f6d7f2da-f584-4f84-a6c6-f25f82bb9b3a"
      },
      "period": {
        "start": "2026-02-01T09:00:00Z",
        "end": "2026-02-05T08:15:00.000+00:00"
      }
    },
    "request": {
      "method": "PUT",
      "url": "Encounter/caca5133-7aa7-4119-b600-46301132a02d"
    }
  }, {
    "fullUrl": "https://madie.cms.gov/Encounter/7069108b-f362-4bc4-82d1-0aaee5e8f3e8",
    "resource": {
      "resourceType": "Encounter",
      "id": "7069108b-f362-4bc4-82d1-0aaee5e8f3e8",
      "meta": {
        "profile": [ "http://hl7.org/fhir/us/qicore/StructureDefinition/qicore-encounter" ]
      },
      "status": "finished",
      "class": {
        "system": "http://terminology.hl7.org/CodeSystem/v3-ActCode",
        "code": "IMP",
        "display": "inpatient encounter"
      },
      "type": [ {
        "coding": [ {
          "system": "http://snomed.info/sct",
          "code": "448951000124107"
        } ]
      } ],
      "subject": {
        "reference": "Patient/f6d7f2da-f584-4f84-a6c6-f25f82bb9b3a"
      },
      "period": {
        "start": "2026-02-01T08:00:00Z",
        "end": "2026-02-01T08:59:00.000+00:00"
      }
    },
    "request": {
      "method": "PUT",
      "url": "Encounter/7069108b-f362-4bc4-82d1-0aaee5e8f3e8"
    }
  }, {
    "fullUrl": "https://madie.cms.gov/Encounter/24f2fec0-8d5f-4467-bace-a2b935f45b8e",
    "resource": {
      "resourceType": "Encounter",
      "id": "24f2fec0-8d5f-4467-bace-a2b935f45b8e",
      "meta": {
        "profile": [ "http://hl7.org/fhir/us/qicore/StructureDefinition/qicore-encounter" ]
      },
      "status": "finished",
      "class": {
        "system": "http://terminology.hl7.org/CodeSystem/v3-ActCode",
        "code": "IMP",
        "display": "inpatient encounter"
      },
      "type": [ {
        "coding": [ {
          "system": "http://snomed.info/sct",
          "code": "4525004"
        } ]
      } ],
      "subject": {
        "reference": "Patient/f6d7f2da-f584-4f84-a6c6-f25f82bb9b3a"
      },
      "period": {
        "start": "2026-02-01T07:00:00Z",
        "end": "2026-02-01T07:59:00.000+00:00"
      }
    },
    "request": {
      "method": "PUT",
      "url": "Encounter/24f2fec0-8d5f-4467-bace-a2b935f45b8e"
    }
  }, {
    "fullUrl": "https://madie.cms.gov/Coverage/f896d361-0391-4c33-9399-cdeccdf6b415",
    "resource": {
      "resourceType": "Coverage",
      "id": "f896d361-0391-4c33-9399-cdeccdf6b415",
      "status": "active",
      "beneficiary": {
        "reference": "Patient/f6d7f2da-f584-4f84-a6c6-f25f82bb9b3a"
      },
      "period": {
        "start": "2005-01-31T01:00:00Z"
      },
      "payor": [ {
        "reference": "Organization/80e10724-143c-4fe0-86e5-4b891f34d0e5"
      } ]
    },
    "request": {
      "method": "PUT",
      "url": "Coverage/f896d361-0391-4c33-9399-cdeccdf6b415"
    }
  }, {
    "fullUrl": "https://madie.cms.gov/Procedure/58bd9ad9-d768-49ef-8867-a5cb9a2660c4",
    "resource": {
      "resourceType": "Procedure",
      "id": "58bd9ad9-d768-49ef-8867-a5cb9a2660c4",
      "meta": {
        "profile": [ "http://hl7.org/fhir/us/qicore/StructureDefinition/qicore-procedure" ]
      },
      "extension": [ {
        "url": "http://hl7.org/fhir/us/qicore/StructureDefinition/qicore-recorded",
        "valueDateTime": "2014-04-05T13:35:00Z"
      } ],
      "status": "completed",
      "code": {
        "coding": [ {
          "system": "http://snomed.info/sct",
          "code": "10745001"
        } ]
      },
      "subject": {
        "reference": "Patient/f6d7f2da-f584-4f84-a6c6-f25f82bb9b3a"
      },
      "performedDateTime": "2026-02-01T08:00:00Z"
    },
    "request": {
      "method": "PUT",
      "url": "Procedure/58bd9ad9-d768-49ef-8867-a5cb9a2660c4"
    }
  }, {
    "fullUrl": "https://madie.cms.gov/Organization/80e10724-143c-4fe0-86e5-4b891f34d0e5",
    "resource": {
      "resourceType": "Organization",
      "id": "80e10724-143c-4fe0-86e5-4b891f34d0e5",
      "meta": {
        "profile": [ "http://hl7.org/fhir/us/qicore/StructureDefinition/qicore-organization" ]
      },
      "identifier": [ {
        "use": "temp",
        "system": "urn:oid:2.16.840.1.113883.4.4",
        "value": "21-3259825"
      } ],
      "active": true,
      "type": [ {
        "coding": [ {
          "system": "http://terminology.hl7.org/CodeSystem/organization-type",
          "code": "pay",
          "display": "Payer"
        } ]
      } ],
      "name": "Blue Cross Blue Shield of Texas",
      "telecom": [ {
        "system": "phone",
        "value": "(+1) 972-766-6900"
      } ],
      "address": [ {
        "use": "billing",
        "type": "postal",
        "line": [ "P.O. Box 660044" ],
        "city": "Dallas",
        "state": "TX",
        "postalCode": "75266-0044",
        "country": "USA"
      } ]
    },
    "request": {
      "method": "PUT",
      "url": "Organization/80e10724-143c-4fe0-86e5-4b891f34d0e5"
    }
  }, {
    "fullUrl": "https://madie.cms.gov/Practitioner/e1ccf074-9926-4804-be0f-ea65a58f5d15",
    "resource": {
      "resourceType": "Practitioner",
      "id": "e1ccf074-9926-4804-be0f-ea65a58f5d15",
      "identifier": [ {
        "system": "http://hl7.org/fhir/sid/us-npi",
        "value": "123456"
      } ],
      "name": [ {
        "family": "Evil",
        "prefix": [ "Dr" ]
      } ]
    },
    "request": {
      "method": "PUT",
      "url": "Practitioner/e1ccf074-9926-4804-be0f-ea65a58f5d15"
    }
  }, {
    "fullUrl": "https://madie.cms.gov/MeasureReport/baa44361-3fff-454e-bf00-b8da2a276490",
    "resource": {
      "resourceType": "MeasureReport",
      "id": "baa44361-3fff-454e-bf00-b8da2a276490",
      "meta": {
        "profile": [ "http://hl7.org/fhir/us/cqfmeasures/StructureDefinition/test-case-cqfm" ]
      },
      "contained": [ {
        "resourceType": "Parameters",
        "id": "7d3a7aed-3a3b-44f0-98a9-c282f71cb2f7-parameters",
        "parameter": [ {
          "name": "subject",
          "valueString": "f6d7f2da-f584-4f84-a6c6-f25f82bb9b3a"
        } ]
      } ],
      "extension": [ {
        "url": "http://hl7.org/fhir/StructureDefinition/cqf-inputParameters",
        "valueReference": {
          "reference": "#7d3a7aed-3a3b-44f0-98a9-c282f71cb2f7-parameters"
        }
      }, {
        "url": "http://hl7.org/fhir/us/cqfmeasures/StructureDefinition/cqfm-testCaseDescription",
        "valueMarkdown": "Delivery Procedure rel date/time = OBS start.  ED/OBS/IP all meet global hospitalization criteria.\n"
      } ],
      "modifierExtension": [ {
        "url": "http://hl7.org/fhir/us/cqfmeasures/StructureDefinition/cqfm-isTestCase",
        "valueBoolean": true
      } ],
      "status": "complete",
      "type": "individual",
      "measure": "https://madie.cms.gov/Measure/CMS1028FHIRPCSevereOBComps",
      "period": {
        "start": "2026-01-01",
        "end": "2026-12-31"
      },
      "group": [ {
        "id": "Group_1",
        "population": [ {
          "id": "InitialPopulation_1",
          "code": {
            "coding": [ {
              "system": "http://terminology.hl7.org/CodeSystem/measure-population",
              "code": "initial-population",
              "display": "Initial Population"
            } ]
          },
          "count": 1
        }, {
          "id": "Denominator_1",
          "code": {
            "coding": [ {
              "system": "http://terminology.hl7.org/CodeSystem/measure-population",
              "code": "denominator",
              "display": "Denominator"
            } ]
          },
          "count": 0
        }, {
          "id": "Numerator_1",
          "code": {
            "coding": [ {
              "system": "http://terminology.hl7.org/CodeSystem/measure-population",
              "code": "numerator",
              "display": "Numerator"
            } ]
          },
          "count": 0
        }, {
          "id": "NumeratorExclusion_1",
          "code": {
            "coding": [ {
              "system": "http://terminology.hl7.org/CodeSystem/measure-population",
              "code": "numerator-exclusion",
              "display": "Numerator Exclusion"
            } ]
          },
          "count": 0
        } ],
        "measureScore": {
          "value": 0.0
        }
      }, {
        "id": "Group_2",
        "population": [ {
          "id": "InitialPopulation_2",
          "code": {
            "coding": [ {
              "system": "http://terminology.hl7.org/CodeSystem/measure-population",
              "code": "initial-population",
              "display": "Initial Population"
            } ]
          },
          "count": 1
        }, {
          "id": "Denominator_2",
          "code": {
            "coding": [ {
              "system": "http://terminology.hl7.org/CodeSystem/measure-population",
              "code": "denominator",
              "display": "Denominator"
            } ]
          },
          "count": 0
        }, {
          "id": "Numerator_2",
          "code": {
            "coding": [ {
              "system": "http://terminology.hl7.org/CodeSystem/measure-population",
              "code": "numerator",
              "display": "Numerator"
            } ]
          },
          "count": 0
        }, {
          "id": "NumeratorExclusion_2",
          "code": {
            "coding": [ {
              "system": "http://terminology.hl7.org/CodeSystem/measure-population",
              "code": "numerator-exclusion",
              "display": "Numerator Exclusion"
            } ]
          },
          "count": 0
        } ],
        "measureScore": {
          "value": 0.0
        }
      } ],
      "evaluatedResource": [ {
        "reference": "Patient/f6d7f2da-f584-4f84-a6c6-f25f82bb9b3a"
      }, {
        "reference": "Encounter/caca5133-7aa7-4119-b600-46301132a02d"
      }, {
        "reference": "Encounter/7069108b-f362-4bc4-82d1-0aaee5e8f3e8"
      }, {
        "reference": "Encounter/24f2fec0-8d5f-4467-bace-a2b935f45b8e"
      }, {
        "reference": "Coverage/f896d361-0391-4c33-9399-cdeccdf6b415"
      }, {
        "reference": "Procedure/58bd9ad9-d768-49ef-8867-a5cb9a2660c4"
      }, {
        "reference": "Organization/80e10724-143c-4fe0-86e5-4b891f34d0e5"
      }, {
        "reference": "Practitioner/e1ccf074-9926-4804-be0f-ea65a58f5d15"
      } ]
    },
    "request": {
      "method": "PUT",
      "url": "MeasureReport/baa44361-3fff-454e-bf00-b8da2a276490"
    }
  } ]
}