{
  "resourceType": "Bundle",
  "id": "62b1d7bd3968556e5150cf2c",
  "type": "transaction",
  "entry": [ {
    "fullUrl": "https://madie.cms.gov/Patient/82134291-214a-4e6e-9969-9ccb6df412f0",
    "resource": {
      "resourceType": "Patient",
      "id": "82134291-214a-4e6e-9969-9ccb6df412f0",
      "meta": {
        "profile": [ "http://hl7.org/fhir/us/qicore/StructureDefinition/qicore-patient" ]
      },
      "extension": [ {
        "url": "http://hl7.org/fhir/us/core/StructureDefinition/us-core-race",
        "extension": [ {
          "url": "ombCategory",
          "valueCoding": {
            "system": "urn:oid:2.16.840.1.113883.6.238",
            "code": "1002-5",
            "display": "American Indian or Alaska Native",
            "userSelected": true
          }
        }, {
          "url": "text",
          "valueString": "American Indian or Alaska Native"
        } ]
      }, {
        "url": "http://hl7.org/fhir/us/core/StructureDefinition/us-core-ethnicity",
        "extension": [ {
          "url": "ombCategory",
          "valueCoding": {
            "system": "urn:oid:2.16.840.1.113883.6.238",
            "code": "2135-2",
            "display": "Hispanic or Latino",
            "userSelected": true
          }
        }, {
          "url": "text",
          "valueString": "Hispanic or Latino"
        } ]
      } ],
      "identifier": [ {
        "type": {
          "coding": [ {
            "system": "http://terminology.hl7.org/CodeSystem/v2-0203",
            "code": "MR"
          } ]
        },
        "system": "https://bonnie-fhir.healthit.gov/",
        "value": "62b1d7bd3968556e5150cf2c"
      } ],
      "name": [ {
        "family": "NUMERPass",
        "given": [ "PositiveAdultDepressionScreeningandFollowUp" ]
      } ],
      "gender": "male",
      "birthDate": "2008-01-01"
    },
    "request": {
      "method": "PUT",
      "url": "Patient/82134291-214a-4e6e-9969-9ccb6df412f0"
    }
  }, {
    "fullUrl": "https://madie.cms.gov/Encounter/6e381398-8666-4859-a930-d79c0fdc7a73",
    "resource": {
      "resourceType": "Encounter",
      "id": "6e381398-8666-4859-a930-d79c0fdc7a73",
      "meta": {
        "profile": [ "http://hl7.org/fhir/us/qicore/StructureDefinition/qicore-encounter" ]
      },
      "status": "finished",
      "class": {
        "system": "http://terminology.hl7.org/CodeSystem/v3-ActCode",
        "code": "AMB",
        "display": "ambulatory"
      },
      "type": [ {
        "coding": [ {
          "system": "http://snomed.info/sct",
          "code": "10197000",
          "display": "Psychiatric interview and evaluation (procedure)",
          "userSelected": true
        } ]
      } ],
      "subject": {
        "reference": "Patient/82134291-214a-4e6e-9969-9ccb6df412f0"
      },
      "period": {
        "start": "2026-06-21T08:00:00.000+00:00",
        "end": "2026-06-21T08:15:00.000+00:00"
      }
    },
    "request": {
      "method": "PUT",
      "url": "Encounter/6e381398-8666-4859-a930-d79c0fdc7a73"
    }
  }, {
    "fullUrl": "https://madie.cms.gov/Observation/4b86e754-a3b6-42de-8e86-dac970528767",
    "resource": {
      "resourceType": "Observation",
      "id": "4b86e754-a3b6-42de-8e86-dac970528767",
      "meta": {
        "profile": [ "http://hl7.org/fhir/us/qicore/StructureDefinition/qicore-observation-screening-assessment" ]
      },
      "status": "final",
      "category": [ {
        "coding": [ {
          "system": "http://terminology.hl7.org/CodeSystem/observation-category",
          "code": "procedure",
          "display": "Procedure"
        } ]
      }, {
        "coding": [ {
          "system": "http://terminology.hl7.org/CodeSystem/observation-category",
          "code": "survey",
          "display": "Survey"
        } ]
      } ],
      "code": {
        "coding": [ {
          "system": "http://loinc.org",
          "code": "73832-8",
          "display": "Adult depression screening assessment",
          "userSelected": true
        } ]
      },
      "subject": {
        "reference": "Patient/82134291-214a-4e6e-9969-9ccb6df412f0"
      },
      "effectiveDateTime": "2026-06-15T08:00:00.000+00:00",
      "valueCodeableConcept": {
        "coding": [ {
          "system": "http://snomed.info/sct",
          "code": "428181000124104",
          "display": "Depression screening positive (finding)",
          "userSelected": true
        } ]
      }
    },
    "request": {
      "method": "PUT",
      "url": "Observation/4b86e754-a3b6-42de-8e86-dac970528767"
    }
  }, {
    "fullUrl": "https://madie.cms.gov/MedicationRequest/e7bac9f5-89a3-451b-b129-a17891403998",
    "resource": {
      "resourceType": "MedicationRequest",
      "id": "e7bac9f5-89a3-451b-b129-a17891403998",
      "meta": {
        "profile": [ "http://hl7.org/fhir/us/qicore/StructureDefinition/qicore-medicationrequest" ]
      },
      "status": "active",
      "intent": "order",
      "doNotPerform": false,
      "medicationCodeableConcept": {
        "coding": [ {
          "system": "http://www.nlm.nih.gov/research/umls/rxnorm",
          "code": "1000048",
          "display": "doxepin 10 MG Oral Capsule",
          "userSelected": true
        } ]
      },
      "subject": {
        "reference": "Patient/82134291-214a-4e6e-9969-9ccb6df412f0"
      },
      "authoredOn": "2026-06-21T08:00:00.000+00:00",
      "requester": {
        "reference": "Practitioner/123456"
      }
    },
    "request": {
      "method": "PUT",
      "url": "MedicationRequest/e7bac9f5-89a3-451b-b129-a17891403998"
    }
  }, {
    "fullUrl": "https://madie.cms.gov/Procedure/6d53cad7-c2eb-4a7f-a778-3d8221378d1e",
    "resource": {
      "resourceType": "Procedure",
      "id": "6d53cad7-c2eb-4a7f-a778-3d8221378d1e",
      "meta": {
        "profile": [ "http://hl7.org/fhir/us/qicore/StructureDefinition/qicore-procedure" ]
      },
      "extension": [ {
        "url": "http://hl7.org/fhir/us/qicore/StructureDefinition/qicore-recorded",
        "valueDateTime": "2026-06-21T08:00:00.000+00:00"
      } ],
      "status": "completed",
      "code": {
        "coding": [ {
          "system": "http://snomed.info/sct",
          "code": "108313002",
          "display": "Family psychotherapy procedure (regime/therapy)",
          "userSelected": true
        } ]
      },
      "subject": {
        "reference": "Patient/82134291-214a-4e6e-9969-9ccb6df412f0"
      },
      "performedDateTime": "2026-06-21T08:00:00.000+00:00"
    },
    "request": {
      "method": "PUT",
      "url": "Procedure/6d53cad7-c2eb-4a7f-a778-3d8221378d1e"
    }
  }, {
    "fullUrl": "https://madie.cms.gov/Coverage/ac3eb072-360b-4646-947e-875eb0e67871",
    "resource": {
      "resourceType": "Coverage",
      "id": "ac3eb072-360b-4646-947e-875eb0e67871",
      "meta": {
        "profile": [ "http://hl7.org/fhir/us/qicore/StructureDefinition/qicore-coverage" ]
      },
      "status": "active",
      "subscriberId": "123456789",
      "beneficiary": {
        "reference": "Patient/82134291-214a-4e6e-9969-9ccb6df412f0"
      },
      "relationship": {
        "coding": [ {
          "system": "http://terminology.hl7.org/CodeSystem/subscriber-relationship",
          "code": "self",
          "display": "Self",
          "userSelected": true
        } ]
      },
      "payor": [ {
        "reference": "Organization/26c00879-9dc4-4059-bc27-c0322d5befab"
      } ]
    },
    "request": {
      "method": "PUT",
      "url": "Coverage/ac3eb072-360b-4646-947e-875eb0e67871"
    }
  }, {
    "fullUrl": "https://madie.cms.gov/Organization/26c00879-9dc4-4059-bc27-c0322d5befab",
    "resource": {
      "resourceType": "Organization",
      "id": "26c00879-9dc4-4059-bc27-c0322d5befab",
      "meta": {
        "profile": [ "http://hl7.org/fhir/us/qicore/StructureDefinition/qicore-organization" ]
      },
      "identifier": [ {
        "use": "temp",
        "system": "urn:oid:2.16.840.1.113883.4.4",
        "value": "21-3259825"
      } ],
      "active": true,
      "type": [ {
        "coding": [ {
          "system": "http://terminology.hl7.org/CodeSystem/organization-type",
          "code": "pay",
          "display": "Payer"
        } ]
      } ],
      "name": "Blue Cross Blue Shield of Texas",
      "telecom": [ {
        "system": "phone",
        "value": "(+1) 972-766-6900"
      } ],
      "address": [ {
        "use": "billing",
        "type": "postal",
        "line": [ "P.O. Box 660044" ],
        "city": "Dallas",
        "state": "TX",
        "postalCode": "75266-0044",
        "country": "USA"
      } ]
    },
    "request": {
      "method": "PUT",
      "url": "Organization/26c00879-9dc4-4059-bc27-c0322d5befab"
    }
  }, {
    "fullUrl": "https://madie.cms.gov/Practitioner/ca220391-bacb-4d8c-8199-cb6d683f3169",
    "resource": {
      "resourceType": "Practitioner",
      "id": "ca220391-bacb-4d8c-8199-cb6d683f3169",
      "meta": {
        "profile": [ "http://hl7.org/fhir/us/qicore/StructureDefinition/qicore-practitioner" ]
      },
      "identifier": [ {
        "system": "http://hl7.org/fhir/sid/us-npi",
        "value": "1234567893"
      } ],
      "name": [ {
        "family": "Evil",
        "prefix": [ "Dr" ]
      } ]
    },
    "request": {
      "method": "PUT",
      "url": "Practitioner/ca220391-bacb-4d8c-8199-cb6d683f3169"
    }
  }, {
    "fullUrl": "https://madie.cms.gov/MeasureReport/203ab1fe-fd9a-496b-b2be-8c3e851104da",
    "resource": {
      "resourceType": "MeasureReport",
      "id": "203ab1fe-fd9a-496b-b2be-8c3e851104da",
      "meta": {
        "profile": [ "http://hl7.org/fhir/us/cqfmeasures/StructureDefinition/test-case-cqfm" ]
      },
      "contained": [ {
        "resourceType": "Parameters",
        "id": "65ab9363-ed33-44e6-9404-ec90b8388bfa-parameters",
        "parameter": [ {
          "name": "subject",
          "valueString": "82134291-214a-4e6e-9969-9ccb6df412f0"
        } ]
      } ],
      "extension": [ {
        "url": "http://hl7.org/fhir/StructureDefinition/cqf-inputParameters",
        "valueReference": {
          "reference": "#65ab9363-ed33-44e6-9404-ec90b8388bfa-parameters"
        }
      }, {
        "url": "http://hl7.org/fhir/us/cqfmeasures/StructureDefinition/cqfm-testCaseDescription",
        "valueMarkdown": "Adult with previous positive adult depression screening and medication request follow up and counseling"
      } ],
      "modifierExtension": [ {
        "url": "http://hl7.org/fhir/us/cqfmeasures/StructureDefinition/cqfm-isTestCase",
        "valueBoolean": true
      } ],
      "status": "complete",
      "type": "individual",
      "measure": "https://madie.cms.gov/Measure/CMS2FHIRPCSDepressionScreenAndFollowUp",
      "period": {
        "start": "2026-01-01",
        "end": "2026-12-31"
      },
      "group": [ {
        "id": "Group_1",
        "population": [ {
          "id": "InitialPopulation_1",
          "code": {
            "coding": [ {
              "system": "http://terminology.hl7.org/CodeSystem/measure-population",
              "code": "initial-population",
              "display": "Initial Population"
            } ]
          },
          "count": 1
        }, {
          "id": "Denominator_1",
          "code": {
            "coding": [ {
              "system": "http://terminology.hl7.org/CodeSystem/measure-population",
              "code": "denominator",
              "display": "Denominator"
            } ]
          },
          "count": 1
        }, {
          "id": "DenominatorExclusion_1",
          "code": {
            "coding": [ {
              "system": "http://terminology.hl7.org/CodeSystem/measure-population",
              "code": "denominator-exclusion",
              "display": "Denominator Exclusion"
            } ]
          },
          "count": 0
        }, {
          "id": "Numerator_1",
          "code": {
            "coding": [ {
              "system": "http://terminology.hl7.org/CodeSystem/measure-population",
              "code": "numerator",
              "display": "Numerator"
            } ]
          },
          "count": 1
        }, {
          "id": "DenominatorException_1",
          "code": {
            "coding": [ {
              "system": "http://terminology.hl7.org/CodeSystem/measure-population",
              "code": "denominator-exception",
              "display": "Denominator Exception"
            } ]
          },
          "count": 0
        } ],
        "measureScore": {
          "value": 1.0
        }
      } ],
      "evaluatedResource": [ {
        "reference": "Patient/82134291-214a-4e6e-9969-9ccb6df412f0"
      }, {
        "reference": "Encounter/6e381398-8666-4859-a930-d79c0fdc7a73"
      }, {
        "reference": "Observation/4b86e754-a3b6-42de-8e86-dac970528767"
      }, {
        "reference": "MedicationRequest/e7bac9f5-89a3-451b-b129-a17891403998"
      }, {
        "reference": "Procedure/6d53cad7-c2eb-4a7f-a778-3d8221378d1e"
      }, {
        "reference": "Coverage/ac3eb072-360b-4646-947e-875eb0e67871"
      }, {
        "reference": "Organization/26c00879-9dc4-4059-bc27-c0322d5befab"
      }, {
        "reference": "Practitioner/ca220391-bacb-4d8c-8199-cb6d683f3169"
      } ]
    },
    "request": {
      "method": "PUT",
      "url": "MeasureReport/203ab1fe-fd9a-496b-b2be-8c3e851104da"
    }
  } ]
}