{
    "entry": [
        {
            "request": {
                "method": "PUT",
                "url": "Patient/82134291-214a-4e6e-9969-9ccb6df412f0"
            },
            "resource": {
                "identifier": [{
                    "system": "https://bonnie-fhir.healthit.gov/",
                    "type": {"coding": [{
                        "system": "http://terminology.hl7.org/CodeSystem/v2-0203",
                        "code": "MR"
                    }]},
                    "value": "62b1d7bd3968556e5150cf2c"
                }],
                "extension": [
                    {
                        "extension": [
                            {
                                "valueCoding": {
                                    "system": "urn:oid:2.16.840.1.113883.6.238",
                                    "code": "1002-5",
                                    "userSelected": true,
                                    "display": "American Indian or Alaska Native"
                                },
                                "url": "ombCategory"
                            },
                            {
                                "valueString": "American Indian or Alaska Native",
                                "url": "text"
                            }
                        ],
                        "url": "http://hl7.org/fhir/us/core/StructureDefinition/us-core-race"
                    },
                    {
                        "extension": [
                            {
                                "valueCoding": {
                                    "system": "urn:oid:2.16.840.1.113883.6.238",
                                    "code": "2135-2",
                                    "userSelected": true,
                                    "display": "Hispanic or Latino"
                                },
                                "url": "ombCategory"
                            },
                            {
                                "valueString": "Hispanic or Latino",
                                "url": "text"
                            }
                        ],
                        "url": "http://hl7.org/fhir/us/core/StructureDefinition/us-core-ethnicity"
                    }
                ],
                "gender": "male",
                "meta": {"profile": ["http://hl7.org/fhir/us/qicore/StructureDefinition/qicore-patient"]},
                "name": [{
                    "given": ["PositiveAdultDepressionScreeningandFollowUp"],
                    "family": "NUMERPass"
                }],
                "id": "82134291-214a-4e6e-9969-9ccb6df412f0",
                "birthDate": "2008-01-01",
                "resourceType": "Patient"
            },
            "fullUrl": "https://madie.cms.gov/Patient/82134291-214a-4e6e-9969-9ccb6df412f0"
        },
        {
            "request": {
                "method": "PUT",
                "url": "Encounter/8c224480-c059-4639-863b-bf4b98fd6b9d"
            },
            "resource": {
                "period": {
                    "start": "2026-06-21T08:00:00.000+00:00",
                    "end": "2026-06-21T08:15:00.000+00:00"
                },
                "meta": {"profile": ["http://hl7.org/fhir/us/qicore/StructureDefinition/qicore-encounter"]},
                "subject": {"reference": "Patient/82134291-214a-4e6e-9969-9ccb6df412f0"},
                "id": "8c224480-c059-4639-863b-bf4b98fd6b9d",
                "type": [{"coding": [{
                    "system": "http://snomed.info/sct",
                    "code": "10197000",
                    "userSelected": true,
                    "display": "Psychiatric interview and evaluation (procedure)",
                    "version": "2021-09"
                }]}],
                "class": {
                    "system": "http://terminology.hl7.org/CodeSystem/v3-ActCode",
                    "code": "AMB",
                    "display": "ambulatory"
                },
                "resourceType": "Encounter",
                "status": "finished"
            },
            "fullUrl": "https://madie.cms.gov/Encounter/8c224480-c059-4639-863b-bf4b98fd6b9d"
        },
        {
            "request": {
                "method": "PUT",
                "url": "Observation/6f49833b-0084-4f28-9862-3e48f2f1a6a8"
            },
            "resource": {
                "valueCodeableConcept": {"coding": [{
                    "system": "http://snomed.info/sct",
                    "code": "428181000124104",
                    "userSelected": true,
                    "display": "Depression screening positive (finding)"
                }]},
                "code": {"coding": [{
                    "system": "http://loinc.org",
                    "code": "73832-8",
                    "userSelected": true,
                    "display": "Adult depression screening assessment"
                }]},
                "effectiveDateTime": "2026-06-15T08:00:00.000+00:00",
                "meta": {"profile": ["http://hl7.org/fhir/us/qicore/StructureDefinition/qicore-observation-screening-assessment"]},
                "subject": {"reference": "Patient/82134291-214a-4e6e-9969-9ccb6df412f0"},
                "id": "6f49833b-0084-4f28-9862-3e48f2f1a6a8",
                "category": [{"coding": [{
                    "system": "http://terminology.hl7.org/CodeSystem/observation-category",
                    "code": "procedure",
                    "display": "Procedure"
                }]}],
                "resourceType": "Observation",
                "status": "final"
            },
            "fullUrl": "https://madie.cms.gov/Observation/6f49833b-0084-4f28-9862-3e48f2f1a6a8"
        },
        {
            "request": {
                "method": "PUT",
                "url": "MedicationRequest/9f4ed9bd-0044-4358-add8-f59cc992a39c"
            },
            "resource": {
                "requester": {"reference": "Practitioner/Practitioner-123456"},
                "authoredOn": "2026-06-21T08:00:00.000+00:00",
                "meta": {"profile": ["http://hl7.org/fhir/us/qicore/StructureDefinition/qicore-medicationrequest"]},
                "subject": {"reference": "Patient/82134291-214a-4e6e-9969-9ccb6df412f0"},
                "id": "9f4ed9bd-0044-4358-add8-f59cc992a39c",
                "doNotPerform": false,
                "medicationCodeableConcept": {"coding": [{
                    "system": "http://www.nlm.nih.gov/research/umls/rxnorm",
                    "code": "1000048",
                    "userSelected": true,
                    "display": "doxepin hydrochloride 10 MG Oral Capsule"
                }]},
                "intent": "order",
                "resourceType": "MedicationRequest",
                "status": "active"
            },
            "fullUrl": "https://madie.cms.gov/MedicationRequest/9f4ed9bd-0044-4358-add8-f59cc992a39c"
        },
        {
            "request": {
                "method": "PUT",
                "url": "Procedure/704feae7-3ff2-4dd3-a23d-9497d0d800ea"
            },
            "resource": {
                "extension": [{
                    "valueDateTime": "2026-06-21T08:00:00.000+00:00",
                    "url": "http://hl7.org/fhir/us/qicore/StructureDefinition/qicore-recorded"
                }],
                "code": {"coding": [{
                    "system": "http://snomed.info/sct",
                    "code": "108313002",
                    "userSelected": true,
                    "display": "Family psychotherapy procedure (regime/therapy)",
                    "version": "2021-09"
                }]},
                "meta": {"profile": ["http://hl7.org/fhir/us/qicore/StructureDefinition/qicore-procedure"]},
                "subject": {"reference": "Patient/82134291-214a-4e6e-9969-9ccb6df412f0"},
                "id": "704feae7-3ff2-4dd3-a23d-9497d0d800ea",
                "performedDateTime": "2026-06-21T08:00:00.000+00:00",
                "resourceType": "Procedure",
                "status": "completed"
            },
            "fullUrl": "https://madie.cms.gov/Procedure/704feae7-3ff2-4dd3-a23d-9497d0d800ea"
        },
        {
            "request": {
                "method": "PUT",
                "url": "Coverage/4c2a0536-4290-4b7c-bcd2-37c745148e9d"
            },
            "resource": {
                "payor": [{"reference": "Organization/0209decf-8402-416d-8328-13d940136ebd"}],
                "beneficiary": {"reference": "Patient/82134291-214a-4e6e-9969-9ccb6df412f0"},
                "meta": {"profile": ["http://hl7.org/fhir/us/qicore/StructureDefinition/qicore-coverage"]},
                "id": "4c2a0536-4290-4b7c-bcd2-37c745148e9d",
                "resourceType": "Coverage",
                "status": "active"
            },
            "fullUrl": "https://madie.cms.gov/Coverage/4c2a0536-4290-4b7c-bcd2-37c745148e9d"
        },
        {
            "request": {
                "method": "PUT",
                "url": "Organization/0209decf-8402-416d-8328-13d940136ebd"
            },
            "resource": {
                "identifier": [{
                    "system": "urn:oid:2.16.840.1.113883.4.4",
                    "use": "temp",
                    "value": "21-3259825"
                }],
                "address": [{
                    "country": "USA",
                    "city": "Dallas",
                    "use": "billing",
                    "line": ["P.O. Box 660044"],
                    "postalCode": "75266-0044",
                    "state": "TX",
                    "type": "postal"
                }],
                "meta": {"profile": ["http://hl7.org/fhir/us/qicore/StructureDefinition/qicore-organization"]},
                "name": "Blue Cross Blue Shield of Texas",
                "active": true,
                "telecom": [{
                    "system": "phone",
                    "value": "(+1) 972-766-6900"
                }],
                "id": "0209decf-8402-416d-8328-13d940136ebd",
                "type": [{"coding": [{
                    "system": "http://terminology.hl7.org/CodeSystem/organization-type",
                    "code": "pay",
                    "display": "Payer"
                }]}],
                "resourceType": "Organization"
            },
            "fullUrl": "https://madie.cms.gov/Organization/0209decf-8402-416d-8328-13d940136ebd"
        },
        {
            "request": {
                "method": "PUT",
                "url": "Practitioner/b0c377b8-e770-4643-a0bb-ed2861cfc480"
            },
            "resource": {
                "identifier": [{
                    "system": "http://hl7.org/fhir/sid/us-npi",
                    "value": "123456"
                }],
                "meta": {"profile": ["http://hl7.org/fhir/us/qicore/StructureDefinition/qicore-practitioner"]},
                "name": [{
                    "prefix": ["Dr"],
                    "family": "Evil"
                }],
                "id": "b0c377b8-e770-4643-a0bb-ed2861cfc480",
                "resourceType": "Practitioner"
            },
            "fullUrl": "https://madie.cms.gov/Practitioner/b0c377b8-e770-4643-a0bb-ed2861cfc480"
        },
        {
            "request": {
                "method": "PUT",
                "url": "MeasureReport/88429b00-d70e-4da6-ada2-cd32140e16c1"
            },
            "resource": {
                "contained": [{
                    "parameter": [{
                        "valueString": "82134291-214a-4e6e-9969-9ccb6df412f0",
                        "name": "subject"
                    }],
                    "id": "aefe2c3b-c38a-458d-9dc7-9ccf1ccee515-parameters",
                    "resourceType": "Parameters"
                }],
                "extension": [
                    {
                        "valueReference": {"reference": "#aefe2c3b-c38a-458d-9dc7-9ccf1ccee515-parameters"},
                        "url": "http://hl7.org/fhir/StructureDefinition/cqf-inputParameters"
                    },
                    {
                        "valueMarkdown": "Adult with previous positive adult depression screening and medication request follow up and counseling",
                        "url": "http://hl7.org/fhir/us/cqfmeasures/StructureDefinition/cqfm-testCaseDescription"
                    }
                ],
                "period": {
                    "start": "2026-01-01",
                    "end": "2026-12-31"
                },
                "measure": "https://madie.cms.gov/Measure/CMS2FHIRPCSDepressionScreenAndFollowUp",
                "meta": {"profile": ["http://hl7.org/fhir/us/cqfmeasures/StructureDefinition/test-case-cqfm"]},
                "modifierExtension": [{
                    "valueBoolean": true,
                    "url": "http://hl7.org/fhir/us/cqfmeasures/StructureDefinition/cqfm-isTestCase"
                }],
                "id": "88429b00-d70e-4da6-ada2-cd32140e16c1",
                "evaluatedResource": [
                    {"reference": "Patient/82134291-214a-4e6e-9969-9ccb6df412f0"},
                    {"reference": "Encounter/8c224480-c059-4639-863b-bf4b98fd6b9d"},
                    {"reference": "Observation/6f49833b-0084-4f28-9862-3e48f2f1a6a8"},
                    {"reference": "MedicationRequest/9f4ed9bd-0044-4358-add8-f59cc992a39c"},
                    {"reference": "Procedure/704feae7-3ff2-4dd3-a23d-9497d0d800ea"},
                    {"reference": "Coverage/4c2a0536-4290-4b7c-bcd2-37c745148e9d"},
                    {"reference": "Organization/0209decf-8402-416d-8328-13d940136ebd"},
                    {"reference": "Practitioner/b0c377b8-e770-4643-a0bb-ed2861cfc480"}
                ],
                "type": "individual",
                "resourceType": "MeasureReport",
                "status": "complete",
                "group": [{
                    "id": "Group_1",
                    "measureScore": {"value": 1},
                    "population": [
                        {
                            "code": {"coding": [{
                                "system": "http://terminology.hl7.org/CodeSystem/measure-population",
                                "code": "initial-population",
                                "display": "Initial Population"
                            }]},
                            "count": 1,
                            "id": "InitialPopulation_1"
                        },
                        {
                            "code": {"coding": [{
                                "system": "http://terminology.hl7.org/CodeSystem/measure-population",
                                "code": "denominator",
                                "display": "Denominator"
                            }]},
                            "count": 1,
                            "id": "Denominator_1"
                        },
                        {
                            "code": {"coding": [{
                                "system": "http://terminology.hl7.org/CodeSystem/measure-population",
                                "code": "denominator-exclusion",
                                "display": "Denominator Exclusion"
                            }]},
                            "count": 0,
                            "id": "DenominatorExclusion_1"
                        },
                        {
                            "code": {"coding": [{
                                "system": "http://terminology.hl7.org/CodeSystem/measure-population",
                                "code": "numerator",
                                "display": "Numerator"
                            }]},
                            "count": 1,
                            "id": "Numerator_1"
                        },
                        {
                            "code": {"coding": [{
                                "system": "http://terminology.hl7.org/CodeSystem/measure-population",
                                "code": "denominator-exception",
                                "display": "Denominator Exception"
                            }]},
                            "count": 0,
                            "id": "DenominatorException_1"
                        }
                    ]
                }]
            },
            "fullUrl": "https://madie.cms.gov/MeasureReport/88429b00-d70e-4da6-ada2-cd32140e16c1"
        }
    ],
    "id": "62b1d7bd3968556e5150cf2c",
    "type": "transaction",
    "resourceType": "Bundle"
}