{"resourceType":"Bundle","id":"tests-c6294470-5758-4b64-bde1-3b796c5caa43-bundle","type":"transaction","entry":[{"resource":{"resourceType":"Bundle","id":"DENEXPass-DeathSameDayAsTHAProcNov1","type":"transaction","entry":[{"fullUrl":"https://madie.cms.gov/Patient/c6294470-5758-4b64-bde1-3b796c5caa43","resource":{"resourceType":"Patient","id":"c6294470-5758-4b64-bde1-3b796c5caa43","meta":{"profile":["http://hl7.org/fhir/us/qicore/StructureDefinition/qicore-patient"]},"extension":[{"url":"http://hl7.org/fhir/us/core/StructureDefinition/us-core-race","extension":[{"url":"ombCategory","valueCoding":{"system":"urn:oid:2.16.840.1.113883.6.238","code":"2028-9","display":"Asian"}},{"url":"text","valueString":"Asian"}]},{"url":"http://hl7.org/fhir/us/core/StructureDefinition/us-core-ethnicity","extension":[{"url":"ombCategory","valueCoding":{"system":"urn:oid:2.16.840.1.113883.6.238","code":"2135-2","display":"Hispanic or Latino"}},{"url":"text","valueString":"Hispanic or Latino"}]}],"identifier":[{"system":"http://hospital.smarthealthit.org","value":"999999995"}],"name":[{"family":"Bertha","given":["Betty"]}],"gender":"female","birthDate":"2007-01-01","deceasedDateTime":"2024-11-01T11:59:59.000Z"},"request":{"method":"PUT","url":"Patient/c6294470-5758-4b64-bde1-3b796c5caa43"}},{"fullUrl":"https://madie.cms.gov/Procedure/56d3463d-1dfc-4a98-bd1f-7733b8cef6ae","resource":{"resourceType":"Procedure","id":"56d3463d-1dfc-4a98-bd1f-7733b8cef6ae","meta":{"profile":["http://hl7.org/fhir/us/qicore/StructureDefinition/qicore-procedure"]},"extension":[{"url":"http://hl7.org/fhir/us/qicore/StructureDefinition/qicore-recorded","valueDateTime":"2024-11-01T00:00:00.000Z"}],"status":"completed","code":{"coding":[{"system":"http://www.cms.gov/Medicare/Coding/ICD10","code":"0SR9019","display":"Replacement of Right Hip Joint with Metal Synthetic Substitute, Cemented, Open Approach"}]},"subject":{"reference":"Patient/c6294470-5758-4b64-bde1-3b796c5caa43"},"performedPeriod":{"start":"2024-11-01T00:00:00.000Z","end":"2024-11-01T01:00:00.000Z"}},"request":{"method":"PUT","url":"Procedure/56d3463d-1dfc-4a98-bd1f-7733b8cef6ae"}},{"fullUrl":"https://madie.cms.gov/Encounter/71792b5c-8066-4ee8-ac28-16f7925ef1d1","resource":{"resourceType":"Encounter","id":"71792b5c-8066-4ee8-ac28-16f7925ef1d1","meta":{"profile":["http://hl7.org/fhir/us/qicore/StructureDefinition/qicore-encounter"]},"status":"finished","class":{"system":"http://terminology.hl7.org/CodeSystem/v3-ActCode","code":"AMB","display":"ambulatory"},"type":[{"coding":[{"system":"http://snomed.info/sct","code":"281036007","display":"Follow-up consultation (procedure)"}]}],"subject":{"reference":"Patient/c6294470-5758-4b64-bde1-3b796c5caa43"},"period":{"start":"2025-11-01T00:00:00.000Z","end":"2025-11-01T01:15:00.000Z"}},"request":{"method":"PUT","url":"Encounter/71792b5c-8066-4ee8-ac28-16f7925ef1d1"}},{"fullUrl":"https://madie.cms.gov/MeasureReport/24babcf9-a165-4b3f-bbf1-5e3eed091445","resource":{"resourceType":"MeasureReport","id":"24babcf9-a165-4b3f-bbf1-5e3eed091445","meta":{"profile":["http://hl7.org/fhir/us/cqfmeasures/StructureDefinition/test-case-cqfm"]},"contained":[{"resourceType":"Parameters","id":"9d429dfe-b4ff-4442-b539-4e1cd6aa0721-parameters","parameter":[{"name":"subject","valueString":"c6294470-5758-4b64-bde1-3b796c5caa43"}]}],"extension":[{"url":"http://hl7.org/fhir/StructureDefinition/cqf-inputParameters","valueReference":{"reference":"#9d429dfe-b4ff-4442-b539-4e1cd6aa0721-parameters"}},{"url":"http://hl7.org/fhir/us/cqfmeasures/StructureDefinition/cqfm-testCaseDescription","valueMarkdown":"Patient deceased same day as THAProcedure on 11/01."}],"modifierExtension":[{"url":"http://hl7.org/fhir/us/cqfmeasures/StructureDefinition/cqfm-isTestCase","valueBoolean":true}],"status":"complete","type":"individual","measure":"https://madie.cms.gov/Measure/CMS56FHIRFunctionalStatusAssessmentforTotalHipReplacement","period":{"start":"2026-01-01","end":"2026-12-31"},"group":[{"id":"Group_1","population":[{"id":"InitialPopulation_1","code":{"coding":[{"system":"http://terminology.hl7.org/CodeSystem/measure-population","code":"initial-population","display":"Initial Population"}]},"count":1},{"id":"Denominator_1","code":{"coding":[{"system":"http://terminology.hl7.org/CodeSystem/measure-population","code":"denominator","display":"Denominator"}]},"count":1},{"id":"DenominatorExclusion_1","code":{"coding":[{"system":"http://terminology.hl7.org/CodeSystem/measure-population","code":"denominator-exclusion","display":"Denominator Exclusion"}]},"count":1},{"id":"Numerator_1","code":{"coding":[{"system":"http://terminology.hl7.org/CodeSystem/measure-population","code":"numerator","display":"Numerator"}]},"count":0}],"measureScore":{"value":1.0}}],"evaluatedResource":[{"reference":"Patient/c6294470-5758-4b64-bde1-3b796c5caa43"},{"reference":"Procedure/56d3463d-1dfc-4a98-bd1f-7733b8cef6ae"},{"reference":"Encounter/71792b5c-8066-4ee8-ac28-16f7925ef1d1"}]},"request":{"method":"PUT","url":"MeasureReport/24babcf9-a165-4b3f-bbf1-5e3eed091445"}}]},"request":{"method":"PUT","url":"Bundle/DENEXPass-DeathSameDayAsTHAProcNov1"}},{"resource":{"resourceType":"Encounter","id":"71792b5c-8066-4ee8-ac28-16f7925ef1d1","meta":{"profile":["http://hl7.org/fhir/us/qicore/StructureDefinition/qicore-encounter"]},"status":"finished","class":{"system":"http://terminology.hl7.org/CodeSystem/v3-ActCode","code":"AMB","display":"ambulatory"},"type":[{"coding":[{"system":"http://snomed.info/sct","code":"281036007","display":"Follow-up consultation (procedure)"}]}],"subject":{"reference":"Patient/c6294470-5758-4b64-bde1-3b796c5caa43"},"period":{"start":"2025-11-01T00:00:00.000Z","end":"2025-11-01T01:15:00.000Z"}},"request":{"method":"PUT","url":"Encounter/71792b5c-8066-4ee8-ac28-16f7925ef1d1"}},{"resource":{"resourceType":"MeasureReport","id":"24babcf9-a165-4b3f-bbf1-5e3eed091445","meta":{"profile":["http://hl7.org/fhir/us/cqfmeasures/StructureDefinition/test-case-cqfm"]},"contained":[{"resourceType":"Parameters","id":"9d429dfe-b4ff-4442-b539-4e1cd6aa0721-parameters","parameter":[{"name":"subject","valueString":"c6294470-5758-4b64-bde1-3b796c5caa43"}]}],"extension":[{"url":"http://hl7.org/fhir/StructureDefinition/cqf-inputParameters","valueReference":{"reference":"#9d429dfe-b4ff-4442-b539-4e1cd6aa0721-parameters"}},{"url":"http://hl7.org/fhir/us/cqfmeasures/StructureDefinition/cqfm-testCaseDescription","valueMarkdown":"Patient deceased same day as THAProcedure on 11/01."}],"modifierExtension":[{"url":"http://hl7.org/fhir/us/cqfmeasures/StructureDefinition/cqfm-isTestCase","valueBoolean":true}],"status":"complete","type":"individual","measure":"https://madie.cms.gov/Measure/CMS56FHIRFunctionalStatusAssessmentforTotalHipReplacement","period":{"start":"2026-01-01","end":"2026-12-31"},"group":[{"id":"Group_1","population":[{"id":"InitialPopulation_1","code":{"coding":[{"system":"http://terminology.hl7.org/CodeSystem/measure-population","code":"initial-population","display":"Initial Population"}]},"count":1},{"id":"Denominator_1","code":{"coding":[{"system":"http://terminology.hl7.org/CodeSystem/measure-population","code":"denominator","display":"Denominator"}]},"count":1},{"id":"DenominatorExclusion_1","code":{"coding":[{"system":"http://terminology.hl7.org/CodeSystem/measure-population","code":"denominator-exclusion","display":"Denominator Exclusion"}]},"count":1},{"id":"Numerator_1","code":{"coding":[{"system":"http://terminology.hl7.org/CodeSystem/measure-population","code":"numerator","display":"Numerator"}]},"count":0}],"measureScore":{"value":1.0}}],"evaluatedResource":[{"reference":"Patient/c6294470-5758-4b64-bde1-3b796c5caa43"},{"reference":"Procedure/56d3463d-1dfc-4a98-bd1f-7733b8cef6ae"},{"reference":"Encounter/71792b5c-8066-4ee8-ac28-16f7925ef1d1"}]},"request":{"method":"PUT","url":"MeasureReport/24babcf9-a165-4b3f-bbf1-5e3eed091445"}},{"resource":{"resourceType":"Patient","id":"c6294470-5758-4b64-bde1-3b796c5caa43","meta":{"profile":["http://hl7.org/fhir/us/qicore/StructureDefinition/qicore-patient"]},"extension":[{"url":"http://hl7.org/fhir/us/core/StructureDefinition/us-core-race","extension":[{"url":"ombCategory","valueCoding":{"system":"urn:oid:2.16.840.1.113883.6.238","code":"2028-9","display":"Asian"}},{"url":"text","valueString":"Asian"}]},{"url":"http://hl7.org/fhir/us/core/StructureDefinition/us-core-ethnicity","extension":[{"url":"ombCategory","valueCoding":{"system":"urn:oid:2.16.840.1.113883.6.238","code":"2135-2","display":"Hispanic or Latino"}},{"url":"text","valueString":"Hispanic or Latino"}]}],"identifier":[{"system":"http://hospital.smarthealthit.org","value":"999999995"}],"name":[{"family":"Bertha","given":["Betty"]}],"gender":"female","birthDate":"2007-01-01","deceasedDateTime":"2024-11-01T11:59:59.000Z"},"request":{"method":"PUT","url":"Patient/c6294470-5758-4b64-bde1-3b796c5caa43"}},{"resource":{"resourceType":"Procedure","id":"56d3463d-1dfc-4a98-bd1f-7733b8cef6ae","meta":{"profile":["http://hl7.org/fhir/us/qicore/StructureDefinition/qicore-procedure"]},"extension":[{"url":"http://hl7.org/fhir/us/qicore/StructureDefinition/qicore-recorded","valueDateTime":"2024-11-01T00:00:00.000Z"}],"status":"completed","code":{"coding":[{"system":"http://www.cms.gov/Medicare/Coding/ICD10","code":"0SR9019","display":"Replacement of Right Hip Joint with Metal Synthetic Substitute, Cemented, Open Approach"}]},"subject":{"reference":"Patient/c6294470-5758-4b64-bde1-3b796c5caa43"},"performedPeriod":{"start":"2024-11-01T00:00:00.000Z","end":"2024-11-01T01:00:00.000Z"}},"request":{"method":"PUT","url":"Procedure/56d3463d-1dfc-4a98-bd1f-7733b8cef6ae"}}]}