{
  "resourceType": "Bundle",
  "id": "633b3f9e0968f80122503cd6",
  "type": "transaction",
  "entry": [ {
    "fullUrl": "https://madie.cms.gov/Patient/9bd6f62a-8e96-441f-b3a4-d189a58589ae",
    "resource": {
      "resourceType": "Patient",
      "id": "9bd6f62a-8e96-441f-b3a4-d189a58589ae",
      "meta": {
        "profile": [ "http://hl7.org/fhir/us/qicore/StructureDefinition/qicore-patient" ]
      },
      "text": {
        "status": "generated",
        "div": "<div xmlns=\"http://www.w3.org/1999/xhtml\"><div class=\"hapiHeaderText\">LastAssPrfEstDELRelvTm24Hr01MinB4DELRsltDtTime<b>DENOMPASS</b></div><table class=\"hapiPropertyTable\"><tbody><tr><td>Date of birth</td><td><span>01 February 2004</span></td></tr></tbody></table></div>"
      },
      "extension": [ {
        "url": "http://hl7.org/fhir/us/core/StructureDefinition/us-core-race",
        "extension": [ {
          "url": "ombCategory",
          "valueCoding": {
            "system": "urn:oid:2.16.840.1.113883.6.238",
            "code": "1002-5",
            "display": "American Indian or Alaska Native",
            "userSelected": true
          }
        }, {
          "url": "text",
          "valueString": "American Indian or Alaska Native"
        } ]
      }, {
        "url": "http://hl7.org/fhir/us/core/StructureDefinition/us-core-ethnicity",
        "extension": [ {
          "url": "ombCategory",
          "valueCoding": {
            "system": "urn:oid:2.16.840.1.113883.6.238",
            "code": "2135-2",
            "display": "Hispanic or Latino",
            "userSelected": true
          }
        }, {
          "url": "text",
          "valueString": "Hispanic or Latino"
        } ]
      } ],
      "identifier": [ {
        "type": {
          "coding": [ {
            "system": "http://terminology.hl7.org/CodeSystem/v2-0203",
            "code": "MR"
          } ]
        },
        "system": "https://bonnie-fhir.healthit.gov/",
        "value": "633b3f9e0968f80122503cd6"
      } ],
      "active": true,
      "name": [ {
        "use": "usual",
        "family": "DENOMPass",
        "given": [ "LastAssPrfEstDELRelvTm24Hr01MinB4DELRsltDtTime" ]
      } ],
      "gender": "female",
      "birthDate": "2005-02-01"
    },
    "request": {
      "method": "PUT",
      "url": "Patient/9bd6f62a-8e96-441f-b3a4-d189a58589ae"
    }
  }, {
    "fullUrl": "https://madie.cms.gov/Observation/b92e4df6-1bb3-43d9-84ff-a5631f43ab52",
    "resource": {
      "resourceType": "Observation",
      "id": "b92e4df6-1bb3-43d9-84ff-a5631f43ab52",
      "meta": {
        "profile": [ "http://hl7.org/fhir/us/qicore/StructureDefinition/qicore-simple-observation" ]
      },
      "status": "final",
      "category": [ {
        "coding": [ {
          "system": "http://terminology.hl7.org/CodeSystem/observation-category",
          "code": "exam",
          "display": "exam",
          "userSelected": true
        } ]
      } ],
      "code": {
        "coding": [ {
          "system": "http://loinc.org",
          "code": "93857-1"
        } ]
      },
      "subject": {
        "reference": "Patient/9bd6f62a-8e96-441f-b3a4-d189a58589ae"
      },
      "effectiveDateTime": "2026-02-01T08:00:00Z",
      "performer": [ {
        "reference": "Organization/example1",
        "display": "Hendricks Country Hospital"
      } ],
      "valueDateTime": "2026-02-01T08:00:00.000+00:00"
    },
    "request": {
      "method": "PUT",
      "url": "Observation/b92e4df6-1bb3-43d9-84ff-a5631f43ab52"
    }
  }, {
    "fullUrl": "https://madie.cms.gov/Observation/c6c2c7ea-34f4-4739-97a4-48ccc5c807b5",
    "resource": {
      "resourceType": "Observation",
      "id": "c6c2c7ea-34f4-4739-97a4-48ccc5c807b5",
      "meta": {
        "profile": [ "http://hl7.org/fhir/us/qicore/StructureDefinition/qicore-simple-observation" ]
      },
      "status": "final",
      "category": [ {
        "coding": [ {
          "system": "http://terminology.hl7.org/CodeSystem/observation-category",
          "code": "exam",
          "display": "exam",
          "userSelected": true
        } ]
      } ],
      "code": {
        "coding": [ {
          "system": "http://loinc.org",
          "code": "11778-8"
        } ]
      },
      "subject": {
        "reference": "Patient/9bd6f62a-8e96-441f-b3a4-d189a58589ae"
      },
      "effectiveDateTime": "2026-01-31T07:59:00Z",
      "performer": [ {
        "reference": "Organization/example1",
        "display": "Hendricks Country Hospital"
      } ],
      "valueDateTime": "2026-02-01T08:00:00.000+00:00"
    },
    "request": {
      "method": "PUT",
      "url": "Observation/c6c2c7ea-34f4-4739-97a4-48ccc5c807b5"
    }
  }, {
    "fullUrl": "https://madie.cms.gov/Encounter/0587843f-eef9-440f-aeff-7e265cb1df4c",
    "resource": {
      "resourceType": "Encounter",
      "id": "0587843f-eef9-440f-aeff-7e265cb1df4c",
      "meta": {
        "profile": [ "http://hl7.org/fhir/us/qicore/StructureDefinition/qicore-encounter" ]
      },
      "status": "finished",
      "class": {
        "system": "http://terminology.hl7.org/CodeSystem/v3-ActCode",
        "code": "IMP",
        "display": "inpatient encounter"
      },
      "type": [ {
        "coding": [ {
          "system": "http://snomed.info/sct",
          "code": "183452005"
        } ]
      } ],
      "subject": {
        "reference": "Patient/9bd6f62a-8e96-441f-b3a4-d189a58589ae"
      },
      "period": {
        "start": "2026-02-01T08:00:00Z",
        "end": "2026-02-05T08:15:00.000+00:00"
      }
    },
    "request": {
      "method": "PUT",
      "url": "Encounter/0587843f-eef9-440f-aeff-7e265cb1df4c"
    }
  }, {
    "fullUrl": "https://madie.cms.gov/Procedure/018ea33d-b6f6-42ea-9e29-5ed155b784cb",
    "resource": {
      "resourceType": "Procedure",
      "id": "018ea33d-b6f6-42ea-9e29-5ed155b784cb",
      "meta": {
        "profile": [ "http://hl7.org/fhir/us/qicore/StructureDefinition/qicore-procedure" ]
      },
      "extension": [ {
        "url": "http://hl7.org/fhir/us/qicore/StructureDefinition/qicore-recorded",
        "valueDateTime": "2014-04-05T13:35:00Z"
      } ],
      "status": "completed",
      "code": {
        "coding": [ {
          "system": "http://snomed.info/sct",
          "code": "10745001"
        } ]
      },
      "subject": {
        "reference": "Patient/9bd6f62a-8e96-441f-b3a4-d189a58589ae"
      },
      "performedPeriod": {
        "start": "2026-02-01T08:00:00Z",
        "end": "2026-02-05T08:15:00.000+00:00"
      }
    },
    "request": {
      "method": "PUT",
      "url": "Procedure/018ea33d-b6f6-42ea-9e29-5ed155b784cb"
    }
  }, {
    "fullUrl": "https://madie.cms.gov/Coverage/48c01368-8489-4459-b85f-0eb2416418a8",
    "resource": {
      "resourceType": "Coverage",
      "id": "48c01368-8489-4459-b85f-0eb2416418a8",
      "meta": {
        "profile": [ "http://hl7.org/fhir/us/qicore/StructureDefinition/qicore-coverage" ]
      },
      "status": "active",
      "subscriberId": "523435",
      "beneficiary": {
        "reference": "Patient/9bd6f62a-8e96-441f-b3a4-d189a58589ae"
      },
      "relationship": {
        "coding": [ {
          "system": "http://terminology.hl7.org/CodeSystem/subscriber-relationship",
          "code": "self"
        } ]
      },
      "payor": [ {
        "reference": "Organization/b15fd52c-1903-4085-9a42-7ef7adf804f2"
      } ]
    },
    "request": {
      "method": "PUT",
      "url": "Coverage/48c01368-8489-4459-b85f-0eb2416418a8"
    }
  }, {
    "fullUrl": "https://madie.cms.gov/Organization/b15fd52c-1903-4085-9a42-7ef7adf804f2",
    "resource": {
      "resourceType": "Organization",
      "id": "b15fd52c-1903-4085-9a42-7ef7adf804f2",
      "meta": {
        "profile": [ "http://hl7.org/fhir/us/qicore/StructureDefinition/qicore-organization" ]
      },
      "identifier": [ {
        "use": "temp",
        "system": "urn:oid:2.16.840.1.113883.4.4",
        "value": "21-3259825"
      } ],
      "active": true,
      "type": [ {
        "coding": [ {
          "system": "http://terminology.hl7.org/CodeSystem/organization-type",
          "code": "pay",
          "display": "Payer"
        } ]
      } ],
      "name": "Blue Cross Blue Shield of Texas",
      "telecom": [ {
        "system": "phone",
        "value": "(+1) 972-766-6900"
      } ],
      "address": [ {
        "use": "billing",
        "type": "postal",
        "line": [ "P.O. Box 660044" ],
        "city": "Dallas",
        "state": "TX",
        "postalCode": "75266-0044",
        "country": "USA"
      } ]
    },
    "request": {
      "method": "PUT",
      "url": "Organization/b15fd52c-1903-4085-9a42-7ef7adf804f2"
    }
  }, {
    "fullUrl": "https://madie.cms.gov/Practitioner/320bebf4-5136-4d85-bde6-249e563de6a1",
    "resource": {
      "resourceType": "Practitioner",
      "id": "320bebf4-5136-4d85-bde6-249e563de6a1",
      "meta": {
        "profile": [ "http://hl7.org/fhir/us/qicore/StructureDefinition/qicore-practitioner" ]
      },
      "identifier": [ {
        "system": "http://hl7.org/fhir/sid/us-npi",
        "value": "1234567890"
      } ],
      "name": [ {
        "family": "Evil",
        "prefix": [ "Dr" ]
      } ]
    },
    "request": {
      "method": "PUT",
      "url": "Practitioner/320bebf4-5136-4d85-bde6-249e563de6a1"
    }
  }, {
    "fullUrl": "https://madie.cms.gov/MeasureReport/59653a00-677d-41d7-bfc7-99765cebe9d3",
    "resource": {
      "resourceType": "MeasureReport",
      "id": "59653a00-677d-41d7-bfc7-99765cebe9d3",
      "meta": {
        "profile": [ "http://hl7.org/fhir/us/cqfmeasures/StructureDefinition/test-case-cqfm" ]
      },
      "contained": [ {
        "resourceType": "Parameters",
        "id": "65b8c743-0ec4-4f4b-99fd-5354812f7783-parameters",
        "parameter": [ {
          "name": "subject",
          "valueString": "9bd6f62a-8e96-441f-b3a4-d189a58589ae"
        } ]
      } ],
      "extension": [ {
        "url": "http://hl7.org/fhir/StructureDefinition/cqf-inputParameters",
        "valueReference": {
          "reference": "#65b8c743-0ec4-4f4b-99fd-5354812f7783-parameters"
        }
      }, {
        "url": "http://hl7.org/fhir/us/cqfmeasures/StructureDefinition/cqfm-testCaseDescription",
        "valueMarkdown": "Last assessment Performed, Estimated Delivery Date, Relevant time, 24 hours 1 min before Delivery Result Date/Time.  \n"
      } ],
      "modifierExtension": [ {
        "url": "http://hl7.org/fhir/us/cqfmeasures/StructureDefinition/cqfm-isTestCase",
        "valueBoolean": true
      } ],
      "status": "complete",
      "type": "individual",
      "measure": "https://madie.cms.gov/Measure/CMS1028FHIRPCSevereOBComps",
      "period": {
        "start": "2026-01-01",
        "end": "2026-12-31"
      },
      "group": [ {
        "id": "Group_1",
        "population": [ {
          "id": "InitialPopulation_1",
          "code": {
            "coding": [ {
              "system": "http://terminology.hl7.org/CodeSystem/measure-population",
              "code": "initial-population",
              "display": "Initial Population"
            } ]
          },
          "count": 1
        }, {
          "id": "Denominator_1",
          "code": {
            "coding": [ {
              "system": "http://terminology.hl7.org/CodeSystem/measure-population",
              "code": "denominator",
              "display": "Denominator"
            } ]
          },
          "count": 1
        }, {
          "id": "Numerator_1",
          "code": {
            "coding": [ {
              "system": "http://terminology.hl7.org/CodeSystem/measure-population",
              "code": "numerator",
              "display": "Numerator"
            } ]
          },
          "count": 0
        }, {
          "id": "NumeratorExclusion_1",
          "code": {
            "coding": [ {
              "system": "http://terminology.hl7.org/CodeSystem/measure-population",
              "code": "numerator-exclusion",
              "display": "Numerator Exclusion"
            } ]
          },
          "count": 0
        } ],
        "measureScore": {
          "value": 0.0
        }
      }, {
        "id": "Group_2",
        "population": [ {
          "id": "InitialPopulation_2",
          "code": {
            "coding": [ {
              "system": "http://terminology.hl7.org/CodeSystem/measure-population",
              "code": "initial-population",
              "display": "Initial Population"
            } ]
          },
          "count": 1
        }, {
          "id": "Denominator_2",
          "code": {
            "coding": [ {
              "system": "http://terminology.hl7.org/CodeSystem/measure-population",
              "code": "denominator",
              "display": "Denominator"
            } ]
          },
          "count": 1
        }, {
          "id": "Numerator_2",
          "code": {
            "coding": [ {
              "system": "http://terminology.hl7.org/CodeSystem/measure-population",
              "code": "numerator",
              "display": "Numerator"
            } ]
          },
          "count": 0
        }, {
          "id": "NumeratorExclusion_2",
          "code": {
            "coding": [ {
              "system": "http://terminology.hl7.org/CodeSystem/measure-population",
              "code": "numerator-exclusion",
              "display": "Numerator Exclusion"
            } ]
          },
          "count": 0
        } ],
        "measureScore": {
          "value": 0.0
        }
      } ],
      "evaluatedResource": [ {
        "reference": "Patient/9bd6f62a-8e96-441f-b3a4-d189a58589ae"
      }, {
        "reference": "Observation/b92e4df6-1bb3-43d9-84ff-a5631f43ab52"
      }, {
        "reference": "Observation/c6c2c7ea-34f4-4739-97a4-48ccc5c807b5"
      }, {
        "reference": "Encounter/0587843f-eef9-440f-aeff-7e265cb1df4c"
      }, {
        "reference": "Procedure/018ea33d-b6f6-42ea-9e29-5ed155b784cb"
      }, {
        "reference": "Coverage/48c01368-8489-4459-b85f-0eb2416418a8"
      }, {
        "reference": "Organization/b15fd52c-1903-4085-9a42-7ef7adf804f2"
      }, {
        "reference": "Practitioner/320bebf4-5136-4d85-bde6-249e563de6a1"
      } ]
    },
    "request": {
      "method": "PUT",
      "url": "MeasureReport/59653a00-677d-41d7-bfc7-99765cebe9d3"
    }
  } ]
}