{
  "resourceType": "Bundle",
  "id": "633b3f9f0968f80122503cdc",
  "type": "transaction",
  "entry": [ {
    "fullUrl": "https://madie.cms.gov/Patient/8abe1112-e249-430d-b1a8-a230f2c2262c",
    "resource": {
      "resourceType": "Patient",
      "id": "8abe1112-e249-430d-b1a8-a230f2c2262c",
      "meta": {
        "profile": [ "http://hl7.org/fhir/us/qicore/StructureDefinition/qicore-patient" ]
      },
      "text": {
        "status": "generated",
        "div": "<div xmlns=\"http://www.w3.org/1999/xhtml\"><div class=\"hapiHeaderText\">EGARelvTm24Hr01MinB4LastTmDELRsltDtTime<b>DENOMFAIL</b></div><table class=\"hapiPropertyTable\"><tbody><tr><td>Date of birth</td><td><span>01 February 2004</span></td></tr></tbody></table></div>"
      },
      "extension": [ {
        "url": "http://hl7.org/fhir/us/core/StructureDefinition/us-core-race",
        "extension": [ {
          "url": "ombCategory",
          "valueCoding": {
            "system": "urn:oid:2.16.840.1.113883.6.238",
            "code": "1002-5",
            "display": "American Indian or Alaska Native",
            "userSelected": true
          }
        }, {
          "url": "text",
          "valueString": "American Indian or Alaska Native"
        } ]
      }, {
        "url": "http://hl7.org/fhir/us/core/StructureDefinition/us-core-ethnicity",
        "extension": [ {
          "url": "ombCategory",
          "valueCoding": {
            "system": "urn:oid:2.16.840.1.113883.6.238",
            "code": "2135-2",
            "display": "Hispanic or Latino",
            "userSelected": true
          }
        }, {
          "url": "text",
          "valueString": "Hispanic or Latino"
        } ]
      } ],
      "identifier": [ {
        "type": {
          "coding": [ {
            "system": "http://terminology.hl7.org/CodeSystem/v2-0203",
            "code": "MR"
          } ]
        },
        "system": "https://bonnie-fhir.healthit.gov/",
        "value": "633b3f9f0968f80122503cdc"
      } ],
      "active": true,
      "name": [ {
        "use": "usual",
        "family": "DENOMFail",
        "given": [ "EGARelvTm24Hr01MinB4LastTmDELRsltDtTime" ]
      } ],
      "gender": "female",
      "birthDate": "2005-02-01"
    },
    "request": {
      "method": "PUT",
      "url": "Patient/8abe1112-e249-430d-b1a8-a230f2c2262c"
    }
  }, {
    "fullUrl": "https://madie.cms.gov/Observation/0d41666c-c12e-47c6-b820-49b3636a733a",
    "resource": {
      "resourceType": "Observation",
      "id": "0d41666c-c12e-47c6-b820-49b3636a733a",
      "meta": {
        "profile": [ "http://hl7.org/fhir/us/qicore/StructureDefinition/qicore-simple-observation" ]
      },
      "status": "final",
      "category": [ {
        "coding": [ {
          "system": "http://terminology.hl7.org/CodeSystem/observation-category",
          "code": "exam",
          "display": "exam",
          "userSelected": true
        } ]
      } ],
      "code": {
        "coding": [ {
          "system": "http://loinc.org",
          "code": "93857-1"
        } ]
      },
      "subject": {
        "reference": "Patient/8abe1112-e249-430d-b1a8-a230f2c2262c"
      },
      "effectiveDateTime": "2026-02-01T08:00:00Z",
      "performer": [ {
        "reference": "Organization/example1",
        "display": "Hendricks Country Hospital"
      } ],
      "valueDateTime": "2026-02-01T08:00:00.000+00:00"
    },
    "request": {
      "method": "PUT",
      "url": "Observation/0d41666c-c12e-47c6-b820-49b3636a733a"
    }
  }, {
    "fullUrl": "https://madie.cms.gov/Observation/0254a067-0374-4887-8a49-3ba72720401e",
    "resource": {
      "resourceType": "Observation",
      "id": "0254a067-0374-4887-8a49-3ba72720401e",
      "meta": {
        "profile": [ "http://hl7.org/fhir/us/qicore/StructureDefinition/qicore-simple-observation" ]
      },
      "status": "final",
      "category": [ {
        "coding": [ {
          "system": "http://terminology.hl7.org/CodeSystem/observation-category",
          "code": "exam",
          "display": "exam",
          "userSelected": true
        } ]
      } ],
      "code": {
        "coding": [ {
          "system": "http://loinc.org",
          "code": "11884-4"
        } ]
      },
      "subject": {
        "reference": "Patient/8abe1112-e249-430d-b1a8-a230f2c2262c"
      },
      "effectiveDateTime": "2026-01-31T07:59:00Z",
      "performer": [ {
        "reference": "Organization/example1",
        "display": "Hendricks Country Hospital"
      } ],
      "valueQuantity": {
        "value": 20,
        "unit": "wk"
      }
    },
    "request": {
      "method": "PUT",
      "url": "Observation/0254a067-0374-4887-8a49-3ba72720401e"
    }
  }, {
    "fullUrl": "https://madie.cms.gov/Encounter/0c116499-3e91-4136-9e87-e0ae920a277a",
    "resource": {
      "resourceType": "Encounter",
      "id": "0c116499-3e91-4136-9e87-e0ae920a277a",
      "meta": {
        "profile": [ "http://hl7.org/fhir/us/qicore/StructureDefinition/qicore-encounter" ]
      },
      "status": "finished",
      "class": {
        "system": "http://terminology.hl7.org/CodeSystem/v3-ActCode",
        "code": "IMP",
        "display": "inpatient encounter"
      },
      "type": [ {
        "coding": [ {
          "system": "http://snomed.info/sct",
          "code": "183452005"
        } ]
      } ],
      "subject": {
        "reference": "Patient/8abe1112-e249-430d-b1a8-a230f2c2262c"
      },
      "period": {
        "start": "2026-02-01T08:00:00Z",
        "end": "2026-02-05T08:15:00.000+00:00"
      },
      "reasonCode": [ {
        "coding": [ {
          "system": "http://snomed.info/sct",
          "code": "169826009",
          "display": "Single live birth from singleton pregnancy (finding)"
        } ]
      } ]
    },
    "request": {
      "method": "PUT",
      "url": "Encounter/0c116499-3e91-4136-9e87-e0ae920a277a"
    }
  }, {
    "fullUrl": "https://madie.cms.gov/Coverage/4bd182ee-8175-48fa-90c4-0dd0a6ab8bd4",
    "resource": {
      "resourceType": "Coverage",
      "id": "4bd182ee-8175-48fa-90c4-0dd0a6ab8bd4",
      "status": "active",
      "subscriberId": "523435",
      "beneficiary": {
        "reference": "Patient/8abe1112-e249-430d-b1a8-a230f2c2262c"
      },
      "relationship": {
        "coding": [ {
          "system": "http://terminology.hl7.org/CodeSystem/subscriber-relationship",
          "code": "self"
        } ]
      },
      "period": {
        "start": "2005-02-01T08:00:00Z"
      },
      "payor": [ {
        "reference": "Organization/28dfee16-8aff-4566-bb6e-6ad25b03e420"
      } ]
    },
    "request": {
      "method": "PUT",
      "url": "Coverage/4bd182ee-8175-48fa-90c4-0dd0a6ab8bd4"
    }
  }, {
    "fullUrl": "https://madie.cms.gov/Procedure/d9968f54-532b-4226-96e1-5b0cedacd9c2",
    "resource": {
      "resourceType": "Procedure",
      "id": "d9968f54-532b-4226-96e1-5b0cedacd9c2",
      "meta": {
        "profile": [ "http://hl7.org/fhir/us/qicore/StructureDefinition/qicore-procedure" ]
      },
      "extension": [ {
        "url": "http://hl7.org/fhir/us/qicore/StructureDefinition/qicore-recorded",
        "valueDateTime": "2014-04-05T13:35:00Z"
      } ],
      "status": "completed",
      "code": {
        "coding": [ {
          "system": "http://snomed.info/sct",
          "code": "10745001"
        } ]
      },
      "subject": {
        "reference": "Patient/8abe1112-e249-430d-b1a8-a230f2c2262c"
      },
      "performedPeriod": {
        "start": "2026-02-01T08:00:00Z",
        "end": "2026-02-05T08:15:00.000+00:00"
      }
    },
    "request": {
      "method": "PUT",
      "url": "Procedure/d9968f54-532b-4226-96e1-5b0cedacd9c2"
    }
  }, {
    "fullUrl": "https://madie.cms.gov/Organization/28dfee16-8aff-4566-bb6e-6ad25b03e420",
    "resource": {
      "resourceType": "Organization",
      "id": "28dfee16-8aff-4566-bb6e-6ad25b03e420",
      "meta": {
        "profile": [ "http://hl7.org/fhir/us/qicore/StructureDefinition/qicore-organization" ]
      },
      "identifier": [ {
        "use": "temp",
        "system": "urn:oid:2.16.840.1.113883.4.4",
        "value": "21-3259825"
      } ],
      "active": true,
      "type": [ {
        "coding": [ {
          "system": "http://terminology.hl7.org/CodeSystem/organization-type",
          "code": "pay",
          "display": "Payer"
        } ]
      } ],
      "name": "Blue Cross Blue Shield of Texas",
      "telecom": [ {
        "system": "phone",
        "value": "(+1) 972-766-6900"
      } ],
      "address": [ {
        "use": "billing",
        "type": "postal",
        "line": [ "P.O. Box 660044" ],
        "city": "Dallas",
        "state": "TX",
        "postalCode": "75266-0044",
        "country": "USA"
      } ]
    },
    "request": {
      "method": "PUT",
      "url": "Organization/28dfee16-8aff-4566-bb6e-6ad25b03e420"
    }
  }, {
    "fullUrl": "https://madie.cms.gov/Practitioner/7b0c7b4f-a9fe-45a3-a95e-37c014131751",
    "resource": {
      "resourceType": "Practitioner",
      "id": "7b0c7b4f-a9fe-45a3-a95e-37c014131751",
      "meta": {
        "profile": [ "http://hl7.org/fhir/us/qicore/StructureDefinition/qicore-practitioner" ]
      },
      "identifier": [ {
        "system": "http://hl7.org/fhir/sid/us-npi",
        "value": "1234567890"
      } ],
      "name": [ {
        "family": "Evil",
        "prefix": [ "Dr" ]
      } ]
    },
    "request": {
      "method": "PUT",
      "url": "Practitioner/7b0c7b4f-a9fe-45a3-a95e-37c014131751"
    }
  }, {
    "fullUrl": "https://madie.cms.gov/MeasureReport/557fcee5-6930-4bb6-8153-2b80a0b5c48e",
    "resource": {
      "resourceType": "MeasureReport",
      "id": "557fcee5-6930-4bb6-8153-2b80a0b5c48e",
      "meta": {
        "profile": [ "http://hl7.org/fhir/us/cqfmeasures/StructureDefinition/test-case-cqfm" ]
      },
      "contained": [ {
        "resourceType": "Parameters",
        "id": "07600a65-ad75-4f28-8440-012990de29c2-parameters",
        "parameter": [ {
          "name": "subject",
          "valueString": "8abe1112-e249-430d-b1a8-a230f2c2262c"
        } ]
      } ],
      "extension": [ {
        "url": "http://hl7.org/fhir/StructureDefinition/cqf-inputParameters",
        "valueReference": {
          "reference": "#07600a65-ad75-4f28-8440-012990de29c2-parameters"
        }
      }, {
        "url": "http://hl7.org/fhir/us/cqfmeasures/StructureDefinition/cqfm-testCaseDescription",
        "valueMarkdown": "Estimated Gestational Age Relevant Date Time is 24 hours 1 minute before Time of Delivery (result)\n"
      } ],
      "modifierExtension": [ {
        "url": "http://hl7.org/fhir/us/cqfmeasures/StructureDefinition/cqfm-isTestCase",
        "valueBoolean": true
      } ],
      "status": "complete",
      "type": "individual",
      "measure": "https://madie.cms.gov/Measure/CMS1028FHIRPCSevereOBComps",
      "period": {
        "start": "2026-01-01",
        "end": "2026-12-31"
      },
      "group": [ {
        "id": "Group_1",
        "population": [ {
          "id": "InitialPopulation_1",
          "code": {
            "coding": [ {
              "system": "http://terminology.hl7.org/CodeSystem/measure-population",
              "code": "initial-population",
              "display": "Initial Population"
            } ]
          },
          "count": 1
        }, {
          "id": "Denominator_1",
          "code": {
            "coding": [ {
              "system": "http://terminology.hl7.org/CodeSystem/measure-population",
              "code": "denominator",
              "display": "Denominator"
            } ]
          },
          "count": 0
        }, {
          "id": "Numerator_1",
          "code": {
            "coding": [ {
              "system": "http://terminology.hl7.org/CodeSystem/measure-population",
              "code": "numerator",
              "display": "Numerator"
            } ]
          },
          "count": 0
        }, {
          "id": "NumeratorExclusion_1",
          "code": {
            "coding": [ {
              "system": "http://terminology.hl7.org/CodeSystem/measure-population",
              "code": "numerator-exclusion",
              "display": "Numerator Exclusion"
            } ]
          },
          "count": 0
        } ],
        "measureScore": {
          "value": 0.0
        }
      }, {
        "id": "Group_2",
        "population": [ {
          "id": "InitialPopulation_2",
          "code": {
            "coding": [ {
              "system": "http://terminology.hl7.org/CodeSystem/measure-population",
              "code": "initial-population",
              "display": "Initial Population"
            } ]
          },
          "count": 1
        }, {
          "id": "Denominator_2",
          "code": {
            "coding": [ {
              "system": "http://terminology.hl7.org/CodeSystem/measure-population",
              "code": "denominator",
              "display": "Denominator"
            } ]
          },
          "count": 0
        }, {
          "id": "Numerator_2",
          "code": {
            "coding": [ {
              "system": "http://terminology.hl7.org/CodeSystem/measure-population",
              "code": "numerator",
              "display": "Numerator"
            } ]
          },
          "count": 0
        }, {
          "id": "NumeratorExclusion_2",
          "code": {
            "coding": [ {
              "system": "http://terminology.hl7.org/CodeSystem/measure-population",
              "code": "numerator-exclusion",
              "display": "Numerator Exclusion"
            } ]
          },
          "count": 0
        } ],
        "measureScore": {
          "value": 0.0
        }
      } ],
      "evaluatedResource": [ {
        "reference": "Patient/8abe1112-e249-430d-b1a8-a230f2c2262c"
      }, {
        "reference": "Observation/0d41666c-c12e-47c6-b820-49b3636a733a"
      }, {
        "reference": "Observation/0254a067-0374-4887-8a49-3ba72720401e"
      }, {
        "reference": "Encounter/0c116499-3e91-4136-9e87-e0ae920a277a"
      }, {
        "reference": "Coverage/4bd182ee-8175-48fa-90c4-0dd0a6ab8bd4"
      }, {
        "reference": "Procedure/d9968f54-532b-4226-96e1-5b0cedacd9c2"
      }, {
        "reference": "Organization/28dfee16-8aff-4566-bb6e-6ad25b03e420"
      }, {
        "reference": "Practitioner/7b0c7b4f-a9fe-45a3-a95e-37c014131751"
      } ]
    },
    "request": {
      "method": "PUT",
      "url": "MeasureReport/557fcee5-6930-4bb6-8153-2b80a0b5c48e"
    }
  } ]
}