{
  "resourceType": "Bundle",
  "id": "46313213416131",
  "type": "transaction",
  "entry": [ {
    "fullUrl": "https://madie.cms.gov/Patient/faf3e31d-533a-484f-9b9d-4ded0c32c84f",
    "resource": {
      "resourceType": "Patient",
      "id": "faf3e31d-533a-484f-9b9d-4ded0c32c84f",
      "meta": {
        "profile": [ "http://hl7.org/fhir/us/qicore/StructureDefinition/qicore-patient" ]
      },
      "extension": [ {
        "url": "http://hl7.org/fhir/us/core/StructureDefinition/us-core-race",
        "extension": [ {
          "url": "ombCategory",
          "valueCoding": {
            "system": "urn:oid:2.16.840.1.113883.6.238",
            "code": "2076-8",
            "display": "Native Hawaiian or Other Pacific Islander"
          }
        }, {
          "url": "text",
          "valueString": "Native Hawaiian or Other Pacific Islander"
        } ]
      }, {
        "url": "http://hl7.org/fhir/us/core/StructureDefinition/us-core-ethnicity",
        "extension": [ {
          "url": "ombCategory",
          "valueCoding": {
            "system": "urn:oid:2.16.840.1.113883.6.238",
            "code": "2186-5",
            "display": "Not Hispanic or Latino"
          }
        }, {
          "url": "text",
          "valueString": "Not Hispanic or Latino"
        } ]
      } ],
      "identifier": [ {
        "type": {
          "coding": [ {
            "system": "http://terminology.hl7.org/CodeSystem/v2-0203",
            "code": "MR"
          } ]
        },
        "system": "https://bonnie-fhir.healthit.gov/",
        "value": "6464649435154"
      } ],
      "active": true,
      "name": [ {
        "use": "usual",
        "family": "DENEXPass",
        "given": [ "HeartTransComplicationsRecordedDatetime" ]
      } ],
      "gender": "male",
      "birthDate": "1975-02-10"
    },
    "request": {
      "method": "PUT",
      "url": "Patient/faf3e31d-533a-484f-9b9d-4ded0c32c84f"
    }
  }, {
    "fullUrl": "https://madie.cms.gov/Encounter/30fe4a0e-1948-4e59-9d19-0172dbb93990",
    "resource": {
      "resourceType": "Encounter",
      "id": "30fe4a0e-1948-4e59-9d19-0172dbb93990",
      "meta": {
        "profile": [ "http://hl7.org/fhir/us/qicore/StructureDefinition/qicore-encounter" ]
      },
      "status": "finished",
      "class": {
        "system": "http://terminology.hl7.org/CodeSystem/v3-ActCode",
        "code": "AMB",
        "display": "ambulatory"
      },
      "type": [ {
        "coding": [ {
          "system": "http://www.ama-assn.org/go/cpt",
          "version": "2024",
          "code": "99213"
        } ]
      } ],
      "subject": {
        "reference": "Patient/faf3e31d-533a-484f-9b9d-4ded0c32c84f"
      },
      "period": {
        "start": "2026-04-14T14:40:00.000+00:00",
        "end": "2026-04-14T14:50:00.000+00:00"
      },
      "length": {
        "value": 0,
        "unit": "days"
      }
    },
    "request": {
      "method": "PUT",
      "url": "Encounter/30fe4a0e-1948-4e59-9d19-0172dbb93990"
    }
  }, {
    "fullUrl": "https://madie.cms.gov/Condition/6fc08b4e-68e5-4679-bbb9-6ed91af0701f",
    "resource": {
      "resourceType": "Condition",
      "id": "6fc08b4e-68e5-4679-bbb9-6ed91af0701f",
      "meta": {
        "profile": [ "http://hl7.org/fhir/us/qicore/StructureDefinition/qicore-condition-problems-health-concerns" ]
      },
      "clinicalStatus": {
        "coding": [ {
          "system": "http://terminology.hl7.org/CodeSystem/condition-clinical",
          "code": "active",
          "display": "Active"
        } ]
      },
      "verificationStatus": {
        "coding": [ {
          "system": "http://terminology.hl7.org/CodeSystem/condition-ver-status",
          "code": "confirmed",
          "display": "Confirmed"
        } ]
      },
      "category": [ {
        "coding": [ {
          "system": "http://terminology.hl7.org/CodeSystem/condition-category",
          "code": "problem-list-item",
          "display": "Problem List Item"
        } ]
      } ],
      "code": {
        "coding": [ {
          "system": "http://snomed.info/sct",
          "version": "http://snomed.info/sct/731000124108/version/20240301",
          "code": "213151004",
          "display": "Heart transplant failure and rejection (disorder)"
        } ]
      },
      "subject": {
        "reference": "Patient/faf3e31d-533a-484f-9b9d-4ded0c32c84f"
      },
      "recordedDate": "2026-02-14T14:41:00.000+00:00"
    },
    "request": {
      "method": "PUT",
      "url": "Condition/6fc08b4e-68e5-4679-bbb9-6ed91af0701f"
    }
  }, {
    "fullUrl": "https://madie.cms.gov/Encounter/622d2c7a-3d41-4d52-a2f0-6d3e6790bd47",
    "resource": {
      "resourceType": "Encounter",
      "id": "622d2c7a-3d41-4d52-a2f0-6d3e6790bd47",
      "meta": {
        "profile": [ "http://hl7.org/fhir/us/qicore/StructureDefinition/qicore-encounter" ]
      },
      "status": "finished",
      "class": {
        "system": "http://terminology.hl7.org/CodeSystem/v3-ActCode",
        "code": "AMB",
        "display": "ambulatory"
      },
      "type": [ {
        "coding": [ {
          "system": "http://www.ama-assn.org/go/cpt",
          "version": "2024",
          "code": "99212"
        } ]
      } ],
      "subject": {
        "reference": "Patient/faf3e31d-533a-484f-9b9d-4ded0c32c84f"
      },
      "period": {
        "start": "2026-07-20T11:50:00.000+00:00",
        "end": "2026-07-20T11:50:00.000+00:00"
      },
      "length": {
        "value": 0,
        "unit": "days"
      }
    },
    "request": {
      "method": "PUT",
      "url": "Encounter/622d2c7a-3d41-4d52-a2f0-6d3e6790bd47"
    }
  }, {
    "fullUrl": "https://madie.cms.gov/Condition/23b046eb-c03e-4a4e-87da-fbb57606c8cd",
    "resource": {
      "resourceType": "Condition",
      "id": "23b046eb-c03e-4a4e-87da-fbb57606c8cd",
      "meta": {
        "profile": [ "http://hl7.org/fhir/us/qicore/StructureDefinition/qicore-condition-problems-health-concerns" ]
      },
      "clinicalStatus": {
        "coding": [ {
          "system": "http://terminology.hl7.org/CodeSystem/condition-clinical",
          "code": "active",
          "display": "Active"
        } ]
      },
      "verificationStatus": {
        "coding": [ {
          "system": "http://terminology.hl7.org/CodeSystem/condition-ver-status",
          "code": "confirmed",
          "display": "Confirmed"
        } ]
      },
      "category": [ {
        "coding": [ {
          "system": "http://terminology.hl7.org/CodeSystem/condition-category",
          "code": "problem-list-item",
          "display": "Problem List Item"
        } ]
      } ],
      "code": {
        "coding": [ {
          "system": "http://hl7.org/fhir/sid/icd-10-cm",
          "version": "2024",
          "code": "I11.0"
        } ]
      },
      "subject": {
        "reference": "Patient/faf3e31d-533a-484f-9b9d-4ded0c32c84f"
      },
      "onsetPeriod": {
        "start": "2026-04-11T10:00:00.000+00:00"
      },
      "recordedDate": "2026-04-11T10:00:00.000+00:00"
    },
    "request": {
      "method": "PUT",
      "url": "Condition/23b046eb-c03e-4a4e-87da-fbb57606c8cd"
    }
  }, {
    "fullUrl": "https://madie.cms.gov/Condition/3bcd41f0-e576-4237-be62-509dfc0e82f9",
    "resource": {
      "resourceType": "Condition",
      "id": "3bcd41f0-e576-4237-be62-509dfc0e82f9",
      "meta": {
        "profile": [ "http://hl7.org/fhir/us/qicore/StructureDefinition/qicore-condition-problems-health-concerns" ]
      },
      "clinicalStatus": {
        "coding": [ {
          "system": "http://terminology.hl7.org/CodeSystem/condition-clinical",
          "code": "active",
          "display": "Active"
        } ]
      },
      "verificationStatus": {
        "coding": [ {
          "system": "http://terminology.hl7.org/CodeSystem/condition-ver-status",
          "code": "confirmed",
          "display": "Confirmed"
        } ]
      },
      "category": [ {
        "coding": [ {
          "system": "http://terminology.hl7.org/CodeSystem/condition-category",
          "code": "problem-list-item",
          "display": "Problem List Item"
        } ]
      } ],
      "severity": {
        "coding": [ {
          "system": "http://snomed.info/sct",
          "version": "http://snomed.info/sct/731000124108/version/20240301",
          "code": "24484000",
          "display": "Severe (severity modifier) (qualifier value)"
        } ]
      },
      "code": {
        "coding": [ {
          "system": "http://snomed.info/sct",
          "version": "http://snomed.info/sct/731000124108/version/20240301",
          "code": "134401001",
          "display": "Left ventricular systolic dysfunction (disorder)"
        } ]
      },
      "subject": {
        "reference": "Patient/faf3e31d-533a-484f-9b9d-4ded0c32c84f"
      },
      "onsetPeriod": {
        "start": "2026-04-14T14:41:00.000+00:00"
      },
      "recordedDate": "2026-04-14T14:41:00.000+00:00"
    },
    "request": {
      "method": "PUT",
      "url": "Condition/3bcd41f0-e576-4237-be62-509dfc0e82f9"
    }
  }, {
    "fullUrl": "https://madie.cms.gov/MeasureReport/30bf4573-d9a7-4d32-9d57-3418c818b3e0",
    "resource": {
      "resourceType": "MeasureReport",
      "id": "30bf4573-d9a7-4d32-9d57-3418c818b3e0",
      "meta": {
        "profile": [ "http://hl7.org/fhir/us/cqfmeasures/StructureDefinition/test-case-cqfm" ]
      },
      "contained": [ {
        "resourceType": "Parameters",
        "id": "2195baed-5afd-4b19-be36-4b808c79f257-parameters",
        "parameter": [ {
          "name": "subject",
          "valueString": "faf3e31d-533a-484f-9b9d-4ded0c32c84f"
        } ]
      } ],
      "extension": [ {
        "url": "http://hl7.org/fhir/StructureDefinition/cqf-inputParameters",
        "valueReference": {
          "reference": "#2195baed-5afd-4b19-be36-4b808c79f257-parameters"
        }
      }, {
        "url": "http://hl7.org/fhir/us/cqfmeasures/StructureDefinition/cqfm-testCaseDescription",
        "valueMarkdown": "Meeting Denominator Exclusion d/t Heart Transplant Complication condition with recorded datetime before LVSD encounter"
      } ],
      "modifierExtension": [ {
        "url": "http://hl7.org/fhir/us/cqfmeasures/StructureDefinition/cqfm-isTestCase",
        "valueBoolean": true
      } ],
      "status": "complete",
      "type": "individual",
      "measure": "https://madie.cms.gov/Measure/CMS144FHIRHFBetaBlockerTherapyforLVSD",
      "period": {
        "start": "2026-01-01",
        "end": "2026-12-31"
      },
      "group": [ {
        "id": "Group_1",
        "population": [ {
          "id": "InitialPopulation_1",
          "code": {
            "coding": [ {
              "system": "http://terminology.hl7.org/CodeSystem/measure-population",
              "code": "initial-population",
              "display": "Initial Population"
            } ]
          },
          "count": 1
        }, {
          "id": "Denominator_1",
          "code": {
            "coding": [ {
              "system": "http://terminology.hl7.org/CodeSystem/measure-population",
              "code": "denominator",
              "display": "Denominator"
            } ]
          },
          "count": 1
        }, {
          "id": "DenominatorExclusion_1",
          "code": {
            "coding": [ {
              "system": "http://terminology.hl7.org/CodeSystem/measure-population",
              "code": "denominator-exclusion",
              "display": "Denominator Exclusion"
            } ]
          },
          "count": 1
        }, {
          "id": "Numerator_1",
          "code": {
            "coding": [ {
              "system": "http://terminology.hl7.org/CodeSystem/measure-population",
              "code": "numerator",
              "display": "Numerator"
            } ]
          },
          "count": 0
        }, {
          "id": "DenominatorException_1",
          "code": {
            "coding": [ {
              "system": "http://terminology.hl7.org/CodeSystem/measure-population",
              "code": "denominator-exception",
              "display": "Denominator Exception"
            } ]
          },
          "count": 0
        } ],
        "measureScore": {
          "value": 1.0
        }
      } ],
      "evaluatedResource": [ {
        "reference": "Patient/faf3e31d-533a-484f-9b9d-4ded0c32c84f"
      }, {
        "reference": "Encounter/30fe4a0e-1948-4e59-9d19-0172dbb93990"
      }, {
        "reference": "Condition/6fc08b4e-68e5-4679-bbb9-6ed91af0701f"
      }, {
        "reference": "Encounter/622d2c7a-3d41-4d52-a2f0-6d3e6790bd47"
      }, {
        "reference": "Condition/23b046eb-c03e-4a4e-87da-fbb57606c8cd"
      }, {
        "reference": "Condition/3bcd41f0-e576-4237-be62-509dfc0e82f9"
      } ]
    },
    "request": {
      "method": "PUT",
      "url": "MeasureReport/30bf4573-d9a7-4d32-9d57-3418c818b3e0"
    }
  } ]
}