{
  "resourceType": "Bundle",
  "id": "63487c300968f801225401c8",
  "type": "transaction",
  "entry": [ {
    "fullUrl": "https://madie.cms.gov/Patient/3e42d89a-425c-4a96-8604-74aaafcca8f8",
    "resource": {
      "resourceType": "Patient",
      "id": "3e42d89a-425c-4a96-8604-74aaafcca8f8",
      "meta": {
        "profile": [ "http://hl7.org/fhir/us/qicore/StructureDefinition/qicore-patient" ]
      },
      "text": {
        "status": "generated",
        "div": "<div xmlns=\"http://www.w3.org/1999/xhtml\"><div class=\"hapiHeaderText\">AssessPreTermLastResultIsNull <b>DENPASS </b></div><table class=\"hapiPropertyTable\"><tbody><tr><td>Identifier</td><td>68ae6e24f0fface97c058e998841dc5fd1e621f11f5d5bc2aeef1a3a248ebc14</td></tr><tr><td>Date of birth</td><td><span>14 February 1985</span></td></tr></tbody></table></div>"
      },
      "extension": [ {
        "url": "http://hl7.org/fhir/us/core/StructureDefinition/us-core-race",
        "extension": [ {
          "url": "ombCategory",
          "valueCoding": {
            "system": "urn:oid:2.16.840.1.113883.6.238",
            "code": "1002-5",
            "display": "American Indian or Alaska Native",
            "userSelected": true
          }
        }, {
          "url": "text",
          "valueString": "American Indian or Alaska Native"
        } ]
      }, {
        "url": "http://hl7.org/fhir/us/core/StructureDefinition/us-core-ethnicity",
        "extension": [ {
          "url": "ombCategory",
          "valueCoding": {
            "system": "urn:oid:2.16.840.1.113883.6.238",
            "code": "2135-2",
            "display": "Hispanic or Latino",
            "userSelected": true
          }
        }, {
          "url": "text",
          "valueString": "Hispanic or Latino"
        } ]
      } ],
      "identifier": [ {
        "type": {
          "coding": [ {
            "system": "http://terminology.hl7.org/CodeSystem/v2-0203",
            "code": "MR"
          } ]
        },
        "system": "https://bonnie-fhir.healthit.gov/",
        "value": "63487c300968f801225401c8"
      } ],
      "active": true,
      "name": [ {
        "use": "usual",
        "family": "DENPass",
        "given": [ "AssessPreTermLastResultIsNull" ]
      } ],
      "gender": "female",
      "birthDate": "1998-02-14"
    },
    "request": {
      "method": "PUT",
      "url": "Patient/3e42d89a-425c-4a96-8604-74aaafcca8f8"
    }
  }, {
    "fullUrl": "https://madie.cms.gov/Observation/df077cb4-dde8-471a-a585-8cf12623dd8d",
    "resource": {
      "resourceType": "Observation",
      "id": "df077cb4-dde8-471a-a585-8cf12623dd8d",
      "meta": {
        "profile": [ "http://hl7.org/fhir/us/qicore/StructureDefinition/qicore-simple-observation" ]
      },
      "status": "final",
      "category": [ {
        "coding": [ {
          "system": "http://terminology.hl7.org/CodeSystem/observation-category",
          "code": "exam",
          "display": "exam",
          "userSelected": true
        } ]
      } ],
      "code": {
        "coding": [ {
          "system": "http://loinc.org",
          "code": "11639-2"
        } ]
      },
      "subject": {
        "reference": "Patient/3e42d89a-425c-4a96-8604-74aaafcca8f8"
      },
      "effectiveDateTime": "2025-09-19T09:00:00.000+00:00",
      "valueInteger": 0
    },
    "request": {
      "method": "PUT",
      "url": "Observation/df077cb4-dde8-471a-a585-8cf12623dd8d"
    }
  }, {
    "fullUrl": "https://madie.cms.gov/Observation/9705d5e9-5a9a-4b6a-829b-571f7bc4efc8",
    "resource": {
      "resourceType": "Observation",
      "id": "9705d5e9-5a9a-4b6a-829b-571f7bc4efc8",
      "meta": {
        "profile": [ "http://hl7.org/fhir/us/qicore/StructureDefinition/qicore-simple-observation" ]
      },
      "status": "final",
      "category": [ {
        "coding": [ {
          "system": "http://terminology.hl7.org/CodeSystem/observation-category",
          "code": "exam",
          "display": "exam",
          "userSelected": true
        } ]
      } ],
      "code": {
        "coding": [ {
          "system": "http://loinc.org",
          "code": "11637-6"
        } ]
      },
      "subject": {
        "reference": "Patient/3e42d89a-425c-4a96-8604-74aaafcca8f8"
      },
      "effectiveDateTime": "2026-06-08T09:00:00.000+00:00"
    },
    "request": {
      "method": "PUT",
      "url": "Observation/9705d5e9-5a9a-4b6a-829b-571f7bc4efc8"
    }
  }, {
    "fullUrl": "https://madie.cms.gov/Observation/01032dc8-0929-4c9a-b489-7effa1fa59ce",
    "resource": {
      "resourceType": "Observation",
      "id": "01032dc8-0929-4c9a-b489-7effa1fa59ce",
      "meta": {
        "profile": [ "http://hl7.org/fhir/us/qicore/StructureDefinition/qicore-simple-observation" ]
      },
      "status": "final",
      "category": [ {
        "coding": [ {
          "system": "http://terminology.hl7.org/CodeSystem/observation-category",
          "code": "exam",
          "display": "exam",
          "userSelected": true
        } ]
      } ],
      "code": {
        "coding": [ {
          "system": "http://loinc.org",
          "code": "11884-4"
        } ]
      },
      "subject": {
        "reference": "Patient/3e42d89a-425c-4a96-8604-74aaafcca8f8"
      },
      "effectiveDateTime": "2026-06-08T20:00:00.000+00:00",
      "valueQuantity": {
        "value": 37,
        "system": "http://unitsofmeasure.org",
        "code": "wk"
      }
    },
    "request": {
      "method": "PUT",
      "url": "Observation/01032dc8-0929-4c9a-b489-7effa1fa59ce"
    }
  }, {
    "fullUrl": "https://madie.cms.gov/Observation/c125b96c-81c2-46d0-b74e-35bc6d1a6089",
    "resource": {
      "resourceType": "Observation",
      "id": "c125b96c-81c2-46d0-b74e-35bc6d1a6089",
      "meta": {
        "profile": [ "http://hl7.org/fhir/us/qicore/StructureDefinition/qicore-simple-observation" ]
      },
      "status": "final",
      "category": [ {
        "coding": [ {
          "system": "http://terminology.hl7.org/CodeSystem/observation-category",
          "code": "exam",
          "display": "exam",
          "userSelected": true
        } ]
      } ],
      "code": {
        "coding": [ {
          "system": "http://loinc.org",
          "code": "93857-1"
        } ]
      },
      "subject": {
        "reference": "Patient/3e42d89a-425c-4a96-8604-74aaafcca8f8"
      },
      "effectiveDateTime": "2026-06-08T20:00:00.000+00:00",
      "valueDateTime": "2026-06-08T20:00:00.000+00:00"
    },
    "request": {
      "method": "PUT",
      "url": "Observation/c125b96c-81c2-46d0-b74e-35bc6d1a6089"
    }
  }, {
    "fullUrl": "https://madie.cms.gov/Observation/ec877b92-b208-4aea-abeb-7d18fa7409bf",
    "resource": {
      "resourceType": "Observation",
      "id": "ec877b92-b208-4aea-abeb-7d18fa7409bf",
      "meta": {
        "profile": [ "http://hl7.org/fhir/us/qicore/StructureDefinition/qicore-simple-observation" ]
      },
      "status": "final",
      "category": [ {
        "coding": [ {
          "system": "http://terminology.hl7.org/CodeSystem/observation-category",
          "code": "exam",
          "display": "exam",
          "userSelected": true
        } ]
      } ],
      "code": {
        "coding": [ {
          "system": "http://loinc.org",
          "code": "11637-6"
        } ]
      },
      "subject": {
        "reference": "Patient/3e42d89a-425c-4a96-8604-74aaafcca8f8"
      },
      "effectiveDateTime": "2026-06-08T08:00:00.000+00:00",
      "valueInteger": 0
    },
    "request": {
      "method": "PUT",
      "url": "Observation/ec877b92-b208-4aea-abeb-7d18fa7409bf"
    }
  }, {
    "fullUrl": "https://madie.cms.gov/Encounter/913a1683-d825-4aec-8d07-a069e46ac9b1",
    "resource": {
      "resourceType": "Encounter",
      "id": "913a1683-d825-4aec-8d07-a069e46ac9b1",
      "meta": {
        "profile": [ "http://hl7.org/fhir/us/qicore/StructureDefinition/qicore-encounter" ]
      },
      "status": "finished",
      "class": {
        "system": "http://terminology.hl7.org/CodeSystem/v3-ActCode",
        "code": "IMP",
        "display": "inpatient encounter"
      },
      "type": [ {
        "coding": [ {
          "system": "http://snomed.info/sct",
          "code": "8715000"
        } ]
      } ],
      "subject": {
        "reference": "Patient/3e42d89a-425c-4a96-8604-74aaafcca8f8"
      },
      "period": {
        "start": "2026-06-08T08:00:00.000+00:00",
        "end": "2026-06-10T08:15:00.000+00:00"
      },
      "length": {
        "value": 2,
        "unit": "days"
      },
      "reasonReference": [ {
        "reference": "Condition/4b4d1f88-b1f1-4ada-a6c4-72a173c5fbdf"
      } ]
    },
    "request": {
      "method": "PUT",
      "url": "Encounter/913a1683-d825-4aec-8d07-a069e46ac9b1"
    }
  }, {
    "fullUrl": "https://madie.cms.gov/Procedure/acc0e866-5f4c-4e50-a3b7-bb34bff8d506",
    "resource": {
      "resourceType": "Procedure",
      "id": "acc0e866-5f4c-4e50-a3b7-bb34bff8d506",
      "meta": {
        "profile": [ "http://hl7.org/fhir/us/qicore/StructureDefinition/qicore-procedure" ]
      },
      "extension": [ {
        "url": "http://hl7.org/fhir/us/qicore/StructureDefinition/qicore-recorded",
        "valueDateTime": "2014-04-05T13:35:00.000+00:00"
      } ],
      "status": "completed",
      "code": {
        "coding": [ {
          "system": "http://www.cms.gov/Medicare/Coding/ICD10",
          "code": "10D00Z0"
        }, {
          "system": "http://snomed.info/sct",
          "code": "4504004"
        } ]
      },
      "subject": {
        "reference": "Patient/3e42d89a-425c-4a96-8604-74aaafcca8f8"
      },
      "performedPeriod": {
        "start": "2026-06-08T20:00:00.000+00:00",
        "end": "2026-06-08T20:15:00.000+00:00"
      }
    },
    "request": {
      "method": "PUT",
      "url": "Procedure/acc0e866-5f4c-4e50-a3b7-bb34bff8d506"
    }
  }, {
    "fullUrl": "https://madie.cms.gov/Condition/4b4d1f88-b1f1-4ada-a6c4-72a173c5fbdf",
    "resource": {
      "resourceType": "Condition",
      "id": "4b4d1f88-b1f1-4ada-a6c4-72a173c5fbdf",
      "meta": {
        "profile": [ "http://hl7.org/fhir/us/qicore/StructureDefinition/qicore-condition-encounter-diagnosis" ]
      },
      "category": [ {
        "coding": [ {
          "system": "http://terminology.hl7.org/CodeSystem/condition-category",
          "code": "encounter-diagnosis",
          "display": "Encounter Diagnosis"
        } ]
      } ],
      "code": {
        "coding": [ {
          "system": "http://snomed.info/sct",
          "version": "2022-09",
          "code": "169826009",
          "display": "Single live birth from singleton pregnancy (finding)",
          "userSelected": true
        } ]
      },
      "subject": {
        "reference": "Patient/3e42d89a-425c-4a96-8604-74aaafcca8f8"
      },
      "encounter": {
        "reference": "Encounter/913a1683-d825-4aec-8d07-a069e46ac9b1"
      },
      "recordedDate": "2026-10-20T08:00:00.000+00:00"
    },
    "request": {
      "method": "PUT",
      "url": "Condition/4b4d1f88-b1f1-4ada-a6c4-72a173c5fbdf"
    }
  }, {
    "fullUrl": "https://madie.cms.gov/Coverage/ff139689-5da3-4413-99b7-934e2c558045",
    "resource": {
      "resourceType": "Coverage",
      "id": "ff139689-5da3-4413-99b7-934e2c558045",
      "meta": {
        "profile": [ "http://hl7.org/fhir/us/qicore/StructureDefinition/qicore-coverage" ]
      },
      "status": "active",
      "subscriberId": "523435",
      "beneficiary": {
        "reference": "Patient/3e42d89a-425c-4a96-8604-74aaafcca8f8"
      },
      "relationship": {
        "coding": [ {
          "system": "http://terminology.hl7.org/CodeSystem/subscriber-relationship",
          "code": "self"
        } ]
      },
      "payor": [ {
        "reference": "Organization/8e81c113-5955-4e44-82d7-c822fffe7bf7"
      } ]
    },
    "request": {
      "method": "PUT",
      "url": "Coverage/ff139689-5da3-4413-99b7-934e2c558045"
    }
  }, {
    "fullUrl": "https://madie.cms.gov/Organization/8e81c113-5955-4e44-82d7-c822fffe7bf7",
    "resource": {
      "resourceType": "Organization",
      "id": "8e81c113-5955-4e44-82d7-c822fffe7bf7",
      "meta": {
        "profile": [ "http://hl7.org/fhir/us/qicore/StructureDefinition/qicore-organization" ]
      },
      "identifier": [ {
        "use": "temp",
        "system": "urn:oid:2.16.840.1.113883.4.4",
        "value": "21-3259825"
      } ],
      "active": true,
      "type": [ {
        "coding": [ {
          "system": "http://terminology.hl7.org/CodeSystem/organization-type",
          "code": "pay",
          "display": "Payer"
        } ]
      } ],
      "name": "Blue Cross Blue Shield of Texas",
      "telecom": [ {
        "system": "phone",
        "value": "(+1) 972-766-6900"
      } ],
      "address": [ {
        "use": "billing",
        "type": "postal",
        "line": [ "P.O. Box 660044" ],
        "city": "Dallas",
        "state": "TX",
        "postalCode": "75266-0044",
        "country": "USA"
      } ]
    },
    "request": {
      "method": "PUT",
      "url": "Organization/8e81c113-5955-4e44-82d7-c822fffe7bf7"
    }
  }, {
    "fullUrl": "https://madie.cms.gov/Practitioner/c0a61afe-f586-4f9e-941c-6ef6a88ecc94",
    "resource": {
      "resourceType": "Practitioner",
      "id": "c0a61afe-f586-4f9e-941c-6ef6a88ecc94",
      "meta": {
        "profile": [ "http://hl7.org/fhir/us/qicore/StructureDefinition/qicore-practitioner" ]
      },
      "identifier": [ {
        "system": "http://hl7.org/fhir/sid/us-npi",
        "value": "1234567890"
      } ],
      "name": [ {
        "family": "Evil",
        "prefix": [ "Dr" ]
      } ]
    },
    "request": {
      "method": "PUT",
      "url": "Practitioner/c0a61afe-f586-4f9e-941c-6ef6a88ecc94"
    }
  }, {
    "fullUrl": "https://madie.cms.gov/MeasureReport/39ef6fae-b922-4cf8-bf43-ae5d9f0e20bb",
    "resource": {
      "resourceType": "MeasureReport",
      "id": "39ef6fae-b922-4cf8-bf43-ae5d9f0e20bb",
      "meta": {
        "profile": [ "http://hl7.org/fhir/us/cqfmeasures/StructureDefinition/test-case-cqfm" ]
      },
      "contained": [ {
        "resourceType": "Parameters",
        "id": "2c1a1ce8-b3ed-4824-99f6-869983cc9d7d-parameters",
        "parameter": [ {
          "name": "subject",
          "valueString": "3e42d89a-425c-4a96-8604-74aaafcca8f8"
        } ]
      } ],
      "extension": [ {
        "url": "http://hl7.org/fhir/StructureDefinition/cqf-inputParameters",
        "valueReference": {
          "reference": "#2c1a1ce8-b3ed-4824-99f6-869983cc9d7d-parameters"
        }
      }, {
        "url": "http://hl7.org/fhir/us/cqfmeasures/StructureDefinition/cqfm-testCaseDescription",
        "valueMarkdown": "\"Preterm Births is null, relevant date/time before Asse delivery datetime\nTerm Newborn=0, authored < 42weeks prior to Asse delivery\"\n"
      } ],
      "modifierExtension": [ {
        "url": "http://hl7.org/fhir/us/cqfmeasures/StructureDefinition/cqfm-isTestCase",
        "valueBoolean": true
      } ],
      "status": "complete",
      "type": "individual",
      "measure": "https://madie.cms.gov/Measure/CMS0334FHIRPCCesareanBirth",
      "period": {
        "start": "2026-01-01",
        "end": "2026-12-31"
      },
      "group": [ {
        "id": "Group_1",
        "population": [ {
          "id": "InitialPopulation_1",
          "code": {
            "coding": [ {
              "system": "http://terminology.hl7.org/CodeSystem/measure-population",
              "code": "initial-population",
              "display": "Initial Population"
            } ]
          },
          "count": 1
        }, {
          "id": "Denominator_1",
          "code": {
            "coding": [ {
              "system": "http://terminology.hl7.org/CodeSystem/measure-population",
              "code": "denominator",
              "display": "Denominator"
            } ]
          },
          "count": 1
        }, {
          "id": "DenominatorExclusion_1",
          "code": {
            "coding": [ {
              "system": "http://terminology.hl7.org/CodeSystem/measure-population",
              "code": "denominator-exclusion",
              "display": "Denominator Exclusion"
            } ]
          },
          "count": 0
        }, {
          "id": "Numerator_1",
          "code": {
            "coding": [ {
              "system": "http://terminology.hl7.org/CodeSystem/measure-population",
              "code": "numerator",
              "display": "Numerator"
            } ]
          },
          "count": 1
        } ],
        "measureScore": {
          "value": 0.0
        }
      } ],
      "evaluatedResource": [ {
        "reference": "Patient/3e42d89a-425c-4a96-8604-74aaafcca8f8"
      }, {
        "reference": "Observation/df077cb4-dde8-471a-a585-8cf12623dd8d"
      }, {
        "reference": "Observation/9705d5e9-5a9a-4b6a-829b-571f7bc4efc8"
      }, {
        "reference": "Observation/01032dc8-0929-4c9a-b489-7effa1fa59ce"
      }, {
        "reference": "Observation/c125b96c-81c2-46d0-b74e-35bc6d1a6089"
      }, {
        "reference": "Observation/ec877b92-b208-4aea-abeb-7d18fa7409bf"
      }, {
        "reference": "Encounter/913a1683-d825-4aec-8d07-a069e46ac9b1"
      }, {
        "reference": "Procedure/acc0e866-5f4c-4e50-a3b7-bb34bff8d506"
      }, {
        "reference": "Condition/4b4d1f88-b1f1-4ada-a6c4-72a173c5fbdf"
      }, {
        "reference": "Coverage/ff139689-5da3-4413-99b7-934e2c558045"
      }, {
        "reference": "Organization/8e81c113-5955-4e44-82d7-c822fffe7bf7"
      }, {
        "reference": "Practitioner/c0a61afe-f586-4f9e-941c-6ef6a88ecc94"
      } ]
    },
    "request": {
      "method": "PUT",
      "url": "MeasureReport/39ef6fae-b922-4cf8-bf43-ae5d9f0e20bb"
    }
  } ]
}