{
  "resourceType": "Bundle",
  "id": "63487c2f0968f80122540196",
  "type": "transaction",
  "entry": [ {
    "fullUrl": "https://madie.cms.gov/Patient/c2f10a34-81ed-4bf0-93ac-fed868ada54b",
    "resource": {
      "resourceType": "Patient",
      "id": "c2f10a34-81ed-4bf0-93ac-fed868ada54b",
      "meta": {
        "profile": [ "http://hl7.org/fhir/us/qicore/StructureDefinition/qicore-patient" ]
      },
      "text": {
        "status": "generated",
        "div": "<div xmlns=\"http://www.w3.org/1999/xhtml\"><div class=\"hapiHeaderText\">DelivEncDxNotSing<b>DENOMFail</b></div><table class=\"hapiPropertyTable\"><tbody><tr><td>Identifier</td><td>1ab9ef48e0c90ff3dc9111dd796761e98e296a234123a2d0da91bfa01b2d25ee</td></tr><tr><td>Date of birth</td><td><span>14 February 1985</span></td></tr></tbody></table></div>"
      },
      "extension": [ {
        "url": "http://hl7.org/fhir/us/core/StructureDefinition/us-core-race",
        "extension": [ {
          "url": "ombCategory",
          "valueCoding": {
            "system": "urn:oid:2.16.840.1.113883.6.238",
            "code": "1002-5",
            "display": "American Indian or Alaska Native",
            "userSelected": true
          }
        }, {
          "url": "text",
          "valueString": "American Indian or Alaska Native"
        } ]
      }, {
        "url": "http://hl7.org/fhir/us/core/StructureDefinition/us-core-ethnicity",
        "extension": [ {
          "url": "ombCategory",
          "valueCoding": {
            "system": "urn:oid:2.16.840.1.113883.6.238",
            "code": "2135-2",
            "display": "Hispanic or Latino",
            "userSelected": true
          }
        }, {
          "url": "text",
          "valueString": "Hispanic or Latino"
        } ]
      } ],
      "identifier": [ {
        "type": {
          "coding": [ {
            "system": "http://terminology.hl7.org/CodeSystem/v2-0203",
            "code": "MR"
          } ]
        },
        "system": "https://bonnie-fhir.healthit.gov/",
        "value": "63487c2f0968f80122540196"
      } ],
      "active": true,
      "name": [ {
        "use": "usual",
        "family": "DENOMFail",
        "given": [ "DelivEncDxNotSing" ]
      } ],
      "gender": "female",
      "birthDate": "1998-02-14"
    },
    "request": {
      "method": "PUT",
      "url": "Patient/c2f10a34-81ed-4bf0-93ac-fed868ada54b"
    }
  }, {
    "fullUrl": "https://madie.cms.gov/Observation/fc22fbbb-a57e-4b08-a6e4-19c3de1e2b21",
    "resource": {
      "resourceType": "Observation",
      "id": "fc22fbbb-a57e-4b08-a6e4-19c3de1e2b21",
      "meta": {
        "profile": [ "http://hl7.org/fhir/us/qicore/StructureDefinition/qicore-simple-observation" ]
      },
      "status": "final",
      "category": [ {
        "coding": [ {
          "system": "http://terminology.hl7.org/CodeSystem/observation-category",
          "code": "exam",
          "display": "exam",
          "userSelected": true
        } ]
      } ],
      "code": {
        "coding": [ {
          "system": "http://loinc.org",
          "code": "11996-6"
        } ]
      },
      "subject": {
        "reference": "Patient/c2f10a34-81ed-4bf0-93ac-fed868ada54b"
      },
      "effectiveDateTime": "2026-02-09T08:00:00.000+00:00",
      "performer": [ {
        "reference": "Organization/example1",
        "display": "Hendricks Country Hospital"
      } ],
      "valueInteger": 1
    },
    "request": {
      "method": "PUT",
      "url": "Observation/fc22fbbb-a57e-4b08-a6e4-19c3de1e2b21"
    }
  }, {
    "fullUrl": "https://madie.cms.gov/Observation/4aa4b6ea-cd1f-47ff-8a33-8e0d2a03ff19",
    "resource": {
      "resourceType": "Observation",
      "id": "4aa4b6ea-cd1f-47ff-8a33-8e0d2a03ff19",
      "meta": {
        "profile": [ "http://hl7.org/fhir/us/qicore/StructureDefinition/qicore-simple-observation" ]
      },
      "status": "final",
      "category": [ {
        "coding": [ {
          "system": "http://terminology.hl7.org/CodeSystem/observation-category",
          "code": "exam",
          "display": "exam",
          "userSelected": true
        } ]
      } ],
      "code": {
        "coding": [ {
          "system": "http://loinc.org",
          "code": "11884-4"
        } ]
      },
      "subject": {
        "reference": "Patient/c2f10a34-81ed-4bf0-93ac-fed868ada54b"
      },
      "effectiveDateTime": "2026-11-28T21:15:00.000+00:00",
      "performer": [ {
        "reference": "Organization/example1",
        "display": "Hendricks Country Hospital"
      } ],
      "valueQuantity": {
        "value": 40,
        "system": "http://unitsofmeasure.org",
        "code": "wk"
      }
    },
    "request": {
      "method": "PUT",
      "url": "Observation/4aa4b6ea-cd1f-47ff-8a33-8e0d2a03ff19"
    }
  }, {
    "fullUrl": "https://madie.cms.gov/Observation/915fd8df-c8f7-405b-9832-2b2e20de39a1",
    "resource": {
      "resourceType": "Observation",
      "id": "915fd8df-c8f7-405b-9832-2b2e20de39a1",
      "meta": {
        "profile": [ "http://hl7.org/fhir/us/qicore/StructureDefinition/qicore-simple-observation" ]
      },
      "status": "final",
      "category": [ {
        "coding": [ {
          "system": "http://terminology.hl7.org/CodeSystem/observation-category",
          "code": "exam",
          "display": "exam",
          "userSelected": true
        } ]
      } ],
      "code": {
        "coding": [ {
          "system": "http://loinc.org",
          "code": "93857-1"
        } ]
      },
      "subject": {
        "reference": "Patient/c2f10a34-81ed-4bf0-93ac-fed868ada54b"
      },
      "effectiveDateTime": "2026-11-28T21:15:00.000+00:00",
      "performer": [ {
        "reference": "Organization/example1",
        "display": "Hendricks Country Hospital"
      } ],
      "valueDateTime": "2026-11-28T21:15:00.000+00:00"
    },
    "request": {
      "method": "PUT",
      "url": "Observation/915fd8df-c8f7-405b-9832-2b2e20de39a1"
    }
  }, {
    "fullUrl": "https://madie.cms.gov/Encounter/b148da17-9c07-472c-8378-aaeab6f58114",
    "resource": {
      "resourceType": "Encounter",
      "id": "b148da17-9c07-472c-8378-aaeab6f58114",
      "meta": {
        "profile": [ "http://hl7.org/fhir/us/qicore/StructureDefinition/qicore-encounter" ]
      },
      "status": "finished",
      "class": {
        "system": "http://terminology.hl7.org/CodeSystem/v3-ActCode",
        "code": "IMP",
        "display": "inpatient encounter"
      },
      "type": [ {
        "coding": [ {
          "system": "http://snomed.info/sct",
          "code": "8715000"
        } ]
      } ],
      "subject": {
        "reference": "Patient/c2f10a34-81ed-4bf0-93ac-fed868ada54b"
      },
      "period": {
        "start": "2026-11-28T08:00:00.000+00:00",
        "end": "2026-11-30T08:15:00.000+00:00"
      },
      "length": {
        "value": 2,
        "unit": "days"
      },
      "diagnosis": [ {
        "condition": {
          "reference": "Condition/2416e183-dc13-4c86-b788-7bad0a732311"
        },
        "use": {
          "coding": [ {
            "system": "http://snomed.info/sct",
            "code": "87605005",
            "display": "Cornual Ectopic Pregnancy"
          } ]
        }
      } ]
    },
    "request": {
      "method": "PUT",
      "url": "Encounter/b148da17-9c07-472c-8378-aaeab6f58114"
    }
  }, {
    "fullUrl": "https://madie.cms.gov/Condition/2416e183-dc13-4c86-b788-7bad0a732311",
    "resource": {
      "resourceType": "Condition",
      "id": "2416e183-dc13-4c86-b788-7bad0a732311",
      "meta": {
        "profile": [ "http://hl7.org/fhir/us/qicore/StructureDefinition/qicore-condition" ]
      },
      "category": [ {
        "coding": [ {
          "system": "http://terminology.hl7.org/CodeSystem/condition-category",
          "code": "encounter-diagnosis",
          "display": "Encounter Diagnosis"
        } ]
      } ],
      "code": {
        "coding": [ {
          "system": "http://snomed.info/sct",
          "code": "87605005",
          "display": "Cornual Ectopic Pregnancy",
          "userSelected": true
        } ]
      },
      "subject": {
        "reference": "Patient/c2f10a34-81ed-4bf0-93ac-fed868ada54b"
      },
      "encounter": {
        "reference": "Encounter/b148da17-9c07-472c-8378-aaeab6f58114"
      },
      "recordedDate": "2026-12-01T08:00:00.000+00:00"
    },
    "request": {
      "method": "PUT",
      "url": "Condition/2416e183-dc13-4c86-b788-7bad0a732311"
    }
  }, {
    "fullUrl": "https://madie.cms.gov/Procedure/474bbd87-a36f-4138-a868-9c3930badfd0",
    "resource": {
      "resourceType": "Procedure",
      "id": "474bbd87-a36f-4138-a868-9c3930badfd0",
      "meta": {
        "profile": [ "http://hl7.org/fhir/us/qicore/StructureDefinition/qicore-procedure" ]
      },
      "extension": [ {
        "url": "http://hl7.org/fhir/us/qicore/StructureDefinition/qicore-recorded",
        "valueDateTime": "2014-04-05T13:35:00.000+00:00"
      } ],
      "status": "completed",
      "code": {
        "coding": [ {
          "system": "http://www.cms.gov/Medicare/Coding/ICD10",
          "code": "10D00Z0"
        } ]
      },
      "subject": {
        "reference": "Patient/c2f10a34-81ed-4bf0-93ac-fed868ada54b"
      },
      "performedPeriod": {
        "start": "2026-11-28T20:00:00.000+00:00",
        "end": "2026-11-28T20:15:00.000+00:00"
      }
    },
    "request": {
      "method": "PUT",
      "url": "Procedure/474bbd87-a36f-4138-a868-9c3930badfd0"
    }
  }, {
    "fullUrl": "https://madie.cms.gov/Coverage/cb5033ab-b556-44d1-8ac0-6862e284a6ba",
    "resource": {
      "resourceType": "Coverage",
      "id": "cb5033ab-b556-44d1-8ac0-6862e284a6ba",
      "meta": {
        "profile": [ "http://hl7.org/fhir/us/qicore/StructureDefinition/qicore-coverage" ]
      },
      "status": "active",
      "subscriberId": "523435",
      "beneficiary": {
        "reference": "Patient/c2f10a34-81ed-4bf0-93ac-fed868ada54b"
      },
      "relationship": {
        "coding": [ {
          "system": "http://terminology.hl7.org/CodeSystem/subscriber-relationship",
          "code": "self"
        } ]
      },
      "payor": [ {
        "reference": "Organization/65087ead-0b67-4683-862f-c42706b74f95"
      } ]
    },
    "request": {
      "method": "PUT",
      "url": "Coverage/cb5033ab-b556-44d1-8ac0-6862e284a6ba"
    }
  }, {
    "fullUrl": "https://madie.cms.gov/Organization/65087ead-0b67-4683-862f-c42706b74f95",
    "resource": {
      "resourceType": "Organization",
      "id": "65087ead-0b67-4683-862f-c42706b74f95",
      "meta": {
        "profile": [ "http://hl7.org/fhir/us/qicore/StructureDefinition/qicore-organization" ]
      },
      "identifier": [ {
        "use": "temp",
        "system": "urn:oid:2.16.840.1.113883.4.4",
        "value": "21-3259825"
      } ],
      "active": true,
      "type": [ {
        "coding": [ {
          "system": "http://terminology.hl7.org/CodeSystem/organization-type",
          "code": "pay",
          "display": "Payer"
        } ]
      } ],
      "name": "Blue Cross Blue Shield of Texas",
      "telecom": [ {
        "system": "phone",
        "value": "(+1) 972-766-6900"
      } ],
      "address": [ {
        "use": "billing",
        "type": "postal",
        "line": [ "P.O. Box 660044" ],
        "city": "Dallas",
        "state": "TX",
        "postalCode": "75266-0044",
        "country": "USA"
      } ]
    },
    "request": {
      "method": "PUT",
      "url": "Organization/65087ead-0b67-4683-862f-c42706b74f95"
    }
  }, {
    "fullUrl": "https://madie.cms.gov/Practitioner/ad0b9a38-4607-42ad-a3a4-4e3aab1d47c9",
    "resource": {
      "resourceType": "Practitioner",
      "id": "ad0b9a38-4607-42ad-a3a4-4e3aab1d47c9",
      "meta": {
        "profile": [ "http://hl7.org/fhir/us/qicore/StructureDefinition/qicore-practitioner" ]
      },
      "identifier": [ {
        "system": "http://hl7.org/fhir/sid/us-npi",
        "value": "1234567890"
      } ],
      "name": [ {
        "family": "Evil",
        "prefix": [ "Dr" ]
      } ]
    },
    "request": {
      "method": "PUT",
      "url": "Practitioner/ad0b9a38-4607-42ad-a3a4-4e3aab1d47c9"
    }
  }, {
    "fullUrl": "https://madie.cms.gov/MeasureReport/31da167f-07c4-4f2d-b17a-98db79756763",
    "resource": {
      "resourceType": "MeasureReport",
      "id": "31da167f-07c4-4f2d-b17a-98db79756763",
      "meta": {
        "profile": [ "http://hl7.org/fhir/us/cqfmeasures/StructureDefinition/test-case-cqfm" ]
      },
      "contained": [ {
        "resourceType": "Parameters",
        "id": "115f14f7-9a27-45dd-adec-12bcf811fa92-parameters",
        "parameter": [ {
          "name": "subject",
          "valueString": "c2f10a34-81ed-4bf0-93ac-fed868ada54b"
        } ]
      } ],
      "extension": [ {
        "url": "http://hl7.org/fhir/StructureDefinition/cqf-inputParameters",
        "valueReference": {
          "reference": "#115f14f7-9a27-45dd-adec-12bcf811fa92-parameters"
        }
      }, {
        "url": "http://hl7.org/fhir/us/cqfmeasures/StructureDefinition/cqfm-testCaseDescription",
        "valueMarkdown": "Passes IP,; Gravida 1(auth 42 weeks)  and EGA 40 weeks; Not Singleton\n"
      } ],
      "modifierExtension": [ {
        "url": "http://hl7.org/fhir/us/cqfmeasures/StructureDefinition/cqfm-isTestCase",
        "valueBoolean": true
      } ],
      "status": "complete",
      "type": "individual",
      "measure": "https://madie.cms.gov/Measure/CMS0334FHIRPCCesareanBirth",
      "period": {
        "start": "2026-01-01",
        "end": "2026-12-31"
      },
      "group": [ {
        "id": "Group_1",
        "population": [ {
          "id": "InitialPopulation_1",
          "code": {
            "coding": [ {
              "system": "http://terminology.hl7.org/CodeSystem/measure-population",
              "code": "initial-population",
              "display": "Initial Population"
            } ]
          },
          "count": 1
        }, {
          "id": "Denominator_1",
          "code": {
            "coding": [ {
              "system": "http://terminology.hl7.org/CodeSystem/measure-population",
              "code": "denominator",
              "display": "Denominator"
            } ]
          },
          "count": 0
        }, {
          "id": "DenominatorExclusion_1",
          "code": {
            "coding": [ {
              "system": "http://terminology.hl7.org/CodeSystem/measure-population",
              "code": "denominator-exclusion",
              "display": "Denominator Exclusion"
            } ]
          },
          "count": 0
        }, {
          "id": "Numerator_1",
          "code": {
            "coding": [ {
              "system": "http://terminology.hl7.org/CodeSystem/measure-population",
              "code": "numerator",
              "display": "Numerator"
            } ]
          },
          "count": 0
        } ],
        "measureScore": {
          "value": 0.0
        }
      } ],
      "evaluatedResource": [ {
        "reference": "Patient/c2f10a34-81ed-4bf0-93ac-fed868ada54b"
      }, {
        "reference": "Observation/fc22fbbb-a57e-4b08-a6e4-19c3de1e2b21"
      }, {
        "reference": "Observation/4aa4b6ea-cd1f-47ff-8a33-8e0d2a03ff19"
      }, {
        "reference": "Observation/915fd8df-c8f7-405b-9832-2b2e20de39a1"
      }, {
        "reference": "Encounter/b148da17-9c07-472c-8378-aaeab6f58114"
      }, {
        "reference": "Condition/2416e183-dc13-4c86-b788-7bad0a732311"
      }, {
        "reference": "Procedure/474bbd87-a36f-4138-a868-9c3930badfd0"
      }, {
        "reference": "Coverage/cb5033ab-b556-44d1-8ac0-6862e284a6ba"
      }, {
        "reference": "Organization/65087ead-0b67-4683-862f-c42706b74f95"
      }, {
        "reference": "Practitioner/ad0b9a38-4607-42ad-a3a4-4e3aab1d47c9"
      } ]
    },
    "request": {
      "method": "PUT",
      "url": "MeasureReport/31da167f-07c4-4f2d-b17a-98db79756763"
    }
  } ]
}