{
  "resourceType": "Bundle",
  "id": "Patient-15-DENEXPass-LivingInNursingHome",
  "type": "transaction",
  "entry": [ {
    "fullUrl": "https://madie.cms.gov/Patient/12ccd41a-83aa-405a-83b3-c756564c4de5",
    "resource": {
      "resourceType": "Patient",
      "id": "12ccd41a-83aa-405a-83b3-c756564c4de5",
      "meta": {
        "profile": [ "http://hl7.org/fhir/us/qicore/StructureDefinition/qicore-patient" ]
      },
      "extension": [ {
        "url": "http://hl7.org/fhir/us/core/StructureDefinition/us-core-race",
        "extension": [ {
          "url": "ombCategory",
          "valueCoding": {
            "system": "urn:oid:2.16.840.1.113883.6.238",
            "code": "2028-9",
            "display": "Asian"
          }
        }, {
          "url": "text",
          "valueString": "Asian"
        } ]
      }, {
        "url": "http://hl7.org/fhir/us/core/StructureDefinition/us-core-ethnicity",
        "extension": [ {
          "url": "ombCategory",
          "valueCoding": {
            "system": "urn:oid:2.16.840.1.113883.6.238",
            "code": "2135-2",
            "display": "Hispanic or Latino"
          }
        }, {
          "url": "text",
          "valueString": "Hispanic or Latino"
        } ]
      } ],
      "identifier": [ {
        "system": "http://hospital.smarthealthit.org",
        "value": "999999995"
      } ],
      "name": [ {
        "family": "Bertha",
        "given": [ "Betty" ]
      } ],
      "gender": "female",
      "birthDate": "1959-12-31"
    },
    "request": {
      "method": "PUT",
      "url": "Patient/12ccd41a-83aa-405a-83b3-c756564c4de5"
    }
  }, {
    "fullUrl": "https://madie.cms.gov/Encounter/cf7fe753-2310-4b03-b408-4304770f951f",
    "resource": {
      "resourceType": "Encounter",
      "id": "cf7fe753-2310-4b03-b408-4304770f951f",
      "meta": {
        "profile": [ "http://hl7.org/fhir/us/qicore/StructureDefinition/qicore-encounter" ]
      },
      "status": "finished",
      "class": {
        "system": "http://terminology.hl7.org/CodeSystem/v3-ActCode",
        "code": "AMB",
        "display": "ambulatory"
      },
      "type": [ {
        "coding": [ {
          "system": "http://snomed.info/sct",
          "code": "185460008",
          "display": "Home visit request by patient (procedure)"
        } ]
      } ],
      "subject": {
        "reference": "Patient/12ccd41a-83aa-405a-83b3-c756564c4de5"
      },
      "period": {
        "start": "2026-01-01T00:00:00Z",
        "end": "2026-01-01T00:15:00Z"
      }
    },
    "request": {
      "method": "PUT",
      "url": "Encounter/cf7fe753-2310-4b03-b408-4304770f951f"
    }
  }, {
    "fullUrl": "https://madie.cms.gov/Condition/282794d7-f5de-4105-9a88-44688d0df4a7",
    "resource": {
      "resourceType": "Condition",
      "id": "282794d7-f5de-4105-9a88-44688d0df4a7",
      "meta": {
        "profile": [ "http://hl7.org/fhir/us/qicore/StructureDefinition/qicore-condition-encounter-diagnosis" ]
      },
      "clinicalStatus": {
        "coding": [ {
          "system": "http://terminology.hl7.org/CodeSystem/condition-clinical",
          "code": "active"
        } ]
      },
      "category": [ {
        "coding": [ {
          "system": "http://terminology.hl7.org/CodeSystem/condition-category",
          "code": "encounter-diagnosis",
          "display": "Encounter Diagnosis"
        } ]
      } ],
      "code": {
        "coding": [ {
          "system": "http://snomed.info/sct",
          "code": "102781000119107",
          "display": "Sensory neuropathy due to type 1 diabetes mellitus (disorder)"
        } ]
      },
      "subject": {
        "reference": "Patient/12ccd41a-83aa-405a-83b3-c756564c4de5"
      },
      "onsetDateTime": "2026-01-01T23:59:00Z"
    },
    "request": {
      "method": "PUT",
      "url": "Condition/282794d7-f5de-4105-9a88-44688d0df4a7"
    }
  }, {
    "fullUrl": "https://madie.cms.gov/Observation/df4b7709-e859-4f30-81a1-67a15e99d7d9",
    "resource": {
      "resourceType": "Observation",
      "id": "df4b7709-e859-4f30-81a1-67a15e99d7d9",
      "meta": {
        "profile": [ "http://hl7.org/fhir/us/qicore/StructureDefinition/qicore-observation-screening-assessment" ]
      },
      "status": "final",
      "category": [ {
        "coding": [ {
          "system": "http://terminology.hl7.org/CodeSystem/observation-category",
          "code": "survey"
        } ]
      } ],
      "code": {
        "coding": [ {
          "system": "http://loinc.org",
          "code": "71802-3",
          "display": "Housing status"
        } ]
      },
      "subject": {
        "reference": "Patient/12ccd41a-83aa-405a-83b3-c756564c4de5"
      },
      "effectivePeriod": {
        "start": "2025-12-31T00:00:00Z",
        "end": "2026-01-01T00:00:00Z"
      },
      "valueCodeableConcept": {
        "coding": [ {
          "system": "http://snomed.info/sct",
          "code": "160734000",
          "display": "Lives in nursing home (finding)"
        } ]
      }
    },
    "request": {
      "method": "PUT",
      "url": "Observation/df4b7709-e859-4f30-81a1-67a15e99d7d9"
    }
  }, {
    "fullUrl": "https://madie.cms.gov/MeasureReport/7b0a5ba2-79f9-4149-93c0-7209ca356fd6",
    "resource": {
      "resourceType": "MeasureReport",
      "id": "7b0a5ba2-79f9-4149-93c0-7209ca356fd6",
      "meta": {
        "profile": [ "http://hl7.org/fhir/us/cqfmeasures/StructureDefinition/test-case-cqfm" ]
      },
      "contained": [ {
        "resourceType": "Parameters",
        "id": "e5fc29e1-01f6-4e87-b728-053d45f97924-parameters",
        "parameter": [ {
          "name": "subject",
          "valueString": "12ccd41a-83aa-405a-83b3-c756564c4de5"
        } ]
      } ],
      "extension": [ {
        "url": "http://hl7.org/fhir/StructureDefinition/cqf-inputParameters",
        "valueReference": {
          "reference": "#e5fc29e1-01f6-4e87-b728-053d45f97924-parameters"
        }
      }, {
        "url": "http://hl7.org/fhir/us/cqfmeasures/StructureDefinition/cqfm-testCaseDescription",
        "valueMarkdown": "Living in nursing home"
      } ],
      "modifierExtension": [ {
        "url": "http://hl7.org/fhir/us/cqfmeasures/StructureDefinition/cqfm-isTestCase",
        "valueBoolean": true
      } ],
      "status": "complete",
      "type": "individual",
      "measure": "https://madie.cms.gov/Measure/CMS122FHIRDiabetesAssessGreaterThan9Percent",
      "period": {
        "start": "2026-01-01",
        "end": "2026-12-31"
      },
      "group": [ {
        "id": "Group_1",
        "population": [ {
          "id": "InitialPopulation_1",
          "code": {
            "coding": [ {
              "system": "http://terminology.hl7.org/CodeSystem/measure-population",
              "code": "initial-population",
              "display": "Initial Population"
            } ]
          },
          "count": 1
        }, {
          "id": "Denominator_1",
          "code": {
            "coding": [ {
              "system": "http://terminology.hl7.org/CodeSystem/measure-population",
              "code": "denominator",
              "display": "Denominator"
            } ]
          },
          "count": 1
        }, {
          "id": "DenominatorExclusion_1",
          "code": {
            "coding": [ {
              "system": "http://terminology.hl7.org/CodeSystem/measure-population",
              "code": "denominator-exclusion",
              "display": "Denominator Exclusion"
            } ]
          },
          "count": 1
        }, {
          "id": "Numerator_1",
          "code": {
            "coding": [ {
              "system": "http://terminology.hl7.org/CodeSystem/measure-population",
              "code": "numerator",
              "display": "Numerator"
            } ]
          },
          "count": 0
        } ],
        "measureScore": {
          "value": 1.0
        }
      } ],
      "evaluatedResource": [ {
        "reference": "Patient/12ccd41a-83aa-405a-83b3-c756564c4de5"
      }, {
        "reference": "Encounter/cf7fe753-2310-4b03-b408-4304770f951f"
      }, {
        "reference": "Condition/282794d7-f5de-4105-9a88-44688d0df4a7"
      }, {
        "reference": "Observation/df4b7709-e859-4f30-81a1-67a15e99d7d9"
      } ]
    },
    "request": {
      "method": "PUT",
      "url": "MeasureReport/7b0a5ba2-79f9-4149-93c0-7209ca356fd6"
    }
  } ]
}