{"resourceType":"Bundle","id":"tests-4cf81a94-81fb-4be2-b075-7d8f9ff02a6e-bundle","type":"transaction","entry":[{"resource":{"resourceType":"Procedure","id":"33c8c105-ae98-420d-8758-f2ff703df9fe","meta":{"profile":["http://hl7.org/fhir/us/qicore/StructureDefinition/qicore-procedure"]},"extension":[{"url":"http://hl7.org/fhir/us/qicore/StructureDefinition/qicore-recorded","valueDateTime":"2025-12-31T23:59:59.000+00:00"}],"status":"completed","code":{"coding":[{"system":"http://snomed.info/sct","code":"14693006","display":"Subcutaneous mammectomy of bilateral breasts (procedure)"}]},"subject":{"reference":"Patient/4cf81a94-81fb-4be2-b075-7d8f9ff02a6e"},"performedPeriod":{"start":"2026-12-31T23:59:59.000+00:00","end":"2026-12-31T23:59:59.000+00:00"}},"request":{"method":"PUT","url":"Procedure/33c8c105-ae98-420d-8758-f2ff703df9fe"}},{"resource":{"resourceType":"MeasureReport","id":"f93f3071-5f64-457e-a752-f57227bfd4dd","meta":{"profile":["http://hl7.org/fhir/us/cqfmeasures/StructureDefinition/test-case-cqfm"]},"contained":[{"resourceType":"Parameters","id":"050c2f51-04ae-4da0-8577-9a8cae0c07f0-parameters","parameter":[{"name":"subject","valueString":"4cf81a94-81fb-4be2-b075-7d8f9ff02a6e"}]}],"extension":[{"url":"http://hl7.org/fhir/StructureDefinition/cqf-inputParameters","valueReference":{"reference":"#050c2f51-04ae-4da0-8577-9a8cae0c07f0-parameters"}},{"url":"http://hl7.org/fhir/us/cqfmeasures/StructureDefinition/cqfm-testCaseDescription","valueMarkdown":"Patient 52yo w/ an Office Visit  Encounter 1/1 of the MP & a Bilateral Mastectomy Procedure that ends on 12/31 of the MP."}],"modifierExtension":[{"url":"http://hl7.org/fhir/us/cqfmeasures/StructureDefinition/cqfm-isTestCase","valueBoolean":true}],"status":"complete","type":"individual","measure":"https://madie.cms.gov/Measure/CMS125FHIRBreastCancerScreening","period":{"start":"2026-01-01","end":"2026-12-31"},"group":[{"id":"Group_1","population":[{"id":"InitialPopulation_1","code":{"coding":[{"system":"http://terminology.hl7.org/CodeSystem/measure-population","code":"initial-population","display":"Initial Population"}]},"count":1},{"id":"Denominator_1","code":{"coding":[{"system":"http://terminology.hl7.org/CodeSystem/measure-population","code":"denominator","display":"Denominator"}]},"count":1},{"id":"DenominatorExclusion_1","code":{"coding":[{"system":"http://terminology.hl7.org/CodeSystem/measure-population","code":"denominator-exclusion","display":"Denominator Exclusion"}]},"count":1},{"id":"Numerator_1","code":{"coding":[{"system":"http://terminology.hl7.org/CodeSystem/measure-population","code":"numerator","display":"Numerator"}]},"count":0}],"measureScore":{"value":1.0},"stratifier":[{"id":"Stratification_1_1","stratum":[{"value":{"text":"true"},"population":[{"id":"InitialPopulation_1","code":{"coding":[{"system":"http://terminology.hl7.org/CodeSystem/measure-population","code":"initial-population","display":"Initial Population"}]},"count":0},{"id":"Denominator_1","code":{"coding":[{"system":"http://terminology.hl7.org/CodeSystem/measure-population","code":"denominator","display":"Denominator"}]},"count":0},{"id":"DenominatorExclusion_1","code":{"coding":[{"system":"http://terminology.hl7.org/CodeSystem/measure-population","code":"denominator-exclusion","display":"Denominator Exclusion"}]},"count":0},{"id":"Numerator_1","code":{"coding":[{"system":"http://terminology.hl7.org/CodeSystem/measure-population","code":"numerator","display":"Numerator"}]},"count":0}]},{"value":{"text":"false"},"population":[{"id":"InitialPopulation_1","code":{"coding":[{"system":"http://terminology.hl7.org/CodeSystem/measure-population","code":"initial-population","display":"Initial Population"}]},"count":1},{"id":"Denominator_1","code":{"coding":[{"system":"http://terminology.hl7.org/CodeSystem/measure-population","code":"denominator","display":"Denominator"}]},"count":1},{"id":"DenominatorExclusion_1","code":{"coding":[{"system":"http://terminology.hl7.org/CodeSystem/measure-population","code":"denominator-exclusion","display":"Denominator Exclusion"}]},"count":1},{"id":"Numerator_1","code":{"coding":[{"system":"http://terminology.hl7.org/CodeSystem/measure-population","code":"numerator","display":"Numerator"}]},"count":1}]}]},{"id":"Stratification_1_2","stratum":[{"value":{"text":"true"},"population":[{"id":"InitialPopulation_1","code":{"coding":[{"system":"http://terminology.hl7.org/CodeSystem/measure-population","code":"initial-population","display":"Initial Population"}]},"count":1},{"id":"Denominator_1","code":{"coding":[{"system":"http://terminology.hl7.org/CodeSystem/measure-population","code":"denominator","display":"Denominator"}]},"count":1},{"id":"DenominatorExclusion_1","code":{"coding":[{"system":"http://terminology.hl7.org/CodeSystem/measure-population","code":"denominator-exclusion","display":"Denominator Exclusion"}]},"count":1},{"id":"Numerator_1","code":{"coding":[{"system":"http://terminology.hl7.org/CodeSystem/measure-population","code":"numerator","display":"Numerator"}]},"count":0}]},{"value":{"text":"false"},"population":[{"id":"InitialPopulation_1","code":{"coding":[{"system":"http://terminology.hl7.org/CodeSystem/measure-population","code":"initial-population","display":"Initial Population"}]},"count":0},{"id":"Denominator_1","code":{"coding":[{"system":"http://terminology.hl7.org/CodeSystem/measure-population","code":"denominator","display":"Denominator"}]},"count":0},{"id":"DenominatorExclusion_1","code":{"coding":[{"system":"http://terminology.hl7.org/CodeSystem/measure-population","code":"denominator-exclusion","display":"Denominator Exclusion"}]},"count":0},{"id":"Numerator_1","code":{"coding":[{"system":"http://terminology.hl7.org/CodeSystem/measure-population","code":"numerator","display":"Numerator"}]},"count":1}]}]}]}],"evaluatedResource":[{"reference":"Patient/4cf81a94-81fb-4be2-b075-7d8f9ff02a6e"},{"reference":"Encounter/c012bfb1-201d-4cef-a1d2-31fa629405b4"},{"reference":"Procedure/33c8c105-ae98-420d-8758-f2ff703df9fe"}]},"request":{"method":"PUT","url":"MeasureReport/f93f3071-5f64-457e-a752-f57227bfd4dd"}},{"resource":{"resourceType":"Patient","id":"4cf81a94-81fb-4be2-b075-7d8f9ff02a6e","meta":{"profile":["http://hl7.org/fhir/us/qicore/StructureDefinition/qicore-patient"]},"extension":[{"url":"http://hl7.org/fhir/us/core/StructureDefinition/us-core-race","extension":[{"url":"ombCategory","valueCoding":{"system":"urn:oid:2.16.840.1.113883.6.238","code":"2028-9","display":"Asian"}},{"url":"text","valueString":"Asian"}]},{"url":"http://hl7.org/fhir/us/core/StructureDefinition/us-core-sex","valueCode":"248152002"},{"url":"http://hl7.org/fhir/us/core/StructureDefinition/us-core-ethnicity","extension":[{"url":"ombCategory","valueCoding":{"system":"urn:oid:2.16.840.1.113883.6.238","code":"2135-2","display":"Hispanic or Latino"}},{"url":"text","valueString":"Hispanic or Latino"}]}],"identifier":[{"system":"http://hospital.smarthealthit.org","value":"999999995"}],"name":[{"family":"Bertha","given":["Betty"]}],"gender":"female","birthDate":"1974-12-31"},"request":{"method":"PUT","url":"Patient/4cf81a94-81fb-4be2-b075-7d8f9ff02a6e"}},{"resource":{"resourceType":"Bundle","id":"DENEXPass-BilateralMastProcOnDec31OfMP","type":"transaction","entry":[{"fullUrl":"https://madie.cms.gov/Patient/4cf81a94-81fb-4be2-b075-7d8f9ff02a6e","resource":{"resourceType":"Patient","id":"4cf81a94-81fb-4be2-b075-7d8f9ff02a6e","meta":{"profile":["http://hl7.org/fhir/us/qicore/StructureDefinition/qicore-patient"]},"extension":[{"url":"http://hl7.org/fhir/us/core/StructureDefinition/us-core-race","extension":[{"url":"ombCategory","valueCoding":{"system":"urn:oid:2.16.840.1.113883.6.238","code":"2028-9","display":"Asian"}},{"url":"text","valueString":"Asian"}]},{"url":"http://hl7.org/fhir/us/core/StructureDefinition/us-core-sex","valueCode":"248152002"},{"url":"http://hl7.org/fhir/us/core/StructureDefinition/us-core-ethnicity","extension":[{"url":"ombCategory","valueCoding":{"system":"urn:oid:2.16.840.1.113883.6.238","code":"2135-2","display":"Hispanic or Latino"}},{"url":"text","valueString":"Hispanic or Latino"}]}],"identifier":[{"system":"http://hospital.smarthealthit.org","value":"999999995"}],"name":[{"family":"Bertha","given":["Betty"]}],"gender":"female","birthDate":"1974-12-31"},"request":{"method":"PUT","url":"Patient/4cf81a94-81fb-4be2-b075-7d8f9ff02a6e"}},{"fullUrl":"https://madie.cms.gov/Encounter/c012bfb1-201d-4cef-a1d2-31fa629405b4","resource":{"resourceType":"Encounter","id":"c012bfb1-201d-4cef-a1d2-31fa629405b4","meta":{"profile":["http://hl7.org/fhir/us/qicore/StructureDefinition/qicore-encounter"]},"status":"finished","class":{"system":"http://terminology.hl7.org/CodeSystem/v3-ActCode","code":"AMB","display":"ambulatory"},"type":[{"coding":[{"system":"http://snomed.info/sct","code":"185463005","display":"Visit out of hours (procedure)"}]}],"subject":{"reference":"Patient/4cf81a94-81fb-4be2-b075-7d8f9ff02a6e"},"period":{"start":"2026-01-01T00:00:00.000+00:00","end":"2026-01-01T00:00:00.000+00:00"}},"request":{"method":"PUT","url":"Encounter/c012bfb1-201d-4cef-a1d2-31fa629405b4"}},{"fullUrl":"https://madie.cms.gov/Procedure/33c8c105-ae98-420d-8758-f2ff703df9fe","resource":{"resourceType":"Procedure","id":"33c8c105-ae98-420d-8758-f2ff703df9fe","meta":{"profile":["http://hl7.org/fhir/us/qicore/StructureDefinition/qicore-procedure"]},"extension":[{"url":"http://hl7.org/fhir/us/qicore/StructureDefinition/qicore-recorded","valueDateTime":"2025-12-31T23:59:59.000+00:00"}],"status":"completed","code":{"coding":[{"system":"http://snomed.info/sct","code":"14693006","display":"Subcutaneous mammectomy of bilateral breasts (procedure)"}]},"subject":{"reference":"Patient/4cf81a94-81fb-4be2-b075-7d8f9ff02a6e"},"performedPeriod":{"start":"2026-12-31T23:59:59.000+00:00","end":"2026-12-31T23:59:59.000+00:00"}},"request":{"method":"PUT","url":"Procedure/33c8c105-ae98-420d-8758-f2ff703df9fe"}},{"fullUrl":"https://madie.cms.gov/MeasureReport/f93f3071-5f64-457e-a752-f57227bfd4dd","resource":{"resourceType":"MeasureReport","id":"f93f3071-5f64-457e-a752-f57227bfd4dd","meta":{"profile":["http://hl7.org/fhir/us/cqfmeasures/StructureDefinition/test-case-cqfm"]},"contained":[{"resourceType":"Parameters","id":"050c2f51-04ae-4da0-8577-9a8cae0c07f0-parameters","parameter":[{"name":"subject","valueString":"4cf81a94-81fb-4be2-b075-7d8f9ff02a6e"}]}],"extension":[{"url":"http://hl7.org/fhir/StructureDefinition/cqf-inputParameters","valueReference":{"reference":"#050c2f51-04ae-4da0-8577-9a8cae0c07f0-parameters"}},{"url":"http://hl7.org/fhir/us/cqfmeasures/StructureDefinition/cqfm-testCaseDescription","valueMarkdown":"Patient 52yo w/ an Office Visit  Encounter 1/1 of the MP & a Bilateral Mastectomy Procedure that ends on 12/31 of the MP."}],"modifierExtension":[{"url":"http://hl7.org/fhir/us/cqfmeasures/StructureDefinition/cqfm-isTestCase","valueBoolean":true}],"status":"complete","type":"individual","measure":"https://madie.cms.gov/Measure/CMS125FHIRBreastCancerScreening","period":{"start":"2026-01-01","end":"2026-12-31"},"group":[{"id":"Group_1","population":[{"id":"InitialPopulation_1","code":{"coding":[{"system":"http://terminology.hl7.org/CodeSystem/measure-population","code":"initial-population","display":"Initial Population"}]},"count":1},{"id":"Denominator_1","code":{"coding":[{"system":"http://terminology.hl7.org/CodeSystem/measure-population","code":"denominator","display":"Denominator"}]},"count":1},{"id":"DenominatorExclusion_1","code":{"coding":[{"system":"http://terminology.hl7.org/CodeSystem/measure-population","code":"denominator-exclusion","display":"Denominator Exclusion"}]},"count":1},{"id":"Numerator_1","code":{"coding":[{"system":"http://terminology.hl7.org/CodeSystem/measure-population","code":"numerator","display":"Numerator"}]},"count":0}],"measureScore":{"value":1.0},"stratifier":[{"id":"Stratification_1_1","stratum":[{"value":{"text":"true"},"population":[{"id":"InitialPopulation_1","code":{"coding":[{"system":"http://terminology.hl7.org/CodeSystem/measure-population","code":"initial-population","display":"Initial Population"}]},"count":0},{"id":"Denominator_1","code":{"coding":[{"system":"http://terminology.hl7.org/CodeSystem/measure-population","code":"denominator","display":"Denominator"}]},"count":0},{"id":"DenominatorExclusion_1","code":{"coding":[{"system":"http://terminology.hl7.org/CodeSystem/measure-population","code":"denominator-exclusion","display":"Denominator Exclusion"}]},"count":0},{"id":"Numerator_1","code":{"coding":[{"system":"http://terminology.hl7.org/CodeSystem/measure-population","code":"numerator","display":"Numerator"}]},"count":0}]},{"value":{"text":"false"},"population":[{"id":"InitialPopulation_1","code":{"coding":[{"system":"http://terminology.hl7.org/CodeSystem/measure-population","code":"initial-population","display":"Initial Population"}]},"count":1},{"id":"Denominator_1","code":{"coding":[{"system":"http://terminology.hl7.org/CodeSystem/measure-population","code":"denominator","display":"Denominator"}]},"count":1},{"id":"DenominatorExclusion_1","code":{"coding":[{"system":"http://terminology.hl7.org/CodeSystem/measure-population","code":"denominator-exclusion","display":"Denominator Exclusion"}]},"count":1},{"id":"Numerator_1","code":{"coding":[{"system":"http://terminology.hl7.org/CodeSystem/measure-population","code":"numerator","display":"Numerator"}]},"count":1}]}]},{"id":"Stratification_1_2","stratum":[{"value":{"text":"true"},"population":[{"id":"InitialPopulation_1","code":{"coding":[{"system":"http://terminology.hl7.org/CodeSystem/measure-population","code":"initial-population","display":"Initial Population"}]},"count":1},{"id":"Denominator_1","code":{"coding":[{"system":"http://terminology.hl7.org/CodeSystem/measure-population","code":"denominator","display":"Denominator"}]},"count":1},{"id":"DenominatorExclusion_1","code":{"coding":[{"system":"http://terminology.hl7.org/CodeSystem/measure-population","code":"denominator-exclusion","display":"Denominator Exclusion"}]},"count":1},{"id":"Numerator_1","code":{"coding":[{"system":"http://terminology.hl7.org/CodeSystem/measure-population","code":"numerator","display":"Numerator"}]},"count":0}]},{"value":{"text":"false"},"population":[{"id":"InitialPopulation_1","code":{"coding":[{"system":"http://terminology.hl7.org/CodeSystem/measure-population","code":"initial-population","display":"Initial Population"}]},"count":0},{"id":"Denominator_1","code":{"coding":[{"system":"http://terminology.hl7.org/CodeSystem/measure-population","code":"denominator","display":"Denominator"}]},"count":0},{"id":"DenominatorExclusion_1","code":{"coding":[{"system":"http://terminology.hl7.org/CodeSystem/measure-population","code":"denominator-exclusion","display":"Denominator Exclusion"}]},"count":0},{"id":"Numerator_1","code":{"coding":[{"system":"http://terminology.hl7.org/CodeSystem/measure-population","code":"numerator","display":"Numerator"}]},"count":1}]}]}]}],"evaluatedResource":[{"reference":"Patient/4cf81a94-81fb-4be2-b075-7d8f9ff02a6e"},{"reference":"Encounter/c012bfb1-201d-4cef-a1d2-31fa629405b4"},{"reference":"Procedure/33c8c105-ae98-420d-8758-f2ff703df9fe"}]},"request":{"method":"PUT","url":"MeasureReport/f93f3071-5f64-457e-a752-f57227bfd4dd"}}]},"request":{"method":"PUT","url":"Bundle/DENEXPass-BilateralMastProcOnDec31OfMP"}},{"resource":{"resourceType":"Encounter","id":"c012bfb1-201d-4cef-a1d2-31fa629405b4","meta":{"profile":["http://hl7.org/fhir/us/qicore/StructureDefinition/qicore-encounter"]},"status":"finished","class":{"system":"http://terminology.hl7.org/CodeSystem/v3-ActCode","code":"AMB","display":"ambulatory"},"type":[{"coding":[{"system":"http://snomed.info/sct","code":"185463005","display":"Visit out of hours (procedure)"}]}],"subject":{"reference":"Patient/4cf81a94-81fb-4be2-b075-7d8f9ff02a6e"},"period":{"start":"2026-01-01T00:00:00.000+00:00","end":"2026-01-01T00:00:00.000+00:00"}},"request":{"method":"PUT","url":"Encounter/c012bfb1-201d-4cef-a1d2-31fa629405b4"}}]}