{
  "resourceType": "Bundle",
  "id": "6129131202c62a011f2e57c3",
  "type": "transaction",
  "entry": [ {
    "fullUrl": "https://madie.cms.gov/Patient/dd6c17ad-396b-4ff5-9538-e06da5f0a39c",
    "resource": {
      "resourceType": "Patient",
      "id": "dd6c17ad-396b-4ff5-9538-e06da5f0a39c",
      "meta": {
        "profile": [ "http://hl7.org/fhir/us/qicore/StructureDefinition/qicore-patient" ]
      },
      "text": {
        "status": "generated",
        "div": "<div xmlns=\"http://www.w3.org/1999/xhtml\"><div class=\"hapiHeaderText\">PharmContraAfterEncEnd_NoEDNoObsBFEnc <b>DENEXCEPFAIL </b></div><table class=\"hapiPropertyTable\"><tbody><tr><td>Identifier</td><td>628c16cb856e01c2b8ceb8d682e71bf77cc3847841c023a61cc3ea0e750edfca</td></tr><tr><td>Date of birth</td><td><span>21 August 1994</span></td></tr></tbody></table></div>"
      },
      "extension": [ {
        "url": "http://hl7.org/fhir/us/core/StructureDefinition/us-core-race",
        "extension": [ {
          "url": "ombCategory",
          "valueCoding": {
            "system": "urn:oid:2.16.840.1.113883.6.238",
            "code": "1002-5",
            "display": "American Indian or Alaska Native",
            "userSelected": true
          }
        }, {
          "url": "text",
          "valueString": "American Indian or Alaska Native"
        } ]
      }, {
        "url": "http://hl7.org/fhir/us/core/StructureDefinition/us-core-ethnicity",
        "extension": [ {
          "url": "ombCategory",
          "valueCoding": {
            "system": "urn:oid:2.16.840.1.113883.6.238",
            "code": "2135-2",
            "display": "Hispanic or Latino",
            "userSelected": true
          }
        }, {
          "url": "text",
          "valueString": "Hispanic or Latino"
        } ]
      } ],
      "identifier": [ {
        "type": {
          "coding": [ {
            "system": "http://terminology.hl7.org/CodeSystem/v2-0203",
            "code": "MR"
          } ]
        },
        "system": "https://bonnie-fhir.healthit.gov/",
        "value": "6129131202c62a011f2e57c3"
      } ],
      "active": true,
      "name": [ {
        "use": "usual",
        "family": "DENEXCEPFail",
        "given": [ "PharmContraAfterEncEnd_NoEDNoObsBFEnc" ]
      } ],
      "gender": "male",
      "birthDate": "1995-08-21"
    },
    "request": {
      "method": "PUT",
      "url": "Patient/dd6c17ad-396b-4ff5-9538-e06da5f0a39c"
    }
  }, {
    "fullUrl": "https://madie.cms.gov/Encounter/309793f3-bacc-4a7c-9b20-1e4001b7f664",
    "resource": {
      "resourceType": "Encounter",
      "id": "309793f3-bacc-4a7c-9b20-1e4001b7f664",
      "meta": {
        "profile": [ "http://hl7.org/fhir/us/qicore/StructureDefinition/qicore-encounter" ]
      },
      "status": "finished",
      "class": {
        "system": "http://terminology.hl7.org/CodeSystem/v3-ActCode",
        "code": "IMP",
        "display": "inpatient encounter",
        "userSelected": true
      },
      "type": [ {
        "coding": [ {
          "system": "http://snomed.info/sct",
          "code": "32485007"
        } ]
      } ],
      "subject": {
        "reference": "Patient/dd6c17ad-396b-4ff5-9538-e06da5f0a39c"
      },
      "period": {
        "start": "2026-10-10T09:30:00Z",
        "end": "2026-10-12T10:30:00.000+00:00"
      },
      "length": {
        "value": 2,
        "unit": "days"
      },
      "diagnosis": [ {
        "condition": {
          "reference": "Condition/c145ee91-a0aa-455f-a555-1fae9acdebea"
        },
        "use": {
          "coding": [ {
            "system": "http://terminology.hl7.org/CodeSystem/diagnosis-role",
            "code": "billing",
            "display": "Billing"
          } ]
        },
        "rank": 1
      } ]
    },
    "request": {
      "method": "PUT",
      "url": "Encounter/309793f3-bacc-4a7c-9b20-1e4001b7f664"
    }
  }, {
    "fullUrl": "https://madie.cms.gov/MedicationRequest/9ff71c3b-cd12-4e9e-8e3d-d022caceb52b",
    "resource": {
      "resourceType": "MedicationRequest",
      "id": "9ff71c3b-cd12-4e9e-8e3d-d022caceb52b",
      "meta": {
        "profile": [ "http://hl7.org/fhir/us/qicore/StructureDefinition/qicore-medicationrequest" ]
      },
      "status": "active",
      "intent": "filler-order",
      "medicationCodeableConcept": {
        "coding": [ {
          "system": "http://www.nlm.nih.gov/research/umls/rxnorm",
          "code": "1116635"
        } ]
      },
      "subject": {
        "reference": "Patient/dd6c17ad-396b-4ff5-9538-e06da5f0a39c"
      },
      "authoredOn": "2026-10-12T10:31:00Z",
      "requester": {
        "reference": "Practitioner/example"
      }
    },
    "request": {
      "method": "PUT",
      "url": "MedicationRequest/9ff71c3b-cd12-4e9e-8e3d-d022caceb52b"
    }
  }, {
    "fullUrl": "https://madie.cms.gov/Condition/c145ee91-a0aa-455f-a555-1fae9acdebea",
    "resource": {
      "resourceType": "Condition",
      "id": "c145ee91-a0aa-455f-a555-1fae9acdebea",
      "meta": {
        "profile": [ "http://hl7.org/fhir/us/qicore/StructureDefinition/qicore-condition" ]
      },
      "clinicalStatus": {
        "coding": [ {
          "system": "http://terminology.hl7.org/CodeSystem/condition-clinical",
          "code": "active"
        } ]
      },
      "verificationStatus": {
        "coding": [ {
          "system": "http://terminology.hl7.org/CodeSystem/condition-ver-status",
          "code": "confirmed"
        } ]
      },
      "category": [ {
        "coding": [ {
          "system": "http://terminology.hl7.org/CodeSystem/condition-category",
          "code": "encounter-diagnosis",
          "display": "Encounter Diagnosis"
        } ]
      } ],
      "code": {
        "coding": [ {
          "system": "http://snomed.info/sct",
          "version": "2020-09",
          "code": "111297002",
          "display": "Nonparalytic stroke (disorder)",
          "userSelected": true
        } ]
      },
      "subject": {
        "reference": "Patient/dd6c17ad-396b-4ff5-9538-e06da5f0a39c"
      },
      "recordedDate": "2026-07-13T08:00:00Z"
    },
    "request": {
      "method": "PUT",
      "url": "Condition/c145ee91-a0aa-455f-a555-1fae9acdebea"
    }
  }, {
    "fullUrl": "https://madie.cms.gov/claim/5ca62962b8484628b8de1ec5",
    "resource": {
      "resourceType": "Claim",
      "id": "5ca62962b8484628b8de1ec5",
      "meta": {
        "profile": [ "http://hl7.org/fhir/us/qicore/StructureDefinition/qicore-claim" ]
      },
      "status": "active",
      "type": {
        "coding": [ {
          "system": "http://terminology.hl7.org/CodeSystem/claim-type",
          "code": "institutional"
        } ]
      },
      "use": "claim",
      "patient": {
        "reference": "Patient/d170a0a8-b5ad-4303-b6df-e304dd5f92ad"
      },
      "created": "2026-12-01",
      "provider": {
        "reference": "Practitioner/practitioner-123456"
      },
      "priority": {
        "coding": [ {
          "system": "http://terminology.hl7.org/CodeSystem/processpriority",
          "code": "normal"
        } ]
      },
      "diagnosis": [ {
        "sequence": 1,
        "diagnosisCodeableConcept": {
          "coding": [ {
            "system": "http://hl7.org/fhir/sid/icd-10-cm",
            "code": "I63.00"
          } ]
        },
        "type": [ {
          "coding": [ {
            "system": "http://terminology.hl7.org/CodeSystem/ex-diagnosistype",
            "code": "principal"
          } ]
        } ]
      } ],
      "insurance": [ {
        "sequence": 1,
        "focal": true,
        "coverage": {
          "reference": "Coverage/5fa041661c76ba66d9959367"
        }
      } ],
      "item": [ {
        "sequence": 1,
        "diagnosisSequence": [ 1 ],
        "productOrService": {
          "coding": [ {
            "system": "http://terminology.hl7.org/CodeSystem/ex-USCLS",
            "code": "99555"
          } ]
        },
        "encounter": [ {
          "reference": "Encounter/309793f3-bacc-4a7c-9b20-1e4001b7f664"
        } ]
      } ]
    },
    "request": {
      "method": "PUT",
      "url": "Claim/5ca62962b8484628b8de1ec5"
    }
  }, {
    "fullUrl": "https://madie.cms.gov/Coverage/f3d50430-5778-4c13-bf9e-ed251304d411",
    "resource": {
      "resourceType": "Coverage",
      "id": "f3d50430-5778-4c13-bf9e-ed251304d411",
      "meta": {
        "profile": [ "http://hl7.org/fhir/us/qicore/StructureDefinition/qicore-coverage" ]
      },
      "status": "active",
      "subscriberId": "523435",
      "beneficiary": {
        "reference": "Patient/dd6c17ad-396b-4ff5-9538-e06da5f0a39c"
      },
      "relationship": {
        "coding": [ {
          "system": "http://terminology.hl7.org/CodeSystem/subscriber-relationship",
          "code": "self"
        } ]
      },
      "payor": [ {
        "reference": "Organization/55d65ef3-474d-4de8-a712-0b779b077dee"
      } ]
    },
    "request": {
      "method": "PUT",
      "url": "Coverage/f3d50430-5778-4c13-bf9e-ed251304d411"
    }
  }, {
    "fullUrl": "https://madie.cms.gov/Organization/55d65ef3-474d-4de8-a712-0b779b077dee",
    "resource": {
      "resourceType": "Organization",
      "id": "55d65ef3-474d-4de8-a712-0b779b077dee",
      "meta": {
        "profile": [ "http://hl7.org/fhir/us/qicore/StructureDefinition/qicore-organization" ]
      },
      "identifier": [ {
        "use": "temp",
        "system": "urn:oid:2.16.840.1.113883.4.4",
        "value": "21-3259825"
      } ],
      "active": true,
      "type": [ {
        "coding": [ {
          "system": "http://terminology.hl7.org/CodeSystem/organization-type",
          "code": "pay",
          "display": "Payer"
        } ]
      } ],
      "name": "Blue Cross Blue Shield of Texas",
      "telecom": [ {
        "system": "phone",
        "value": "(+1) 972-766-6900"
      } ],
      "address": [ {
        "use": "billing",
        "type": "postal",
        "line": [ "P.O. Box 660044" ],
        "city": "Dallas",
        "state": "TX",
        "postalCode": "75266-0044",
        "country": "USA"
      } ]
    },
    "request": {
      "method": "PUT",
      "url": "Organization/55d65ef3-474d-4de8-a712-0b779b077dee"
    }
  }, {
    "fullUrl": "https://madie.cms.gov/MeasureReport/f253a3bf-f783-41de-b27e-a26ae9cc5a96",
    "resource": {
      "resourceType": "MeasureReport",
      "id": "f253a3bf-f783-41de-b27e-a26ae9cc5a96",
      "meta": {
        "profile": [ "http://hl7.org/fhir/us/cqfmeasures/StructureDefinition/test-case-cqfm" ]
      },
      "contained": [ {
        "resourceType": "Parameters",
        "id": "d75a9930-937a-4cbe-ac62-46dbdc3cda59-parameters",
        "parameter": [ {
          "name": "subject",
          "valueString": "dd6c17ad-396b-4ff5-9538-e06da5f0a39c"
        } ]
      } ],
      "extension": [ {
        "url": "http://hl7.org/fhir/StructureDefinition/cqf-inputParameters",
        "valueReference": {
          "reference": "#d75a9930-937a-4cbe-ac62-46dbdc3cda59-parameters"
        }
      }, {
        "url": "http://hl7.org/fhir/us/cqfmeasures/StructureDefinition/cqfm-testCaseDescription",
        "valueMarkdown": "Patient receives Ticagrelor after inpatient encounter. No ED. No Observation. Testing medication data type for HospitalizationWithObservation function. See CMO test cases since timing is the same."
      } ],
      "modifierExtension": [ {
        "url": "http://hl7.org/fhir/us/cqfmeasures/StructureDefinition/cqfm-isTestCase",
        "valueBoolean": true
      } ],
      "status": "complete",
      "type": "individual",
      "measure": "https://madie.cms.gov/Measure/CMS104FHIRSTKDCAntithrombotic",
      "period": {
        "start": "2026-01-01",
        "end": "2026-12-31"
      },
      "group": [ {
        "id": "Group_1",
        "population": [ {
          "id": "InitialPopulation_1",
          "code": {
            "coding": [ {
              "system": "http://terminology.hl7.org/CodeSystem/measure-population",
              "code": "initial-population",
              "display": "Initial Population"
            } ]
          },
          "count": 1
        }, {
          "id": "Denominator_1",
          "code": {
            "coding": [ {
              "system": "http://terminology.hl7.org/CodeSystem/measure-population",
              "code": "denominator",
              "display": "Denominator"
            } ]
          },
          "count": 1
        }, {
          "id": "DenominatorExclusion_1",
          "code": {
            "coding": [ {
              "system": "http://terminology.hl7.org/CodeSystem/measure-population",
              "code": "denominator-exclusion",
              "display": "Denominator Exclusion"
            } ]
          },
          "count": 0
        }, {
          "id": "Numerator_1",
          "code": {
            "coding": [ {
              "system": "http://terminology.hl7.org/CodeSystem/measure-population",
              "code": "numerator",
              "display": "Numerator"
            } ]
          },
          "count": 0
        }, {
          "id": "DenominatorException_1",
          "code": {
            "coding": [ {
              "system": "http://terminology.hl7.org/CodeSystem/measure-population",
              "code": "denominator-exception",
              "display": "Denominator Exception"
            } ]
          },
          "count": 0
        } ],
        "measureScore": {
          "value": 0.0
        }
      } ],
      "evaluatedResource": [ {
        "reference": "Patient/dd6c17ad-396b-4ff5-9538-e06da5f0a39c"
      }, {
        "reference": "Encounter/309793f3-bacc-4a7c-9b20-1e4001b7f664"
      }, {
        "reference": "MedicationRequest/9ff71c3b-cd12-4e9e-8e3d-d022caceb52b"
      }, {
        "reference": "Condition/c145ee91-a0aa-455f-a555-1fae9acdebea"
      }, {
        "reference": "Claim/5ca62962b8484628b8de1ec5"
      }, {
        "reference": "Coverage/f3d50430-5778-4c13-bf9e-ed251304d411"
      }, {
        "reference": "Organization/55d65ef3-474d-4de8-a712-0b779b077dee"
      } ]
    },
    "request": {
      "method": "PUT",
      "url": "MeasureReport/f253a3bf-f783-41de-b27e-a26ae9cc5a96"
    }
  } ]
}