{"resourceType":"Bundle","id":"tests-3207b0d6-43cb-4dd7-a71f-db8ad4b9e07a-bundle","type":"transaction","entry":[{"fullUrl":"Bundle/IPPass-AnnualWellnessVisit","resource":{"resourceType":"Bundle","id":"IPPass-AnnualWellnessVisit","type":"transaction","entry":[{"fullUrl":"https://madie.cms.gov/Patient/3207b0d6-43cb-4dd7-a71f-db8ad4b9e07a","resource":{"resourceType":"Patient","id":"3207b0d6-43cb-4dd7-a71f-db8ad4b9e07a","meta":{"profile":["http://hl7.org/fhir/us/qicore/StructureDefinition/qicore-patient"]},"extension":[{"url":"http://hl7.org/fhir/us/core/StructureDefinition/us-core-race","extension":[{"url":"ombCategory","valueCoding":{"system":"urn:oid:2.16.840.1.113883.6.238","code":"2028-9","display":"Asian","userSelected":true}},{"url":"text","valueString":"Asian"}]},{"url":"http://hl7.org/fhir/us/core/StructureDefinition/us-core-ethnicity","extension":[{"url":"ombCategory","valueCoding":{"system":"urn:oid:2.16.840.1.113883.6.238","code":"2135-2","display":"Hispanic or Latino","userSelected":true}},{"url":"text","valueString":"Hispanic or Latino"}]}],"identifier":[{"type":{"coding":[{"system":"http://terminology.hl7.org/CodeSystem/v2-0203","code":"MR"}]},"system":"http://hospital.smarthealthit.org","value":"999999995"}],"name":[{"family":"Bertha","given":["Betty"]}],"gender":"male","birthDate":"2007-01-01"},"request":{"method":"PUT","url":"Patient/3207b0d6-43cb-4dd7-a71f-db8ad4b9e07a"}},{"fullUrl":"https://madie.cms.gov/Encounter/fcbc4a28-a521-4180-b72d-3aad0b095dc8","resource":{"resourceType":"Encounter","id":"fcbc4a28-a521-4180-b72d-3aad0b095dc8","meta":{"profile":["http://hl7.org/fhir/us/qicore/StructureDefinition/qicore-encounter"]},"status":"finished","class":{"system":"http://terminology.hl7.org/CodeSystem/v3-ActCode","code":"AMB","display":"ambulatory"},"type":[{"coding":[{"system":"http://snomed.info/sct","code":"444971000124105","display":"Annual wellness visit (procedure)"}]}],"subject":{"reference":"Patient/3207b0d6-43cb-4dd7-a71f-db8ad4b9e07a"},"period":{"start":"2026-01-01T00:00:00.000Z","end":"2026-01-01T01:00:00.000Z"}},"request":{"method":"PUT","url":"Encounter/fcbc4a28-a521-4180-b72d-3aad0b095dc8"}},{"fullUrl":"https://madie.cms.gov/MedicationDispense/530a5c06-6ad9-40d4-9415-1c574811a9a1","resource":{"resourceType":"MedicationDispense","id":"530a5c06-6ad9-40d4-9415-1c574811a9a1","meta":{"profile":["http://hl7.org/fhir/us/qicore/StructureDefinition/qicore-medicationdispense"]},"status":"completed","medicationCodeableConcept":{"coding":[{"system":"http://www.nlm.nih.gov/research/umls/rxnorm","code":"1099316","display":"desipramine hydrochloride 75 MG Oral Tablet"}]},"subject":{"reference":"Patient/3207b0d6-43cb-4dd7-a71f-db8ad4b9e07a"},"daysSupply":{"value":10,"system":"http://unitsofmeasure.org","code":"days"},"whenHandedOver":"2026-01-01T01:00:00.000Z"},"request":{"method":"PUT","url":"MedicationDispense/530a5c06-6ad9-40d4-9415-1c574811a9a1"}},{"fullUrl":"https://madie.cms.gov/MedicationDispense/95a9912d-e388-4225-8a68-2e9d894b59d9","resource":{"resourceType":"MedicationDispense","id":"95a9912d-e388-4225-8a68-2e9d894b59d9","meta":{"profile":["http://hl7.org/fhir/us/qicore/StructureDefinition/qicore-medicationdispense"]},"status":"completed","medicationCodeableConcept":{"coding":[{"system":"http://www.nlm.nih.gov/research/umls/rxnorm","code":"1099316","display":"desipramine hydrochloride 75 MG Oral Tablet"}]},"subject":{"reference":"Patient/3207b0d6-43cb-4dd7-a71f-db8ad4b9e07a"},"daysSupply":{"value":10,"system":"http://unitsofmeasure.org","code":"days"},"whenHandedOver":"2026-03-01T01:00:00.000Z"},"request":{"method":"PUT","url":"MedicationDispense/95a9912d-e388-4225-8a68-2e9d894b59d9"}},{"fullUrl":"https://madie.cms.gov/Condition/defe48ba-fec4-435b-8e37-122d5bf7b0b2","resource":{"resourceType":"Condition","id":"defe48ba-fec4-435b-8e37-122d5bf7b0b2","meta":{"profile":["http://hl7.org/fhir/us/qicore/StructureDefinition/qicore-condition-encounter-diagnosis"]},"clinicalStatus":{"coding":[{"system":"http://terminology.hl7.org/CodeSystem/condition-clinical","code":"active"}]},"category":[{"coding":[{"system":"http://terminology.hl7.org/CodeSystem/condition-category","code":"problem-list-item","display":"Problem List Item"}]}],"code":{"coding":[{"system":"http://snomed.info/sct","code":"15193003","display":"Severe recurrent major depression with psychotic features, mood-incongruent (disorder)"}]},"subject":{"reference":"Patient/3207b0d6-43cb-4dd7-a71f-db8ad4b9e07a"},"onsetDateTime":"2026-01-01T01:00:00.000Z"},"request":{"method":"PUT","url":"Condition/defe48ba-fec4-435b-8e37-122d5bf7b0b2"}},{"fullUrl":"https://madie.cms.gov/MeasureReport/3bb16881-c895-433a-9b99-77ed598e6e61","resource":{"resourceType":"MeasureReport","id":"3bb16881-c895-433a-9b99-77ed598e6e61","meta":{"profile":["http://hl7.org/fhir/us/cqfmeasures/StructureDefinition/test-case-cqfm"]},"contained":[{"resourceType":"Parameters","id":"fd501a7e-079a-4e47-a91e-f02ae8e9f575-parameters","parameter":[{"name":"subject","valueString":"3207b0d6-43cb-4dd7-a71f-db8ad4b9e07a"}]}],"extension":[{"url":"http://hl7.org/fhir/StructureDefinition/cqf-inputParameters","valueReference":{"reference":"#fd501a7e-079a-4e47-a91e-f02ae8e9f575-parameters"}},{"url":"http://hl7.org/fhir/us/cqfmeasures/StructureDefinition/cqfm-testCaseDescription","valueMarkdown":"Qualifying encounter is annual wellness visit"}],"modifierExtension":[{"url":"http://hl7.org/fhir/us/cqfmeasures/StructureDefinition/cqfm-isTestCase","valueBoolean":true}],"status":"complete","type":"individual","measure":"https://madie.cms.gov/Measure/CMS128FHIRAntidepressantMedManagement","period":{"start":"2026-01-01","end":"2026-12-31"},"group":[{"id":"Group_1","population":[{"id":"InitialPopulation_1","code":{"coding":[{"system":"http://terminology.hl7.org/CodeSystem/measure-population","code":"initial-population","display":"Initial Population"}]},"count":1},{"id":"Denominator_1","code":{"coding":[{"system":"http://terminology.hl7.org/CodeSystem/measure-population","code":"denominator","display":"Denominator"}]},"count":1},{"id":"DenominatorExclusion_1","code":{"coding":[{"system":"http://terminology.hl7.org/CodeSystem/measure-population","code":"denominator-exclusion","display":"Denominator Exclusion"}]},"count":0},{"id":"Numerator_1","code":{"coding":[{"system":"http://terminology.hl7.org/CodeSystem/measure-population","code":"numerator","display":"Numerator"}]},"count":0}],"measureScore":{"value":1.0}},{"id":"Group_2","population":[{"id":"InitialPopulation_2","code":{"coding":[{"system":"http://terminology.hl7.org/CodeSystem/measure-population","code":"initial-population","display":"Initial Population"}]},"count":1},{"id":"Denominator_2","code":{"coding":[{"system":"http://terminology.hl7.org/CodeSystem/measure-population","code":"denominator","display":"Denominator"}]},"count":1},{"id":"DenominatorExclusion_2","code":{"coding":[{"system":"http://terminology.hl7.org/CodeSystem/measure-population","code":"denominator-exclusion","display":"Denominator Exclusion"}]},"count":0},{"id":"Numerator_2","code":{"coding":[{"system":"http://terminology.hl7.org/CodeSystem/measure-population","code":"numerator","display":"Numerator"}]},"count":0}],"measureScore":{"value":1.0}}],"evaluatedResource":[{"reference":"Patient/3207b0d6-43cb-4dd7-a71f-db8ad4b9e07a"},{"reference":"Encounter/fcbc4a28-a521-4180-b72d-3aad0b095dc8"},{"reference":"MedicationDispense/530a5c06-6ad9-40d4-9415-1c574811a9a1"},{"reference":"MedicationDispense/95a9912d-e388-4225-8a68-2e9d894b59d9"},{"reference":"Condition/defe48ba-fec4-435b-8e37-122d5bf7b0b2"}]},"request":{"method":"PUT","url":"MeasureReport/3bb16881-c895-433a-9b99-77ed598e6e61"}}]},"request":{"method":"PUT","url":"Bundle/IPPass-AnnualWellnessVisit"}},{"fullUrl":"Encounter/fcbc4a28-a521-4180-b72d-3aad0b095dc8","resource":{"resourceType":"Encounter","id":"fcbc4a28-a521-4180-b72d-3aad0b095dc8","meta":{"profile":["http://hl7.org/fhir/us/qicore/StructureDefinition/qicore-encounter"]},"status":"finished","class":{"system":"http://terminology.hl7.org/CodeSystem/v3-ActCode","code":"AMB","display":"ambulatory"},"type":[{"coding":[{"system":"http://snomed.info/sct","code":"444971000124105","display":"Annual wellness visit (procedure)"}]}],"subject":{"reference":"Patient/3207b0d6-43cb-4dd7-a71f-db8ad4b9e07a"},"period":{"start":"2026-01-01T00:00:00.000Z","end":"2026-01-01T01:00:00.000Z"}},"request":{"method":"PUT","url":"Encounter/fcbc4a28-a521-4180-b72d-3aad0b095dc8"}},{"fullUrl":"MedicationDispense/95a9912d-e388-4225-8a68-2e9d894b59d9","resource":{"resourceType":"MedicationDispense","id":"95a9912d-e388-4225-8a68-2e9d894b59d9","meta":{"profile":["http://hl7.org/fhir/us/qicore/StructureDefinition/qicore-medicationdispense"]},"status":"completed","medicationCodeableConcept":{"coding":[{"system":"http://www.nlm.nih.gov/research/umls/rxnorm","code":"1099316","display":"desipramine hydrochloride 75 MG Oral Tablet"}]},"subject":{"reference":"Patient/3207b0d6-43cb-4dd7-a71f-db8ad4b9e07a"},"daysSupply":{"value":10,"system":"http://unitsofmeasure.org","code":"days"},"whenHandedOver":"2026-03-01T01:00:00.000Z"},"request":{"method":"PUT","url":"MedicationDispense/95a9912d-e388-4225-8a68-2e9d894b59d9"}},{"fullUrl":"Condition/defe48ba-fec4-435b-8e37-122d5bf7b0b2","resource":{"resourceType":"Condition","id":"defe48ba-fec4-435b-8e37-122d5bf7b0b2","meta":{"profile":["http://hl7.org/fhir/us/qicore/StructureDefinition/qicore-condition-encounter-diagnosis"]},"clinicalStatus":{"coding":[{"system":"http://terminology.hl7.org/CodeSystem/condition-clinical","code":"active"}]},"category":[{"coding":[{"system":"http://terminology.hl7.org/CodeSystem/condition-category","code":"problem-list-item","display":"Problem List Item"}]}],"code":{"coding":[{"system":"http://snomed.info/sct","code":"15193003","display":"Severe recurrent major depression with psychotic features, mood-incongruent (disorder)"}]},"subject":{"reference":"Patient/3207b0d6-43cb-4dd7-a71f-db8ad4b9e07a"},"onsetDateTime":"2026-01-01T01:00:00.000Z"},"request":{"method":"PUT","url":"Condition/defe48ba-fec4-435b-8e37-122d5bf7b0b2"}},{"fullUrl":"MeasureReport/3bb16881-c895-433a-9b99-77ed598e6e61","resource":{"resourceType":"MeasureReport","id":"3bb16881-c895-433a-9b99-77ed598e6e61","meta":{"profile":["http://hl7.org/fhir/us/cqfmeasures/StructureDefinition/test-case-cqfm"]},"contained":[{"resourceType":"Parameters","id":"fd501a7e-079a-4e47-a91e-f02ae8e9f575-parameters","parameter":[{"name":"subject","valueString":"3207b0d6-43cb-4dd7-a71f-db8ad4b9e07a"}]}],"extension":[{"url":"http://hl7.org/fhir/StructureDefinition/cqf-inputParameters","valueReference":{"reference":"#fd501a7e-079a-4e47-a91e-f02ae8e9f575-parameters"}},{"url":"http://hl7.org/fhir/us/cqfmeasures/StructureDefinition/cqfm-testCaseDescription","valueMarkdown":"Qualifying encounter is annual wellness visit"}],"modifierExtension":[{"url":"http://hl7.org/fhir/us/cqfmeasures/StructureDefinition/cqfm-isTestCase","valueBoolean":true}],"status":"complete","type":"individual","measure":"https://madie.cms.gov/Measure/CMS128FHIRAntidepressantMedManagement","period":{"start":"2026-01-01","end":"2026-12-31"},"group":[{"id":"Group_1","population":[{"id":"InitialPopulation_1","code":{"coding":[{"system":"http://terminology.hl7.org/CodeSystem/measure-population","code":"initial-population","display":"Initial Population"}]},"count":1},{"id":"Denominator_1","code":{"coding":[{"system":"http://terminology.hl7.org/CodeSystem/measure-population","code":"denominator","display":"Denominator"}]},"count":1},{"id":"DenominatorExclusion_1","code":{"coding":[{"system":"http://terminology.hl7.org/CodeSystem/measure-population","code":"denominator-exclusion","display":"Denominator Exclusion"}]},"count":0},{"id":"Numerator_1","code":{"coding":[{"system":"http://terminology.hl7.org/CodeSystem/measure-population","code":"numerator","display":"Numerator"}]},"count":0}],"measureScore":{"value":1.0}},{"id":"Group_2","population":[{"id":"InitialPopulation_2","code":{"coding":[{"system":"http://terminology.hl7.org/CodeSystem/measure-population","code":"initial-population","display":"Initial Population"}]},"count":1},{"id":"Denominator_2","code":{"coding":[{"system":"http://terminology.hl7.org/CodeSystem/measure-population","code":"denominator","display":"Denominator"}]},"count":1},{"id":"DenominatorExclusion_2","code":{"coding":[{"system":"http://terminology.hl7.org/CodeSystem/measure-population","code":"denominator-exclusion","display":"Denominator Exclusion"}]},"count":0},{"id":"Numerator_2","code":{"coding":[{"system":"http://terminology.hl7.org/CodeSystem/measure-population","code":"numerator","display":"Numerator"}]},"count":0}],"measureScore":{"value":1.0}}],"evaluatedResource":[{"reference":"Patient/3207b0d6-43cb-4dd7-a71f-db8ad4b9e07a"},{"reference":"Encounter/fcbc4a28-a521-4180-b72d-3aad0b095dc8"},{"reference":"MedicationDispense/530a5c06-6ad9-40d4-9415-1c574811a9a1"},{"reference":"MedicationDispense/95a9912d-e388-4225-8a68-2e9d894b59d9"},{"reference":"Condition/defe48ba-fec4-435b-8e37-122d5bf7b0b2"}]},"request":{"method":"PUT","url":"MeasureReport/3bb16881-c895-433a-9b99-77ed598e6e61"}},{"fullUrl":"MedicationDispense/530a5c06-6ad9-40d4-9415-1c574811a9a1","resource":{"resourceType":"MedicationDispense","id":"530a5c06-6ad9-40d4-9415-1c574811a9a1","meta":{"profile":["http://hl7.org/fhir/us/qicore/StructureDefinition/qicore-medicationdispense"]},"status":"completed","medicationCodeableConcept":{"coding":[{"system":"http://www.nlm.nih.gov/research/umls/rxnorm","code":"1099316","display":"desipramine hydrochloride 75 MG Oral Tablet"}]},"subject":{"reference":"Patient/3207b0d6-43cb-4dd7-a71f-db8ad4b9e07a"},"daysSupply":{"value":10,"system":"http://unitsofmeasure.org","code":"days"},"whenHandedOver":"2026-01-01T01:00:00.000Z"},"request":{"method":"PUT","url":"MedicationDispense/530a5c06-6ad9-40d4-9415-1c574811a9a1"}},{"fullUrl":"Patient/3207b0d6-43cb-4dd7-a71f-db8ad4b9e07a","resource":{"resourceType":"Patient","id":"3207b0d6-43cb-4dd7-a71f-db8ad4b9e07a","meta":{"profile":["http://hl7.org/fhir/us/qicore/StructureDefinition/qicore-patient"]},"extension":[{"url":"http://hl7.org/fhir/us/core/StructureDefinition/us-core-race","extension":[{"url":"ombCategory","valueCoding":{"system":"urn:oid:2.16.840.1.113883.6.238","code":"2028-9","display":"Asian","userSelected":true}},{"url":"text","valueString":"Asian"}]},{"url":"http://hl7.org/fhir/us/core/StructureDefinition/us-core-ethnicity","extension":[{"url":"ombCategory","valueCoding":{"system":"urn:oid:2.16.840.1.113883.6.238","code":"2135-2","display":"Hispanic or Latino","userSelected":true}},{"url":"text","valueString":"Hispanic or Latino"}]}],"identifier":[{"type":{"coding":[{"system":"http://terminology.hl7.org/CodeSystem/v2-0203","code":"MR"}]},"system":"http://hospital.smarthealthit.org","value":"999999995"}],"name":[{"family":"Bertha","given":["Betty"]}],"gender":"male","birthDate":"2007-01-01"},"request":{"method":"PUT","url":"Patient/3207b0d6-43cb-4dd7-a71f-db8ad4b9e07a"}}]}