{
  "resourceType": "Bundle",
  "id": "98116841646686466847",
  "type": "transaction",
  "entry": [ {
    "fullUrl": "https://madie.cms.gov/Patient/fa45f7d1-d257-4fcc-9bef-3188d13c92fe",
    "resource": {
      "resourceType": "Patient",
      "id": "fa45f7d1-d257-4fcc-9bef-3188d13c92fe",
      "meta": {
        "profile": [ "http://hl7.org/fhir/us/qicore/StructureDefinition/qicore-patient" ]
      },
      "extension": [ {
        "url": "http://hl7.org/fhir/us/core/StructureDefinition/us-core-race",
        "extension": [ {
          "url": "ombCategory",
          "valueCoding": {
            "system": "urn:oid:2.16.840.1.113883.6.238",
            "code": "2106-3",
            "display": "White"
          }
        }, {
          "url": "text",
          "valueString": "White"
        } ]
      }, {
        "url": "http://hl7.org/fhir/us/core/StructureDefinition/us-core-ethnicity",
        "extension": [ {
          "url": "ombCategory",
          "valueCoding": {
            "system": "urn:oid:2.16.840.1.113883.6.238",
            "code": "2186-5",
            "display": "Not Hispanic or Latino"
          }
        }, {
          "url": "text",
          "valueString": "Not Hispanic or Latino"
        } ]
      } ],
      "identifier": [ {
        "type": {
          "coding": [ {
            "system": "http://terminology.hl7.org/CodeSystem/v2-0203",
            "code": "MR"
          } ]
        },
        "system": "https://bonnie-fhir.healthit.gov/",
        "value": "6546841651641616513421"
      } ],
      "name": [ {
        "family": "DENEXPopStrat1Pass",
        "given": [ "HospDischargeFacilityDuringMP" ]
      } ],
      "gender": "female",
      "birthDate": "2011-01-01"
    },
    "request": {
      "method": "PUT",
      "url": "Patient/fa45f7d1-d257-4fcc-9bef-3188d13c92fe"
    }
  }, {
    "fullUrl": "https://madie.cms.gov/Encounter/6bb30e35-4b6e-4343-94ac-0fc197487e2a",
    "resource": {
      "resourceType": "Encounter",
      "id": "6bb30e35-4b6e-4343-94ac-0fc197487e2a",
      "meta": {
        "profile": [ "http://hl7.org/fhir/us/qicore/StructureDefinition/qicore-encounter" ]
      },
      "status": "finished",
      "class": {
        "system": "http://terminology.hl7.org/CodeSystem/v3-ActCode",
        "code": "AMB",
        "display": "ambulatory"
      },
      "type": [ {
        "coding": [ {
          "system": "http://www.ama-assn.org/go/cpt",
          "version": "2024",
          "code": "90791"
        } ]
      } ],
      "subject": {
        "reference": "Patient/fa45f7d1-d257-4fcc-9bef-3188d13c92fe"
      },
      "period": {
        "start": "2025-02-25T14:30:00+00:00",
        "end": "2025-02-25T14:50:00+00:00"
      },
      "length": {
        "value": 0,
        "unit": "days"
      }
    },
    "request": {
      "method": "PUT",
      "url": "Encounter/6bb30e35-4b6e-4343-94ac-0fc197487e2a"
    }
  }, {
    "fullUrl": "https://madie.cms.gov/Observation/3cba409e-834b-42ba-84d4-6961d91aefb5",
    "resource": {
      "resourceType": "Observation",
      "id": "3cba409e-834b-42ba-84d4-6961d91aefb5",
      "meta": {
        "profile": [ "http://hl7.org/fhir/us/qicore/StructureDefinition/qicore-observation-screening-assessment" ]
      },
      "status": "final",
      "category": [ {
        "coding": [ {
          "system": "http://terminology.hl7.org/CodeSystem/observation-category",
          "code": "survey",
          "display": "Survey"
        } ]
      } ],
      "code": {
        "coding": [ {
          "system": "http://loinc.org",
          "version": "2.76",
          "code": "44261-6"
        } ]
      },
      "subject": {
        "reference": "Patient/fa45f7d1-d257-4fcc-9bef-3188d13c92fe"
      },
      "effectiveDateTime": "2025-02-25T14:35:00+00:00",
      "valueInteger": 10
    },
    "request": {
      "method": "PUT",
      "url": "Observation/3cba409e-834b-42ba-84d4-6961d91aefb5"
    }
  }, {
    "fullUrl": "https://madie.cms.gov/Observation/5bf951c7-eb94-41ee-9295-fcf4b0f55bb8",
    "resource": {
      "resourceType": "Observation",
      "id": "5bf951c7-eb94-41ee-9295-fcf4b0f55bb8",
      "meta": {
        "profile": [ "http://hl7.org/fhir/us/qicore/StructureDefinition/qicore-observation-screening-assessment" ]
      },
      "status": "final",
      "category": [ {
        "coding": [ {
          "system": "http://terminology.hl7.org/CodeSystem/observation-category",
          "code": "survey",
          "display": "Survey"
        } ]
      } ],
      "code": {
        "coding": [ {
          "system": "http://loinc.org",
          "version": "2.76",
          "code": "44261-6"
        } ]
      },
      "subject": {
        "reference": "Patient/fa45f7d1-d257-4fcc-9bef-3188d13c92fe"
      },
      "effectiveDateTime": "2026-02-19T14:30:00+00:00",
      "valueInteger": 3
    },
    "request": {
      "method": "PUT",
      "url": "Observation/5bf951c7-eb94-41ee-9295-fcf4b0f55bb8"
    }
  }, {
    "fullUrl": "https://madie.cms.gov/Condition/26d32e14-131f-4aac-a8b7-9d04406d8746",
    "resource": {
      "resourceType": "Condition",
      "id": "26d32e14-131f-4aac-a8b7-9d04406d8746",
      "meta": {
        "profile": [ "http://hl7.org/fhir/us/qicore/StructureDefinition/qicore-condition-problems-health-concerns" ]
      },
      "clinicalStatus": {
        "coding": [ {
          "system": "http://terminology.hl7.org/CodeSystem/condition-clinical",
          "code": "active",
          "display": "active"
        } ]
      },
      "verificationStatus": {
        "coding": [ {
          "system": "http://terminology.hl7.org/CodeSystem/condition-ver-status",
          "code": "confirmed"
        } ]
      },
      "category": [ {
        "coding": [ {
          "system": "http://terminology.hl7.org/CodeSystem/condition-category",
          "code": "problem-list-item",
          "display": "Problem List Item"
        } ]
      } ],
      "code": {
        "coding": [ {
          "system": "http://hl7.org/fhir/sid/icd-10-cm",
          "version": "2024",
          "code": "F32.9"
        } ]
      },
      "subject": {
        "reference": "Patient/fa45f7d1-d257-4fcc-9bef-3188d13c92fe"
      },
      "onsetDateTime": "2025-02-25T14:35:00+00:00"
    },
    "request": {
      "method": "PUT",
      "url": "Condition/26d32e14-131f-4aac-a8b7-9d04406d8746"
    }
  }, {
    "fullUrl": "https://madie.cms.gov/Encounter/cc014dcb-0402-4498-afe4-5eda498115ec",
    "resource": {
      "resourceType": "Encounter",
      "id": "cc014dcb-0402-4498-afe4-5eda498115ec",
      "meta": {
        "profile": [ "http://hl7.org/fhir/us/qicore/StructureDefinition/qicore-encounter" ]
      },
      "status": "finished",
      "class": {
        "system": "http://terminology.hl7.org/CodeSystem/v3-ActCode",
        "code": "STRAT",
        "display": "stratification"
      },
      "type": [ {
        "coding": [ {
          "system": "http://snomed.info/sct",
          "version": "http://snomed.info/sct/731000124108/version/20240301",
          "code": "183452005"
        } ]
      } ],
      "subject": {
        "reference": "Patient/fa45f7d1-d257-4fcc-9bef-3188d13c92fe"
      },
      "period": {
        "start": "2025-12-31T08:00:00+00:00",
        "end": "2026-04-25T12:00:00+00:00"
      },
      "length": {
        "value": 0,
        "unit": "days"
      },
      "hospitalization": {
        "dischargeDisposition": {
          "coding": [ {
            "system": "http://snomed.info/sct",
            "version": "http://snomed.info/sct/731000124108/version/20240301",
            "code": "428371000124100"
          } ]
        }
      }
    },
    "request": {
      "method": "PUT",
      "url": "Encounter/cc014dcb-0402-4498-afe4-5eda498115ec"
    }
  }, {
    "fullUrl": "https://madie.cms.gov/MeasureReport/f194c989-2f92-4b70-ac29-d7d4bc5690a9",
    "resource": {
      "resourceType": "MeasureReport",
      "id": "f194c989-2f92-4b70-ac29-d7d4bc5690a9",
      "meta": {
        "profile": [ "http://hl7.org/fhir/us/cqfmeasures/StructureDefinition/test-case-cqfm" ]
      },
      "contained": [ {
        "resourceType": "Parameters",
        "id": "fbc208fb-f1da-4d19-a4b7-8547be4072c2-parameters",
        "parameter": [ {
          "name": "subject",
          "valueString": "fa45f7d1-d257-4fcc-9bef-3188d13c92fe"
        } ]
      } ],
      "extension": [ {
        "url": "http://hl7.org/fhir/StructureDefinition/cqf-inputParameters",
        "valueReference": {
          "reference": "#fbc208fb-f1da-4d19-a4b7-8547be4072c2-parameters"
        }
      }, {
        "url": "http://hl7.org/fhir/us/cqfmeasures/StructureDefinition/cqfm-testCaseDescription",
        "valueMarkdown": "Patient is 15 years old and has a Major Depressive DX and PHQ-9>9 during the denom ID period. Patient discharged to facility for hospice care before end of MAP Should be in denominator exclusion for Strat 1. "
      } ],
      "modifierExtension": [ {
        "url": "http://hl7.org/fhir/us/cqfmeasures/StructureDefinition/cqfm-isTestCase",
        "valueBoolean": true
      } ],
      "status": "complete",
      "type": "individual",
      "measure": "https://madie.cms.gov/Measure/CMS159FHIRDepressionRemissionatTwelveMonths",
      "period": {
        "start": "2026-01-01",
        "end": "2026-12-31"
      },
      "group": [ {
        "id": "Group_1",
        "population": [ {
          "id": "InitialPopulation_1",
          "code": {
            "coding": [ {
              "system": "http://terminology.hl7.org/CodeSystem/measure-population",
              "code": "initial-population",
              "display": "Initial Population"
            } ]
          },
          "count": 1
        }, {
          "id": "Denominator_1",
          "code": {
            "coding": [ {
              "system": "http://terminology.hl7.org/CodeSystem/measure-population",
              "code": "denominator",
              "display": "Denominator"
            } ]
          },
          "count": 1
        }, {
          "id": "DenominatorExclusion_1",
          "code": {
            "coding": [ {
              "system": "http://terminology.hl7.org/CodeSystem/measure-population",
              "code": "denominator-exclusion",
              "display": "Denominator Exclusion"
            } ]
          },
          "count": 1
        }, {
          "id": "Numerator_1",
          "code": {
            "coding": [ {
              "system": "http://terminology.hl7.org/CodeSystem/measure-population",
              "code": "numerator",
              "display": "Numerator"
            } ]
          },
          "count": 0
        } ],
        "measureScore": {
          "value": 1.0
        }
      } ],
      "evaluatedResource": [ {
        "reference": "Patient/fa45f7d1-d257-4fcc-9bef-3188d13c92fe"
      }, {
        "reference": "Encounter/6bb30e35-4b6e-4343-94ac-0fc197487e2a"
      }, {
        "reference": "Observation/3cba409e-834b-42ba-84d4-6961d91aefb5"
      }, {
        "reference": "Observation/5bf951c7-eb94-41ee-9295-fcf4b0f55bb8"
      }, {
        "reference": "Condition/26d32e14-131f-4aac-a8b7-9d04406d8746"
      }, {
        "reference": "Encounter/cc014dcb-0402-4498-afe4-5eda498115ec"
      } ]
    },
    "request": {
      "method": "PUT",
      "url": "MeasureReport/f194c989-2f92-4b70-ac29-d7d4bc5690a9"
    }
  } ]
}