{
  "resourceType": "Bundle",
  "id": "60f82c3098086b570510e2d9",
  "type": "transaction",
  "entry": [ {
    "fullUrl": "https://madie.cms.gov/Patient/4a276dfb-e77e-4b19-96af-96bd653b21b7",
    "resource": {
      "resourceType": "Patient",
      "id": "4a276dfb-e77e-4b19-96af-96bd653b21b7",
      "meta": {
        "profile": [ "http://hl7.org/fhir/us/qicore/StructureDefinition/qicore-patient" ]
      },
      "text": {
        "status": "generated",
        "div": "<div xmlns=\"http://www.w3.org/1999/xhtml\"><div class=\"hapiHeaderText\">CMP_DayOf_RelvDat_OnObsStart_EDEndLT1hrB4Obs_ObsEndLT1hrB4IP <b>DENEXPASS </b></div><table class=\"hapiPropertyTable\"><tbody><tr><td>Date of birth</td><td><span>01 January 1980</span></td></tr></tbody></table></div>"
      },
      "extension": [ {
        "url": "http://hl7.org/fhir/us/core/StructureDefinition/us-core-race",
        "extension": [ {
          "url": "ombCategory",
          "valueCoding": {
            "system": "urn:oid:2.16.840.1.113883.6.238",
            "code": "2106-3",
            "display": "White",
            "userSelected": true
          }
        }, {
          "url": "text",
          "valueString": "White"
        } ]
      }, {
        "url": "http://hl7.org/fhir/us/core/StructureDefinition/us-core-ethnicity",
        "extension": [ {
          "url": "ombCategory",
          "valueCoding": {
            "system": "urn:oid:2.16.840.1.113883.6.238",
            "code": "2186-5",
            "display": "Not Hispanic or Latino",
            "userSelected": true
          }
        }, {
          "url": "text",
          "valueString": "Not Hispanic or Latino"
        } ]
      } ],
      "identifier": [ {
        "type": {
          "coding": [ {
            "system": "http://terminology.hl7.org/CodeSystem/v2-0203",
            "code": "MR"
          } ]
        },
        "system": "https://bonnie-fhir.healthit.gov/",
        "value": "60f82c3098086b570510e2d9"
      } ],
      "active": true,
      "name": [ {
        "use": "usual",
        "family": "DENEXPass",
        "given": [ "CMPDayOfRelvDatOnObsStartEDEndLT1hrB4ObsObsEndLT1hrB4IP" ]
      } ],
      "gender": "female",
      "birthDate": "1981-01-01"
    },
    "request": {
      "method": "PUT",
      "url": "Patient/4a276dfb-e77e-4b19-96af-96bd653b21b7"
    }
  }, {
    "fullUrl": "https://madie.cms.gov/Encounter/c24331f9-db8b-4ac1-9563-14300b763164",
    "resource": {
      "resourceType": "Encounter",
      "id": "c24331f9-db8b-4ac1-9563-14300b763164",
      "meta": {
        "profile": [ "http://hl7.org/fhir/us/qicore/StructureDefinition/qicore-encounter" ]
      },
      "status": "finished",
      "class": {
        "system": "http://terminology.hl7.org/CodeSystem/v3-ActCode",
        "code": "EMER",
        "display": "emergency"
      },
      "type": [ {
        "coding": [ {
          "system": "http://snomed.info/sct",
          "code": "4525004"
        } ]
      } ],
      "subject": {
        "reference": "Patient/4a276dfb-e77e-4b19-96af-96bd653b21b7"
      },
      "period": {
        "start": "2026-11-18T07:00:00Z",
        "end": "2026-11-18T08:01:00.000+00:00"
      },
      "diagnosis": [ {
        "condition": {
          "reference": "Condition/1dd1dace-b4b3-4163-ac45-71251835f872"
        },
        "use": {
          "coding": [ {
            "system": "http://terminology.hl7.org/CodeSystem/diagnosis-role",
            "code": "billing",
            "display": "Billing"
          } ]
        },
        "rank": 1
      } ]
    },
    "request": {
      "method": "PUT",
      "url": "Encounter/c24331f9-db8b-4ac1-9563-14300b763164"
    }
  }, {
    "fullUrl": "https://madie.cms.gov/Encounter/c7203d47-f708-4401-b184-07d48cf8c891",
    "resource": {
      "resourceType": "Encounter",
      "id": "c7203d47-f708-4401-b184-07d48cf8c891",
      "meta": {
        "profile": [ "http://hl7.org/fhir/us/qicore/StructureDefinition/qicore-encounter" ]
      },
      "status": "finished",
      "class": {
        "system": "http://terminology.hl7.org/CodeSystem/v3-ActCode",
        "code": "OBSENC",
        "display": "observation encounter"
      },
      "type": [ {
        "coding": [ {
          "system": "http://snomed.info/sct",
          "code": "448951000124107"
        } ]
      } ],
      "subject": {
        "reference": "Patient/4a276dfb-e77e-4b19-96af-96bd653b21b7"
      },
      "period": {
        "start": "2026-11-18T09:00:00Z",
        "end": "2026-11-18T10:01:00.000+00:00"
      }
    },
    "request": {
      "method": "PUT",
      "url": "Encounter/c7203d47-f708-4401-b184-07d48cf8c891"
    }
  }, {
    "fullUrl": "https://madie.cms.gov/Encounter/895709a1-091a-4bf1-93d2-3a90b1c874ea",
    "resource": {
      "resourceType": "Encounter",
      "id": "895709a1-091a-4bf1-93d2-3a90b1c874ea",
      "meta": {
        "profile": [ "http://hl7.org/fhir/us/qicore/StructureDefinition/qicore-encounter" ]
      },
      "status": "finished",
      "class": {
        "system": "http://terminology.hl7.org/CodeSystem/v3-ActCode",
        "code": "IMP",
        "display": "inpatient encounter"
      },
      "type": [ {
        "coding": [ {
          "system": "http://snomed.info/sct",
          "code": "183452005"
        } ]
      } ],
      "subject": {
        "reference": "Patient/4a276dfb-e77e-4b19-96af-96bd653b21b7"
      },
      "period": {
        "start": "2026-11-18T11:00:00Z",
        "end": "2026-11-20T08:15:00.000+00:00"
      },
      "reasonReference": [ {
        "reference": "Condition/1dd1dace-b4b3-4163-ac45-71251835f872"
      } ]
    },
    "request": {
      "method": "PUT",
      "url": "Encounter/895709a1-091a-4bf1-93d2-3a90b1c874ea"
    }
  }, {
    "fullUrl": "https://madie.cms.gov/claim/5ca62962b8484628b8de1ec5",
    "resource": {
      "resourceType": "Claim",
      "id": "5ca62962b8484628b8de1ec5",
      "meta": {
        "profile": [ "http://hl7.org/fhir/us/qicore/StructureDefinition/qicore-claim" ]
      },
      "status": "active",
      "type": {
        "coding": [ {
          "system": "http://terminology.hl7.org/CodeSystem/claim-type",
          "code": "institutional"
        } ]
      },
      "use": "claim",
      "patient": {
        "reference": "Patient/4a276dfb-e77e-4b19-96af-96bd653b21b7"
      },
      "created": "2026-12-01",
      "provider": {
        "reference": "Practitioner/practitioner-123456"
      },
      "priority": {
        "coding": [ {
          "system": "http://terminology.hl7.org/CodeSystem/processpriority",
          "code": "normal"
        } ]
      },
      "diagnosis": [ {
        "sequence": 1,
        "diagnosisCodeableConcept": {
          "coding": [ {
            "system": "http://hl7.org/fhir/sid/icd-10-cm",
            "code": "I63.00"
          } ]
        },
        "type": [ {
          "coding": [ {
            "system": "http://terminology.hl7.org/CodeSystem/ex-diagnosistype",
            "code": "principal"
          } ]
        } ]
      } ],
      "insurance": [ {
        "sequence": 1,
        "focal": true,
        "coverage": {
          "reference": "Coverage/2b8a6f00-f0b9-4018-b379-d764c078b4b7"
        }
      } ],
      "item": [ {
        "sequence": 1,
        "diagnosisSequence": [ 1 ],
        "productOrService": {
          "coding": [ {
            "system": "http://terminology.hl7.org/CodeSystem/ex-USCLS",
            "code": "99555"
          } ]
        },
        "encounter": [ {
          "reference": "Encounter/895709a1-091a-4bf1-93d2-3a90b1c874ea"
        } ]
      } ]
    },
    "request": {
      "method": "PUT",
      "url": "Claim/5ca62962b8484628b8de1ec5"
    }
  }, {
    "fullUrl": "https://madie.cms.gov/Procedure/db4548ed-ad57-479b-8742-fddb0e8ed088",
    "resource": {
      "resourceType": "Procedure",
      "id": "db4548ed-ad57-479b-8742-fddb0e8ed088",
      "meta": {
        "profile": [ "http://hl7.org/fhir/us/qicore/StructureDefinition/qicore-procedure" ]
      },
      "extension": [ {
        "url": "http://hl7.org/fhir/us/qicore/StructureDefinition/qicore-recorded",
        "valueDateTime": "2026-11-19T13:35:00Z"
      } ],
      "status": "completed",
      "code": {
        "coding": [ {
          "system": "http://snomed.info/sct",
          "code": "133918004"
        } ]
      },
      "subject": {
        "reference": "Patient/4a276dfb-e77e-4b19-96af-96bd653b21b7"
      },
      "performedDateTime": "2026-11-18T09:00:00Z"
    },
    "request": {
      "method": "PUT",
      "url": "Procedure/db4548ed-ad57-479b-8742-fddb0e8ed088"
    }
  }, {
    "fullUrl": "https://madie.cms.gov/Condition/1dd1dace-b4b3-4163-ac45-71251835f872",
    "resource": {
      "resourceType": "Condition",
      "id": "1dd1dace-b4b3-4163-ac45-71251835f872",
      "meta": {
        "profile": [ "http://hl7.org/fhir/us/qicore/StructureDefinition/qicore-condition-encounter-diagnosis" ]
      },
      "clinicalStatus": {
        "coding": [ {
          "system": "http://terminology.hl7.org/CodeSystem/condition-clinical",
          "code": "active"
        } ]
      },
      "verificationStatus": {
        "coding": [ {
          "system": "http://terminology.hl7.org/CodeSystem/condition-ver-status",
          "code": "confirmed"
        } ]
      },
      "category": [ {
        "coding": [ {
          "system": "http://terminology.hl7.org/CodeSystem/condition-category",
          "code": "encounter-diagnosis",
          "display": "Encounter Diagnosis"
        } ]
      } ],
      "code": {
        "coding": [ {
          "system": "http://snomed.info/sct",
          "version": "2020-09",
          "code": "111297002",
          "display": "Nonparalytic stroke (disorder)",
          "userSelected": true
        } ]
      },
      "subject": {
        "reference": "Patient/4a276dfb-e77e-4b19-96af-96bd653b21b7"
      },
      "recordedDate": "2026-08-13T08:00:00Z"
    },
    "request": {
      "method": "PUT",
      "url": "Condition/1dd1dace-b4b3-4163-ac45-71251835f872"
    }
  }, {
    "fullUrl": "https://madie.cms.gov/Coverage/2b8a6f00-f0b9-4018-b379-d764c078b4b7",
    "resource": {
      "resourceType": "Coverage",
      "id": "2b8a6f00-f0b9-4018-b379-d764c078b4b7",
      "meta": {
        "profile": [ "http://hl7.org/fhir/us/qicore/StructureDefinition/qicore-coverage" ]
      },
      "status": "active",
      "beneficiary": {
        "reference": "Patient/4a276dfb-e77e-4b19-96af-96bd653b21b7"
      },
      "payor": [ {
        "reference": "Organization/d25d01e5-b109-43f3-ab03-d3769e066e32"
      } ]
    },
    "request": {
      "method": "PUT",
      "url": "Coverage/2b8a6f00-f0b9-4018-b379-d764c078b4b7"
    }
  }, {
    "fullUrl": "https://madie.cms.gov/Organization/d25d01e5-b109-43f3-ab03-d3769e066e32",
    "resource": {
      "resourceType": "Organization",
      "id": "d25d01e5-b109-43f3-ab03-d3769e066e32",
      "meta": {
        "profile": [ "http://hl7.org/fhir/us/qicore/StructureDefinition/qicore-organization" ]
      },
      "identifier": [ {
        "use": "temp",
        "system": "urn:oid:2.16.840.1.113883.4.4",
        "value": "21-3259825"
      } ],
      "active": true,
      "type": [ {
        "coding": [ {
          "system": "http://terminology.hl7.org/CodeSystem/organization-type",
          "code": "pay",
          "display": "Payer"
        } ]
      } ],
      "name": "Blue Cross Blue Shield of Texas",
      "telecom": [ {
        "system": "phone",
        "value": "(+1) 972-766-6900"
      } ],
      "address": [ {
        "use": "billing",
        "type": "postal",
        "line": [ "P.O. Box 660044" ],
        "city": "Dallas",
        "state": "TX",
        "postalCode": "75266-0044",
        "country": "USA"
      } ]
    },
    "request": {
      "method": "PUT",
      "url": "Organization/d25d01e5-b109-43f3-ab03-d3769e066e32"
    }
  }, {
    "fullUrl": "https://madie.cms.gov/MeasureReport/bf2961a1-9662-4cc8-9ba4-abbd4b759695",
    "resource": {
      "resourceType": "MeasureReport",
      "id": "bf2961a1-9662-4cc8-9ba4-abbd4b759695",
      "meta": {
        "profile": [ "http://hl7.org/fhir/us/cqfmeasures/StructureDefinition/test-case-cqfm" ]
      },
      "contained": [ {
        "resourceType": "Parameters",
        "id": "7ebddfa8-9ad3-42fb-ae36-2a8fe87bfeaf-parameters",
        "parameter": [ {
          "name": "subject",
          "valueString": "4a276dfb-e77e-4b19-96af-96bd653b21b7"
        } ]
      } ],
      "extension": [ {
        "url": "http://hl7.org/fhir/StructureDefinition/cqf-inputParameters",
        "valueReference": {
          "reference": "#7ebddfa8-9ad3-42fb-ae36-2a8fe87bfeaf-parameters"
        }
      }, {
        "url": "http://hl7.org/fhir/us/cqfmeasures/StructureDefinition/cqfm-testCaseDescription",
        "valueMarkdown": "Patient receives comfort measures performed on the day of hospital arrival, on Obs start. ED ends less than 1 hour before Obs Start, Obs ends less than 1 hour before IP start.\n"
      } ],
      "modifierExtension": [ {
        "url": "http://hl7.org/fhir/us/cqfmeasures/StructureDefinition/cqfm-isTestCase",
        "valueBoolean": true
      } ],
      "status": "complete",
      "type": "individual",
      "measure": "https://madie.cms.gov/Measure/CMS72FHIRSTKAntithromboticDay2",
      "period": {
        "start": "2026-01-01",
        "end": "2026-12-31"
      },
      "group": [ {
        "id": "Group_1",
        "population": [ {
          "id": "InitialPopulation_1",
          "code": {
            "coding": [ {
              "system": "http://terminology.hl7.org/CodeSystem/measure-population",
              "code": "initial-population",
              "display": "Initial Population"
            } ]
          },
          "count": 1
        }, {
          "id": "Denominator_1",
          "code": {
            "coding": [ {
              "system": "http://terminology.hl7.org/CodeSystem/measure-population",
              "code": "denominator",
              "display": "Denominator"
            } ]
          },
          "count": 1
        }, {
          "id": "DenominatorExclusion_1",
          "code": {
            "coding": [ {
              "system": "http://terminology.hl7.org/CodeSystem/measure-population",
              "code": "denominator-exclusion",
              "display": "Denominator Exclusion"
            } ]
          },
          "count": 1
        }, {
          "id": "Numerator_1",
          "code": {
            "coding": [ {
              "system": "http://terminology.hl7.org/CodeSystem/measure-population",
              "code": "numerator",
              "display": "Numerator"
            } ]
          },
          "count": 0
        }, {
          "id": "DenominatorException_1",
          "code": {
            "coding": [ {
              "system": "http://terminology.hl7.org/CodeSystem/measure-population",
              "code": "denominator-exception",
              "display": "Denominator Exception"
            } ]
          },
          "count": 0
        } ],
        "measureScore": {
          "value": 0.0
        }
      } ],
      "evaluatedResource": [ {
        "reference": "Patient/4a276dfb-e77e-4b19-96af-96bd653b21b7"
      }, {
        "reference": "Encounter/c24331f9-db8b-4ac1-9563-14300b763164"
      }, {
        "reference": "Encounter/c7203d47-f708-4401-b184-07d48cf8c891"
      }, {
        "reference": "Encounter/895709a1-091a-4bf1-93d2-3a90b1c874ea"
      }, {
        "reference": "Claim/5ca62962b8484628b8de1ec5"
      }, {
        "reference": "Procedure/db4548ed-ad57-479b-8742-fddb0e8ed088"
      }, {
        "reference": "Condition/1dd1dace-b4b3-4163-ac45-71251835f872"
      }, {
        "reference": "Coverage/2b8a6f00-f0b9-4018-b379-d764c078b4b7"
      }, {
        "reference": "Organization/d25d01e5-b109-43f3-ab03-d3769e066e32"
      } ]
    },
    "request": {
      "method": "PUT",
      "url": "MeasureReport/bf2961a1-9662-4cc8-9ba4-abbd4b759695"
    }
  } ]
}