{
  "resourceType": "Bundle",
  "id": "63f3a249ccb3770120ffe6eb",
  "type": "transaction",
  "entry": [ {
    "fullUrl": "https://madie.cms.gov/Patient/af1b9448-3e7a-4b7f-8934-15bb63258b75",
    "resource": {
      "resourceType": "Patient",
      "id": "af1b9448-3e7a-4b7f-8934-15bb63258b75",
      "meta": {
        "profile": [ "http://hl7.org/fhir/us/qicore/StructureDefinition/qicore-patient" ]
      },
      "text": {
        "status": "generated",
        "div": "<div xmlns=\"http://www.w3.org/1999/xhtml\"><div class=\"hapiHeaderText\">LTE24before <b>BICARBPASS </b></div><table class=\"hapiPropertyTable\"><tbody><tr><td>Identifier</td><td>d69abbc179641b9cd673a4a9152886e8e63bc2e0e7b27e1a51505ef2a774679e</td></tr><tr><td>Date of birth</td><td><span>15 June 1956</span></td></tr></tbody></table></div>"
      },
      "extension": [ {
        "url": "http://hl7.org/fhir/us/core/StructureDefinition/us-core-race",
        "extension": [ {
          "url": "ombCategory",
          "valueCoding": {
            "system": "urn:oid:2.16.840.1.113883.6.238",
            "code": "1002-5",
            "display": "American Indian or Alaska Native",
            "userSelected": true
          }
        }, {
          "url": "text",
          "valueString": "American Indian or Alaska Native"
        } ]
      }, {
        "url": "http://hl7.org/fhir/us/core/StructureDefinition/us-core-ethnicity",
        "extension": [ {
          "url": "ombCategory",
          "valueCoding": {
            "system": "urn:oid:2.16.840.1.113883.6.238",
            "code": "2186-5",
            "display": "Not Hispanic or Latino",
            "userSelected": true
          }
        }, {
          "url": "text",
          "valueString": "Not Hispanic or Latino"
        } ]
      }, {
        "url": "http://hl7.org/fhir/us/core/StructureDefinition/us-core-sex",
        "valueCode": "248153007"
      } ],
      "identifier": [ {
        "type": {
          "coding": [ {
            "system": "http://terminology.hl7.org/CodeSystem/v2-0203",
            "code": "MR"
          } ]
        },
        "system": "https://bonnie-fhir.healthit.gov/",
        "value": "63f3a249ccb3770120ffe6eb"
      } ],
      "active": true,
      "name": [ {
        "use": "usual",
        "family": "BicarbonatePass",
        "given": [ "MultipleEncounters" ]
      } ],
      "gender": "male",
      "birthDate": "1961-07-01"
    },
    "request": {
      "method": "PUT",
      "url": "Patient/af1b9448-3e7a-4b7f-8934-15bb63258b75"
    }
  }, {
    "fullUrl": "https://madie.cms.gov/Encounter/ee5d3a10-3eaa-45c4-ac92-28feaa7428fd",
    "resource": {
      "resourceType": "Encounter",
      "id": "ee5d3a10-3eaa-45c4-ac92-28feaa7428fd",
      "meta": {
        "profile": [ "http://hl7.org/fhir/us/qicore/StructureDefinition/qicore-encounter" ]
      },
      "status": "finished",
      "class": {
        "system": "http://terminology.hl7.org/CodeSystem/v3-ActCode",
        "code": "IMP",
        "display": "inpatient encounter",
        "userSelected": true
      },
      "type": [ {
        "coding": [ {
          "system": "http://snomed.info/sct",
          "code": "183452005"
        } ]
      } ],
      "subject": {
        "reference": "Patient/af1b9448-3e7a-4b7f-8934-15bb63258b75"
      },
      "period": {
        "start": "2026-07-01T08:00:00.000+00:00",
        "end": "2026-07-03T08:15:00.000+00:00"
      }
    },
    "request": {
      "method": "PUT",
      "url": "Encounter/ee5d3a10-3eaa-45c4-ac92-28feaa7428fd"
    }
  }, {
    "fullUrl": "https://madie.cms.gov/Encounter/ee5d3a10-3eaa-45c4-ac92-28feaa7428fd1",
    "resource": {
      "resourceType": "Encounter",
      "id": "ee5d3a10-3eaa-45c4-ac92-28feaa7428fd1",
      "meta": {
        "profile": [ "http://hl7.org/fhir/us/qicore/StructureDefinition/qicore-encounter" ]
      },
      "status": "finished",
      "class": {
        "system": "http://terminology.hl7.org/CodeSystem/v3-ActCode",
        "code": "IMP",
        "display": "inpatient encounter",
        "userSelected": true
      },
      "type": [ {
        "coding": [ {
          "system": "http://snomed.info/sct",
          "code": "183452005"
        } ]
      } ],
      "subject": {
        "reference": "Patient/af1b9448-3e7a-4b7f-8934-15bb63258b75"
      },
      "period": {
        "start": "2027-01-01T08:00:00.000+00:00",
        "end": "2027-01-03T08:15:00.000+00:00"
      }
    },
    "request": {
      "method": "PUT",
      "url": "Encounter/ee5d3a10-3eaa-45c4-ac92-28feaa7428fd1"
    }
  }, {
    "fullUrl": "https://madie.cms.gov/Coverage/8cc1a32e-0312-46f6-b953-92f91eb25b43",
    "resource": {
      "resourceType": "Coverage",
      "id": "8cc1a32e-0312-46f6-b953-92f91eb25b43",
      "meta": {
        "profile": [ "http://hl7.org/fhir/us/qicore/StructureDefinition/qicore-coverage" ]
      },
      "status": "active",
      "type": {
        "coding": [ {
          "system": "https://nahdo.org/sopt",
          "version": "1.0.1",
          "code": "1",
          "display": "MEDICARE",
          "userSelected": true
        } ]
      },
      "subscriberId": "AB9876",
      "beneficiary": {
        "reference": "Patient/af1b9448-3e7a-4b7f-8934-15bb63258b75"
      },
      "relationship": {
        "coding": [ {
          "system": "http://terminology.hl7.org/CodeSystem/subscriber-relationship",
          "code": "self"
        } ]
      },
      "period": {
        "start": "2026-01-01T08:00:00.000+00:00",
        "end": "2026-12-31T08:15:00.000+00:00"
      },
      "payor": [ {
        "reference": "Organization/6f87b418-807b-4e87-8e1a-a5cc8036f09e"
      } ]
    },
    "request": {
      "method": "PUT",
      "url": "Coverage/8cc1a32e-0312-46f6-b953-92f91eb25b43"
    }
  }, {
    "fullUrl": "https://madie.cms.gov/Observation/6d71150f-c2c8-49d7-8c75-22f408205761",
    "resource": {
      "resourceType": "Observation",
      "id": "6d71150f-c2c8-49d7-8c75-22f408205761",
      "meta": {
        "profile": [ "http://hl7.org/fhir/us/core/StructureDefinition/qicore-observation-lab" ]
      },
      "status": "final",
      "category": [ {
        "coding": [ {
          "system": "http://terminology.hl7.org/CodeSystem/observation-category",
          "code": "laboratory",
          "display": "Laboratory",
          "userSelected": true
        } ]
      } ],
      "code": {
        "coding": [ {
          "system": "http://loinc.org",
          "version": "2.72",
          "code": "14627-4",
          "display": "Bicarbonate [Moles/volume] in Venous blood"
        } ]
      },
      "subject": {
        "reference": "Patient/af1b9448-3e7a-4b7f-8934-15bb63258b75"
      },
      "effectiveDateTime": "2026-07-02T08:00:00.000+00:00",
      "issued": "2026-07-02T08:00:00.000+00:00",
      "performer": [ {
        "reference": "Organization/Organization-1"
      } ],
      "valueQuantity": {
        "value": 25,
        "unit": "mmol/L",
        "system": "http://unitsofmeasure.org",
        "code": "mg/dL"
      }
    },
    "request": {
      "method": "PUT",
      "url": "Observation/6d71150f-c2c8-49d7-8c75-22f408205761"
    }
  }, {
    "fullUrl": "https://madie.cms.gov/Observation/6d71150f-c2c8-49d7-8c75-22f4082057611",
    "resource": {
      "resourceType": "Observation",
      "id": "6d71150f-c2c8-49d7-8c75-22f4082057611",
      "meta": {
        "profile": [ "http://hl7.org/fhir/us/core/StructureDefinition/qicore-observation-lab" ]
      },
      "status": "final",
      "category": [ {
        "coding": [ {
          "system": "http://terminology.hl7.org/CodeSystem/observation-category",
          "code": "laboratory",
          "display": "Laboratory",
          "userSelected": true
        } ]
      } ],
      "code": {
        "coding": [ {
          "system": "http://loinc.org",
          "code": "14627-4",
          "display": "Bicarbonate [Moles/volume] in Venous blood"
        } ]
      },
      "subject": {
        "reference": "Patient/af1b9448-3e7a-4b7f-8934-15bb63258b75"
      },
      "effectiveDateTime": "2027-01-01T08:00:00.000+00:00",
      "issued": "2027-01-01T08:00:00.000+00:00",
      "performer": [ {
        "reference": "Organization/Organization-1"
      } ],
      "valueQuantity": {
        "value": 28,
        "unit": "mmol/L",
        "system": "http://unitsofmeasure.org",
        "code": "mg/dL"
      }
    },
    "request": {
      "method": "PUT",
      "url": "Observation/6d71150f-c2c8-49d7-8c75-22f4082057611"
    }
  }, {
    "fullUrl": "https://madie.cms.gov/Organization/6f87b418-807b-4e87-8e1a-a5cc8036f09e",
    "resource": {
      "resourceType": "Organization",
      "id": "6f87b418-807b-4e87-8e1a-a5cc8036f09e",
      "meta": {
        "profile": [ "http://hl7.org/fhir/us/qicore/StructureDefinition/qicore-organization" ]
      },
      "identifier": [ {
        "use": "temp",
        "system": "urn:oid:2.16.840.1.113883.4.4",
        "value": "21-3259825"
      } ],
      "active": true,
      "type": [ {
        "coding": [ {
          "system": "http://terminology.hl7.org/CodeSystem/organization-type",
          "code": "pay",
          "display": "Payer"
        } ]
      } ],
      "name": "Blue Cross Blue Shield of Texas",
      "telecom": [ {
        "system": "phone",
        "value": "(+1) 972-766-6900"
      } ],
      "address": [ {
        "use": "billing",
        "type": "postal",
        "line": [ "P.O. Box 660044" ],
        "city": "Dallas",
        "state": "TX",
        "postalCode": "75266-0044",
        "country": "USA"
      } ]
    },
    "request": {
      "method": "PUT",
      "url": "Organization/6f87b418-807b-4e87-8e1a-a5cc8036f09e"
    }
  }, {
    "fullUrl": "https://madie.cms.gov/Practitioner/6167d235-e6e4-40ed-9e8f-decbb473184a",
    "resource": {
      "resourceType": "Practitioner",
      "id": "6167d235-e6e4-40ed-9e8f-decbb473184a",
      "meta": {
        "profile": [ "http://hl7.org/fhir/us/qicore/StructureDefinition/qicore-practitioner" ]
      },
      "identifier": [ {
        "system": "http://hl7.org/fhir/sid/us-npi",
        "value": "0723660813"
      } ],
      "name": [ {
        "family": "Evil",
        "prefix": [ "Dr" ]
      } ]
    },
    "request": {
      "method": "PUT",
      "url": "Practitioner/6167d235-e6e4-40ed-9e8f-decbb473184a"
    }
  }, {
    "fullUrl": "https://madie.cms.gov/MeasureReport/8afbb64d-7547-41c3-ae99-98a54eef4c9c",
    "resource": {
      "resourceType": "MeasureReport",
      "id": "8afbb64d-7547-41c3-ae99-98a54eef4c9c",
      "meta": {
        "profile": [ "http://hl7.org/fhir/us/cqfmeasures/StructureDefinition/test-case-cqfm" ]
      },
      "contained": [ {
        "resourceType": "Parameters",
        "id": "f6c5ae75-90b5-4e1e-920e-e87734c965a4-parameters",
        "parameter": [ {
          "name": "subject",
          "valueString": "af1b9448-3e7a-4b7f-8934-15bb63258b75"
        } ]
      } ],
      "extension": [ {
        "url": "http://hl7.org/fhir/StructureDefinition/cqf-inputParameters",
        "valueReference": {
          "reference": "#f6c5ae75-90b5-4e1e-920e-e87734c965a4-parameters"
        }
      }, {
        "url": "http://hl7.org/fhir/us/cqfmeasures/StructureDefinition/cqfm-testCaseDescription",
        "valueMarkdown": "Enc 1 first day of MP bircarbonate 25 mmol/L 24 hrs after admission\nEnc 2 bircarbonate 28 mmol/L at admission "
      } ],
      "modifierExtension": [ {
        "url": "http://hl7.org/fhir/us/cqfmeasures/StructureDefinition/cqfm-isTestCase",
        "valueBoolean": true
      } ],
      "status": "complete",
      "type": "individual",
      "measure": "https://madie.cms.gov/Measure/CMSFHIR844HybridHospitalWideMortality",
      "period": {
        "start": "2026-07-01",
        "end": "2027-06-30"
      },
      "group": [ {
        "id": "Group_1",
        "population": [ {
          "id": "InitialPopulation_1",
          "code": {
            "coding": [ {
              "system": "http://terminology.hl7.org/CodeSystem/measure-population",
              "code": "initial-population",
              "display": "Initial Population"
            } ]
          },
          "count": 2
        } ],
        "measureScore": {
          "value": 0.0
        }
      } ],
      "evaluatedResource": [ {
        "reference": "Patient/af1b9448-3e7a-4b7f-8934-15bb63258b75"
      }, {
        "reference": "Encounter/ee5d3a10-3eaa-45c4-ac92-28feaa7428fd"
      }, {
        "reference": "Encounter/ee5d3a10-3eaa-45c4-ac92-28feaa7428fd1"
      }, {
        "reference": "Coverage/8cc1a32e-0312-46f6-b953-92f91eb25b43"
      }, {
        "reference": "Observation/6d71150f-c2c8-49d7-8c75-22f408205761"
      }, {
        "reference": "Observation/6d71150f-c2c8-49d7-8c75-22f4082057611"
      }, {
        "reference": "Organization/6f87b418-807b-4e87-8e1a-a5cc8036f09e"
      }, {
        "reference": "Practitioner/6167d235-e6e4-40ed-9e8f-decbb473184a"
      } ]
    },
    "request": {
      "method": "PUT",
      "url": "MeasureReport/8afbb64d-7547-41c3-ae99-98a54eef4c9c"
    }
  } ]
}