{
  "resourceType": "Bundle",
  "id": "tests-NUMERFail-GlucoseLT40BeforeHypoMed-bundle",
  "type": "transaction",
  "entry": [ {
    "fullUrl": "https://madie.cms.gov/Encounter/c95b7a45-cc18-40b1-a514-fb7ba6af3d46",
    "resource": {
      "resourceType": "Encounter",
      "id": "c95b7a45-cc18-40b1-a514-fb7ba6af3d46",
      "meta": {
        "profile": [ "http://hl7.org/fhir/us/qicore/StructureDefinition/qicore-encounter" ]
      },
      "status": "finished",
      "class": {
        "system": "http://terminology.hl7.org/CodeSystem/v3-ActCode",
        "code": "EMER",
        "display": "Emergency Department Visit"
      },
      "type": [ {
        "coding": [ {
          "system": "http://snomed.info/sct",
          "code": "4525004",
          "display": "Emergency department patient visit"
        } ]
      } ],
      "subject": {
        "reference": "Patient/7df60531-857d-45bc-ad5b-31b5462f3f54"
      },
      "period": {
        "start": "2026-11-11T08:00:00.000+00:00",
        "end": "2026-11-12T08:00:00.000+00:00"
      }
    },
    "request": {
      "method": "PUT",
      "url": "Encounter/c95b7a45-cc18-40b1-a514-fb7ba6af3d46"
    }
  }, {
    "fullUrl": "https://madie.cms.gov/Encounter/06e03e62-29fd-4e36-be56-44623b0bee55",
    "resource": {
      "resourceType": "Encounter",
      "id": "06e03e62-29fd-4e36-be56-44623b0bee55",
      "meta": {
        "profile": [ "http://hl7.org/fhir/us/qicore/StructureDefinition/qicore-encounter" ]
      },
      "status": "finished",
      "class": {
        "system": "http://terminology.hl7.org/CodeSystem/v3-ActCode",
        "code": "IMP",
        "display": "Inpatient encounter"
      },
      "type": [ {
        "coding": [ {
          "system": "http://snomed.info/sct",
          "code": "183452005",
          "display": "Emergency hospital admission"
        } ]
      } ],
      "subject": {
        "reference": "Patient/7df60531-857d-45bc-ad5b-31b5462f3f54"
      },
      "period": {
        "start": "2026-11-12T08:00:00.000+00:00",
        "end": "2026-11-14T08:15:00.000+00:00"
      }
    },
    "request": {
      "method": "PUT",
      "url": "Encounter/06e03e62-29fd-4e36-be56-44623b0bee55"
    }
  }, {
    "fullUrl": "https://madie.cms.gov/MedicationAdministration/50b5edeb-43e5-478e-967b-3f56328fe89a",
    "resource": {
      "resourceType": "MedicationAdministration",
      "id": "50b5edeb-43e5-478e-967b-3f56328fe89a",
      "meta": {
        "profile": [ "http://hl7.org/fhir/us/qicore/StructureDefinition/qicore-medicationadministration" ]
      },
      "status": "completed",
      "medicationCodeableConcept": {
        "coding": [ {
          "system": "http://www.nlm.nih.gov/research/umls/rxnorm",
          "code": "1604539",
          "display": "1.5 ML insulin glargine 300 UNT/ML Pen Injector"
        } ]
      },
      "subject": {
        "reference": "Patient/7df60531-857d-45bc-ad5b-31b5462f3f54"
      },
      "effectivePeriod": {
        "start": "2026-11-11T08:20:00.000+00:00",
        "end": "2026-11-11T08:25:00.000+00:00"
      }
    },
    "request": {
      "method": "PUT",
      "url": "MedicationAdministration/50b5edeb-43e5-478e-967b-3f56328fe89a"
    }
  }, {
    "fullUrl": "https://madie.cms.gov/Observation/3275d843-08ae-4168-bb78-2b25aee14bc3",
    "resource": {
      "resourceType": "Observation",
      "id": "3275d843-08ae-4168-bb78-2b25aee14bc3",
      "meta": {
        "profile": [ "http://hl7.org/fhir/us/qicore/StructureDefinition/qicore-observation-lab" ]
      },
      "status": "final",
      "category": [ {
        "coding": [ {
          "system": "http://terminology.hl7.org/CodeSystem/observation-category",
          "code": "laboratory",
          "display": "Laboratory"
        } ]
      } ],
      "code": {
        "coding": [ {
          "system": "http://loinc.org",
          "code": "1556-0",
          "display": "Fasting glucose [Mass/volume] in Capillary blood"
        } ]
      },
      "subject": {
        "reference": "Patient/7df60531-857d-45bc-ad5b-31b5462f3f54"
      },
      "effectivePeriod": {
        "start": "2026-11-11T08:19:00.000+00:00",
        "end": "2026-11-11T08:19:00.000+00:00"
      },
      "issued": "2026-11-11T08:19:00.000+00:00",
      "valueQuantity": {
        "value": 39,
        "unit": "mg/dL"
      }
    },
    "request": {
      "method": "PUT",
      "url": "Observation/3275d843-08ae-4168-bb78-2b25aee14bc3"
    }
  }, {
    "fullUrl": "https://madie.cms.gov/Patient/7df60531-857d-45bc-ad5b-31b5462f3f54",
    "resource": {
      "resourceType": "Patient",
      "id": "7df60531-857d-45bc-ad5b-31b5462f3f54",
      "meta": {
        "profile": [ "http://hl7.org/fhir/us/qicore/StructureDefinition/qicore-patient" ]
      },
      "extension": [ {
        "url": "http://hl7.org/fhir/us/core/StructureDefinition/us-core-race",
        "extension": [ {
          "url": "ombCategory",
          "valueCoding": {
            "system": "urn:oid:2.16.840.1.113883.6.238",
            "code": "2106-3",
            "display": "White"
          }
        }, {
          "url": "text",
          "valueString": "White"
        } ]
      }, {
        "url": "http://hl7.org/fhir/us/core/StructureDefinition/us-core-ethnicity",
        "extension": [ {
          "url": "ombCategory",
          "valueCoding": {
            "system": "urn:oid:2.16.840.1.113883.6.238",
            "code": "2135-2",
            "display": "Hispanic or Latino"
          }
        }, {
          "url": "text",
          "valueString": "Hispanic or Latino"
        } ]
      }, {
        "url": "http://hl7.org/fhir/us/core/StructureDefinition/us-core-sex",
        "valueCode": "248153007"
      } ],
      "identifier": [ {
        "system": "http://hospital.smarthealthit.org",
        "value": "999999999"
      } ],
      "name": [ {
        "family": "Example",
        "given": [ "Patient" ]
      } ],
      "gender": "female",
      "birthDate": "2000-07-11"
    },
    "request": {
      "method": "PUT",
      "url": "Patient/7df60531-857d-45bc-ad5b-31b5462f3f54"
    }
  }, {
    "fullUrl": "https://madie.cms.gov/MeasureReport/a806e041-b338-423e-9857-11f35caddb0c",
    "resource": {
      "resourceType": "MeasureReport",
      "id": "a806e041-b338-423e-9857-11f35caddb0c",
      "meta": {
        "profile": [ "http://hl7.org/fhir/us/cqfmeasures/StructureDefinition/test-case-cqfm" ]
      },
      "contained": [ {
        "resourceType": "Parameters",
        "id": "7da5d194-a657-42c7-b0cf-d8b23b4f7634-parameters",
        "parameter": [ {
          "name": "subject",
          "valueString": "7df60531-857d-45bc-ad5b-31b5462f3f54"
        } ]
      } ],
      "extension": [ {
        "url": "http://hl7.org/fhir/StructureDefinition/cqf-inputParameters",
        "valueReference": {
          "reference": "#7da5d194-a657-42c7-b0cf-d8b23b4f7634-parameters"
        }
      }, {
        "url": "http://hl7.org/fhir/us/cqfmeasures/StructureDefinition/cqfm-testCaseDescription",
        "valueMarkdown": "Encounter where Pt had glucose <40 but it was 1 minute before hypo medication administered. Must be <40 within 24 hour AFTER hypo medication to meet numerator. Numerator fails. "
      } ],
      "modifierExtension": [ {
        "url": "http://hl7.org/fhir/us/cqfmeasures/StructureDefinition/cqfm-isTestCase",
        "valueBoolean": true
      } ],
      "status": "complete",
      "type": "individual",
      "measure": "https://madie.cms.gov/Measure/CMS816FHIRHHHypo",
      "period": {
        "start": "2026-01-01",
        "end": "2026-12-31"
      },
      "group": [ {
        "id": "Group_1",
        "population": [ {
          "id": "InitialPopulation_1",
          "code": {
            "coding": [ {
              "system": "http://terminology.hl7.org/CodeSystem/measure-population",
              "code": "initial-population",
              "display": "Initial Population"
            } ]
          },
          "count": 1
        }, {
          "id": "Denominator_1",
          "code": {
            "coding": [ {
              "system": "http://terminology.hl7.org/CodeSystem/measure-population",
              "code": "denominator",
              "display": "Denominator"
            } ]
          },
          "count": 1
        }, {
          "id": "Numerator_1",
          "code": {
            "coding": [ {
              "system": "http://terminology.hl7.org/CodeSystem/measure-population",
              "code": "numerator",
              "display": "Numerator"
            } ]
          },
          "count": 0
        } ],
        "measureScore": {
          "value": 0.0
        }
      } ],
      "evaluatedResource": [ {
        "reference": "Encounter/c95b7a45-cc18-40b1-a514-fb7ba6af3d46"
      }, {
        "reference": "Encounter/06e03e62-29fd-4e36-be56-44623b0bee55"
      }, {
        "reference": "MedicationAdministration/50b5edeb-43e5-478e-967b-3f56328fe89a"
      }, {
        "reference": "Observation/3275d843-08ae-4168-bb78-2b25aee14bc3"
      }, {
        "reference": "Patient/7df60531-857d-45bc-ad5b-31b5462f3f54"
      } ]
    },
    "request": {
      "method": "PUT",
      "url": "MeasureReport/a806e041-b338-423e-9857-11f35caddb0c"
    }
  } ]
}