{
  "resourceType": "Bundle",
  "id": "612e6f8b02c62a011f2f239e",
  "type": "transaction",
  "entry": [ {
    "fullUrl": "https://madie.cms.gov/Patient/f475cbfa-630a-4296-b083-9feda23892f4",
    "resource": {
      "resourceType": "Patient",
      "id": "f475cbfa-630a-4296-b083-9feda23892f4",
      "meta": {
        "profile": [ "http://hl7.org/fhir/us/qicore/StructureDefinition/qicore-patient" ]
      },
      "text": {
        "status": "generated",
        "div": "<div xmlns=\"http://www.w3.org/1999/xhtml\"><div class=\"hapiHeaderText\">CMPerfRvltDate1DayAfterICU <b>DENEXPASS </b></div><table class=\"hapiPropertyTable\"><tbody><tr><td>Identifier</td><td>2a65a26f9f7578ed1148174b365eff5a</td></tr><tr><td>Date of birth</td><td><span>03 March 1974</span></td></tr></tbody></table></div>"
      },
      "extension": [ {
        "url": "http://hl7.org/fhir/us/core/StructureDefinition/us-core-race",
        "extension": [ {
          "url": "ombCategory",
          "valueCoding": {
            "system": "urn:oid:2.16.840.1.113883.6.238",
            "code": "1002-5",
            "display": "American Indian or Alaska Native",
            "userSelected": true
          }
        }, {
          "url": "text",
          "valueString": "American Indian or Alaska Native"
        } ]
      }, {
        "url": "http://hl7.org/fhir/us/core/StructureDefinition/us-core-ethnicity",
        "extension": [ {
          "url": "ombCategory",
          "valueCoding": {
            "system": "urn:oid:2.16.840.1.113883.6.238",
            "code": "2135-2",
            "display": "Hispanic or Latino",
            "userSelected": true
          }
        }, {
          "url": "text",
          "valueString": "Hispanic or Latino"
        } ]
      } ],
      "identifier": [ {
        "type": {
          "coding": [ {
            "system": "http://terminology.hl7.org/CodeSystem/v2-0203",
            "code": "MR"
          } ]
        },
        "system": "https://bonnie-fhir.healthit.gov/",
        "value": "612e6f8b02c62a011f2f239e"
      } ],
      "active": true,
      "name": [ {
        "use": "usual",
        "family": "DENEXPass",
        "given": [ "CMPerfRvltDate1DayAfterICU" ]
      } ],
      "gender": "female",
      "birthDate": "1975-03-03"
    },
    "request": {
      "method": "PUT",
      "url": "Patient/f475cbfa-630a-4296-b083-9feda23892f4"
    }
  }, {
    "fullUrl": "https://madie.cms.gov/Encounter/3b37e569-4edc-4a6c-a87e-111ff1be59b8",
    "resource": {
      "resourceType": "Encounter",
      "id": "3b37e569-4edc-4a6c-a87e-111ff1be59b8",
      "meta": {
        "profile": [ "http://hl7.org/fhir/us/qicore/StructureDefinition/qicore-encounter" ]
      },
      "status": "finished",
      "class": {
        "system": "http://terminology.hl7.org/CodeSystem/v3-ActCode",
        "code": "IMP",
        "display": "inpatient encounter"
      },
      "type": [ {
        "coding": [ {
          "system": "http://snomed.info/sct",
          "code": "8715000"
        } ]
      } ],
      "subject": {
        "reference": "Patient/f475cbfa-630a-4296-b083-9feda23892f4"
      },
      "period": {
        "start": "2026-12-04T08:00:00.000+00:00",
        "end": "2026-12-30T08:15:00.000+00:00"
      },
      "length": {
        "value": 26.0,
        "unit": "days"
      },
      "location": [ {
        "location": {
          "reference": "Location/bab8f755-d2eb-4453-a414-35c70e82452f"
        },
        "period": {
          "start": "2026-12-06T08:00:00.000+00:00",
          "end": "2026-12-12T08:15:00.000+00:00"
        }
      } ]
    },
    "request": {
      "method": "PUT",
      "url": "Encounter/3b37e569-4edc-4a6c-a87e-111ff1be59b8"
    }
  }, {
    "fullUrl": "https://madie.cms.gov/Procedure/d9e1019e-4144-44b9-9fd4-a71fd9be24e8",
    "resource": {
      "resourceType": "Procedure",
      "id": "d9e1019e-4144-44b9-9fd4-a71fd9be24e8",
      "meta": {
        "profile": [ "http://hl7.org/fhir/us/qicore/StructureDefinition/qicore-procedure" ]
      },
      "extension": [ {
        "url": "http://hl7.org/fhir/us/qicore/StructureDefinition/qicore-recorded",
        "valueDateTime": "2013-12-07T13:35:00.000+00:00"
      } ],
      "status": "completed",
      "code": {
        "coding": [ {
          "system": "http://snomed.info/sct",
          "code": "133918004",
          "display": "Comfort measures (regime/therapy)"
        } ]
      },
      "subject": {
        "reference": "Patient/f475cbfa-630a-4296-b083-9feda23892f4"
      },
      "performedDateTime": "2026-12-06T09:00:00.000+00:00"
    },
    "request": {
      "method": "PUT",
      "url": "Procedure/d9e1019e-4144-44b9-9fd4-a71fd9be24e8"
    }
  }, {
    "fullUrl": "https://madie.cms.gov/Coverage/0f301a17-24e7-4f83-b288-1063e654c296",
    "resource": {
      "resourceType": "Coverage",
      "id": "0f301a17-24e7-4f83-b288-1063e654c296",
      "status": "active",
      "beneficiary": {
        "reference": "Patient/f475cbfa-630a-4296-b083-9feda23892f4"
      },
      "period": {
        "start": "1975-03-03T08:00:00.000+00:00"
      },
      "payor": [ {
        "reference": "Organization/9de9bab3-3399-4de4-af94-12148f55a12d"
      } ]
    },
    "request": {
      "method": "PUT",
      "url": "Coverage/0f301a17-24e7-4f83-b288-1063e654c296"
    }
  }, {
    "fullUrl": "https://madie.cms.gov/Location/bab8f755-d2eb-4453-a414-35c70e82452f",
    "resource": {
      "resourceType": "Location",
      "id": "bab8f755-d2eb-4453-a414-35c70e82452f",
      "meta": {
        "profile": [ "http://hl7.org/fhir/us/qicore/StructureDefinition/qicore-location" ]
      },
      "identifier": [ {
        "use": "usual",
        "system": "http://exampleoflocation.com",
        "value": "B1-S.F2"
      } ],
      "name": "Medical Surgical East, first floor",
      "type": [ {
        "coding": [ {
          "system": "https://www.cdc.gov/nhsn/cdaportal/terminology/codesystem/hsloc.html",
          "code": "1025-6",
          "display": "Trauma Critical Care",
          "userSelected": true
        } ]
      } ]
    },
    "request": {
      "method": "PUT",
      "url": "Location/bab8f755-d2eb-4453-a414-35c70e82452f"
    }
  }, {
    "fullUrl": "https://madie.cms.gov/Organization/9de9bab3-3399-4de4-af94-12148f55a12d",
    "resource": {
      "resourceType": "Organization",
      "id": "9de9bab3-3399-4de4-af94-12148f55a12d",
      "meta": {
        "profile": [ "http://hl7.org/fhir/us/qicore/StructureDefinition/qicore-organization" ]
      },
      "identifier": [ {
        "use": "temp",
        "system": "urn:oid:2.16.840.1.113883.4.4",
        "value": "21-3259825"
      } ],
      "active": true,
      "type": [ {
        "coding": [ {
          "system": "http://terminology.hl7.org/CodeSystem/organization-type",
          "code": "pay",
          "display": "Payer"
        } ]
      } ],
      "name": "Blue Cross Blue Shield of Texas",
      "telecom": [ {
        "system": "phone",
        "value": "(+1) 972-766-6900"
      } ],
      "address": [ {
        "use": "billing",
        "type": "postal",
        "line": [ "P.O. Box 660044" ],
        "city": "Dallas",
        "state": "TX",
        "postalCode": "75266-0044",
        "country": "USA"
      } ]
    },
    "request": {
      "method": "PUT",
      "url": "Organization/9de9bab3-3399-4de4-af94-12148f55a12d"
    }
  }, {
    "fullUrl": "https://madie.cms.gov/Practitioner/bdd4715b-17ec-4602-be0c-42a90190902f",
    "resource": {
      "resourceType": "Practitioner",
      "id": "bdd4715b-17ec-4602-be0c-42a90190902f",
      "identifier": [ {
        "system": "http://hl7.org/fhir/sid/us-npi",
        "value": "123456"
      } ],
      "name": [ {
        "family": "Evil",
        "prefix": [ "Dr" ]
      } ]
    },
    "request": {
      "method": "PUT",
      "url": "Practitioner/bdd4715b-17ec-4602-be0c-42a90190902f"
    }
  }, {
    "fullUrl": "https://madie.cms.gov/MeasureReport/71056f68-fecb-4001-b7e8-bc143ed33bda",
    "resource": {
      "resourceType": "MeasureReport",
      "id": "71056f68-fecb-4001-b7e8-bc143ed33bda",
      "meta": {
        "profile": [ "http://hl7.org/fhir/us/cqfmeasures/StructureDefinition/test-case-cqfm" ]
      },
      "contained": [ {
        "resourceType": "Parameters",
        "id": "9ada6eb0-13ab-4627-8bf6-4b736a64aa94-parameters",
        "parameter": [ {
          "name": "subject",
          "valueString": "f475cbfa-630a-4296-b083-9feda23892f4"
        } ]
      } ],
      "extension": [ {
        "url": "http://hl7.org/fhir/StructureDefinition/cqf-inputParameters",
        "valueReference": {
          "reference": "#9ada6eb0-13ab-4627-8bf6-4b736a64aa94-parameters"
        }
      }, {
        "url": "http://hl7.org/fhir/us/cqfmeasures/StructureDefinition/cqfm-testCaseDescription",
        "valueMarkdown": "CMPerfRvltDate1DayAfterICU\n"
      } ],
      "modifierExtension": [ {
        "url": "http://hl7.org/fhir/us/cqfmeasures/StructureDefinition/cqfm-isTestCase",
        "valueBoolean": true
      } ],
      "status": "complete",
      "type": "individual",
      "measure": "https://madie.cms.gov/Measure/CMS190VTEProphylaxisICUFHIR",
      "period": {
        "start": "2026-01-01",
        "end": "2026-12-31"
      },
      "group": [ {
        "id": "Group_1",
        "population": [ {
          "id": "InitialPopulation_1",
          "code": {
            "coding": [ {
              "system": "http://terminology.hl7.org/CodeSystem/measure-population",
              "code": "initial-population",
              "display": "Initial Population"
            } ]
          },
          "count": 1
        }, {
          "id": "Denominator_1",
          "code": {
            "coding": [ {
              "system": "http://terminology.hl7.org/CodeSystem/measure-population",
              "code": "denominator",
              "display": "Denominator"
            } ]
          },
          "count": 1
        }, {
          "id": "DenominatorExclusion_1",
          "code": {
            "coding": [ {
              "system": "http://terminology.hl7.org/CodeSystem/measure-population",
              "code": "denominator-exclusion",
              "display": "Denominator Exclusion"
            } ]
          },
          "count": 1
        }, {
          "id": "Numerator_1",
          "code": {
            "coding": [ {
              "system": "http://terminology.hl7.org/CodeSystem/measure-population",
              "code": "numerator",
              "display": "Numerator"
            } ]
          },
          "count": 0
        }, {
          "id": "DenominatorException_1",
          "code": {
            "coding": [ {
              "system": "http://terminology.hl7.org/CodeSystem/measure-population",
              "code": "denominator-exception",
              "display": "Denominator Exception"
            } ]
          },
          "count": 0
        } ],
        "measureScore": {
          "value": 0.0
        }
      } ],
      "evaluatedResource": [ {
        "reference": "Patient/f475cbfa-630a-4296-b083-9feda23892f4"
      }, {
        "reference": "Encounter/3b37e569-4edc-4a6c-a87e-111ff1be59b8"
      }, {
        "reference": "Procedure/d9e1019e-4144-44b9-9fd4-a71fd9be24e8"
      }, {
        "reference": "Coverage/0f301a17-24e7-4f83-b288-1063e654c296"
      }, {
        "reference": "Location/bab8f755-d2eb-4453-a414-35c70e82452f"
      }, {
        "reference": "Organization/9de9bab3-3399-4de4-af94-12148f55a12d"
      }, {
        "reference": "Practitioner/bdd4715b-17ec-4602-be0c-42a90190902f"
      } ]
    },
    "request": {
      "method": "PUT",
      "url": "MeasureReport/71056f68-fecb-4001-b7e8-bc143ed33bda"
    }
  } ]
}