{
    "entry": [
        {
            "request": {
                "method": "PUT",
                "url": "Patient/8b62d275-3bc3-4d2a-b307-4b5287e86687"
            },
            "resource": {
                "identifier": [{
                    "system": "https://bonnie-fhir.healthit.gov/",
                    "type": {"coding": [{
                        "system": "http://terminology.hl7.org/CodeSystem/v2-0203",
                        "code": "MR"
                    }]},
                    "value": "62d73464c22c612899b40d69"
                }],
                "extension": [
                    {
                        "extension": [
                            {
                                "valueCoding": {
                                    "system": "urn:oid:2.16.840.1.113883.6.238",
                                    "code": "2106-3",
                                    "userSelected": true,
                                    "display": "White"
                                },
                                "url": "ombCategory"
                            },
                            {
                                "valueString": "White",
                                "url": "text"
                            }
                        ],
                        "url": "http://hl7.org/fhir/us/core/StructureDefinition/us-core-race"
                    },
                    {
                        "extension": [
                            {
                                "valueCoding": {
                                    "system": "urn:oid:2.16.840.1.113883.6.238",
                                    "code": "2186-5",
                                    "userSelected": true,
                                    "display": "Not Hispanic or Latino"
                                },
                                "url": "ombCategory"
                            },
                            {
                                "valueString": "Not Hispanic or Latino",
                                "url": "text"
                            }
                        ],
                        "url": "http://hl7.org/fhir/us/core/StructureDefinition/us-core-ethnicity"
                    }
                ],
                "gender": "male",
                "meta": {"profile": ["http://hl7.org/fhir/us/qicore/StructureDefinition/qicore-patient"]},
                "name": [{
                    "given": ["ElevatedBP2to3Mo"],
                    "family": "NUMERPass"
                }],
                "id": "8b62d275-3bc3-4d2a-b307-4b5287e86687",
                "birthDate": "2006-12-31",
                "resourceType": "Patient"
            },
            "fullUrl": "https://madie.cms.gov/Patient/8b62d275-3bc3-4d2a-b307-4b5287e86687"
        },
        {
            "request": {
                "method": "PUT",
                "url": "Encounter/f91d7bba-1b00-4e0a-89d1-d6c150a7efff"
            },
            "resource": {
                "period": {
                    "start": "2026-01-01T08:00:00.000+00:00",
                    "end": "2026-01-01T08:30:00.000+00:00"
                },
                "meta": {"profile": ["http://hl7.org/fhir/us/qicore/StructureDefinition/qicore-encounter"]},
                "subject": {"reference": "Patient/8b62d275-3bc3-4d2a-b307-4b5287e86687"},
                "id": "f91d7bba-1b00-4e0a-89d1-d6c150a7efff",
                "type": [{"coding": [{
                    "system": "http://snomed.info/sct",
                    "code": "103705002",
                    "userSelected": true,
                    "display": "Patient status observation (procedure)",
                    "version": "2022-03"
                }]}],
                "class": {
                    "system": "http://terminology.hl7.org/CodeSystem/v3-ActCode",
                    "code": "AMB",
                    "display": "ambulatory"
                },
                "resourceType": "Encounter",
                "status": "finished"
            },
            "fullUrl": "https://madie.cms.gov/Encounter/f91d7bba-1b00-4e0a-89d1-d6c150a7efff"
        },
        {
            "request": {
                "method": "PUT",
                "url": "Observation/691487d2-06a6-4780-a65a-9d8dda018958"
            },
            "resource": {
                "component": [
                    {
                        "code": {"coding": [{
                            "system": "http://loinc.org",
                            "code": "8480-6",
                            "display": "Systolic blood pressure"
                        }]},
                        "valueQuantity": {
                            "unit": "mmHg",
                            "system": "http://unitsofmeasure.org",
                            "code": "mm[Hg]",
                            "value": 120
                        }
                    },
                    {
                        "code": {"coding": [{
                            "system": "http://loinc.org",
                            "code": "8462-4",
                            "display": "Diastolic blood pressure"
                        }]},
                        "valueQuantity": {
                            "unit": "mmHg",
                            "system": "http://unitsofmeasure.org",
                            "code": "mm[Hg]",
                            "value": 79
                        }
                    }
                ],
                "code": {"coding": [{
                    "system": "http://loinc.org",
                    "code": "85354-9",
                    "display": "Blood pressure panel"
                }]},
                "effectiveDateTime": "2026-01-01T08:05:00.000+00:00",
                "meta": {"profile": ["http://hl7.org/fhir/us/core/StructureDefinition/us-core-blood-pressure"]},
                "subject": {"reference": "Patient/8b62d275-3bc3-4d2a-b307-4b5287e86687"},
                "id": "691487d2-06a6-4780-a65a-9d8dda018958",
                "category": [{
                    "coding": [{
                        "system": "http://terminology.hl7.org/CodeSystem/observation-category",
                        "code": "vital-signs",
                        "display": "Vital Signs"
                    }],
                    "text": "Vital Signs"
                }],
                "resourceType": "Observation",
                "status": "final"
            },
            "fullUrl": "https://madie.cms.gov/Observation/691487d2-06a6-4780-a65a-9d8dda018958"
        },
        {
            "request": {
                "method": "PUT",
                "url": "ServiceRequest/ad1ddca1-1eea-4450-961b-570e30fa7187"
            },
            "resource": {
                "code": {"coding": [{
                    "system": "http://snomed.info/sct",
                    "code": "183624006",
                    "userSelected": true,
                    "display": "Follow-up 2-3 months (finding)"
                }]},
                "authoredOn": "2026-01-01T08:25:00.000+00:00",
                "meta": {"profile": ["http://hl7.org/fhir/us/qicore/StructureDefinition/qicore-servicerequest"]},
                "subject": {"reference": "Patient/8b62d275-3bc3-4d2a-b307-4b5287e86687"},
                "id": "ad1ddca1-1eea-4450-961b-570e30fa7187",
                "intent": "order",
                "resourceType": "ServiceRequest",
                "status": "active"
            },
            "fullUrl": "https://madie.cms.gov/ServiceRequest/ad1ddca1-1eea-4450-961b-570e30fa7187"
        },
        {
            "request": {
                "method": "PUT",
                "url": "ServiceRequest/2cc813b2-54e8-46e5-80ba-0b5a69c624f9"
            },
            "resource": {
                "code": {"coding": [{
                    "system": "http://snomed.info/sct",
                    "code": "281090004",
                    "userSelected": true,
                    "display": "Recommendation to exercise (procedure)",
                    "version": "2022-03"
                }]},
                "authoredOn": "2026-01-01T08:25:00.000+00:00",
                "meta": {"profile": ["http://hl7.org/fhir/us/qicore/StructureDefinition/qicore-servicerequest"]},
                "subject": {"reference": "Patient/8b62d275-3bc3-4d2a-b307-4b5287e86687"},
                "id": "2cc813b2-54e8-46e5-80ba-0b5a69c624f9",
                "intent": "order",
                "resourceType": "ServiceRequest",
                "status": "active"
            },
            "fullUrl": "https://madie.cms.gov/ServiceRequest/2cc813b2-54e8-46e5-80ba-0b5a69c624f9"
        },
        {
            "request": {
                "method": "PUT",
                "url": "Coverage/ec4fbbc9-6c24-4087-88b6-7240d2011ea0"
            },
            "resource": {
                "payor": [{"reference": "Organization/2cb11619-f22b-4346-8272-3c6180adf96e"}],
                "beneficiary": {"reference": "Patient/8b62d275-3bc3-4d2a-b307-4b5287e86687"},
                "meta": {"profile": ["http://hl7.org/fhir/us/qicore/StructureDefinition/qicore-coverage"]},
                "id": "ec4fbbc9-6c24-4087-88b6-7240d2011ea0",
                "resourceType": "Coverage",
                "status": "active"
            },
            "fullUrl": "https://madie.cms.gov/Coverage/ec4fbbc9-6c24-4087-88b6-7240d2011ea0"
        },
        {
            "request": {
                "method": "PUT",
                "url": "Organization/2cb11619-f22b-4346-8272-3c6180adf96e"
            },
            "resource": {
                "identifier": [{
                    "system": "urn:oid:2.16.840.1.113883.4.4",
                    "use": "temp",
                    "value": "21-3259825"
                }],
                "address": [{
                    "country": "USA",
                    "city": "Dallas",
                    "use": "billing",
                    "line": ["P.O. Box 660044"],
                    "postalCode": "75266-0044",
                    "state": "TX",
                    "type": "postal"
                }],
                "meta": {"profile": ["http://hl7.org/fhir/us/qicore/StructureDefinition/qicore-organization"]},
                "name": "Blue Cross Blue Shield of Texas",
                "active": true,
                "telecom": [{
                    "system": "phone",
                    "value": "(+1) 972-766-6900"
                }],
                "id": "2cb11619-f22b-4346-8272-3c6180adf96e",
                "type": [{"coding": [{
                    "system": "http://terminology.hl7.org/CodeSystem/organization-type",
                    "code": "pay",
                    "display": "Payer"
                }]}],
                "resourceType": "Organization"
            },
            "fullUrl": "https://madie.cms.gov/Organization/2cb11619-f22b-4346-8272-3c6180adf96e"
        },
        {
            "request": {
                "method": "PUT",
                "url": "MeasureReport/b11fafe2-2252-4e9a-a675-4b9eaff4fd55"
            },
            "resource": {
                "contained": [{
                    "parameter": [{
                        "valueString": "8b62d275-3bc3-4d2a-b307-4b5287e86687",
                        "name": "subject"
                    }],
                    "id": "26244b12-844c-47ff-bcfe-6d43b77a6ea6-parameters",
                    "resourceType": "Parameters"
                }],
                "extension": [
                    {
                        "valueReference": {"reference": "#26244b12-844c-47ff-bcfe-6d43b77a6ea6-parameters"},
                        "url": "http://hl7.org/fhir/StructureDefinition/cqf-inputParameters"
                    },
                    {
                        "valueMarkdown": "Age 18 one day before encounter which was the first day of the MP, Elevated 01/01 @0800 -0830; BP  120/79 return visit in 2 -3 months for review. ",
                        "url": "http://hl7.org/fhir/us/cqfmeasures/StructureDefinition/cqfm-testCaseDescription"
                    }
                ],
                "period": {
                    "start": "2026-01-01",
                    "end": "2026-12-31"
                },
                "measure": "https://madie.cms.gov/Measure/CMS22FHIRPCSBPScreeningFollowUp",
                "meta": {"profile": ["http://hl7.org/fhir/us/cqfmeasures/StructureDefinition/test-case-cqfm"]},
                "modifierExtension": [{
                    "valueBoolean": true,
                    "url": "http://hl7.org/fhir/us/cqfmeasures/StructureDefinition/cqfm-isTestCase"
                }],
                "id": "b11fafe2-2252-4e9a-a675-4b9eaff4fd55",
                "evaluatedResource": [
                    {"reference": "Patient/8b62d275-3bc3-4d2a-b307-4b5287e86687"},
                    {"reference": "Encounter/f91d7bba-1b00-4e0a-89d1-d6c150a7efff"},
                    {"reference": "Observation/691487d2-06a6-4780-a65a-9d8dda018958"},
                    {"reference": "ServiceRequest/ad1ddca1-1eea-4450-961b-570e30fa7187"},
                    {"reference": "ServiceRequest/2cc813b2-54e8-46e5-80ba-0b5a69c624f9"},
                    {"reference": "Coverage/ec4fbbc9-6c24-4087-88b6-7240d2011ea0"},
                    {"reference": "Organization/2cb11619-f22b-4346-8272-3c6180adf96e"}
                ],
                "type": "individual",
                "resourceType": "MeasureReport",
                "status": "complete",
                "group": [{
                    "id": "Group_1",
                    "measureScore": {"value": 0},
                    "population": [
                        {
                            "code": {"coding": [{
                                "system": "http://terminology.hl7.org/CodeSystem/measure-population",
                                "code": "initial-population",
                                "display": "Initial Population"
                            }]},
                            "count": 1,
                            "id": "InitialPopulation_1"
                        },
                        {
                            "code": {"coding": [{
                                "system": "http://terminology.hl7.org/CodeSystem/measure-population",
                                "code": "denominator",
                                "display": "Denominator"
                            }]},
                            "count": 1,
                            "id": "Denominator_1"
                        },
                        {
                            "code": {"coding": [{
                                "system": "http://terminology.hl7.org/CodeSystem/measure-population",
                                "code": "denominator-exclusion",
                                "display": "Denominator Exclusion"
                            }]},
                            "count": 0,
                            "id": "DenominatorExclusion_1"
                        },
                        {
                            "code": {"coding": [{
                                "system": "http://terminology.hl7.org/CodeSystem/measure-population",
                                "code": "numerator",
                                "display": "Numerator"
                            }]},
                            "count": 1,
                            "id": "Numerator_1"
                        },
                        {
                            "code": {"coding": [{
                                "system": "http://terminology.hl7.org/CodeSystem/measure-population",
                                "code": "denominator-exception",
                                "display": "Denominator Exception"
                            }]},
                            "count": 0,
                            "id": "DenominatorException_1"
                        }
                    ]
                }]
            },
            "fullUrl": "https://madie.cms.gov/MeasureReport/b11fafe2-2252-4e9a-a675-4b9eaff4fd55"
        }
    ],
    "id": "62d73464c22c612899b40d69",
    "type": "transaction",
    "resourceType": "Bundle"
}