{
  "resourceType": "Bundle",
  "id": "62fd4b6a0968f8012246b316",
  "type": "transaction",
  "entry": [ {
    "fullUrl": "https://madie.cms.gov/Patient/c1b6ce43-8310-4776-8103-1e0d6bc08fc6",
    "resource": {
      "resourceType": "Patient",
      "id": "c1b6ce43-8310-4776-8103-1e0d6bc08fc6",
      "meta": {
        "profile": [ "http://hl7.org/fhir/us/qicore/StructureDefinition/qicore-patient" ]
      },
      "extension": [ {
        "url": "http://hl7.org/fhir/us/core/StructureDefinition/us-core-race",
        "extension": [ {
          "url": "ombCategory",
          "valueCoding": {
            "system": "urn:oid:2.16.840.1.113883.6.238",
            "code": "1002-5",
            "display": "American Indian or Alaska Native",
            "userSelected": true
          }
        }, {
          "url": "text",
          "valueString": "American Indian or Alaska Native"
        } ]
      }, {
        "url": "http://hl7.org/fhir/us/core/StructureDefinition/us-core-ethnicity",
        "extension": [ {
          "url": "ombCategory",
          "valueCoding": {
            "system": "urn:oid:2.16.840.1.113883.6.238",
            "code": "2135-2",
            "display": "Hispanic or Latino",
            "userSelected": true
          }
        }, {
          "url": "text",
          "valueString": "Hispanic or Latino"
        } ]
      } ],
      "identifier": [ {
        "type": {
          "coding": [ {
            "system": "http://terminology.hl7.org/CodeSystem/v2-0203",
            "code": "MR"
          } ]
        },
        "system": "https://bonnie-fhir.healthit.gov/",
        "value": "62fd4b6a0968f8012246b316"
      } ],
      "name": [ {
        "family": "NUMERFail",
        "given": [ "2Referrals1MinApart2ndClosed" ]
      } ],
      "gender": "female",
      "birthDate": "1990-12-31"
    },
    "request": {
      "method": "PUT",
      "url": "Patient/c1b6ce43-8310-4776-8103-1e0d6bc08fc6"
    }
  }, {
    "fullUrl": "https://madie.cms.gov/ServiceRequest/0ffe0f34-6097-4f99-aef9-4d6fedd83059",
    "resource": {
      "resourceType": "ServiceRequest",
      "id": "0ffe0f34-6097-4f99-aef9-4d6fedd83059",
      "meta": {
        "profile": [ "http://hl7.org/fhir/us/qicore/StructureDefinition/qicore-servicerequest" ]
      },
      "status": "active",
      "intent": "order",
      "code": {
        "coding": [ {
          "system": "http://snomed.info/sct",
          "version": "2022-03",
          "code": "103696004",
          "display": "Patient referral to specialist (procedure)",
          "userSelected": true
        } ]
      },
      "subject": {
        "reference": "Patient/c1b6ce43-8310-4776-8103-1e0d6bc08fc6"
      },
      "authoredOn": "2026-06-06T08:00:00.000+00:00"
    },
    "request": {
      "method": "PUT",
      "url": "ServiceRequest/0ffe0f34-6097-4f99-aef9-4d6fedd83059"
    }
  }, {
    "fullUrl": "https://madie.cms.gov/Task/3716f406-c739-4da9-8e95-5233f567bf00",
    "resource": {
      "resourceType": "Task",
      "id": "3716f406-c739-4da9-8e95-5233f567bf00",
      "meta": {
        "profile": [ "http://hl7.org/fhir/us/qicore/StructureDefinition/qicore-task" ]
      },
      "identifier": [ {
        "use": "official",
        "system": "http:/goodhealth.org/identifiers",
        "value": "20170201-002"
      } ],
      "basedOn": [ {
        "reference": "ServiceRequest/c5b42017-aacb-4734-abd5-073f144cfb8e"
      } ],
      "status": "failed",
      "intent": "order",
      "priority": "routine",
      "code": {
        "coding": [ {
          "system": "http://loinc.org",
          "version": "2.72",
          "code": "11488-4",
          "display": "Consult note",
          "userSelected": true
        } ]
      },
      "for": {
        "reference": "Patient/c1b6ce43-8310-4776-8103-1e0d6bc08fc6"
      },
      "executionPeriod": {
        "start": "2026-07-06T08:01:00.000+00:00",
        "end": "2026-07-06T08:15:00.000+00:00"
      }
    },
    "request": {
      "method": "PUT",
      "url": "Task/3716f406-c739-4da9-8e95-5233f567bf00"
    }
  }, {
    "fullUrl": "https://madie.cms.gov/ServiceRequest/c5b42017-aacb-4734-abd5-073f144cfb8e",
    "resource": {
      "resourceType": "ServiceRequest",
      "id": "c5b42017-aacb-4734-abd5-073f144cfb8e",
      "meta": {
        "profile": [ "http://hl7.org/fhir/us/qicore/StructureDefinition/qicore-servicerequest" ]
      },
      "status": "active",
      "intent": "order",
      "code": {
        "coding": [ {
          "system": "http://snomed.info/sct",
          "version": "2022-03",
          "code": "103696004",
          "display": "Patient referral to specialist (procedure)",
          "userSelected": true
        } ]
      },
      "subject": {
        "reference": "Patient/c1b6ce43-8310-4776-8103-1e0d6bc08fc6"
      },
      "authoredOn": "2026-06-06T08:01:00.000+00:00"
    },
    "request": {
      "method": "PUT",
      "url": "ServiceRequest/c5b42017-aacb-4734-abd5-073f144cfb8e"
    }
  }, {
    "fullUrl": "https://madie.cms.gov/Encounter/12bf0de9-018b-4eea-8107-7ec0ab094ca4",
    "resource": {
      "resourceType": "Encounter",
      "id": "12bf0de9-018b-4eea-8107-7ec0ab094ca4",
      "meta": {
        "profile": [ "http://hl7.org/fhir/us/qicore/StructureDefinition/qicore-encounter" ]
      },
      "status": "finished",
      "class": {
        "system": "http://terminology.hl7.org/CodeSystem/v3-ActCode",
        "code": "AMB",
        "display": "ambulatory"
      },
      "type": [ {
        "coding": [ {
          "system": "http://snomed.info/sct",
          "version": "2022-03",
          "code": "359960003",
          "display": "Ophthalmologic examination and evaluation under general anesthesia, limited (procedure)",
          "userSelected": true
        } ]
      } ],
      "subject": {
        "reference": "Patient/c1b6ce43-8310-4776-8103-1e0d6bc08fc6"
      },
      "period": {
        "start": "2026-05-27T08:00:00.000+00:00",
        "end": "2026-05-27T09:15:00.000+00:00"
      }
    },
    "request": {
      "method": "PUT",
      "url": "Encounter/12bf0de9-018b-4eea-8107-7ec0ab094ca4"
    }
  }, {
    "fullUrl": "https://madie.cms.gov/Coverage/28fa0560-4574-40e7-8bdd-fe4e857c8683",
    "resource": {
      "resourceType": "Coverage",
      "id": "28fa0560-4574-40e7-8bdd-fe4e857c8683",
      "meta": {
        "profile": [ "http://hl7.org/fhir/us/qicore/StructureDefinition/qicore-coverage" ]
      },
      "status": "active",
      "beneficiary": {
        "reference": "Patient/c1b6ce43-8310-4776-8103-1e0d6bc08fc6"
      },
      "payor": [ {
        "reference": "Organization/75c771b4-19cd-473f-8fc8-4fef19539b8a"
      } ]
    },
    "request": {
      "method": "PUT",
      "url": "Coverage/28fa0560-4574-40e7-8bdd-fe4e857c8683"
    }
  }, {
    "fullUrl": "https://madie.cms.gov/Organization/75c771b4-19cd-473f-8fc8-4fef19539b8a",
    "resource": {
      "resourceType": "Organization",
      "id": "75c771b4-19cd-473f-8fc8-4fef19539b8a",
      "meta": {
        "profile": [ "http://hl7.org/fhir/us/qicore/StructureDefinition/qicore-organization" ]
      },
      "identifier": [ {
        "use": "temp",
        "system": "urn:oid:2.16.840.1.113883.4.4",
        "value": "21-3259825"
      } ],
      "active": true,
      "type": [ {
        "coding": [ {
          "system": "http://terminology.hl7.org/CodeSystem/organization-type",
          "code": "pay",
          "display": "Payer"
        } ]
      } ],
      "name": "Blue Cross Blue Shield of Texas",
      "telecom": [ {
        "system": "phone",
        "value": "(+1) 972-766-6900"
      } ],
      "address": [ {
        "use": "billing",
        "type": "postal",
        "line": [ "P.O. Box 660044" ],
        "city": "Dallas",
        "state": "TX",
        "postalCode": "75266-0044",
        "country": "USA"
      } ]
    },
    "request": {
      "method": "PUT",
      "url": "Organization/75c771b4-19cd-473f-8fc8-4fef19539b8a"
    }
  }, {
    "fullUrl": "https://madie.cms.gov/Practitioner/64a34190-2db4-498e-ac6d-72e31d4bf575",
    "resource": {
      "resourceType": "Practitioner",
      "id": "64a34190-2db4-498e-ac6d-72e31d4bf575",
      "meta": {
        "profile": [ "http://hl7.org/fhir/us/qicore/StructureDefinition/qicore-practitioner" ]
      },
      "identifier": [ {
        "system": "http://hl7.org/fhir/sid/us-npi",
        "value": "123456"
      } ],
      "name": [ {
        "family": "Evil",
        "prefix": [ "Dr" ]
      } ]
    },
    "request": {
      "method": "PUT",
      "url": "Practitioner/64a34190-2db4-498e-ac6d-72e31d4bf575"
    }
  }, {
    "fullUrl": "https://madie.cms.gov/MeasureReport/45651e0c-94e0-4829-96db-a9f7e74f0511",
    "resource": {
      "resourceType": "MeasureReport",
      "id": "45651e0c-94e0-4829-96db-a9f7e74f0511",
      "meta": {
        "profile": [ "http://hl7.org/fhir/us/cqfmeasures/StructureDefinition/test-case-cqfm" ]
      },
      "contained": [ {
        "resourceType": "Parameters",
        "id": "eedecace-95a6-4182-980d-c2c1b483a265-parameters",
        "parameter": [ {
          "name": "subject",
          "valueString": "c1b6ce43-8310-4776-8103-1e0d6bc08fc6"
        } ]
      } ],
      "extension": [ {
        "url": "http://hl7.org/fhir/StructureDefinition/cqf-inputParameters",
        "valueReference": {
          "reference": "#eedecace-95a6-4182-980d-c2c1b483a265-parameters"
        }
      }, {
        "url": "http://hl7.org/fhir/us/cqfmeasures/StructureDefinition/cqfm-testCaseDescription",
        "valueMarkdown": "2 Referrals 1 minute apart only 2nd referral closed."
      } ],
      "modifierExtension": [ {
        "url": "http://hl7.org/fhir/us/cqfmeasures/StructureDefinition/cqfm-isTestCase",
        "valueBoolean": true
      } ],
      "status": "complete",
      "type": "individual",
      "measure": "https://madie.cms.gov/Measure/CMS50FHIRCRLReceiptofSpecialistReport",
      "period": {
        "start": "2026-01-01",
        "end": "2026-12-31"
      },
      "group": [ {
        "id": "Group_1",
        "population": [ {
          "id": "InitialPopulation_1",
          "code": {
            "coding": [ {
              "system": "http://terminology.hl7.org/CodeSystem/measure-population",
              "code": "initial-population",
              "display": "Initial Population"
            } ]
          },
          "count": 1
        }, {
          "id": "Denominator_1",
          "code": {
            "coding": [ {
              "system": "http://terminology.hl7.org/CodeSystem/measure-population",
              "code": "denominator",
              "display": "Denominator"
            } ]
          },
          "count": 1
        }, {
          "id": "Numerator_1",
          "code": {
            "coding": [ {
              "system": "http://terminology.hl7.org/CodeSystem/measure-population",
              "code": "numerator",
              "display": "Numerator"
            } ]
          },
          "count": 0
        } ],
        "measureScore": {
          "value": 1.0
        }
      } ],
      "evaluatedResource": [ {
        "reference": "Patient/c1b6ce43-8310-4776-8103-1e0d6bc08fc6"
      }, {
        "reference": "ServiceRequest/0ffe0f34-6097-4f99-aef9-4d6fedd83059"
      }, {
        "reference": "Task/3716f406-c739-4da9-8e95-5233f567bf00"
      }, {
        "reference": "ServiceRequest/c5b42017-aacb-4734-abd5-073f144cfb8e"
      }, {
        "reference": "Encounter/12bf0de9-018b-4eea-8107-7ec0ab094ca4"
      }, {
        "reference": "Coverage/28fa0560-4574-40e7-8bdd-fe4e857c8683"
      }, {
        "reference": "Organization/75c771b4-19cd-473f-8fc8-4fef19539b8a"
      }, {
        "reference": "Practitioner/64a34190-2db4-498e-ac6d-72e31d4bf575"
      } ]
    },
    "request": {
      "method": "PUT",
      "url": "MeasureReport/45651e0c-94e0-4829-96db-a9f7e74f0511"
    }
  } ]
}