{
  "resourceType": "Bundle",
  "id": "610d828c37a47d6ac0116a12",
  "type": "transaction",
  "entry": [ {
    "fullUrl": "https://madie.cms.gov/Patient/a7935229-6eb1-45c1-ad08-4fcba8ebbde6",
    "resource": {
      "resourceType": "Patient",
      "id": "a7935229-6eb1-45c1-ad08-4fcba8ebbde6",
      "meta": {
        "profile": [ "http://hl7.org/fhir/us/qicore/StructureDefinition/qicore-patient" ]
      },
      "extension": [ {
        "url": "http://hl7.org/fhir/us/core/StructureDefinition/us-core-race",
        "extension": [ {
          "url": "ombCategory",
          "valueCoding": {
            "system": "urn:oid:2.16.840.1.113883.6.238",
            "code": "2054-5",
            "display": "Black or African American",
            "userSelected": true
          }
        }, {
          "url": "text",
          "valueString": "Black or African American"
        } ]
      }, {
        "url": "http://hl7.org/fhir/us/core/StructureDefinition/us-core-ethnicity",
        "extension": [ {
          "url": "ombCategory",
          "valueCoding": {
            "system": "urn:oid:2.16.840.1.113883.6.238",
            "code": "2186-5",
            "display": "Not Hispanic or Latino",
            "userSelected": true
          }
        }, {
          "url": "text",
          "valueString": "Not Hispanic or Latino"
        } ]
      } ],
      "identifier": [ {
        "type": {
          "coding": [ {
            "system": "http://terminology.hl7.org/CodeSystem/v2-0203",
            "code": "MR"
          } ]
        },
        "system": "https://goodhealth.com/",
        "value": "610d828c37a47d6ac0116a12"
      } ],
      "name": [ {
        "family": "DENEXCEPPass",
        "given": [ "AssessmentNotDonePatientReason" ]
      } ],
      "gender": "female",
      "birthDate": "1955-06-18"
    },
    "request": {
      "method": "PUT",
      "url": "Patient/a7935229-6eb1-45c1-ad08-4fcba8ebbde6"
    }
  }, {
    "fullUrl": "https://madie.cms.gov/Encounter/a4c25e56-9547-43d7-a473-7d15c5047b04",
    "resource": {
      "resourceType": "Encounter",
      "id": "a4c25e56-9547-43d7-a473-7d15c5047b04",
      "meta": {
        "profile": [ "http://hl7.org/fhir/us/qicore/StructureDefinition/qicore-encounter" ]
      },
      "status": "finished",
      "class": {
        "system": "http://terminology.hl7.org/CodeSystem/v3-ActCode",
        "code": "AMB",
        "display": "ambulatory",
        "userSelected": true
      },
      "type": [ {
        "coding": [ {
          "system": "http://snomed.info/sct",
          "version": "2020-09",
          "code": "185460008",
          "display": "Home visit request by patient (procedure)",
          "userSelected": true
        } ]
      } ],
      "subject": {
        "reference": "Patient/a7935229-6eb1-45c1-ad08-4fcba8ebbde6"
      },
      "period": {
        "start": "2026-08-06T08:00:00.000+00:00",
        "end": "2026-08-06T09:15:00.000+00:00"
      }
    },
    "request": {
      "method": "PUT",
      "url": "Encounter/a4c25e56-9547-43d7-a473-7d15c5047b04"
    }
  }, {
    "fullUrl": "https://madie.cms.gov/Condition/3130ad72-483d-4881-a501-ca4161fa12db",
    "resource": {
      "resourceType": "Condition",
      "id": "3130ad72-483d-4881-a501-ca4161fa12db",
      "meta": {
        "profile": [ "http://hl7.org/fhir/us/qicore/StructureDefinition/qicore-condition-problems-health-concerns" ]
      },
      "clinicalStatus": {
        "coding": [ {
          "system": "http://terminology.hl7.org/CodeSystem/condition-clinical",
          "code": "active",
          "display": "active",
          "userSelected": true
        } ]
      },
      "category": [ {
        "coding": [ {
          "system": "http://terminology.hl7.org/CodeSystem/condition-clinical",
          "code": "active",
          "display": "active",
          "userSelected": true
        } ]
      } ],
      "code": {
        "coding": [ {
          "system": "http://snomed.info/sct",
          "version": "http://snomed.info/sct/731000124108/version/202303",
          "code": "10349009",
          "display": "Multi-infarct dementia with delirium (disorder)",
          "userSelected": true
        } ]
      },
      "subject": {
        "reference": "Patient/a7935229-6eb1-45c1-ad08-4fcba8ebbde6"
      },
      "onsetDateTime": "2025-05-06T08:00:00.000+00:00",
      "recordedDate": "2025-05-06T08:00:00.000+00:00"
    },
    "request": {
      "method": "PUT",
      "url": "Condition/3130ad72-483d-4881-a501-ca4161fa12db"
    }
  }, {
    "fullUrl": "https://madie.cms.gov/Encounter/69b8c2f6-ee36-4738-85f1-fab6b4b36328",
    "resource": {
      "resourceType": "Encounter",
      "id": "69b8c2f6-ee36-4738-85f1-fab6b4b36328",
      "meta": {
        "profile": [ "http://hl7.org/fhir/us/qicore/StructureDefinition/qicore-encounter" ]
      },
      "status": "finished",
      "class": {
        "system": "http://terminology.hl7.org/CodeSystem/v3-ActCode",
        "code": "AMB",
        "display": "ambulatory",
        "userSelected": true
      },
      "type": [ {
        "coding": [ {
          "system": "http://snomed.info/sct",
          "version": "2020-09",
          "code": "185316007",
          "display": "Indirect encounter (procedure)",
          "userSelected": true
        } ]
      } ],
      "subject": {
        "reference": "Patient/a7935229-6eb1-45c1-ad08-4fcba8ebbde6"
      },
      "period": {
        "start": "2026-05-06T08:00:00.000+00:00",
        "end": "2026-05-06T08:15:00.000+00:00"
      }
    },
    "request": {
      "method": "PUT",
      "url": "Encounter/69b8c2f6-ee36-4738-85f1-fab6b4b36328"
    }
  }, {
    "fullUrl": "https://madie.cms.gov/Procedure/69ccf88a-6d24-4355-82ee-99c9f35d45b1",
    "resource": {
      "resourceType": "Procedure",
      "id": "69ccf88a-6d24-4355-82ee-99c9f35d45b1",
      "meta": {
        "profile": [ "http://hl7.org/fhir/us/qicore/StructureDefinition/qicore-procedure" ]
      },
      "extension": [ {
        "url": "http://hl7.org/fhir/us/qicore/StructureDefinition/qicore-recorded",
        "valueDateTime": "2026-05-05T13:35:00.000+00:00"
      } ],
      "status": "completed",
      "category": {
        "coding": [ {
          "system": "http://loinc.org",
          "version": "2.73",
          "code": "58151-2",
          "display": "Prior assessment Brief Interview for Mental Status (BIMS) summary score [MDSv3]",
          "userSelected": true
        } ]
      },
      "code": {
        "coding": [ {
          "system": "http://snomed.info/sct",
          "version": "http://snomed.info/sct/731000124108/version/202303",
          "code": "113024001",
          "display": "Assessment and interpretation of higher cerebral function, cognitive testing (procedure)",
          "userSelected": true
        } ]
      },
      "subject": {
        "reference": "Patient/a7935229-6eb1-45c1-ad08-4fcba8ebbde6"
      },
      "encounter": {
        "reference": "Encounter/home-healthcare-services-8b61"
      },
      "performedDateTime": "2026-05-06T08:00:00.000+00:00"
    },
    "request": {
      "method": "PUT",
      "url": "Procedure/69ccf88a-6d24-4355-82ee-99c9f35d45b1"
    }
  }, {
    "fullUrl": "https://madie.cms.gov/Observation/c39cd426-8988-41e4-8bae-3c25b9377508",
    "resource": {
      "resourceType": "Observation",
      "id": "c39cd426-8988-41e4-8bae-3c25b9377508",
      "meta": {
        "profile": [ "http://hl7.org/fhir/us/qicore/StructureDefinition/qicore-observationcancelled" ]
      },
      "extension": [ {
        "url": "http://hl7.org/fhir/us/qicore/StructureDefinition/qicore-notDoneReason",
        "valueCodeableConcept": {
          "coding": [ {
            "system": "http://snomed.info/sct",
            "version": "http://snomed.info/sct/731000124108/version/20230301",
            "code": "275936005",
            "display": "Patient noncompliance - general (situation)"
          } ]
        }
      } ],
      "status": "cancelled",
      "category": [ {
        "coding": [ {
          "system": "http://snomed.info/sct",
          "version": "http://snomed.info/sct/731000124108/version/202303",
          "code": "113024001",
          "display": "Assessment and interpretation of higher cerebral function, cognitive testing (procedure)",
          "userSelected": true
        } ]
      } ],
      "code": {
        "coding": [ {
          "system": "http://snomed.info/sct",
          "version": "http://snomed.info/sct/731000124108/version/202303",
          "code": "113024001",
          "display": "Assessment and interpretation of higher cerebral function, cognitive testing (procedure)"
        } ]
      },
      "subject": {
        "reference": "Patient/a7935229-6eb1-45c1-ad08-4fcba8ebbde6"
      },
      "effectiveDateTime": "2026-05-06T08:00:00.000+00:00",
      "issued": "2026-08-06T08:00:00.000+00:00"
    },
    "request": {
      "method": "PUT",
      "url": "Observation/c39cd426-8988-41e4-8bae-3c25b9377508"
    }
  }, {
    "fullUrl": "https://madie.cms.gov/MeasureReport/cc533aea-63b2-46a1-893d-d4e453c69ff9",
    "resource": {
      "resourceType": "MeasureReport",
      "id": "cc533aea-63b2-46a1-893d-d4e453c69ff9",
      "meta": {
        "profile": [ "http://hl7.org/fhir/us/cqfmeasures/StructureDefinition/test-case-cqfm" ]
      },
      "contained": [ {
        "resourceType": "Parameters",
        "id": "ba50a5c7-38cb-41a9-afdc-fe47fae11a0b-parameters",
        "parameter": [ {
          "name": "subject",
          "valueString": "a7935229-6eb1-45c1-ad08-4fcba8ebbde6"
        } ]
      } ],
      "extension": [ {
        "url": "http://hl7.org/fhir/StructureDefinition/cqf-inputParameters",
        "valueReference": {
          "reference": "#ba50a5c7-38cb-41a9-afdc-fe47fae11a0b-parameters"
        }
      }, {
        "url": "http://hl7.org/fhir/us/cqfmeasures/StructureDefinition/cqfm-testCaseDescription",
        "valueMarkdown": "Meets exception for Assessment not performed d/t documented patient refusal"
      } ],
      "modifierExtension": [ {
        "url": "http://hl7.org/fhir/us/cqfmeasures/StructureDefinition/cqfm-isTestCase",
        "valueBoolean": true
      } ],
      "status": "complete",
      "type": "individual",
      "measure": "https://madie.cms.gov/Measure/CMS149FHIRDementiaCognitiveAssessment",
      "period": {
        "start": "2026-01-01",
        "end": "2026-12-31"
      },
      "group": [ {
        "id": "Group_1",
        "population": [ {
          "id": "InitialPopulation_1",
          "code": {
            "coding": [ {
              "system": "http://terminology.hl7.org/CodeSystem/measure-population",
              "code": "initial-population",
              "display": "Initial Population"
            } ]
          },
          "count": 1
        }, {
          "id": "Denominator_1",
          "code": {
            "coding": [ {
              "system": "http://terminology.hl7.org/CodeSystem/measure-population",
              "code": "denominator",
              "display": "Denominator"
            } ]
          },
          "count": 1
        }, {
          "id": "Numerator_1",
          "code": {
            "coding": [ {
              "system": "http://terminology.hl7.org/CodeSystem/measure-population",
              "code": "numerator",
              "display": "Numerator"
            } ]
          },
          "count": 0
        }, {
          "id": "DenominatorException_1",
          "code": {
            "coding": [ {
              "system": "http://terminology.hl7.org/CodeSystem/measure-population",
              "code": "denominator-exception",
              "display": "Denominator Exception"
            } ]
          },
          "count": 1
        } ],
        "measureScore": {
          "value": 1.0
        }
      } ],
      "evaluatedResource": [ {
        "reference": "Patient/a7935229-6eb1-45c1-ad08-4fcba8ebbde6"
      }, {
        "reference": "Encounter/a4c25e56-9547-43d7-a473-7d15c5047b04"
      }, {
        "reference": "Condition/3130ad72-483d-4881-a501-ca4161fa12db"
      }, {
        "reference": "Encounter/69b8c2f6-ee36-4738-85f1-fab6b4b36328"
      }, {
        "reference": "Procedure/69ccf88a-6d24-4355-82ee-99c9f35d45b1"
      }, {
        "reference": "Observation/c39cd426-8988-41e4-8bae-3c25b9377508"
      } ]
    },
    "request": {
      "method": "PUT",
      "url": "MeasureReport/cc533aea-63b2-46a1-893d-d4e453c69ff9"
    }
  } ]
}