{"resourceType":"Bundle","id":"tests-fd115ded-69a6-4766-bdd9-d6364347401e-bundle","type":"transaction","entry":[{"fullUrl":"Encounter/740a2233-87be-44e6-a45f-1f9a451b79e0","resource":{"resourceType":"Encounter","id":"740a2233-87be-44e6-a45f-1f9a451b79e0","meta":{"profile":["http://hl7.org/fhir/us/qicore/StructureDefinition/qicore-encounter"]},"status":"finished","class":{"system":"http://terminology.hl7.org/CodeSystem/v3-ActCode","code":"AMB","display":"ambulatory","userSelected":true},"type":[{"coding":[{"system":"http://snomed.info/sct","version":"http://snomed.info/sct/731000124108/version/202303","code":"185463005","display":"Visit out of hours (procedure)","userSelected":true}]}],"subject":{"reference":"Patient/fd115ded-69a6-4766-bdd9-d6364347401e"},"period":{"start":"2026-08-31T08:00:00.000+00:00","end":"2026-08-31T08:35:00.000+00:00"}},"request":{"method":"PUT","url":"Encounter/740a2233-87be-44e6-a45f-1f9a451b79e0"}},{"fullUrl":"Observation/fb9812b9-0dca-4c64-acc7-0b94cf06db1a","resource":{"resourceType":"Observation","id":"fb9812b9-0dca-4c64-acc7-0b94cf06db1a","meta":{"profile":["http://hl7.org/fhir/us/qicore/StructureDefinition/qicore-observation-screening-assessment"]},"status":"amended","category":[{"coding":[{"system":"http://terminology.hl7.org/CodeSystem/observation-category","code":"survey","display":"Survey","userSelected":true}]}],"code":{"coding":[{"system":"http://loinc.org","version":"2.73","code":"58151-2","display":"Prior assessment Brief Interview for Mental Status (BIMS) summary score [MDSv3]","userSelected":true}]},"subject":{"reference":"Patient/fd115ded-69a6-4766-bdd9-d6364347401e"},"effectiveDateTime":"2026-08-31T08:34:00.000+00:00","issued":"2026-08-31T08:34:00.000+00:00","valueInteger":26},"request":{"method":"PUT","url":"Observation/fb9812b9-0dca-4c64-acc7-0b94cf06db1a"}},{"fullUrl":"Coverage/93b174e0-ec24-40a1-97fb-0a5249540299","resource":{"resourceType":"Coverage","id":"93b174e0-ec24-40a1-97fb-0a5249540299","meta":{"profile":["http://hl7.org/fhir/us/qicore/StructureDefinition/qicore-coverage"]},"status":"active","beneficiary":{"reference":"Patient/fd115ded-69a6-4766-bdd9-d6364347401e"},"payor":[{"reference":"Organization/940cbafb-4a4f-47f2-b247-98bb1f67e80a"}]},"request":{"method":"PUT","url":"Coverage/93b174e0-ec24-40a1-97fb-0a5249540299"}},{"fullUrl":"Condition/6b060aba-b69f-479a-8b33-2c88fbd80fd2","resource":{"resourceType":"Condition","id":"6b060aba-b69f-479a-8b33-2c88fbd80fd2","meta":{"profile":["http://hl7.org/fhir/us/qicore/StructureDefinition/qicore-condition-problems-health-concerns"]},"clinicalStatus":{"coding":[{"system":"http://terminology.hl7.org/CodeSystem/condition-clinical","code":"active","display":"Active","userSelected":true}]},"verificationStatus":{"coding":[{"system":"http://terminology.hl7.org/CodeSystem/condition-ver-status","code":"confirmed","display":"Confirmed","userSelected":true}]},"category":[{"coding":[{"system":"http://terminology.hl7.org/CodeSystem/condition-category","code":"encounter-diagnosis","display":"Encounter Diagnosis","userSelected":true}]}],"code":{"coding":[{"system":"http://hl7.org/fhir/sid/icd-10-cm","version":"2023","code":"G31.83","userSelected":true}]},"subject":{"reference":"Patient/fd115ded-69a6-4766-bdd9-d6364347401e"},"onsetPeriod":{"start":"2023-03-30T08:00:00.000+00:00"}},"request":{"method":"PUT","url":"Condition/6b060aba-b69f-479a-8b33-2c88fbd80fd2"}},{"fullUrl":"Patient/fd115ded-69a6-4766-bdd9-d6364347401e","resource":{"resourceType":"Patient","id":"fd115ded-69a6-4766-bdd9-d6364347401e","meta":{"profile":["http://hl7.org/fhir/us/qicore/StructureDefinition/qicore-patient"]},"extension":[{"url":"http://hl7.org/fhir/us/core/StructureDefinition/us-core-race","extension":[{"url":"ombCategory","valueCoding":{"system":"urn:oid:2.16.840.1.113883.6.238","code":"1002-5","display":"American Indian or Alaska Native","userSelected":true}},{"url":"text","valueString":"American Indian or Alaska Native"}]},{"url":"http://hl7.org/fhir/us/core/StructureDefinition/us-core-ethnicity","extension":[{"url":"ombCategory","valueCoding":{"system":"urn:oid:2.16.840.1.113883.6.238","code":"2135-2","display":"Hispanic or Latino","userSelected":true}},{"url":"text","valueString":"Hispanic or Latino"}]}],"identifier":[{"type":{"coding":[{"system":"http://terminology.hl7.org/CodeSystem/v2-0203","code":"MR"}]},"system":"https://bonnie-fhir.healthit.gov/","value":"642713b678c9438489949adf"}],"name":[{"family":"NUMERPass","given":["Assessment1MinB4EncounterEdge"]}],"gender":"female","birthDate":"1979-01-02"},"request":{"method":"PUT","url":"Patient/fd115ded-69a6-4766-bdd9-d6364347401e"}},{"fullUrl":"MeasureReport/08d5a66a-7c2a-410d-94e7-129e669266c7","resource":{"resourceType":"MeasureReport","id":"08d5a66a-7c2a-410d-94e7-129e669266c7","meta":{"profile":["http://hl7.org/fhir/us/cqfmeasures/StructureDefinition/test-case-cqfm"]},"contained":[{"resourceType":"Parameters","id":"58ea7f52-85fd-4b07-8f24-543c1801888f-parameters","parameter":[{"name":"subject","valueString":"fd115ded-69a6-4766-bdd9-d6364347401e"}]}],"extension":[{"url":"http://hl7.org/fhir/StructureDefinition/cqf-inputParameters","valueReference":{"reference":"#58ea7f52-85fd-4b07-8f24-543c1801888f-parameters"}},{"url":"http://hl7.org/fhir/us/cqfmeasures/StructureDefinition/cqfm-testCaseDescription","valueMarkdown":"Assessment is performed in last minute before end of Visit"}],"modifierExtension":[{"url":"http://hl7.org/fhir/us/cqfmeasures/StructureDefinition/cqfm-isTestCase","valueBoolean":true}],"status":"complete","type":"individual","measure":"https://madie.cms.gov/Measure/CMS149FHIRDementiaCognitiveAssessment","period":{"start":"2026-01-01","end":"2026-12-31"},"group":[{"id":"Group_1","population":[{"id":"InitialPopulation_1","code":{"coding":[{"system":"http://terminology.hl7.org/CodeSystem/measure-population","code":"initial-population","display":"Initial Population"}]},"count":1},{"id":"Denominator_1","code":{"coding":[{"system":"http://terminology.hl7.org/CodeSystem/measure-population","code":"denominator","display":"Denominator"}]},"count":1},{"id":"Numerator_1","code":{"coding":[{"system":"http://terminology.hl7.org/CodeSystem/measure-population","code":"numerator","display":"Numerator"}]},"count":1},{"id":"DenominatorException_1","code":{"coding":[{"system":"http://terminology.hl7.org/CodeSystem/measure-population","code":"denominator-exception","display":"Denominator Exception"}]},"count":0}],"measureScore":{"value":1.0}}],"evaluatedResource":[{"reference":"Patient/fd115ded-69a6-4766-bdd9-d6364347401e"},{"reference":"Condition/6b060aba-b69f-479a-8b33-2c88fbd80fd2"},{"reference":"Encounter/7ae97574-2bc4-48b2-9481-079596aba935"},{"reference":"Encounter/740a2233-87be-44e6-a45f-1f9a451b79e0"},{"reference":"Observation/fb9812b9-0dca-4c64-acc7-0b94cf06db1a"},{"reference":"Coverage/93b174e0-ec24-40a1-97fb-0a5249540299"},{"reference":"Organization/940cbafb-4a4f-47f2-b247-98bb1f67e80a"},{"reference":"Practitioner/76ffd114-bbcd-4161-8117-73f01d729bf1"}]},"request":{"method":"PUT","url":"MeasureReport/08d5a66a-7c2a-410d-94e7-129e669266c7"}},{"fullUrl":"Organization/940cbafb-4a4f-47f2-b247-98bb1f67e80a","resource":{"resourceType":"Organization","id":"940cbafb-4a4f-47f2-b247-98bb1f67e80a","meta":{"profile":["http://hl7.org/fhir/us/qicore/StructureDefinition/qicore-organization"]},"identifier":[{"use":"temp","system":"urn:oid:2.16.840.1.113883.4.4","value":"21-3259825"}],"active":true,"type":[{"coding":[{"system":"http://terminology.hl7.org/CodeSystem/organization-type","code":"pay","display":"Payer"}]}],"name":"Blue Cross Blue Shield of Texas","telecom":[{"system":"phone","value":"(+1) 972-766-6900"}],"address":[{"use":"billing","type":"postal","line":["P.O. Box 660044"],"city":"Dallas","state":"TX","postalCode":"75266-0044","country":"USA"}]},"request":{"method":"PUT","url":"Organization/940cbafb-4a4f-47f2-b247-98bb1f67e80a"}},{"fullUrl":"Encounter/7ae97574-2bc4-48b2-9481-079596aba935","resource":{"resourceType":"Encounter","id":"7ae97574-2bc4-48b2-9481-079596aba935","meta":{"profile":["http://hl7.org/fhir/us/qicore/StructureDefinition/qicore-encounter"]},"status":"finished","class":{"system":"http://terminology.hl7.org/CodeSystem/v3-ActCode","code":"AMB","display":"ambulatory","userSelected":true},"type":[{"coding":[{"system":"http://www.ama-assn.org/go/cpt","version":"2023","code":"99212","userSelected":true}]}],"subject":{"reference":"Patient/fd115ded-69a6-4766-bdd9-d6364347401e"},"period":{"start":"2026-03-31T08:00:00.000+00:00","end":"2026-03-31T08:35:00.000+00:00"}},"request":{"method":"PUT","url":"Encounter/7ae97574-2bc4-48b2-9481-079596aba935"}},{"fullUrl":"Practitioner/76ffd114-bbcd-4161-8117-73f01d729bf1","resource":{"resourceType":"Practitioner","id":"76ffd114-bbcd-4161-8117-73f01d729bf1","identifier":[{"system":"http://hl7.org/fhir/sid/us-npi","value":"123456"}],"name":[{"family":"Evil","prefix":["Dr"]}]},"request":{"method":"PUT","url":"Practitioner/76ffd114-bbcd-4161-8117-73f01d729bf1"}},{"fullUrl":"Bundle/642713b678c9438489949adf","resource":{"resourceType":"Bundle","id":"642713b678c9438489949adf","type":"transaction","entry":[{"fullUrl":"https://madie.cms.gov/Patient/fd115ded-69a6-4766-bdd9-d6364347401e","resource":{"resourceType":"Patient","id":"fd115ded-69a6-4766-bdd9-d6364347401e","meta":{"profile":["http://hl7.org/fhir/us/qicore/StructureDefinition/qicore-patient"]},"extension":[{"url":"http://hl7.org/fhir/us/core/StructureDefinition/us-core-race","extension":[{"url":"ombCategory","valueCoding":{"system":"urn:oid:2.16.840.1.113883.6.238","code":"1002-5","display":"American Indian or Alaska Native","userSelected":true}},{"url":"text","valueString":"American Indian or Alaska Native"}]},{"url":"http://hl7.org/fhir/us/core/StructureDefinition/us-core-ethnicity","extension":[{"url":"ombCategory","valueCoding":{"system":"urn:oid:2.16.840.1.113883.6.238","code":"2135-2","display":"Hispanic or Latino","userSelected":true}},{"url":"text","valueString":"Hispanic or Latino"}]}],"identifier":[{"type":{"coding":[{"system":"http://terminology.hl7.org/CodeSystem/v2-0203","code":"MR"}]},"system":"https://bonnie-fhir.healthit.gov/","value":"642713b678c9438489949adf"}],"name":[{"family":"NUMERPass","given":["Assessment1MinB4EncounterEdge"]}],"gender":"female","birthDate":"1979-01-02"},"request":{"method":"PUT","url":"Patient/fd115ded-69a6-4766-bdd9-d6364347401e"}},{"fullUrl":"https://madie.cms.gov/Condition/6b060aba-b69f-479a-8b33-2c88fbd80fd2","resource":{"resourceType":"Condition","id":"6b060aba-b69f-479a-8b33-2c88fbd80fd2","meta":{"profile":["http://hl7.org/fhir/us/qicore/StructureDefinition/qicore-condition-problems-health-concerns"]},"clinicalStatus":{"coding":[{"system":"http://terminology.hl7.org/CodeSystem/condition-clinical","code":"active","display":"Active","userSelected":true}]},"verificationStatus":{"coding":[{"system":"http://terminology.hl7.org/CodeSystem/condition-ver-status","code":"confirmed","display":"Confirmed","userSelected":true}]},"category":[{"coding":[{"system":"http://terminology.hl7.org/CodeSystem/condition-category","code":"encounter-diagnosis","display":"Encounter Diagnosis","userSelected":true}]}],"code":{"coding":[{"system":"http://hl7.org/fhir/sid/icd-10-cm","version":"2023","code":"G31.83","userSelected":true}]},"subject":{"reference":"Patient/fd115ded-69a6-4766-bdd9-d6364347401e"},"onsetPeriod":{"start":"2023-03-30T08:00:00.000+00:00"}},"request":{"method":"PUT","url":"Condition/6b060aba-b69f-479a-8b33-2c88fbd80fd2"}},{"fullUrl":"https://madie.cms.gov/Encounter/7ae97574-2bc4-48b2-9481-079596aba935","resource":{"resourceType":"Encounter","id":"7ae97574-2bc4-48b2-9481-079596aba935","meta":{"profile":["http://hl7.org/fhir/us/qicore/StructureDefinition/qicore-encounter"]},"status":"finished","class":{"system":"http://terminology.hl7.org/CodeSystem/v3-ActCode","code":"AMB","display":"ambulatory","userSelected":true},"type":[{"coding":[{"system":"http://www.ama-assn.org/go/cpt","version":"2023","code":"99212","userSelected":true}]}],"subject":{"reference":"Patient/fd115ded-69a6-4766-bdd9-d6364347401e"},"period":{"start":"2026-03-31T08:00:00.000+00:00","end":"2026-03-31T08:35:00.000+00:00"}},"request":{"method":"PUT","url":"Encounter/7ae97574-2bc4-48b2-9481-079596aba935"}},{"fullUrl":"https://madie.cms.gov/Encounter/740a2233-87be-44e6-a45f-1f9a451b79e0","resource":{"resourceType":"Encounter","id":"740a2233-87be-44e6-a45f-1f9a451b79e0","meta":{"profile":["http://hl7.org/fhir/us/qicore/StructureDefinition/qicore-encounter"]},"status":"finished","class":{"system":"http://terminology.hl7.org/CodeSystem/v3-ActCode","code":"AMB","display":"ambulatory","userSelected":true},"type":[{"coding":[{"system":"http://snomed.info/sct","version":"http://snomed.info/sct/731000124108/version/202303","code":"185463005","display":"Visit out of hours (procedure)","userSelected":true}]}],"subject":{"reference":"Patient/fd115ded-69a6-4766-bdd9-d6364347401e"},"period":{"start":"2026-08-31T08:00:00.000+00:00","end":"2026-08-31T08:35:00.000+00:00"}},"request":{"method":"PUT","url":"Encounter/740a2233-87be-44e6-a45f-1f9a451b79e0"}},{"fullUrl":"https://madie.cms.gov/Observation/fb9812b9-0dca-4c64-acc7-0b94cf06db1a","resource":{"resourceType":"Observation","id":"fb9812b9-0dca-4c64-acc7-0b94cf06db1a","meta":{"profile":["http://hl7.org/fhir/us/qicore/StructureDefinition/qicore-observation-screening-assessment"]},"status":"amended","category":[{"coding":[{"system":"http://terminology.hl7.org/CodeSystem/observation-category","code":"survey","display":"Survey","userSelected":true}]}],"code":{"coding":[{"system":"http://loinc.org","version":"2.73","code":"58151-2","display":"Prior assessment Brief Interview for Mental Status (BIMS) summary score [MDSv3]","userSelected":true}]},"subject":{"reference":"Patient/fd115ded-69a6-4766-bdd9-d6364347401e"},"effectiveDateTime":"2026-08-31T08:34:00.000+00:00","issued":"2026-08-31T08:34:00.000+00:00","valueInteger":26},"request":{"method":"PUT","url":"Observation/fb9812b9-0dca-4c64-acc7-0b94cf06db1a"}},{"fullUrl":"https://madie.cms.gov/Coverage/93b174e0-ec24-40a1-97fb-0a5249540299","resource":{"resourceType":"Coverage","id":"93b174e0-ec24-40a1-97fb-0a5249540299","meta":{"profile":["http://hl7.org/fhir/us/qicore/StructureDefinition/qicore-coverage"]},"status":"active","beneficiary":{"reference":"Patient/fd115ded-69a6-4766-bdd9-d6364347401e"},"payor":[{"reference":"Organization/940cbafb-4a4f-47f2-b247-98bb1f67e80a"}]},"request":{"method":"PUT","url":"Coverage/93b174e0-ec24-40a1-97fb-0a5249540299"}},{"fullUrl":"https://madie.cms.gov/Organization/940cbafb-4a4f-47f2-b247-98bb1f67e80a","resource":{"resourceType":"Organization","id":"940cbafb-4a4f-47f2-b247-98bb1f67e80a","meta":{"profile":["http://hl7.org/fhir/us/qicore/StructureDefinition/qicore-organization"]},"identifier":[{"use":"temp","system":"urn:oid:2.16.840.1.113883.4.4","value":"21-3259825"}],"active":true,"type":[{"coding":[{"system":"http://terminology.hl7.org/CodeSystem/organization-type","code":"pay","display":"Payer"}]}],"name":"Blue Cross Blue Shield of Texas","telecom":[{"system":"phone","value":"(+1) 972-766-6900"}],"address":[{"use":"billing","type":"postal","line":["P.O. Box 660044"],"city":"Dallas","state":"TX","postalCode":"75266-0044","country":"USA"}]},"request":{"method":"PUT","url":"Organization/940cbafb-4a4f-47f2-b247-98bb1f67e80a"}},{"fullUrl":"https://madie.cms.gov/Practitioner/76ffd114-bbcd-4161-8117-73f01d729bf1","resource":{"resourceType":"Practitioner","id":"76ffd114-bbcd-4161-8117-73f01d729bf1","identifier":[{"system":"http://hl7.org/fhir/sid/us-npi","value":"123456"}],"name":[{"family":"Evil","prefix":["Dr"]}]},"request":{"method":"PUT","url":"Practitioner/76ffd114-bbcd-4161-8117-73f01d729bf1"}},{"fullUrl":"https://madie.cms.gov/MeasureReport/08d5a66a-7c2a-410d-94e7-129e669266c7","resource":{"resourceType":"MeasureReport","id":"08d5a66a-7c2a-410d-94e7-129e669266c7","meta":{"profile":["http://hl7.org/fhir/us/cqfmeasures/StructureDefinition/test-case-cqfm"]},"contained":[{"resourceType":"Parameters","id":"58ea7f52-85fd-4b07-8f24-543c1801888f-parameters","parameter":[{"name":"subject","valueString":"fd115ded-69a6-4766-bdd9-d6364347401e"}]}],"extension":[{"url":"http://hl7.org/fhir/StructureDefinition/cqf-inputParameters","valueReference":{"reference":"#58ea7f52-85fd-4b07-8f24-543c1801888f-parameters"}},{"url":"http://hl7.org/fhir/us/cqfmeasures/StructureDefinition/cqfm-testCaseDescription","valueMarkdown":"Assessment is performed in last minute before end of Visit"}],"modifierExtension":[{"url":"http://hl7.org/fhir/us/cqfmeasures/StructureDefinition/cqfm-isTestCase","valueBoolean":true}],"status":"complete","type":"individual","measure":"https://madie.cms.gov/Measure/CMS149FHIRDementiaCognitiveAssessment","period":{"start":"2026-01-01","end":"2026-12-31"},"group":[{"id":"Group_1","population":[{"id":"InitialPopulation_1","code":{"coding":[{"system":"http://terminology.hl7.org/CodeSystem/measure-population","code":"initial-population","display":"Initial Population"}]},"count":1},{"id":"Denominator_1","code":{"coding":[{"system":"http://terminology.hl7.org/CodeSystem/measure-population","code":"denominator","display":"Denominator"}]},"count":1},{"id":"Numerator_1","code":{"coding":[{"system":"http://terminology.hl7.org/CodeSystem/measure-population","code":"numerator","display":"Numerator"}]},"count":1},{"id":"DenominatorException_1","code":{"coding":[{"system":"http://terminology.hl7.org/CodeSystem/measure-population","code":"denominator-exception","display":"Denominator Exception"}]},"count":0}],"measureScore":{"value":1.0}}],"evaluatedResource":[{"reference":"Patient/fd115ded-69a6-4766-bdd9-d6364347401e"},{"reference":"Condition/6b060aba-b69f-479a-8b33-2c88fbd80fd2"},{"reference":"Encounter/7ae97574-2bc4-48b2-9481-079596aba935"},{"reference":"Encounter/740a2233-87be-44e6-a45f-1f9a451b79e0"},{"reference":"Observation/fb9812b9-0dca-4c64-acc7-0b94cf06db1a"},{"reference":"Coverage/93b174e0-ec24-40a1-97fb-0a5249540299"},{"reference":"Organization/940cbafb-4a4f-47f2-b247-98bb1f67e80a"},{"reference":"Practitioner/76ffd114-bbcd-4161-8117-73f01d729bf1"}]},"request":{"method":"PUT","url":"MeasureReport/08d5a66a-7c2a-410d-94e7-129e669266c7"}}]},"request":{"method":"PUT","url":"Bundle/642713b678c9438489949adf"}}]}