{"resourceType":"Bundle","id":"tests-99f28510-d75f-48d3-9f36-69739bc27419-bundle","type":"transaction","entry":[{"fullUrl":"https://madie.cms.gov/Patient/99f28510-d75f-48d3-9f36-69739bc27419","resource":{"resourceType":"Patient","id":"99f28510-d75f-48d3-9f36-69739bc27419","meta":{"profile":["http://hl7.org/fhir/us/qicore/StructureDefinition/qicore-patient"]},"extension":[{"url":"http://hl7.org/fhir/us/core/StructureDefinition/us-core-race","extension":[{"url":"ombCategory","valueCoding":{"system":"urn:oid:2.16.840.1.113883.6.238","code":"1002-5","display":"American Indian or Alaska Native","userSelected":true}},{"url":"text","valueString":"American Indian or Alaska Native"}]},{"url":"http://hl7.org/fhir/us/core/StructureDefinition/us-core-ethnicity","extension":[{"url":"ombCategory","valueCoding":{"system":"urn:oid:2.16.840.1.113883.6.238","code":"2135-2","display":"Hispanic or Latino","userSelected":true}},{"url":"text","valueString":"Hispanic or Latino"}]}],"identifier":[{"type":{"coding":[{"system":"http://terminology.hl7.org/CodeSystem/v2-0203","code":"MR"}]},"system":"https://smart.healthit.org/","value":"642711b378c9438489949adc"}],"name":[{"family":"NUMERPass","given":["AssessmentOneMonthBeforeEnc"]}],"gender":"male","birthDate":"1991-03-02"},"request":{"method":"PUT","url":"Patient/99f28510-d75f-48d3-9f36-69739bc27419"}},{"fullUrl":"https://madie.cms.gov/Condition/c7610862-5ab6-450d-8bce-6eef495e5462","resource":{"resourceType":"Condition","id":"c7610862-5ab6-450d-8bce-6eef495e5462","meta":{"profile":["http://hl7.org/fhir/us/qicore/StructureDefinition/qicore-condition-problems-health-concerns"]},"clinicalStatus":{"coding":[{"system":"http://terminology.hl7.org/CodeSystem/condition-clinical","code":"active","display":"Active","userSelected":true}]},"verificationStatus":{"coding":[{"system":"http://terminology.hl7.org/CodeSystem/condition-ver-status","code":"confirmed","display":"Confirmed","userSelected":true}]},"category":[{"coding":[{"system":"http://terminology.hl7.org/CodeSystem/condition-category","code":"encounter-diagnosis","display":"Encounter Diagnosis","userSelected":true}]}],"code":{"coding":[{"system":"http://hl7.org/fhir/sid/icd-10-cm","version":"2023","code":"G31.83","userSelected":true}]},"subject":{"reference":"Patient/99f28510-d75f-48d3-9f36-69739bc27419"},"onsetPeriod":{"start":"2024-05-01T08:00:00.000+00:00"}},"request":{"method":"PUT","url":"Condition/c7610862-5ab6-450d-8bce-6eef495e5462"}},{"fullUrl":"https://madie.cms.gov/Encounter/7b882abb-44a2-47f9-a2ff-e4bc6a02c36e","resource":{"resourceType":"Encounter","id":"7b882abb-44a2-47f9-a2ff-e4bc6a02c36e","meta":{"profile":["http://hl7.org/fhir/us/qicore/StructureDefinition/qicore-encounter"]},"status":"finished","class":{"system":"http://terminology.hl7.org/CodeSystem/v3-ActCode","code":"AMB","display":"ambulatory","userSelected":true},"type":[{"coding":[{"system":"http://www.ama-assn.org/go/cpt","code":"99212","userSelected":true}]}],"subject":{"reference":"Patient/99f28510-d75f-48d3-9f36-69739bc27419"},"period":{"start":"2026-03-31T08:00:00.000+00:00","end":"2026-03-31T08:35:00.000+00:00"}},"request":{"method":"PUT","url":"Encounter/7b882abb-44a2-47f9-a2ff-e4bc6a02c36e"}},{"fullUrl":"https://madie.cms.gov/Encounter/8ffbf709-e756-4814-ac99-2f037f2089b2","resource":{"resourceType":"Encounter","id":"8ffbf709-e756-4814-ac99-2f037f2089b2","meta":{"profile":["http://hl7.org/fhir/us/qicore/StructureDefinition/qicore-encounter"]},"status":"finished","class":{"system":"http://terminology.hl7.org/CodeSystem/v3-ActCode","code":"AMB","display":"ambulatory","userSelected":true},"type":[{"coding":[{"system":"http://snomed.info/sct","version":"http://snomed.info/sct/731000124108/version/202303","code":"185463005","display":"Visit out of hours (procedure)","userSelected":true}]}],"subject":{"reference":"Patient/99f28510-d75f-48d3-9f36-69739bc27419"},"period":{"start":"2026-08-31T08:00:00.000+00:00","end":"2026-08-31T08:35:00.000+00:00"}},"request":{"method":"PUT","url":"Encounter/8ffbf709-e756-4814-ac99-2f037f2089b2"}},{"fullUrl":"https://madie.cms.gov/Observation/837140b2-a9f1-45ba-b882-1e7f5f0b15d4","resource":{"resourceType":"Observation","id":"837140b2-a9f1-45ba-b882-1e7f5f0b15d4","meta":{"profile":["http://hl7.org/fhir/us/qicore/StructureDefinition/qicore-observation-screening-assessment"]},"status":"final","category":[{"coding":[{"system":"http://terminology.hl7.org/CodeSystem/observation-category","code":"survey","display":"Survey","userSelected":true}]}],"code":{"coding":[{"system":"http://loinc.org","version":"2.73","code":"58151-2","display":"Prior assessment Brief Interview for Mental Status (BIMS) summary score [MDSv3]","userSelected":true}]},"subject":{"reference":"Patient/99f28510-d75f-48d3-9f36-69739bc27419"},"effectiveDateTime":"2026-03-31T08:03:00.000+00:00","issued":"2026-03-31T08:03:00.000+00:00","valueInteger":26},"request":{"method":"PUT","url":"Observation/837140b2-a9f1-45ba-b882-1e7f5f0b15d4"}},{"fullUrl":"https://madie.cms.gov/Coverage/a2d0f522-506b-468b-b44b-ee7671d0ddde","resource":{"resourceType":"Coverage","id":"a2d0f522-506b-468b-b44b-ee7671d0ddde","meta":{"profile":["http://hl7.org/fhir/us/qicore/StructureDefinition/qicore-coverage"]},"identifier":[{"system":"http://benefitsinc.com/certificate","value":"12345"}],"status":"active","type":{"coding":[{"system":"https://nahdo.org/sopt","version":"9.2","code":"59","display":"Other Private Insurance"}]},"beneficiary":{"reference":"Patient/99f28510-d75f-48d3-9f36-69739bc27419"},"dependent":"0","relationship":{"coding":[{"system":"http://terminology.hl7.org/CodeSystem/subscriber-relationship","code":"self"}]},"period":{"start":"2016-05-23","end":"2027-05-23"},"payor":[{"reference":"Organization/6f98451b-c31c-496f-ac83-dae8ddd70336"}],"order":9},"request":{"method":"PUT","url":"Coverage/a2d0f522-506b-468b-b44b-ee7671d0ddde"}},{"fullUrl":"https://madie.cms.gov/Organization/6f98451b-c31c-496f-ac83-dae8ddd70336","resource":{"resourceType":"Organization","id":"6f98451b-c31c-496f-ac83-dae8ddd70336","meta":{"profile":["http://hl7.org/fhir/us/qicore/StructureDefinition/qicore-organization"]},"identifier":[{"use":"temp","system":"http://terminology.hl7.org/NamingSystem/USEIN","value":"48915164351354"}],"active":true,"type":[{"coding":[{"system":"http://terminology.hl7.org/CodeSystem/organization-type","code":"team","display":"Organizational team"}]}],"name":"Good Healthcare, LLC","telecom":[{"system":"phone","value":"(+1) 901-683-7777"},{"system":"fax","value":"(+1) 901-683-6622"},{"system":"email","value":"BetterYourHealth@GoodHealthcare.com"}],"address":[{"line":["3651 Wentrow Blvd, Suite 227"],"city":"Germantown","state":"TN","postalCode":"38138","country":"USA"}]},"request":{"method":"PUT","url":"Organization/6f98451b-c31c-496f-ac83-dae8ddd70336"}},{"fullUrl":"https://madie.cms.gov/MeasureReport/b9bae2c7-15f4-48b6-8b1f-55eca6230bc7","resource":{"resourceType":"MeasureReport","id":"b9bae2c7-15f4-48b6-8b1f-55eca6230bc7","meta":{"profile":["http://hl7.org/fhir/us/cqfmeasures/StructureDefinition/test-case-cqfm"]},"contained":[{"resourceType":"Parameters","id":"567477b8-a9b9-4766-9336-f22881c0cf20-parameters","parameter":[{"name":"subject","valueString":"99f28510-d75f-48d3-9f36-69739bc27419"}]}],"extension":[{"url":"http://hl7.org/fhir/StructureDefinition/cqf-inputParameters","valueReference":{"reference":"#567477b8-a9b9-4766-9336-f22881c0cf20-parameters"}},{"url":"http://hl7.org/fhir/us/cqfmeasures/StructureDefinition/cqfm-testCaseDescription","valueMarkdown":"Patient has two qualifying visits, dementia diagnosis and Cognition Assesment  performed one month before Qualifying Encounter period."}],"modifierExtension":[{"url":"http://hl7.org/fhir/us/cqfmeasures/StructureDefinition/cqfm-isTestCase","valueBoolean":true}],"status":"complete","type":"individual","measure":"https://madie.cms.gov/Measure/CMS149FHIRDementiaCognitiveAssessment","period":{"start":"2026-01-01","end":"2026-12-31"},"group":[{"id":"Group_1","population":[{"id":"InitialPopulation_1","code":{"coding":[{"system":"http://terminology.hl7.org/CodeSystem/measure-population","code":"initial-population","display":"Initial Population"}]},"count":1},{"id":"Denominator_1","code":{"coding":[{"system":"http://terminology.hl7.org/CodeSystem/measure-population","code":"denominator","display":"Denominator"}]},"count":1},{"id":"Numerator_1","code":{"coding":[{"system":"http://terminology.hl7.org/CodeSystem/measure-population","code":"numerator","display":"Numerator"}]},"count":1},{"id":"DenominatorException_1","code":{"coding":[{"system":"http://terminology.hl7.org/CodeSystem/measure-population","code":"denominator-exception","display":"Denominator Exception"}]},"count":0}],"measureScore":{"value":1.0}}],"evaluatedResource":[{"reference":"Patient/99f28510-d75f-48d3-9f36-69739bc27419"},{"reference":"Condition/c7610862-5ab6-450d-8bce-6eef495e5462"},{"reference":"Encounter/7b882abb-44a2-47f9-a2ff-e4bc6a02c36e"},{"reference":"Encounter/8ffbf709-e756-4814-ac99-2f037f2089b2"},{"reference":"Observation/837140b2-a9f1-45ba-b882-1e7f5f0b15d4"},{"reference":"Coverage/a2d0f522-506b-468b-b44b-ee7671d0ddde"},{"reference":"Organization/6f98451b-c31c-496f-ac83-dae8ddd70336"}]},"request":{"method":"PUT","url":"MeasureReport/b9bae2c7-15f4-48b6-8b1f-55eca6230bc7"}}]}