{"resourceType":"Bundle","id":"tests-598ab62f-bb5f-4947-b299-97aa8c50aef2-bundle","type":"transaction","entry":[{"fullUrl":"https://madie.cms.gov/Patient/598ab62f-bb5f-4947-b299-97aa8c50aef2","resource":{"resourceType":"Patient","id":"598ab62f-bb5f-4947-b299-97aa8c50aef2","meta":{"profile":["http://hl7.org/fhir/us/qicore/StructureDefinition/qicore-patient"]},"extension":[{"url":"http://hl7.org/fhir/us/core/StructureDefinition/us-core-race","extension":[{"url":"ombCategory","valueCoding":{"system":"urn:oid:2.16.840.1.113883.6.238","code":"2106-3","display":"White","userSelected":true}},{"url":"text","valueString":"White"}]},{"url":"http://hl7.org/fhir/us/core/StructureDefinition/us-core-ethnicity","extension":[{"url":"ombCategory","valueCoding":{"system":"urn:oid:2.16.840.1.113883.6.238","code":"2135-2","display":"Hispanic or Latino","userSelected":true}},{"url":"text","valueString":"Hispanic or Latino"}]}],"identifier":[{"type":{"coding":[{"system":"http://terminology.hl7.org/CodeSystem/v2-0203","code":"MR"}]},"system":"https://bonnie-fhir.healthit.gov/","value":"2300003201"}],"name":[{"family":"IPFail","given":["NoDementiaDX"]}],"gender":"female","birthDate":"1951-02-26"},"request":{"method":"PUT","url":"Patient/598ab62f-bb5f-4947-b299-97aa8c50aef2"}},{"fullUrl":"https://madie.cms.gov/Encounter/319b9e8c-6488-40e9-8b81-a22ce73e4ee5","resource":{"resourceType":"Encounter","id":"319b9e8c-6488-40e9-8b81-a22ce73e4ee5","meta":{"profile":["http://hl7.org/fhir/us/qicore/StructureDefinition/qicore-encounter"]},"status":"finished","class":{"system":"http://terminology.hl7.org/CodeSystem/v3-ActCode","code":"AMB","display":"ambulatory"},"type":[{"coding":[{"system":"http://snomed.info/sct","version":"http://snomed.info/sct/731000124108/version/202303","code":"10197000","display":"Psychiatric interview and evaluation (procedure)","userSelected":true}]}],"subject":{"reference":"Patient/598ab62f-bb5f-4947-b299-97aa8c50aef2"},"period":{"start":"2026-01-02T08:00:00.000+00:00","end":"2026-01-02T08:15:00.000+00:00"}},"request":{"method":"PUT","url":"Encounter/319b9e8c-6488-40e9-8b81-a22ce73e4ee5"}},{"fullUrl":"https://madie.cms.gov/Encounter/0d961ab5-ad71-47e2-98b6-38a3a5356877","resource":{"resourceType":"Encounter","id":"0d961ab5-ad71-47e2-98b6-38a3a5356877","meta":{"profile":["http://hl7.org/fhir/us/qicore/StructureDefinition/qicore-encounter"]},"status":"finished","class":{"system":"http://terminology.hl7.org/CodeSystem/v3-ActCode","code":"AMB","display":"ambulatory"},"type":[{"coding":[{"system":"http://snomed.info/sct","version":"http://snomed.info/sct/731000124108/version/202303","code":"185460008","display":"Home visit request by patient (procedure)","userSelected":true}]}],"subject":{"reference":"Patient/598ab62f-bb5f-4947-b299-97aa8c50aef2"},"period":{"start":"2026-06-06T08:00:00.000+00:00","end":"2026-06-06T08:15:00.000+00:00"}},"request":{"method":"PUT","url":"Encounter/0d961ab5-ad71-47e2-98b6-38a3a5356877"}},{"fullUrl":"https://madie.cms.gov/MeasureReport/cd0d1836-7071-423d-bf54-c673fa6ff374","resource":{"resourceType":"MeasureReport","id":"cd0d1836-7071-423d-bf54-c673fa6ff374","meta":{"profile":["http://hl7.org/fhir/us/cqfmeasures/StructureDefinition/test-case-cqfm"]},"contained":[{"resourceType":"Parameters","id":"964545bc-efc7-4900-bae2-63bbe7511ed1-parameters","parameter":[{"name":"subject","valueString":"598ab62f-bb5f-4947-b299-97aa8c50aef2"}]}],"extension":[{"url":"http://hl7.org/fhir/StructureDefinition/cqf-inputParameters","valueReference":{"reference":"#964545bc-efc7-4900-bae2-63bbe7511ed1-parameters"}},{"url":"http://hl7.org/fhir/us/cqfmeasures/StructureDefinition/cqfm-testCaseDescription","valueMarkdown":"Patient does not have a dementia diagnosis required for initial population"}],"modifierExtension":[{"url":"http://hl7.org/fhir/us/cqfmeasures/StructureDefinition/cqfm-isTestCase","valueBoolean":true}],"status":"complete","type":"individual","measure":"https://madie.cms.gov/Measure/CMS149FHIRDementiaCognitiveAssessment","period":{"start":"2026-01-01","end":"2026-12-31"},"group":[{"id":"Group_1","population":[{"id":"InitialPopulation_1","code":{"coding":[{"system":"http://terminology.hl7.org/CodeSystem/measure-population","code":"initial-population","display":"Initial Population"}]},"count":0},{"id":"Denominator_1","code":{"coding":[{"system":"http://terminology.hl7.org/CodeSystem/measure-population","code":"denominator","display":"Denominator"}]},"count":0},{"id":"Numerator_1","code":{"coding":[{"system":"http://terminology.hl7.org/CodeSystem/measure-population","code":"numerator","display":"Numerator"}]},"count":0},{"id":"DenominatorException_1","code":{"coding":[{"system":"http://terminology.hl7.org/CodeSystem/measure-population","code":"denominator-exception","display":"Denominator Exception"}]},"count":0}],"measureScore":{"value":1.0}}],"evaluatedResource":[{"reference":"Patient/598ab62f-bb5f-4947-b299-97aa8c50aef2"},{"reference":"Encounter/319b9e8c-6488-40e9-8b81-a22ce73e4ee5"},{"reference":"Encounter/0d961ab5-ad71-47e2-98b6-38a3a5356877"}]},"request":{"method":"PUT","url":"MeasureReport/cd0d1836-7071-423d-bf54-c673fa6ff374"}}]}