{
  "resourceType": "Bundle",
  "id": "6129133702c62a011f2e66b1",
  "type": "transaction",
  "entry": [ {
    "fullUrl": "https://madie.cms.gov/Patient/39a21e09-33d0-45ca-99eb-b839c1676e1a",
    "resource": {
      "resourceType": "Patient",
      "id": "39a21e09-33d0-45ca-99eb-b839c1676e1a",
      "meta": {
        "profile": [ "http://hl7.org/fhir/us/qicore/StructureDefinition/qicore-patient" ]
      },
      "text": {
        "status": "generated",
        "div": "<div xmlns=\"http://www.w3.org/1999/xhtml\"><div class=\"hapiHeaderText\">age_eq18 <b>IPPASS </b></div><table class=\"hapiPropertyTable\"><tbody><tr><td>Identifier</td><td>863343be4401c0595cb63d1a10a15d35</td></tr><tr><td>Date of birth</td><td><span>31 May 1994</span></td></tr></tbody></table></div>"
      },
      "extension": [ {
        "url": "http://hl7.org/fhir/us/core/StructureDefinition/us-core-race",
        "extension": [ {
          "url": "ombCategory",
          "valueCoding": {
            "system": "urn:oid:2.16.840.1.113883.6.238",
            "code": "1002-5",
            "display": "American Indian or Alaska Native",
            "userSelected": true
          }
        }, {
          "url": "text",
          "valueString": "American Indian or Alaska Native"
        } ]
      }, {
        "url": "http://hl7.org/fhir/us/core/StructureDefinition/us-core-ethnicity",
        "extension": [ {
          "url": "ombCategory",
          "valueCoding": {
            "system": "urn:oid:2.16.840.1.113883.6.238",
            "code": "2135-2",
            "display": "Hispanic or Latino",
            "userSelected": true
          }
        }, {
          "url": "text",
          "valueString": "Hispanic or Latino"
        } ]
      } ],
      "identifier": [ {
        "type": {
          "coding": [ {
            "system": "http://terminology.hl7.org/CodeSystem/v2-0203",
            "code": "MR"
          } ]
        },
        "system": "https://bonnie-fhir.healthit.gov/",
        "value": "6129133702c62a011f2e66b1"
      } ],
      "active": true,
      "name": [ {
        "use": "usual",
        "family": "IPPass",
        "given": [ "age_eq18" ]
      } ],
      "gender": "male",
      "birthDate": "2007-05-31"
    },
    "request": {
      "method": "PUT",
      "url": "Patient/39a21e09-33d0-45ca-99eb-b839c1676e1a"
    }
  }, {
    "fullUrl": "https://madie.cms.gov/Encounter/7e9a4de1-6bd3-4cd7-a2cc-c5a379b8d796",
    "resource": {
      "resourceType": "Encounter",
      "id": "7e9a4de1-6bd3-4cd7-a2cc-c5a379b8d796",
      "meta": {
        "profile": [ "http://hl7.org/fhir/us/qicore/StructureDefinition/qicore-encounter" ]
      },
      "status": "finished",
      "class": {
        "system": "http://terminology.hl7.org/CodeSystem/v3-ActCode",
        "code": "IMP",
        "display": "inpatient encounter"
      },
      "type": [ {
        "coding": [ {
          "system": "http://snomed.info/sct",
          "code": "32485007"
        } ]
      } ],
      "subject": {
        "reference": "Patient/39a21e09-33d0-45ca-99eb-b839c1676e1a"
      },
      "period": {
        "start": "2026-06-15T09:30:00Z",
        "end": "2026-10-12T10:30:00.000+00:00"
      },
      "length": {
        "value": 119,
        "unit": "days"
      }
    },
    "request": {
      "method": "PUT",
      "url": "Encounter/7e9a4de1-6bd3-4cd7-a2cc-c5a379b8d796"
    }
  }, {
    "fullUrl": "https://madie.cms.gov/MedicationRequest/9e399d3c-26d1-4f6e-943c-3fda6141d9ff",
    "resource": {
      "resourceType": "MedicationRequest",
      "id": "9e399d3c-26d1-4f6e-943c-3fda6141d9ff",
      "meta": {
        "profile": [ "http://hl7.org/fhir/us/qicore/StructureDefinition/qicore-medicationrequest" ]
      },
      "status": "active",
      "intent": "order",
      "category": [ {
        "coding": [ {
          "system": "http://terminology.hl7.org/CodeSystem/medicationrequest-category",
          "code": "discharge",
          "display": "Discharge",
          "userSelected": true
        } ]
      } ],
      "medicationCodeableConcept": {
        "coding": [ {
          "system": "http://www.nlm.nih.gov/research/umls/rxnorm",
          "code": "1037045"
        } ]
      },
      "subject": {
        "reference": "Patient/39a21e09-33d0-45ca-99eb-b839c1676e1a"
      },
      "authoredOn": "2026-10-10T10:00:00Z",
      "requester": {
        "reference": "Practitioner/example"
      }
    },
    "request": {
      "method": "PUT",
      "url": "MedicationRequest/9e399d3c-26d1-4f6e-943c-3fda6141d9ff"
    }
  }, {
    "fullUrl": "https://madie.cms.gov/Condition/b9ceae8d-3c93-43aa-a13b-66261ce188b1",
    "resource": {
      "resourceType": "Condition",
      "id": "b9ceae8d-3c93-43aa-a13b-66261ce188b1",
      "meta": {
        "profile": [ "http://hl7.org/fhir/us/qicore/StructureDefinition/qicore-condition-encounter-diagnosis" ]
      },
      "clinicalStatus": {
        "coding": [ {
          "system": "http://terminology.hl7.org/CodeSystem/condition-clinical",
          "code": "active"
        } ]
      },
      "verificationStatus": {
        "coding": [ {
          "system": "http://terminology.hl7.org/CodeSystem/condition-ver-status",
          "code": "confirmed"
        } ]
      },
      "category": [ {
        "coding": [ {
          "system": "http://terminology.hl7.org/CodeSystem/condition-category",
          "code": "encounter-diagnosis",
          "display": "Encounter Diagnosis"
        } ]
      } ],
      "code": {
        "coding": [ {
          "system": "http://snomed.info/sct",
          "version": "2020-09",
          "code": "111297002",
          "display": "Nonparalytic stroke (disorder)",
          "userSelected": true
        } ]
      },
      "subject": {
        "reference": "Patient/39a21e09-33d0-45ca-99eb-b839c1676e1a"
      },
      "encounter": {
        "reference": "Encounter/7e9a4de1-6bd3-4cd7-a2cc-c5a379b8d796"
      },
      "recordedDate": "2026-07-15T08:00:00Z"
    },
    "request": {
      "method": "PUT",
      "url": "Condition/b9ceae8d-3c93-43aa-a13b-66261ce188b1"
    }
  }, {
    "fullUrl": "https://madie.cms.gov/claim/5ca62962b8484628b8de1ec5",
    "resource": {
      "resourceType": "Claim",
      "id": "5ca62962b8484628b8de1ec5",
      "meta": {
        "profile": [ "http://hl7.org/fhir/us/qicore/StructureDefinition/qicore-claim" ]
      },
      "status": "active",
      "type": {
        "coding": [ {
          "system": "http://terminology.hl7.org/CodeSystem/claim-type",
          "code": "institutional"
        } ]
      },
      "use": "claim",
      "patient": {
        "reference": "Patient/d170a0a8-b5ad-4303-b6df-e304dd5f92ad"
      },
      "created": "2026-12-01",
      "provider": {
        "reference": "Practitioner/practitioner-123456"
      },
      "priority": {
        "coding": [ {
          "system": "http://terminology.hl7.org/CodeSystem/processpriority",
          "code": "normal"
        } ]
      },
      "diagnosis": [ {
        "sequence": 1,
        "diagnosisCodeableConcept": {
          "coding": [ {
            "system": "http://hl7.org/fhir/sid/icd-10-cm",
            "code": "I63.00"
          } ]
        },
        "type": [ {
          "coding": [ {
            "system": "http://terminology.hl7.org/CodeSystem/ex-diagnosistype",
            "code": "principal"
          } ]
        } ]
      } ],
      "insurance": [ {
        "sequence": 1,
        "focal": true,
        "coverage": {
          "reference": "Coverage/5fa041661c76ba66d9959367"
        }
      } ],
      "item": [ {
        "sequence": 1,
        "diagnosisSequence": [ 1 ],
        "productOrService": {
          "coding": [ {
            "system": "http://terminology.hl7.org/CodeSystem/ex-USCLS",
            "code": "99555"
          } ]
        },
        "encounter": [ {
          "reference": "Encounter/7e9a4de1-6bd3-4cd7-a2cc-c5a379b8d796"
        } ]
      } ]
    },
    "request": {
      "method": "PUT",
      "url": "Claim/5ca62962b8484628b8de1ec5"
    }
  }, {
    "fullUrl": "https://madie.cms.gov/Coverage/be88f42a-7b37-4ab0-a2a6-3318ffe1f20e",
    "resource": {
      "resourceType": "Coverage",
      "id": "be88f42a-7b37-4ab0-a2a6-3318ffe1f20e",
      "meta": {
        "profile": [ "http://hl7.org/fhir/us/qicore/StructureDefinition/qicore-coverage" ]
      },
      "status": "active",
      "subscriberId": "523435",
      "beneficiary": {
        "reference": "Patient/39a21e09-33d0-45ca-99eb-b839c1676e1a"
      },
      "relationship": {
        "coding": [ {
          "system": "http://terminology.hl7.org/CodeSystem/subscriber-relationship",
          "code": "self"
        } ]
      },
      "payor": [ {
        "reference": "Organization/1bdf5f60-8d12-48ec-97c7-387428e4cc47"
      } ]
    },
    "request": {
      "method": "PUT",
      "url": "Coverage/be88f42a-7b37-4ab0-a2a6-3318ffe1f20e"
    }
  }, {
    "fullUrl": "https://madie.cms.gov/Organization/1bdf5f60-8d12-48ec-97c7-387428e4cc47",
    "resource": {
      "resourceType": "Organization",
      "id": "1bdf5f60-8d12-48ec-97c7-387428e4cc47",
      "meta": {
        "profile": [ "http://hl7.org/fhir/us/qicore/StructureDefinition/qicore-organization" ]
      },
      "identifier": [ {
        "use": "temp",
        "system": "urn:oid:2.16.840.1.113883.4.4",
        "value": "21-3259825"
      } ],
      "active": true,
      "type": [ {
        "coding": [ {
          "system": "http://terminology.hl7.org/CodeSystem/organization-type",
          "code": "pay",
          "display": "Payer"
        } ]
      } ],
      "name": "Blue Cross Blue Shield of Texas",
      "telecom": [ {
        "system": "phone",
        "value": "(+1) 972-766-6900"
      } ],
      "address": [ {
        "use": "billing",
        "type": "postal",
        "line": [ "P.O. Box 660044" ],
        "city": "Dallas",
        "state": "TX",
        "postalCode": "75266-0044",
        "country": "USA"
      } ]
    },
    "request": {
      "method": "PUT",
      "url": "Organization/1bdf5f60-8d12-48ec-97c7-387428e4cc47"
    }
  }, {
    "fullUrl": "https://madie.cms.gov/MeasureReport/90df049a-7949-4f61-8293-1f182c359942",
    "resource": {
      "resourceType": "MeasureReport",
      "id": "90df049a-7949-4f61-8293-1f182c359942",
      "meta": {
        "profile": [ "http://hl7.org/fhir/us/cqfmeasures/StructureDefinition/test-case-cqfm" ]
      },
      "contained": [ {
        "resourceType": "Parameters",
        "id": "d955e2fd-9967-4fc8-b182-bf7183e48653-parameters",
        "parameter": [ {
          "name": "subject",
          "valueString": "39a21e09-33d0-45ca-99eb-b839c1676e1a"
        } ]
      } ],
      "extension": [ {
        "url": "http://hl7.org/fhir/StructureDefinition/cqf-inputParameters",
        "valueReference": {
          "reference": "#d955e2fd-9967-4fc8-b182-bf7183e48653-parameters"
        }
      }, {
        "url": "http://hl7.org/fhir/us/cqfmeasures/StructureDefinition/cqfm-testCaseDescription",
        "valueMarkdown": "Age equal to 18 with ischemic stroke"
      } ],
      "modifierExtension": [ {
        "url": "http://hl7.org/fhir/us/cqfmeasures/StructureDefinition/cqfm-isTestCase",
        "valueBoolean": true
      } ],
      "status": "complete",
      "type": "individual",
      "measure": "https://madie.cms.gov/Measure/CMS104FHIRSTKDCAntithrombotic",
      "period": {
        "start": "2026-01-01",
        "end": "2026-12-31"
      },
      "group": [ {
        "id": "Group_1",
        "population": [ {
          "id": "InitialPopulation_1",
          "code": {
            "coding": [ {
              "system": "http://terminology.hl7.org/CodeSystem/measure-population",
              "code": "initial-population",
              "display": "Initial Population"
            } ]
          },
          "count": 1
        }, {
          "id": "Denominator_1",
          "code": {
            "coding": [ {
              "system": "http://terminology.hl7.org/CodeSystem/measure-population",
              "code": "denominator",
              "display": "Denominator"
            } ]
          },
          "count": 1
        }, {
          "id": "DenominatorExclusion_1",
          "code": {
            "coding": [ {
              "system": "http://terminology.hl7.org/CodeSystem/measure-population",
              "code": "denominator-exclusion",
              "display": "Denominator Exclusion"
            } ]
          },
          "count": 0
        }, {
          "id": "Numerator_1",
          "code": {
            "coding": [ {
              "system": "http://terminology.hl7.org/CodeSystem/measure-population",
              "code": "numerator",
              "display": "Numerator"
            } ]
          },
          "count": 1
        }, {
          "id": "DenominatorException_1",
          "code": {
            "coding": [ {
              "system": "http://terminology.hl7.org/CodeSystem/measure-population",
              "code": "denominator-exception",
              "display": "Denominator Exception"
            } ]
          },
          "count": 0
        } ],
        "measureScore": {
          "value": 0.0
        }
      } ],
      "evaluatedResource": [ {
        "reference": "Patient/39a21e09-33d0-45ca-99eb-b839c1676e1a"
      }, {
        "reference": "Encounter/7e9a4de1-6bd3-4cd7-a2cc-c5a379b8d796"
      }, {
        "reference": "MedicationRequest/9e399d3c-26d1-4f6e-943c-3fda6141d9ff"
      }, {
        "reference": "Condition/b9ceae8d-3c93-43aa-a13b-66261ce188b1"
      }, {
        "reference": "Claim/5ca62962b8484628b8de1ec5"
      }, {
        "reference": "Coverage/be88f42a-7b37-4ab0-a2a6-3318ffe1f20e"
      }, {
        "reference": "Organization/1bdf5f60-8d12-48ec-97c7-387428e4cc47"
      } ]
    },
    "request": {
      "method": "PUT",
      "url": "MeasureReport/90df049a-7949-4f61-8293-1f182c359942"
    }
  } ]
}