{
  "resourceType": "Bundle",
  "id": "633b3f9f0968f80122503cda",
  "type": "transaction",
  "entry": [ {
    "fullUrl": "https://madie.cms.gov/Patient/02cdc116-49ce-4277-ad9e-de6bc2a3274d",
    "resource": {
      "resourceType": "Patient",
      "id": "02cdc116-49ce-4277-ad9e-de6bc2a3274d",
      "meta": {
        "profile": [ "http://hl7.org/fhir/us/qicore/StructureDefinition/qicore-patient" ]
      },
      "text": {
        "status": "generated",
        "div": "<div xmlns=\"http://www.w3.org/1999/xhtml\"><div class=\"hapiHeaderText\">DELEncCalEGAEQ20Wks1Day<b>DENOMPASS</b></div><table class=\"hapiPropertyTable\"><tbody><tr><td>Date of birth</td><td><span>01 February 1958</span></td></tr></tbody></table></div>"
      },
      "extension": [ {
        "url": "http://hl7.org/fhir/us/core/StructureDefinition/us-core-race",
        "extension": [ {
          "url": "ombCategory",
          "valueCoding": {
            "system": "urn:oid:2.16.840.1.113883.6.238",
            "code": "1002-5",
            "display": "American Indian or Alaska Native",
            "userSelected": true
          }
        }, {
          "url": "text",
          "valueString": "American Indian or Alaska Native"
        } ]
      }, {
        "url": "http://hl7.org/fhir/us/core/StructureDefinition/us-core-ethnicity",
        "extension": [ {
          "url": "ombCategory",
          "valueCoding": {
            "system": "urn:oid:2.16.840.1.113883.6.238",
            "code": "2135-2",
            "display": "Hispanic or Latino",
            "userSelected": true
          }
        }, {
          "url": "text",
          "valueString": "Hispanic or Latino"
        } ]
      } ],
      "identifier": [ {
        "type": {
          "coding": [ {
            "system": "http://terminology.hl7.org/CodeSystem/v2-0203",
            "code": "MR"
          } ]
        },
        "system": "https://bonnie-fhir.healthit.gov/",
        "value": "633b3f9f0968f80122503cda"
      } ],
      "active": true,
      "name": [ {
        "use": "usual",
        "family": "DENOMPass",
        "given": [ "DELEncCalEGAEQ20Wks1Day" ]
      } ],
      "gender": "female",
      "birthDate": "1971-02-01"
    },
    "request": {
      "method": "PUT",
      "url": "Patient/02cdc116-49ce-4277-ad9e-de6bc2a3274d"
    }
  }, {
    "fullUrl": "https://madie.cms.gov/Observation/aa00a6db-7eae-439b-9c2c-1885d5f085ac",
    "resource": {
      "resourceType": "Observation",
      "id": "aa00a6db-7eae-439b-9c2c-1885d5f085ac",
      "meta": {
        "profile": [ "http://hl7.org/fhir/us/qicore/StructureDefinition/qicore-simple-observation" ]
      },
      "status": "final",
      "category": [ {
        "coding": [ {
          "system": "http://terminology.hl7.org/CodeSystem/observation-category",
          "code": "exam",
          "display": "exam",
          "userSelected": true
        } ]
      } ],
      "code": {
        "coding": [ {
          "system": "http://loinc.org",
          "code": "93857-1"
        } ]
      },
      "subject": {
        "reference": "Patient/02cdc116-49ce-4277-ad9e-de6bc2a3274d"
      },
      "effectiveDateTime": "2026-01-15T08:00:00Z",
      "performer": [ {
        "reference": "Organization/example1",
        "display": "Hendricks Country Hospital"
      } ],
      "valueDateTime": "2026-01-15T08:00:00.000+00:00"
    },
    "request": {
      "method": "PUT",
      "url": "Observation/aa00a6db-7eae-439b-9c2c-1885d5f085ac"
    }
  }, {
    "fullUrl": "https://madie.cms.gov/Observation/6907d1a6-7448-492d-8d4a-6db301c70147",
    "resource": {
      "resourceType": "Observation",
      "id": "6907d1a6-7448-492d-8d4a-6db301c70147",
      "meta": {
        "profile": [ "http://hl7.org/fhir/us/qicore/StructureDefinition/qicore-simple-observation" ]
      },
      "status": "final",
      "category": [ {
        "coding": [ {
          "system": "http://terminology.hl7.org/CodeSystem/observation-category",
          "code": "exam",
          "display": "exam",
          "userSelected": true
        } ]
      } ],
      "code": {
        "coding": [ {
          "system": "http://loinc.org",
          "code": "11778-8"
        } ]
      },
      "subject": {
        "reference": "Patient/02cdc116-49ce-4277-ad9e-de6bc2a3274d"
      },
      "effectiveDateTime": "2026-01-15T08:00:00Z",
      "performer": [ {
        "reference": "Organization/example1",
        "display": "Hendricks Country Hospital"
      } ],
      "valueDateTime": "2026-06-02T08:00:00.000+00:00"
    },
    "request": {
      "method": "PUT",
      "url": "Observation/6907d1a6-7448-492d-8d4a-6db301c70147"
    }
  }, {
    "fullUrl": "https://madie.cms.gov/Encounter/6c53212c-f575-4b4d-8858-14312da15181",
    "resource": {
      "resourceType": "Encounter",
      "id": "6c53212c-f575-4b4d-8858-14312da15181",
      "meta": {
        "profile": [ "http://hl7.org/fhir/us/qicore/StructureDefinition/qicore-encounter" ]
      },
      "status": "finished",
      "class": {
        "system": "http://terminology.hl7.org/CodeSystem/v3-ActCode",
        "code": "IMP",
        "display": "inpatient encounter"
      },
      "type": [ {
        "coding": [ {
          "system": "http://snomed.info/sct",
          "code": "183452005"
        } ]
      } ],
      "subject": {
        "reference": "Patient/02cdc116-49ce-4277-ad9e-de6bc2a3274d"
      },
      "period": {
        "start": "2026-01-01T08:00:00Z",
        "end": "2026-02-05T08:15:00.000+00:00"
      }
    },
    "request": {
      "method": "PUT",
      "url": "Encounter/6c53212c-f575-4b4d-8858-14312da15181"
    }
  }, {
    "fullUrl": "https://madie.cms.gov/Procedure/eee66e7c-062e-46cd-979c-63a7bf1445b5",
    "resource": {
      "resourceType": "Procedure",
      "id": "eee66e7c-062e-46cd-979c-63a7bf1445b5",
      "meta": {
        "profile": [ "http://hl7.org/fhir/us/qicore/StructureDefinition/qicore-procedure" ]
      },
      "extension": [ {
        "url": "http://hl7.org/fhir/us/qicore/StructureDefinition/qicore-recorded",
        "valueDateTime": "2014-04-05T13:35:00Z"
      } ],
      "status": "completed",
      "code": {
        "coding": [ {
          "system": "http://snomed.info/sct",
          "code": "10745001"
        } ]
      },
      "subject": {
        "reference": "Patient/02cdc116-49ce-4277-ad9e-de6bc2a3274d"
      },
      "performedPeriod": {
        "start": "2026-01-01T08:00:00Z"
      }
    },
    "request": {
      "method": "PUT",
      "url": "Procedure/eee66e7c-062e-46cd-979c-63a7bf1445b5"
    }
  }, {
    "fullUrl": "https://madie.cms.gov/Coverage/d1799089-5b36-4e6f-aadd-81ddbd5da3ff",
    "resource": {
      "resourceType": "Coverage",
      "id": "d1799089-5b36-4e6f-aadd-81ddbd5da3ff",
      "meta": {
        "profile": [ "http://hl7.org/fhir/us/qicore/StructureDefinition/qicore-coverage" ]
      },
      "status": "active",
      "subscriberId": "523435",
      "beneficiary": {
        "reference": "Patient/02cdc116-49ce-4277-ad9e-de6bc2a3274d"
      },
      "relationship": {
        "coding": [ {
          "system": "http://terminology.hl7.org/CodeSystem/subscriber-relationship",
          "code": "self"
        } ]
      },
      "payor": [ {
        "reference": "Organization/665b25c7-30ce-4427-8404-0e53f300968e"
      } ]
    },
    "request": {
      "method": "PUT",
      "url": "Coverage/d1799089-5b36-4e6f-aadd-81ddbd5da3ff"
    }
  }, {
    "fullUrl": "https://madie.cms.gov/Organization/665b25c7-30ce-4427-8404-0e53f300968e",
    "resource": {
      "resourceType": "Organization",
      "id": "665b25c7-30ce-4427-8404-0e53f300968e",
      "meta": {
        "profile": [ "http://hl7.org/fhir/us/qicore/StructureDefinition/qicore-organization" ]
      },
      "identifier": [ {
        "use": "temp",
        "system": "urn:oid:2.16.840.1.113883.4.4",
        "value": "21-3259825"
      } ],
      "active": true,
      "type": [ {
        "coding": [ {
          "system": "http://terminology.hl7.org/CodeSystem/organization-type",
          "code": "pay",
          "display": "Payer"
        } ]
      } ],
      "name": "Blue Cross Blue Shield of Texas",
      "telecom": [ {
        "system": "phone",
        "value": "(+1) 972-766-6900"
      } ],
      "address": [ {
        "use": "billing",
        "type": "postal",
        "line": [ "P.O. Box 660044" ],
        "city": "Dallas",
        "state": "TX",
        "postalCode": "75266-0044",
        "country": "USA"
      } ]
    },
    "request": {
      "method": "PUT",
      "url": "Organization/665b25c7-30ce-4427-8404-0e53f300968e"
    }
  }, {
    "fullUrl": "https://madie.cms.gov/Practitioner/4efbb299-9157-4879-bbb6-cfa44cdfeefd",
    "resource": {
      "resourceType": "Practitioner",
      "id": "4efbb299-9157-4879-bbb6-cfa44cdfeefd",
      "meta": {
        "profile": [ "http://hl7.org/fhir/us/qicore/StructureDefinition/qicore-practitioner" ]
      },
      "identifier": [ {
        "system": "http://hl7.org/fhir/sid/us-npi",
        "value": "1234567890"
      } ],
      "name": [ {
        "family": "Evil",
        "prefix": [ "Dr" ]
      } ]
    },
    "request": {
      "method": "PUT",
      "url": "Practitioner/4efbb299-9157-4879-bbb6-cfa44cdfeefd"
    }
  }, {
    "fullUrl": "https://madie.cms.gov/MeasureReport/1829bef4-bb55-464b-bd8c-5823009ea425",
    "resource": {
      "resourceType": "MeasureReport",
      "id": "1829bef4-bb55-464b-bd8c-5823009ea425",
      "meta": {
        "profile": [ "http://hl7.org/fhir/us/cqfmeasures/StructureDefinition/test-case-cqfm" ]
      },
      "contained": [ {
        "resourceType": "Parameters",
        "id": "92f9590e-f023-4c20-bc8f-96d3b94d44b0-parameters",
        "parameter": [ {
          "name": "subject",
          "valueString": "02cdc116-49ce-4277-ad9e-de6bc2a3274d"
        } ]
      } ],
      "extension": [ {
        "url": "http://hl7.org/fhir/StructureDefinition/cqf-inputParameters",
        "valueReference": {
          "reference": "#92f9590e-f023-4c20-bc8f-96d3b94d44b0-parameters"
        }
      }, {
        "url": "http://hl7.org/fhir/us/cqfmeasures/StructureDefinition/cqfm-testCaseDescription",
        "valueMarkdown": "Calculated EGA = 20 weeks and 1 day\n"
      } ],
      "modifierExtension": [ {
        "url": "http://hl7.org/fhir/us/cqfmeasures/StructureDefinition/cqfm-isTestCase",
        "valueBoolean": true
      } ],
      "status": "complete",
      "type": "individual",
      "measure": "https://madie.cms.gov/Measure/CMS1028FHIRPCSevereOBComps",
      "period": {
        "start": "2026-01-01",
        "end": "2026-12-31"
      },
      "group": [ {
        "id": "Group_1",
        "population": [ {
          "id": "InitialPopulation_1",
          "code": {
            "coding": [ {
              "system": "http://terminology.hl7.org/CodeSystem/measure-population",
              "code": "initial-population",
              "display": "Initial Population"
            } ]
          },
          "count": 1
        }, {
          "id": "Denominator_1",
          "code": {
            "coding": [ {
              "system": "http://terminology.hl7.org/CodeSystem/measure-population",
              "code": "denominator",
              "display": "Denominator"
            } ]
          },
          "count": 1
        }, {
          "id": "Numerator_1",
          "code": {
            "coding": [ {
              "system": "http://terminology.hl7.org/CodeSystem/measure-population",
              "code": "numerator",
              "display": "Numerator"
            } ]
          },
          "count": 0
        }, {
          "id": "NumeratorExclusion_1",
          "code": {
            "coding": [ {
              "system": "http://terminology.hl7.org/CodeSystem/measure-population",
              "code": "numerator-exclusion",
              "display": "Numerator Exclusion"
            } ]
          },
          "count": 0
        } ],
        "measureScore": {
          "value": 0.0
        }
      }, {
        "id": "Group_2",
        "population": [ {
          "id": "InitialPopulation_2",
          "code": {
            "coding": [ {
              "system": "http://terminology.hl7.org/CodeSystem/measure-population",
              "code": "initial-population",
              "display": "Initial Population"
            } ]
          },
          "count": 1
        }, {
          "id": "Denominator_2",
          "code": {
            "coding": [ {
              "system": "http://terminology.hl7.org/CodeSystem/measure-population",
              "code": "denominator",
              "display": "Denominator"
            } ]
          },
          "count": 1
        }, {
          "id": "Numerator_2",
          "code": {
            "coding": [ {
              "system": "http://terminology.hl7.org/CodeSystem/measure-population",
              "code": "numerator",
              "display": "Numerator"
            } ]
          },
          "count": 0
        }, {
          "id": "NumeratorExclusion_2",
          "code": {
            "coding": [ {
              "system": "http://terminology.hl7.org/CodeSystem/measure-population",
              "code": "numerator-exclusion",
              "display": "Numerator Exclusion"
            } ]
          },
          "count": 0
        } ],
        "measureScore": {
          "value": 0.0
        }
      } ],
      "evaluatedResource": [ {
        "reference": "Patient/02cdc116-49ce-4277-ad9e-de6bc2a3274d"
      }, {
        "reference": "Observation/aa00a6db-7eae-439b-9c2c-1885d5f085ac"
      }, {
        "reference": "Observation/6907d1a6-7448-492d-8d4a-6db301c70147"
      }, {
        "reference": "Encounter/6c53212c-f575-4b4d-8858-14312da15181"
      }, {
        "reference": "Procedure/eee66e7c-062e-46cd-979c-63a7bf1445b5"
      }, {
        "reference": "Coverage/d1799089-5b36-4e6f-aadd-81ddbd5da3ff"
      }, {
        "reference": "Organization/665b25c7-30ce-4427-8404-0e53f300968e"
      }, {
        "reference": "Practitioner/4efbb299-9157-4879-bbb6-cfa44cdfeefd"
      } ]
    },
    "request": {
      "method": "PUT",
      "url": "MeasureReport/1829bef4-bb55-464b-bd8c-5823009ea425"
    }
  } ]
}