{
  "resourceType": "Bundle",
  "id": "633b3f9f0968f80122503cea",
  "type": "transaction",
  "entry": [ {
    "fullUrl": "https://madie.cms.gov/Patient/a8615f09-8387-4b16-8637-76ebabb4d9f5",
    "resource": {
      "resourceType": "Patient",
      "id": "a8615f09-8387-4b16-8637-76ebabb4d9f5",
      "meta": {
        "profile": [ "http://hl7.org/fhir/us/qicore/StructureDefinition/qicore-patient" ]
      },
      "text": {
        "status": "generated",
        "div": "<div xmlns=\"http://www.w3.org/1999/xhtml\"><div class=\"hapiHeaderText\">AssPrfDELRsltDtTimeEQIPEndMinus1Min<b>DENOMPASS</b></div><table class=\"hapiPropertyTable\"><tbody><tr><td>Date of birth</td><td><span>01 February 2004</span></td></tr></tbody></table></div>"
      },
      "extension": [ {
        "url": "http://hl7.org/fhir/us/core/StructureDefinition/us-core-race",
        "extension": [ {
          "url": "ombCategory",
          "valueCoding": {
            "system": "urn:oid:2.16.840.1.113883.6.238",
            "code": "1002-5",
            "display": "American Indian or Alaska Native",
            "userSelected": true
          }
        }, {
          "url": "text",
          "valueString": "American Indian or Alaska Native"
        } ]
      }, {
        "url": "http://hl7.org/fhir/us/core/StructureDefinition/us-core-ethnicity",
        "extension": [ {
          "url": "ombCategory",
          "valueCoding": {
            "system": "urn:oid:2.16.840.1.113883.6.238",
            "code": "2135-2",
            "display": "Hispanic or Latino",
            "userSelected": true
          }
        }, {
          "url": "text",
          "valueString": "Hispanic or Latino"
        } ]
      } ],
      "identifier": [ {
        "type": {
          "coding": [ {
            "system": "http://terminology.hl7.org/CodeSystem/v2-0203",
            "code": "MR"
          } ]
        },
        "system": "https://bonnie-fhir.healthit.gov/",
        "value": "633b3f9f0968f80122503cea"
      } ],
      "active": true,
      "name": [ {
        "use": "usual",
        "family": "DENOMPass",
        "given": [ "AssPrfDELRsltDtTimeEQIPEndMinus1Min" ]
      } ],
      "gender": "female",
      "birthDate": "2005-02-01"
    },
    "request": {
      "method": "PUT",
      "url": "Patient/a8615f09-8387-4b16-8637-76ebabb4d9f5"
    }
  }, {
    "fullUrl": "https://madie.cms.gov/Observation/0eee4ee8-92f4-4420-9036-84e223b99755",
    "resource": {
      "resourceType": "Observation",
      "id": "0eee4ee8-92f4-4420-9036-84e223b99755",
      "meta": {
        "profile": [ "http://hl7.org/fhir/us/qicore/StructureDefinition/qicore-simple-observation" ]
      },
      "status": "final",
      "category": [ {
        "coding": [ {
          "system": "http://terminology.hl7.org/CodeSystem/observation-category",
          "code": "exam",
          "display": "exam",
          "userSelected": true
        } ]
      } ],
      "code": {
        "coding": [ {
          "system": "http://loinc.org",
          "code": "93857-1"
        } ]
      },
      "subject": {
        "reference": "Patient/a8615f09-8387-4b16-8637-76ebabb4d9f5"
      },
      "effectiveDateTime": "2026-02-05T08:14:00Z",
      "performer": [ {
        "reference": "Organization/example1",
        "display": "Hendricks Country Hospital"
      } ],
      "valueDateTime": "2026-02-05T08:14:00.000+00:00"
    },
    "request": {
      "method": "PUT",
      "url": "Observation/0eee4ee8-92f4-4420-9036-84e223b99755"
    }
  }, {
    "fullUrl": "https://madie.cms.gov/Observation/7bdb7cd8-a209-4516-ade6-1cca093cb581",
    "resource": {
      "resourceType": "Observation",
      "id": "7bdb7cd8-a209-4516-ade6-1cca093cb581",
      "meta": {
        "profile": [ "http://hl7.org/fhir/us/qicore/StructureDefinition/qicore-simple-observation" ]
      },
      "status": "final",
      "category": [ {
        "coding": [ {
          "system": "http://terminology.hl7.org/CodeSystem/observation-category",
          "code": "exam",
          "display": "exam",
          "userSelected": true
        } ]
      } ],
      "code": {
        "coding": [ {
          "system": "http://loinc.org",
          "code": "11778-8"
        } ]
      },
      "subject": {
        "reference": "Patient/a8615f09-8387-4b16-8637-76ebabb4d9f5"
      },
      "effectiveDateTime": "2026-02-05T08:00:00Z",
      "performer": [ {
        "reference": "Organization/example1",
        "display": "Hendricks Country Hospital"
      } ],
      "valueDateTime": "2026-02-01T08:00:00.000+00:00"
    },
    "request": {
      "method": "PUT",
      "url": "Observation/7bdb7cd8-a209-4516-ade6-1cca093cb581"
    }
  }, {
    "fullUrl": "https://madie.cms.gov/Encounter/6a8713b5-934c-438f-a91f-ca73ce552315",
    "resource": {
      "resourceType": "Encounter",
      "id": "6a8713b5-934c-438f-a91f-ca73ce552315",
      "meta": {
        "profile": [ "http://hl7.org/fhir/us/qicore/StructureDefinition/qicore-encounter" ]
      },
      "status": "finished",
      "class": {
        "system": "http://terminology.hl7.org/CodeSystem/v3-ActCode",
        "code": "IMP",
        "display": "inpatient encounter"
      },
      "type": [ {
        "coding": [ {
          "system": "http://snomed.info/sct",
          "code": "183452005"
        } ]
      } ],
      "subject": {
        "reference": "Patient/a8615f09-8387-4b16-8637-76ebabb4d9f5"
      },
      "period": {
        "start": "2026-02-01T08:00:00Z",
        "end": "2026-02-05T08:15:00.000+00:00"
      }
    },
    "request": {
      "method": "PUT",
      "url": "Encounter/6a8713b5-934c-438f-a91f-ca73ce552315"
    }
  }, {
    "fullUrl": "https://madie.cms.gov/Procedure/2478771e-c433-4f4b-baca-9787214d3cc2",
    "resource": {
      "resourceType": "Procedure",
      "id": "2478771e-c433-4f4b-baca-9787214d3cc2",
      "meta": {
        "profile": [ "http://hl7.org/fhir/us/qicore/StructureDefinition/qicore-procedure" ]
      },
      "extension": [ {
        "url": "http://hl7.org/fhir/us/qicore/StructureDefinition/qicore-recorded",
        "valueDateTime": "2014-04-05T13:35:00Z"
      } ],
      "status": "completed",
      "code": {
        "coding": [ {
          "system": "http://snomed.info/sct",
          "code": "10745001"
        } ]
      },
      "subject": {
        "reference": "Patient/a8615f09-8387-4b16-8637-76ebabb4d9f5"
      },
      "performedPeriod": {
        "start": "2026-02-01T08:00:00Z",
        "end": "2026-02-05T08:15:00.000+00:00"
      }
    },
    "request": {
      "method": "PUT",
      "url": "Procedure/2478771e-c433-4f4b-baca-9787214d3cc2"
    }
  }, {
    "fullUrl": "https://madie.cms.gov/Coverage/e6547ea8-4a47-4b99-b8da-04774b1715dc",
    "resource": {
      "resourceType": "Coverage",
      "id": "e6547ea8-4a47-4b99-b8da-04774b1715dc",
      "meta": {
        "profile": [ "http://hl7.org/fhir/us/qicore/StructureDefinition/qicore-coverage" ]
      },
      "status": "active",
      "subscriberId": "523435",
      "beneficiary": {
        "reference": "Patient/a8615f09-8387-4b16-8637-76ebabb4d9f5"
      },
      "relationship": {
        "coding": [ {
          "system": "http://terminology.hl7.org/CodeSystem/subscriber-relationship",
          "code": "self"
        } ]
      },
      "payor": [ {
        "reference": "Organization/adea24b8-c338-437d-afaa-e0b8cb7b3428"
      } ]
    },
    "request": {
      "method": "PUT",
      "url": "Coverage/e6547ea8-4a47-4b99-b8da-04774b1715dc"
    }
  }, {
    "fullUrl": "https://madie.cms.gov/Organization/adea24b8-c338-437d-afaa-e0b8cb7b3428",
    "resource": {
      "resourceType": "Organization",
      "id": "adea24b8-c338-437d-afaa-e0b8cb7b3428",
      "meta": {
        "profile": [ "http://hl7.org/fhir/us/qicore/StructureDefinition/qicore-organization" ]
      },
      "identifier": [ {
        "use": "temp",
        "system": "urn:oid:2.16.840.1.113883.4.4",
        "value": "21-3259825"
      } ],
      "active": true,
      "type": [ {
        "coding": [ {
          "system": "http://terminology.hl7.org/CodeSystem/organization-type",
          "code": "pay",
          "display": "Payer"
        } ]
      } ],
      "name": "Blue Cross Blue Shield of Texas",
      "telecom": [ {
        "system": "phone",
        "value": "(+1) 972-766-6900"
      } ],
      "address": [ {
        "use": "billing",
        "type": "postal",
        "line": [ "P.O. Box 660044" ],
        "city": "Dallas",
        "state": "TX",
        "postalCode": "75266-0044",
        "country": "USA"
      } ]
    },
    "request": {
      "method": "PUT",
      "url": "Organization/adea24b8-c338-437d-afaa-e0b8cb7b3428"
    }
  }, {
    "fullUrl": "https://madie.cms.gov/Practitioner/460cd728-40dc-460c-9d24-14b84b203b9a",
    "resource": {
      "resourceType": "Practitioner",
      "id": "460cd728-40dc-460c-9d24-14b84b203b9a",
      "meta": {
        "profile": [ "http://hl7.org/fhir/us/qicore/StructureDefinition/qicore-practitioner" ]
      },
      "identifier": [ {
        "system": "http://hl7.org/fhir/sid/us-npi",
        "value": "1234567890"
      } ],
      "name": [ {
        "family": "Evil",
        "prefix": [ "Dr" ]
      } ]
    },
    "request": {
      "method": "PUT",
      "url": "Practitioner/460cd728-40dc-460c-9d24-14b84b203b9a"
    }
  }, {
    "fullUrl": "https://madie.cms.gov/MeasureReport/28ce0bf4-e3c1-48ed-b69b-ca7c5b2a0c87",
    "resource": {
      "resourceType": "MeasureReport",
      "id": "28ce0bf4-e3c1-48ed-b69b-ca7c5b2a0c87",
      "meta": {
        "profile": [ "http://hl7.org/fhir/us/cqfmeasures/StructureDefinition/test-case-cqfm" ]
      },
      "contained": [ {
        "resourceType": "Parameters",
        "id": "660b67a5-e3fb-4c67-9628-bc0958a4e0e5-parameters",
        "parameter": [ {
          "name": "subject",
          "valueString": "a8615f09-8387-4b16-8637-76ebabb4d9f5"
        } ]
      } ],
      "extension": [ {
        "url": "http://hl7.org/fhir/StructureDefinition/cqf-inputParameters",
        "valueReference": {
          "reference": "#660b67a5-e3fb-4c67-9628-bc0958a4e0e5-parameters"
        }
      }, {
        "url": "http://hl7.org/fhir/us/cqfmeasures/StructureDefinition/cqfm-testCaseDescription",
        "valueMarkdown": "Result date/Time of delivery (based on assessment performed) is equal to encounter end minus one minute\n"
      } ],
      "modifierExtension": [ {
        "url": "http://hl7.org/fhir/us/cqfmeasures/StructureDefinition/cqfm-isTestCase",
        "valueBoolean": true
      } ],
      "status": "complete",
      "type": "individual",
      "measure": "https://madie.cms.gov/Measure/CMS1028FHIRPCSevereOBComps",
      "period": {
        "start": "2026-01-01",
        "end": "2026-12-31"
      },
      "group": [ {
        "id": "Group_1",
        "population": [ {
          "id": "InitialPopulation_1",
          "code": {
            "coding": [ {
              "system": "http://terminology.hl7.org/CodeSystem/measure-population",
              "code": "initial-population",
              "display": "Initial Population"
            } ]
          },
          "count": 1
        }, {
          "id": "Denominator_1",
          "code": {
            "coding": [ {
              "system": "http://terminology.hl7.org/CodeSystem/measure-population",
              "code": "denominator",
              "display": "Denominator"
            } ]
          },
          "count": 1
        }, {
          "id": "Numerator_1",
          "code": {
            "coding": [ {
              "system": "http://terminology.hl7.org/CodeSystem/measure-population",
              "code": "numerator",
              "display": "Numerator"
            } ]
          },
          "count": 0
        }, {
          "id": "NumeratorExclusion_1",
          "code": {
            "coding": [ {
              "system": "http://terminology.hl7.org/CodeSystem/measure-population",
              "code": "numerator-exclusion",
              "display": "Numerator Exclusion"
            } ]
          },
          "count": 0
        } ],
        "measureScore": {
          "value": 0.0
        }
      }, {
        "id": "Group_2",
        "population": [ {
          "id": "InitialPopulation_2",
          "code": {
            "coding": [ {
              "system": "http://terminology.hl7.org/CodeSystem/measure-population",
              "code": "initial-population",
              "display": "Initial Population"
            } ]
          },
          "count": 1
        }, {
          "id": "Denominator_2",
          "code": {
            "coding": [ {
              "system": "http://terminology.hl7.org/CodeSystem/measure-population",
              "code": "denominator",
              "display": "Denominator"
            } ]
          },
          "count": 1
        }, {
          "id": "Numerator_2",
          "code": {
            "coding": [ {
              "system": "http://terminology.hl7.org/CodeSystem/measure-population",
              "code": "numerator",
              "display": "Numerator"
            } ]
          },
          "count": 0
        }, {
          "id": "NumeratorExclusion_2",
          "code": {
            "coding": [ {
              "system": "http://terminology.hl7.org/CodeSystem/measure-population",
              "code": "numerator-exclusion",
              "display": "Numerator Exclusion"
            } ]
          },
          "count": 0
        } ],
        "measureScore": {
          "value": 0.0
        }
      } ],
      "evaluatedResource": [ {
        "reference": "Patient/a8615f09-8387-4b16-8637-76ebabb4d9f5"
      }, {
        "reference": "Observation/0eee4ee8-92f4-4420-9036-84e223b99755"
      }, {
        "reference": "Observation/7bdb7cd8-a209-4516-ade6-1cca093cb581"
      }, {
        "reference": "Encounter/6a8713b5-934c-438f-a91f-ca73ce552315"
      }, {
        "reference": "Procedure/2478771e-c433-4f4b-baca-9787214d3cc2"
      }, {
        "reference": "Coverage/e6547ea8-4a47-4b99-b8da-04774b1715dc"
      }, {
        "reference": "Organization/adea24b8-c338-437d-afaa-e0b8cb7b3428"
      }, {
        "reference": "Practitioner/460cd728-40dc-460c-9d24-14b84b203b9a"
      } ]
    },
    "request": {
      "method": "PUT",
      "url": "MeasureReport/28ce0bf4-e3c1-48ed-b69b-ca7c5b2a0c87"
    }
  } ]
}