{
  "resourceType": "Bundle",
  "id": "465460341631",
  "type": "transaction",
  "entry": [ {
    "fullUrl": "https://madie.cms.gov/Patient/778f4fff-72ca-4cfd-b667-8def5cd3411f",
    "resource": {
      "resourceType": "Patient",
      "id": "778f4fff-72ca-4cfd-b667-8def5cd3411f",
      "meta": {
        "profile": [ "http://hl7.org/fhir/us/qicore/StructureDefinition/qicore-patient" ]
      },
      "extension": [ {
        "url": "http://hl7.org/fhir/us/core/StructureDefinition/us-core-race",
        "extension": [ {
          "url": "ombCategory",
          "valueCoding": {
            "system": "urn:oid:2.16.840.1.113883.6.238",
            "code": "2106-3",
            "display": "White"
          }
        }, {
          "url": "text",
          "valueString": "White"
        } ]
      }, {
        "url": "http://hl7.org/fhir/us/core/StructureDefinition/us-core-ethnicity",
        "extension": [ {
          "url": "ombCategory",
          "valueCoding": {
            "system": "urn:oid:2.16.840.1.113883.6.238",
            "code": "2186-5",
            "display": "Not Hispanic or Latino"
          }
        }, {
          "url": "text",
          "valueString": "Not Hispanic or Latino"
        } ]
      } ],
      "identifier": [ {
        "type": {
          "coding": [ {
            "system": "http://terminology.hl7.org/CodeSystem/v2-0203",
            "code": "MR"
          } ]
        },
        "system": "https://bonnie-fhir.healthit.gov/",
        "value": "41835164313131"
      } ],
      "name": [ {
        "family": "IPFail",
        "given": [ "OVWithWrongCode" ]
      } ],
      "gender": "male",
      "birthDate": "1936-04-01"
    },
    "request": {
      "method": "PUT",
      "url": "Patient/778f4fff-72ca-4cfd-b667-8def5cd3411f"
    }
  }, {
    "fullUrl": "https://madie.cms.gov/Encounter/27cd71c0-6750-4d8f-91e1-3ce82d0c2dce",
    "resource": {
      "resourceType": "Encounter",
      "id": "27cd71c0-6750-4d8f-91e1-3ce82d0c2dce",
      "meta": {
        "profile": [ "http://hl7.org/fhir/us/qicore/StructureDefinition/qicore-encounter" ]
      },
      "status": "finished",
      "class": {
        "system": "http://terminology.hl7.org/CodeSystem/v3-ActCode",
        "code": "AMB",
        "display": "ambulatory"
      },
      "type": [ {
        "coding": [ {
          "system": "http://www.ama-assn.org/go/cpt",
          "version": "2024",
          "code": "99213",
          "display": "Established patient office or other outpatient visit, 20-29 minutes"
        } ]
      } ],
      "subject": {
        "reference": "Patient/778f4fff-72ca-4cfd-b667-8def5cd3411f"
      },
      "period": {
        "start": "2026-01-03T08:00:00.000+00:00",
        "end": "2026-01-03T08:15:00.000+00:00"
      }
    },
    "request": {
      "method": "PUT",
      "url": "Encounter/27cd71c0-6750-4d8f-91e1-3ce82d0c2dce"
    }
  }, {
    "fullUrl": "https://madie.cms.gov/Condition/9aa7ef5c-466c-4f58-855b-b00adb42c2e9",
    "resource": {
      "resourceType": "Condition",
      "id": "9aa7ef5c-466c-4f58-855b-b00adb42c2e9",
      "meta": {
        "profile": [ "http://hl7.org/fhir/us/qicore/StructureDefinition/qicore-condition-problems-health-concerns" ]
      },
      "clinicalStatus": {
        "coding": [ {
          "system": "http://terminology.hl7.org/CodeSystem/condition-clinical",
          "code": "active",
          "display": "Active"
        } ]
      },
      "verificationStatus": {
        "coding": [ {
          "system": "http://terminology.hl7.org/CodeSystem/condition-ver-status",
          "code": "confirmed",
          "display": "Confirmed"
        } ]
      },
      "category": [ {
        "coding": [ {
          "system": "http://terminology.hl7.org/CodeSystem/condition-category",
          "code": "problem-list-item",
          "display": "Problem List Item"
        } ]
      } ],
      "code": {
        "coding": [ {
          "system": "http://hl7.org/fhir/sid/icd-10-cm",
          "version": "2024",
          "code": "C67.1",
          "display": "Malignant neoplasm of dome of bladder"
        } ]
      },
      "subject": {
        "reference": "Patient/778f4fff-72ca-4cfd-b667-8def5cd3411f"
      },
      "onsetDateTime": "2025-12-20T08:00:00.000+00:00"
    },
    "request": {
      "method": "PUT",
      "url": "Condition/9aa7ef5c-466c-4f58-855b-b00adb42c2e9"
    }
  }, {
    "fullUrl": "https://madie.cms.gov/Observation/05a44dd9-76cb-4191-a60c-8d87b97f78ec",
    "resource": {
      "resourceType": "Observation",
      "id": "05a44dd9-76cb-4191-a60c-8d87b97f78ec",
      "meta": {
        "profile": [ "http://hl7.org/fhir/us/qicore/StructureDefinition/qicore-observation-lab" ]
      },
      "partOf": [ {
        "reference": "Procedure/0ae669d7-2107-47b9-b86a-1f4223bffe42"
      } ],
      "status": "final",
      "category": [ {
        "coding": [ {
          "system": "http://terminology.hl7.org/CodeSystem/observation-category",
          "code": "procedure",
          "display": "Procedure"
        } ]
      } ],
      "code": {
        "coding": [ {
          "system": "http://loinc.org",
          "version": "2.76",
          "code": "21903-2",
          "display": "Stage group.pathology Cancer"
        } ]
      },
      "subject": {
        "reference": "Patient/778f4fff-72ca-4cfd-b667-8def5cd3411f"
      },
      "effectivePeriod": {
        "start": "2025-12-22T08:00:00.000+00:00",
        "end": "2025-12-22T08:15:00.000+00:00"
      },
      "issued": "2025-12-22T08:15:00.000+00:00",
      "valueCodeableConcept": {
        "coding": [ {
          "system": "http://snomed.info/sct",
          "version": "http://snomed.info/sct/731000124108/version/20240301",
          "code": "369935001",
          "display": "T1: Urinary tract tumor invades subepithelial connective tissue (finding)"
        } ]
      }
    },
    "request": {
      "method": "PUT",
      "url": "Observation/05a44dd9-76cb-4191-a60c-8d87b97f78ec"
    }
  }, {
    "fullUrl": "https://madie.cms.gov/Procedure/0ae669d7-2107-47b9-b86a-1f4223bffe42",
    "resource": {
      "resourceType": "Procedure",
      "id": "0ae669d7-2107-47b9-b86a-1f4223bffe42",
      "meta": {
        "profile": [ "http://hl7.org/fhir/us/qicore/StructureDefinition/qicore-procedure" ]
      },
      "extension": [ {
        "url": "http://hl7.org/fhir/us/qicore/StructureDefinition/qicore-recorded",
        "valueDateTime": "2025-12-22T08:00:00.000+00:00"
      } ],
      "status": "completed",
      "code": {
        "coding": [ {
          "system": "http://snomed.info/sct",
          "version": "http://snomed.info/sct/731000124108/version/20240301",
          "code": "254292007",
          "display": "Tumor staging"
        } ]
      },
      "subject": {
        "reference": "Patient/778f4fff-72ca-4cfd-b667-8def5cd3411f"
      },
      "performedPeriod": {
        "start": "2025-12-22T08:00:00.000+00:00",
        "end": "2025-12-22T08:15:00.000+00:00"
      }
    },
    "request": {
      "method": "PUT",
      "url": "Procedure/0ae669d7-2107-47b9-b86a-1f4223bffe42"
    }
  }, {
    "fullUrl": "https://madie.cms.gov/MeasureReport/e9d8fa28-29a4-4e99-b2d3-344bf1c6da6e",
    "resource": {
      "resourceType": "MeasureReport",
      "id": "e9d8fa28-29a4-4e99-b2d3-344bf1c6da6e",
      "meta": {
        "profile": [ "http://hl7.org/fhir/us/cqfmeasures/StructureDefinition/test-case-cqfm" ]
      },
      "contained": [ {
        "resourceType": "Parameters",
        "id": "3ca7ed28-40d4-46b5-b93a-5281d55f282a-parameters",
        "parameter": [ {
          "name": "subject",
          "valueString": "778f4fff-72ca-4cfd-b667-8def5cd3411f"
        } ]
      } ],
      "extension": [ {
        "url": "http://hl7.org/fhir/StructureDefinition/cqf-inputParameters",
        "valueReference": {
          "reference": "#3ca7ed28-40d4-46b5-b93a-5281d55f282a-parameters"
        }
      }, {
        "url": "http://hl7.org/fhir/us/cqfmeasures/StructureDefinition/cqfm-testCaseDescription",
        "valueMarkdown": "Pt with bladder cancer and encounter with wrong code. Staging done.  Fails IPP as expected."
      } ],
      "modifierExtension": [ {
        "url": "http://hl7.org/fhir/us/cqfmeasures/StructureDefinition/cqfm-isTestCase",
        "valueBoolean": true
      } ],
      "status": "complete",
      "type": "individual",
      "measure": "https://madie.cms.gov/Measure/CMS646FHIRIntravesicalBacillusCalmetteGuerinForBladderCancer",
      "period": {
        "start": "2026-01-01",
        "end": "2026-12-31"
      },
      "group": [ {
        "id": "Group_1",
        "population": [ {
          "id": "InitialPopulation_1",
          "code": {
            "coding": [ {
              "system": "http://terminology.hl7.org/CodeSystem/measure-population",
              "code": "initial-population",
              "display": "Initial Population"
            } ]
          },
          "count": 0
        }, {
          "id": "Denominator_1",
          "code": {
            "coding": [ {
              "system": "http://terminology.hl7.org/CodeSystem/measure-population",
              "code": "denominator",
              "display": "Denominator"
            } ]
          },
          "count": 0
        }, {
          "id": "DenominatorExclusion_1",
          "code": {
            "coding": [ {
              "system": "http://terminology.hl7.org/CodeSystem/measure-population",
              "code": "denominator-exclusion",
              "display": "Denominator Exclusion"
            } ]
          },
          "count": 0
        }, {
          "id": "Numerator_1",
          "code": {
            "coding": [ {
              "system": "http://terminology.hl7.org/CodeSystem/measure-population",
              "code": "numerator",
              "display": "Numerator"
            } ]
          },
          "count": 0
        }, {
          "id": "DenominatorException_1",
          "code": {
            "coding": [ {
              "system": "http://terminology.hl7.org/CodeSystem/measure-population",
              "code": "denominator-exception",
              "display": "Denominator Exception"
            } ]
          },
          "count": 0
        } ],
        "measureScore": {
          "value": 1.0
        }
      } ],
      "evaluatedResource": [ {
        "reference": "Patient/778f4fff-72ca-4cfd-b667-8def5cd3411f"
      }, {
        "reference": "Encounter/27cd71c0-6750-4d8f-91e1-3ce82d0c2dce"
      }, {
        "reference": "Condition/9aa7ef5c-466c-4f58-855b-b00adb42c2e9"
      }, {
        "reference": "Observation/05a44dd9-76cb-4191-a60c-8d87b97f78ec"
      }, {
        "reference": "Procedure/0ae669d7-2107-47b9-b86a-1f4223bffe42"
      } ]
    },
    "request": {
      "method": "PUT",
      "url": "MeasureReport/e9d8fa28-29a4-4e99-b2d3-344bf1c6da6e"
    }
  } ]
}