{
  "resourceType": "Bundle",
  "id": "63487c2d0968f8012254015a",
  "type": "transaction",
  "entry": [ {
    "fullUrl": "https://madie.cms.gov/Patient/8f3e1bc6-45ca-40ae-9e33-e9d97c6df55f",
    "resource": {
      "resourceType": "Patient",
      "id": "8f3e1bc6-45ca-40ae-9e33-e9d97c6df55f",
      "meta": {
        "profile": [ "http://hl7.org/fhir/us/qicore/StructureDefinition/qicore-patient" ]
      },
      "text": {
        "status": "generated",
        "div": "<div xmlns=\"http://www.w3.org/1999/xhtml\"><div class=\"hapiHeaderText\">TermMissingResultAssessPre<b>DENOMFail</b></div><table class=\"hapiPropertyTable\"><tbody><tr><td>Identifier</td><td>f1b9e4b3392b77f1a2fea2b625f7cf28fad883bb54105146a2733314d50d6a83</td></tr><tr><td>Date of birth</td><td><span>14 February 1985</span></td></tr></tbody></table></div>"
      },
      "extension": [ {
        "url": "http://hl7.org/fhir/us/core/StructureDefinition/us-core-race",
        "extension": [ {
          "url": "ombCategory",
          "valueCoding": {
            "system": "urn:oid:2.16.840.1.113883.6.238",
            "code": "1002-5",
            "display": "American Indian or Alaska Native",
            "userSelected": true
          }
        }, {
          "url": "text",
          "valueString": "American Indian or Alaska Native"
        } ]
      }, {
        "url": "http://hl7.org/fhir/us/core/StructureDefinition/us-core-ethnicity",
        "extension": [ {
          "url": "ombCategory",
          "valueCoding": {
            "system": "urn:oid:2.16.840.1.113883.6.238",
            "code": "2135-2",
            "display": "Hispanic or Latino",
            "userSelected": true
          }
        }, {
          "url": "text",
          "valueString": "Hispanic or Latino"
        } ]
      } ],
      "identifier": [ {
        "type": {
          "coding": [ {
            "system": "http://terminology.hl7.org/CodeSystem/v2-0203",
            "code": "MR"
          } ]
        },
        "system": "https://bonnie-fhir.healthit.gov/",
        "value": "63487c2d0968f8012254015a"
      } ],
      "active": true,
      "name": [ {
        "use": "usual",
        "family": "DENOMFail",
        "given": [ "TermMissingResultAssessPre" ]
      } ],
      "gender": "female",
      "birthDate": "1998-02-14"
    },
    "request": {
      "method": "PUT",
      "url": "Patient/8f3e1bc6-45ca-40ae-9e33-e9d97c6df55f"
    }
  }, {
    "fullUrl": "https://madie.cms.gov/Observation/e525127e-9d44-4e8f-ab5c-37a35ce36c38",
    "resource": {
      "resourceType": "Observation",
      "id": "e525127e-9d44-4e8f-ab5c-37a35ce36c38",
      "meta": {
        "profile": [ "http://hl7.org/fhir/us/qicore/StructureDefinition/qicore-simple-observation" ]
      },
      "status": "final",
      "category": [ {
        "coding": [ {
          "system": "http://terminology.hl7.org/CodeSystem/observation-category",
          "code": "exam",
          "display": "exam",
          "userSelected": true
        } ]
      } ],
      "code": {
        "coding": [ {
          "system": "http://loinc.org",
          "code": "11637-6"
        } ]
      },
      "subject": {
        "reference": "Patient/8f3e1bc6-45ca-40ae-9e33-e9d97c6df55f"
      },
      "effectiveDateTime": "2025-09-19T09:00:00.000+00:00",
      "performer": [ {
        "reference": "Organization/example1",
        "display": "Hendricks Country Hospital"
      } ]
    },
    "request": {
      "method": "PUT",
      "url": "Observation/e525127e-9d44-4e8f-ab5c-37a35ce36c38"
    }
  }, {
    "fullUrl": "https://madie.cms.gov/Observation/6e19f722-6e99-4c41-9b19-edf85a872413",
    "resource": {
      "resourceType": "Observation",
      "id": "6e19f722-6e99-4c41-9b19-edf85a872413",
      "meta": {
        "profile": [ "http://hl7.org/fhir/us/qicore/StructureDefinition/qicore-simple-observation" ]
      },
      "status": "final",
      "category": [ {
        "coding": [ {
          "system": "http://terminology.hl7.org/CodeSystem/observation-category",
          "code": "exam",
          "display": "exam",
          "userSelected": true
        } ]
      } ],
      "code": {
        "coding": [ {
          "system": "http://loinc.org",
          "code": "11639-2"
        } ]
      },
      "subject": {
        "reference": "Patient/8f3e1bc6-45ca-40ae-9e33-e9d97c6df55f"
      },
      "effectiveDateTime": "2025-09-19T09:00:00.000+00:00",
      "performer": [ {
        "reference": "Organization/example1",
        "display": "Hendricks Country Hospital"
      } ],
      "valueInteger": 0
    },
    "request": {
      "method": "PUT",
      "url": "Observation/6e19f722-6e99-4c41-9b19-edf85a872413"
    }
  }, {
    "fullUrl": "https://madie.cms.gov/Observation/55733529-d20e-48f0-a6f7-8f0aedc0a199",
    "resource": {
      "resourceType": "Observation",
      "id": "55733529-d20e-48f0-a6f7-8f0aedc0a199",
      "meta": {
        "profile": [ "http://hl7.org/fhir/us/qicore/StructureDefinition/qicore-simple-observation" ]
      },
      "status": "final",
      "category": [ {
        "coding": [ {
          "system": "http://terminology.hl7.org/CodeSystem/observation-category",
          "code": "exam",
          "display": "exam",
          "userSelected": true
        } ]
      } ],
      "code": {
        "coding": [ {
          "system": "http://loinc.org",
          "code": "11884-4"
        } ]
      },
      "subject": {
        "reference": "Patient/8f3e1bc6-45ca-40ae-9e33-e9d97c6df55f"
      },
      "effectiveDateTime": "2026-06-08T20:00:00.000+00:00",
      "performer": [ {
        "reference": "Organization/example1",
        "display": "Hendricks Country Hospital"
      } ],
      "valueQuantity": {
        "value": 37,
        "system": "http://unitsofmeasure.org",
        "code": "wk"
      }
    },
    "request": {
      "method": "PUT",
      "url": "Observation/55733529-d20e-48f0-a6f7-8f0aedc0a199"
    }
  }, {
    "fullUrl": "https://madie.cms.gov/Observation/c9d1608b-42e6-4d7c-a3f6-893b33f024bc",
    "resource": {
      "resourceType": "Observation",
      "id": "c9d1608b-42e6-4d7c-a3f6-893b33f024bc",
      "meta": {
        "profile": [ "http://hl7.org/fhir/us/qicore/StructureDefinition/qicore-simple-observation" ]
      },
      "status": "final",
      "category": [ {
        "coding": [ {
          "system": "http://terminology.hl7.org/CodeSystem/observation-category",
          "code": "exam",
          "display": "exam",
          "userSelected": true
        } ]
      } ],
      "code": {
        "coding": [ {
          "system": "http://loinc.org",
          "code": "93857-1"
        } ]
      },
      "subject": {
        "reference": "Patient/8f3e1bc6-45ca-40ae-9e33-e9d97c6df55f"
      },
      "effectiveDateTime": "2026-06-08T20:00:00.000+00:00",
      "performer": [ {
        "reference": "Organization/example1",
        "display": "Hendricks Country Hospital"
      } ],
      "valueDateTime": "2026-06-08T20:00:00.000+00:00"
    },
    "request": {
      "method": "PUT",
      "url": "Observation/c9d1608b-42e6-4d7c-a3f6-893b33f024bc"
    }
  }, {
    "fullUrl": "https://madie.cms.gov/Encounter/84f42dd7-5cbf-4280-9a18-afd7e819b4ce",
    "resource": {
      "resourceType": "Encounter",
      "id": "84f42dd7-5cbf-4280-9a18-afd7e819b4ce",
      "meta": {
        "profile": [ "http://hl7.org/fhir/us/qicore/StructureDefinition/qicore-encounter" ]
      },
      "status": "finished",
      "class": {
        "system": "http://terminology.hl7.org/CodeSystem/v3-ActCode",
        "code": "IMP",
        "display": "inpatient encounter"
      },
      "type": [ {
        "coding": [ {
          "system": "http://snomed.info/sct",
          "code": "8715000"
        } ]
      } ],
      "subject": {
        "reference": "Patient/8f3e1bc6-45ca-40ae-9e33-e9d97c6df55f"
      },
      "period": {
        "start": "2026-06-08T08:00:00.000+00:00",
        "end": "2026-06-10T08:15:00.000+00:00"
      },
      "length": {
        "value": 2,
        "unit": "days"
      },
      "reasonReference": [ {
        "reference": "Condition/delivery-of-singleton-f83c"
      } ]
    },
    "request": {
      "method": "PUT",
      "url": "Encounter/84f42dd7-5cbf-4280-9a18-afd7e819b4ce"
    }
  }, {
    "fullUrl": "https://madie.cms.gov/Procedure/85e91473-da37-4c5c-bafd-ce30d84ab057",
    "resource": {
      "resourceType": "Procedure",
      "id": "85e91473-da37-4c5c-bafd-ce30d84ab057",
      "meta": {
        "profile": [ "http://hl7.org/fhir/us/qicore/StructureDefinition/qicore-procedure" ]
      },
      "extension": [ {
        "url": "http://hl7.org/fhir/us/qicore/StructureDefinition/qicore-recorded",
        "valueDateTime": "2014-04-05T13:35:00.000+00:00"
      } ],
      "status": "completed",
      "code": {
        "coding": [ {
          "system": "http://www.cms.gov/Medicare/Coding/ICD10",
          "code": "10D00Z0"
        }, {
          "system": "http://snomed.info/sct",
          "code": "4504004"
        } ]
      },
      "subject": {
        "reference": "Patient/8f3e1bc6-45ca-40ae-9e33-e9d97c6df55f"
      },
      "performedPeriod": {
        "start": "2026-06-08T20:00:00.000+00:00",
        "end": "2026-06-08T20:15:00.000+00:00"
      }
    },
    "request": {
      "method": "PUT",
      "url": "Procedure/85e91473-da37-4c5c-bafd-ce30d84ab057"
    }
  }, {
    "fullUrl": "https://madie.cms.gov/Condition/b65c8534-4f6a-41e9-b265-30114358ace2",
    "resource": {
      "resourceType": "Condition",
      "id": "b65c8534-4f6a-41e9-b265-30114358ace2",
      "meta": {
        "profile": [ "http://hl7.org/fhir/us/qicore/StructureDefinition/qicore-condition-encounter-diagnosis" ]
      },
      "category": [ {
        "coding": [ {
          "system": "http://terminology.hl7.org/CodeSystem/condition-category",
          "code": "encounter-diagnosis",
          "display": "Encounter Diagnosis"
        } ]
      } ],
      "code": {
        "coding": [ {
          "system": "http://snomed.info/sct",
          "version": "2022-09",
          "code": "169826009",
          "display": "Single live birth (finding)",
          "userSelected": true
        } ]
      },
      "subject": {
        "reference": "Patient/8f3e1bc6-45ca-40ae-9e33-e9d97c6df55f"
      },
      "encounter": {
        "reference": "Encounter/84f42dd7-5cbf-4280-9a18-afd7e819b4ce"
      },
      "recordedDate": "2026-10-21T08:00:00.000+00:00"
    },
    "request": {
      "method": "PUT",
      "url": "Condition/b65c8534-4f6a-41e9-b265-30114358ace2"
    }
  }, {
    "fullUrl": "https://madie.cms.gov/Coverage/b5abf53b-b8b1-4a31-ae45-566b124eaf53",
    "resource": {
      "resourceType": "Coverage",
      "id": "b5abf53b-b8b1-4a31-ae45-566b124eaf53",
      "meta": {
        "profile": [ "http://hl7.org/fhir/us/qicore/StructureDefinition/qicore-coverage" ]
      },
      "status": "active",
      "subscriberId": "523435",
      "beneficiary": {
        "reference": "Patient/8f3e1bc6-45ca-40ae-9e33-e9d97c6df55f"
      },
      "relationship": {
        "coding": [ {
          "system": "http://terminology.hl7.org/CodeSystem/subscriber-relationship",
          "code": "self"
        } ]
      },
      "payor": [ {
        "reference": "Organization/3d5fbe75-58f3-4860-b993-d1495df1f119"
      } ]
    },
    "request": {
      "method": "PUT",
      "url": "Coverage/b5abf53b-b8b1-4a31-ae45-566b124eaf53"
    }
  }, {
    "fullUrl": "https://madie.cms.gov/Organization/3d5fbe75-58f3-4860-b993-d1495df1f119",
    "resource": {
      "resourceType": "Organization",
      "id": "3d5fbe75-58f3-4860-b993-d1495df1f119",
      "meta": {
        "profile": [ "http://hl7.org/fhir/us/qicore/StructureDefinition/qicore-organization" ]
      },
      "identifier": [ {
        "use": "temp",
        "system": "urn:oid:2.16.840.1.113883.4.4",
        "value": "21-3259825"
      } ],
      "active": true,
      "type": [ {
        "coding": [ {
          "system": "http://terminology.hl7.org/CodeSystem/organization-type",
          "code": "pay",
          "display": "Payer"
        } ]
      } ],
      "name": "Blue Cross Blue Shield of Texas",
      "telecom": [ {
        "system": "phone",
        "value": "(+1) 972-766-6900"
      } ],
      "address": [ {
        "use": "billing",
        "type": "postal",
        "line": [ "P.O. Box 660044" ],
        "city": "Dallas",
        "state": "TX",
        "postalCode": "75266-0044",
        "country": "USA"
      } ]
    },
    "request": {
      "method": "PUT",
      "url": "Organization/3d5fbe75-58f3-4860-b993-d1495df1f119"
    }
  }, {
    "fullUrl": "https://madie.cms.gov/Practitioner/42bdd63f-c081-429c-bcc4-dca55454a3cb",
    "resource": {
      "resourceType": "Practitioner",
      "id": "42bdd63f-c081-429c-bcc4-dca55454a3cb",
      "meta": {
        "profile": [ "http://hl7.org/fhir/us/qicore/StructureDefinition/qicore-practitioner" ]
      },
      "identifier": [ {
        "system": "http://hl7.org/fhir/sid/us-npi",
        "value": "1234567890"
      } ],
      "name": [ {
        "family": "Evil",
        "prefix": [ "Dr" ]
      } ]
    },
    "request": {
      "method": "PUT",
      "url": "Practitioner/42bdd63f-c081-429c-bcc4-dca55454a3cb"
    }
  }, {
    "fullUrl": "https://madie.cms.gov/MeasureReport/c0dd110b-24d7-497c-bfbc-bda7f6161a23",
    "resource": {
      "resourceType": "MeasureReport",
      "id": "c0dd110b-24d7-497c-bfbc-bda7f6161a23",
      "meta": {
        "profile": [ "http://hl7.org/fhir/us/cqfmeasures/StructureDefinition/test-case-cqfm" ]
      },
      "contained": [ {
        "resourceType": "Parameters",
        "id": "74aae81a-a742-49a3-b5c3-9fc74855c36a-parameters",
        "parameter": [ {
          "name": "subject",
          "valueString": "8f3e1bc6-45ca-40ae-9e33-e9d97c6df55f"
        } ]
      } ],
      "extension": [ {
        "url": "http://hl7.org/fhir/StructureDefinition/cqf-inputParameters",
        "valueReference": {
          "reference": "#74aae81a-a742-49a3-b5c3-9fc74855c36a-parameters"
        }
      }, {
        "url": "http://hl7.org/fhir/us/cqfmeasures/StructureDefinition/cqfm-testCaseDescription",
        "valueMarkdown": "\"Preterm Births missing result,   rel date/time < 42weeks prior to asse delivery\nTerm Newborn=0, rel date/time < 42weeks prior to Asse delivery\"\n"
      } ],
      "modifierExtension": [ {
        "url": "http://hl7.org/fhir/us/cqfmeasures/StructureDefinition/cqfm-isTestCase",
        "valueBoolean": true
      } ],
      "status": "complete",
      "type": "individual",
      "measure": "https://madie.cms.gov/Measure/CMS0334FHIRPCCesareanBirth",
      "period": {
        "start": "2026-01-01",
        "end": "2026-12-31"
      },
      "group": [ {
        "id": "Group_1",
        "population": [ {
          "id": "InitialPopulation_1",
          "code": {
            "coding": [ {
              "system": "http://terminology.hl7.org/CodeSystem/measure-population",
              "code": "initial-population",
              "display": "Initial Population"
            } ]
          },
          "count": 1
        }, {
          "id": "Denominator_1",
          "code": {
            "coding": [ {
              "system": "http://terminology.hl7.org/CodeSystem/measure-population",
              "code": "denominator",
              "display": "Denominator"
            } ]
          },
          "count": 0
        }, {
          "id": "DenominatorExclusion_1",
          "code": {
            "coding": [ {
              "system": "http://terminology.hl7.org/CodeSystem/measure-population",
              "code": "denominator-exclusion",
              "display": "Denominator Exclusion"
            } ]
          },
          "count": 0
        }, {
          "id": "Numerator_1",
          "code": {
            "coding": [ {
              "system": "http://terminology.hl7.org/CodeSystem/measure-population",
              "code": "numerator",
              "display": "Numerator"
            } ]
          },
          "count": 0
        } ],
        "measureScore": {
          "value": 0.0
        }
      } ],
      "evaluatedResource": [ {
        "reference": "Patient/8f3e1bc6-45ca-40ae-9e33-e9d97c6df55f"
      }, {
        "reference": "Observation/e525127e-9d44-4e8f-ab5c-37a35ce36c38"
      }, {
        "reference": "Observation/6e19f722-6e99-4c41-9b19-edf85a872413"
      }, {
        "reference": "Observation/55733529-d20e-48f0-a6f7-8f0aedc0a199"
      }, {
        "reference": "Observation/c9d1608b-42e6-4d7c-a3f6-893b33f024bc"
      }, {
        "reference": "Encounter/84f42dd7-5cbf-4280-9a18-afd7e819b4ce"
      }, {
        "reference": "Procedure/85e91473-da37-4c5c-bafd-ce30d84ab057"
      }, {
        "reference": "Condition/b65c8534-4f6a-41e9-b265-30114358ace2"
      }, {
        "reference": "Coverage/b5abf53b-b8b1-4a31-ae45-566b124eaf53"
      }, {
        "reference": "Organization/3d5fbe75-58f3-4860-b993-d1495df1f119"
      }, {
        "reference": "Practitioner/42bdd63f-c081-429c-bcc4-dca55454a3cb"
      } ]
    },
    "request": {
      "method": "PUT",
      "url": "MeasureReport/c0dd110b-24d7-497c-bfbc-bda7f6161a23"
    }
  } ]
}