{
  "resourceType": "Bundle",
  "id": "610965b898086b538055c144",
  "type": "transaction",
  "entry": [
    {
      "fullUrl": "https://madie.cms.gov/Patient/eee6110f-64e0-43d5-a060-3c154b8d1086",
      "resource": {
        "resourceType": "Patient",
        "id": "eee6110f-64e0-43d5-a060-3c154b8d1086",
        "meta": {
          "profile": [
            "http://hl7.org/fhir/us/qicore/StructureDefinition/qicore-patient"
          ]
        },
        "text": {
          "status": "generated",
          "div": "<div xmlns=\"http://www.w3.org/1999/xhtml\"><div class=\"hapiHeaderText\">InvalidEncounter <b>IPPFAIL </b></div><table class=\"hapiPropertyTable\"><tbody><tr><td>Identifier</td><td>0e398bdf5fcf08275dc64ef8442ca6da4a80d2fb9d19a256f444dcf9f785ba41</td></tr><tr><td>Date of birth</td><td><span>31 July 1992</span></td></tr></tbody></table></div>"
        },
        "extension": [
          {
            "url": "http://hl7.org/fhir/us/core/StructureDefinition/us-core-race",
            "extension": [
              {
                "url": "ombCategory",
                "valueCoding": {
                  "system": "urn:oid:2.16.840.1.113883.6.238",
                  "code": "1002-5",
                  "display": "American Indian or Alaska Native",
                  "userSelected": true
                }
              },
              {
                "url": "text",
                "valueString": "American Indian or Alaska Native"
              }
            ]
          },
          {
            "url": "http://hl7.org/fhir/us/core/StructureDefinition/us-core-ethnicity",
            "extension": [
              {
                "url": "ombCategory",
                "valueCoding": {
                  "system": "urn:oid:2.16.840.1.113883.6.238",
                  "code": "2135-2",
                  "display": "Hispanic or Latino",
                  "userSelected": true
                }
              },
              {
                "url": "text",
                "valueString": "Hispanic or Latino"
              }
            ]
          }
        ],
        "identifier": [
          {
            "type": {
              "coding": [
                {
                  "system": "http://terminology.hl7.org/CodeSystem/v2-0203",
                  "code": "MR"
                }
              ]
            },
            "system": "https://bonnie-fhir.healthit.gov/",
            "value": "610965b898086b538055c144"
          }
        ],
        "active": true,
        "name": [
          {
            "use": "usual",
            "family": "IPPFail",
            "given": [
              "InvalidEncounter"
            ]
          }
        ],
        "gender": "female",
        "birthDate": "1993-07-31"
      },
      "request": {
        "method": "PUT",
        "url": "Patient/eee6110f-64e0-43d5-a060-3c154b8d1086"
      }
    },
    {
      "fullUrl": "https://madie.cms.gov/Encounter/165cd073-fbc1-4ff5-90e4-5c1935467ccc",
      "resource": {
        "resourceType": "Encounter",
        "id": "165cd073-fbc1-4ff5-90e4-5c1935467ccc",
        "meta": {
          "profile": [
            "http://hl7.org/fhir/us/qicore/StructureDefinition/qicore-encounter"
          ]
        },
        "status": "finished",
        "class": {
          "system": "http://terminology.hl7.org/CodeSystem/v3-ActCode",
          "code": "AMB",
          "display": "ambulatory",
          "userSelected": true
        },
        "type": [
          {
            "coding": [
              {
                "system": "http://www.ama-assn.org/go/cpt",
                "code": "99835"
              }
            ]
          }
        ],
        "subject": {
          "reference": "Patient/eee6110f-64e0-43d5-a060-3c154b8d1086"
        },
        "period": {
          "start": "2025-10-24T08:00:00.000+00:00",
          "end": "2025-10-24T08:15:00.000+00:00"
        }
      },
      "request": {
        "method": "PUT",
        "url": "Encounter/165cd073-fbc1-4ff5-90e4-5c1935467ccc"
      }
    },
    {
      "fullUrl": "https://madie.cms.gov/MeasureReport/de6439cf-cd63-4760-8ffc-50b9194c417e",
      "resource": {
        "resourceType": "MeasureReport",
        "id": "de6439cf-cd63-4760-8ffc-50b9194c417e",
        "meta": {
          "profile": [
            "http://hl7.org/fhir/us/cqfmeasures/StructureDefinition/test-case-cqfm"
          ]
        },
        "contained": [
          {
            "resourceType": "Parameters",
            "id": "3708addd-6e3a-4ccd-877d-4a500c82a151-parameters",
            "parameter": [
              {
                "name": "subject",
                "valueString": "eee6110f-64e0-43d5-a060-3c154b8d1086"
              }
            ]
          }
        ],
        "extension": [
          {
            "url": "http://hl7.org/fhir/us/cqfmeasures/StructureDefinition/cqfm-inputParameters",
            "valueReference": {
              "reference": "#3708addd-6e3a-4ccd-877d-4a500c82a151-parameters"
            }
          },
          {
            "url": "http://hl7.org/fhir/us/cqfmeasures/StructureDefinition/cqfm-testCaseDescription",
            "valueMarkdown": "Patient qualifies by age but does not have qualifying encounter in measurement period."
          }
        ],
        "modifierExtension": [
          {
            "url": "http://hl7.org/fhir/us/cqfmeasures/StructureDefinition/cqfm-isTestCase",
            "valueBoolean": true
          }
        ],
        "status": "complete",
        "type": "individual",
        "measure": "https://madie.cms.gov/Measure/HIVScreeningFHIR",
        "period": {
          "start": "2025-01-01",
          "end": "2025-12-31"
        },
        "group": [
          {
            "population": [
              {
                "code": {
                  "coding": [
                    {
                      "system": "http://terminology.hl7.org/CodeSystem/measure-population",
                      "code": "initial-population",
                      "display": "Initial Population"
                    }
                  ]
                },
                "count": 0
              },
              {
                "code": {
                  "coding": [
                    {
                      "system": "http://terminology.hl7.org/CodeSystem/measure-population",
                      "code": "denominator",
                      "display": "Denominator"
                    }
                  ]
                },
                "count": 0
              },
              {
                "code": {
                  "coding": [
                    {
                      "system": "http://terminology.hl7.org/CodeSystem/measure-population",
                      "code": "denominator-exclusion",
                      "display": "Denominator Exclusion"
                    }
                  ]
                },
                "count": 0
              },
              {
                "code": {
                  "coding": [
                    {
                      "system": "http://terminology.hl7.org/CodeSystem/measure-population",
                      "code": "numerator",
                      "display": "Numerator"
                    }
                  ]
                },
                "count": 0
              }
            ]
          }
        ],
        "evaluatedResource": [
          {
            "reference": "Patient/eee6110f-64e0-43d5-a060-3c154b8d1086"
          },
          {
            "reference": "Encounter/165cd073-fbc1-4ff5-90e4-5c1935467ccc"
          }
        ]
      },
      "request": {
        "method": "PUT",
        "url": "MeasureReport/de6439cf-cd63-4760-8ffc-50b9194c417e"
      }
    }
  ]
}