{
  "resourceType": "Bundle",
  "id": "612e6ad002c62a011f2eb4ec",
  "type": "transaction",
  "entry": [ {
    "fullUrl": "https://madie.cms.gov/Patient/54851bea-ea21-497a-ad7d-fc9819a6a1c8",
    "resource": {
      "resourceType": "Patient",
      "id": "54851bea-ea21-497a-ad7d-fc9819a6a1c8",
      "meta": {
        "profile": [ "http://hl7.org/fhir/us/qicore/StructureDefinition/qicore-patient" ]
      },
      "text": {
        "status": "generated",
        "div": "<div xmlns=\"http://www.w3.org/1999/xhtml\"><div class=\"hapiHeaderText\">MedRsnMOInjXaDOIPCOnAnesEndTime <b>NUMERPASS </b></div><table class=\"hapiPropertyTable\"><tbody><tr><td>Identifier</td><td>d807935b54e02b33e4279bc51c4ec66c</td></tr><tr><td>Date of birth</td><td><span>02 January 1974</span></td></tr></tbody></table></div>"
      },
      "extension": [ {
        "url": "http://hl7.org/fhir/us/core/StructureDefinition/us-core-race",
        "extension": [ {
          "url": "ombCategory",
          "valueCoding": {
            "system": "urn:oid:2.16.840.1.113883.6.238",
            "code": "1002-5",
            "display": "American Indian or Alaska Native",
            "userSelected": true
          }
        }, {
          "url": "text",
          "valueString": "American Indian or Alaska Native"
        } ]
      }, {
        "url": "http://hl7.org/fhir/us/core/StructureDefinition/us-core-ethnicity",
        "extension": [ {
          "url": "ombCategory",
          "valueCoding": {
            "system": "urn:oid:2.16.840.1.113883.6.238",
            "code": "2135-2",
            "display": "Hispanic or Latino",
            "userSelected": true
          }
        }, {
          "url": "text",
          "valueString": "Hispanic or Latino"
        } ]
      } ],
      "identifier": [ {
        "type": {
          "coding": [ {
            "system": "http://terminology.hl7.org/CodeSystem/v2-0203",
            "code": "MR"
          } ]
        },
        "system": "https://bonnie-fhir.healthit.gov/",
        "value": "612e6ad002c62a011f2eb4ec"
      } ],
      "active": true,
      "name": [ {
        "use": "usual",
        "family": "NUMERPass",
        "given": [ "MedRsnMOInjXaDOIPCOnAnesEndTime" ]
      } ],
      "gender": "male",
      "birthDate": "1975-01-02"
    },
    "request": {
      "method": "PUT",
      "url": "Patient/54851bea-ea21-497a-ad7d-fc9819a6a1c8"
    }
  }, {
    "fullUrl": "https://madie.cms.gov/Encounter/40cfcd88-d71b-4bca-8de2-816a9dfabb7e",
    "resource": {
      "resourceType": "Encounter",
      "id": "40cfcd88-d71b-4bca-8de2-816a9dfabb7e",
      "meta": {
        "profile": [ "http://hl7.org/fhir/us/qicore/StructureDefinition/qicore-encounter" ]
      },
      "status": "finished",
      "class": {
        "system": "http://terminology.hl7.org/CodeSystem/v3-ActCode",
        "code": "IMP",
        "display": "inpatient encounter"
      },
      "type": [ {
        "coding": [ {
          "system": "http://snomed.info/sct",
          "code": "8715000"
        } ]
      } ],
      "subject": {
        "reference": "Patient/54851bea-ea21-497a-ad7d-fc9819a6a1c8"
      },
      "period": {
        "start": "2026-11-01T08:00:00.000+00:00",
        "end": "2026-11-26T08:15:00.000+00:00"
      },
      "length": {
        "value": 25,
        "unit": "days"
      }
    },
    "request": {
      "method": "PUT",
      "url": "Encounter/40cfcd88-d71b-4bca-8de2-816a9dfabb7e"
    }
  }, {
    "fullUrl": "https://madie.cms.gov/Coverage/3065718c-5d5a-486c-b9cf-491849bb684c",
    "resource": {
      "resourceType": "Coverage",
      "id": "3065718c-5d5a-486c-b9cf-491849bb684c",
      "status": "active",
      "beneficiary": {
        "reference": "Patient/54851bea-ea21-497a-ad7d-fc9819a6a1c8"
      },
      "period": {
        "start": "1975-01-02T08:00:00.000+00:00"
      },
      "payor": [ {
        "reference": "Organization/cdc7d96a-b266-4c3a-a6d3-fceeb58ddb15"
      } ]
    },
    "request": {
      "method": "PUT",
      "url": "Coverage/3065718c-5d5a-486c-b9cf-491849bb684c"
    }
  }, {
    "fullUrl": "https://madie.cms.gov/ServiceRequest/5c150780-0efe-4487-a4c5-9be51864b472",
    "resource": {
      "resourceType": "ServiceRequest",
      "id": "5c150780-0efe-4487-a4c5-9be51864b472",
      "meta": {
        "profile": [ "http://hl7.org/fhir/us/qicore/StructureDefinition/qicore-servicenotrequested" ]
      },
      "extension": [ {
        "url": "http://hl7.org/fhir/us/qicore/StructureDefinition/qicore-doNotPerformReason",
        "valueCodeableConcept": {
          "coding": [ {
            "system": "http://snomed.info/sct",
            "code": "183932001",
            "display": "Procedure contraindicated (situation)"
          } ]
        }
      } ],
      "status": "completed",
      "intent": "order",
      "doNotPerform": true,
      "code": {
        "coding": [ {
          "system": "http://snomed.info/sct",
          "code": "432441000124100",
          "display": "Intermittent pneumatic compression device (physical object)",
          "userSelected": true
        } ]
      },
      "subject": {
        "reference": "Patient/54851bea-ea21-497a-ad7d-fc9819a6a1c8"
      },
      "authoredOn": "2026-11-02T09:15:00.000+00:00"
    },
    "request": {
      "method": "PUT",
      "url": "ServiceRequest/5c150780-0efe-4487-a4c5-9be51864b472"
    }
  }, {
    "fullUrl": "https://madie.cms.gov/MedicationRequest/37642690-12ea-4df9-8ec3-0a157522a659",
    "resource": {
      "resourceType": "MedicationRequest",
      "id": "37642690-12ea-4df9-8ec3-0a157522a659",
      "meta": {
        "profile": [ "http://hl7.org/fhir/us/qicore/StructureDefinition/qicore-medicationnotrequested" ]
      },
      "status": "completed",
      "intent": "order",
      "category": [ {
        "coding": [ {
          "system": "http://terminology.hl7.org/CodeSystem/medicationrequest-category",
          "code": "community"
        } ]
      } ],
      "doNotPerform": true,
      "medicationCodeableConcept": {
        "coding": [ {
          "system": "http://www.nlm.nih.gov/research/umls/rxnorm",
          "code": "861363"
        } ]
      },
      "subject": {
        "reference": "Patient/54851bea-ea21-497a-ad7d-fc9819a6a1c8"
      },
      "authoredOn": "2026-11-02T09:15:00.000+00:00",
      "requester": {
        "reference": "Practitioner/123456"
      },
      "reasonCode": [ {
        "coding": [ {
          "system": "http://snomed.info/sct",
          "code": "183932001",
          "display": "Procedure contraindicated (situation)",
          "userSelected": true
        } ]
      } ],
      "dosageInstruction": [ {
        "timing": {
          "repeat": {
            "boundsPeriod": {
              "start": "2026-11-03T09:00:00.000+00:00"
            }
          }
        }
      } ]
    },
    "request": {
      "method": "PUT",
      "url": "MedicationRequest/37642690-12ea-4df9-8ec3-0a157522a659"
    }
  }, {
    "fullUrl": "https://madie.cms.gov/Procedure/96becd9e-e072-4f3b-8779-1c3ebd5938ff",
    "resource": {
      "resourceType": "Procedure",
      "id": "96becd9e-e072-4f3b-8779-1c3ebd5938ff",
      "status": "completed",
      "code": {
        "coding": [ {
          "system": "http://snomed.info/sct",
          "code": "18946005"
        } ]
      },
      "subject": {
        "reference": "Patient/54851bea-ea21-497a-ad7d-fc9819a6a1c8"
      },
      "performedPeriod": {
        "start": "2026-11-02T09:00:00.000+00:00",
        "end": "2026-11-02T09:15:00.000+00:00"
      }
    },
    "request": {
      "method": "PUT",
      "url": "Procedure/96becd9e-e072-4f3b-8779-1c3ebd5938ff"
    }
  }, {
    "fullUrl": "https://madie.cms.gov/Organization/cdc7d96a-b266-4c3a-a6d3-fceeb58ddb15",
    "resource": {
      "resourceType": "Organization",
      "id": "cdc7d96a-b266-4c3a-a6d3-fceeb58ddb15",
      "meta": {
        "profile": [ "http://hl7.org/fhir/us/qicore/StructureDefinition/qicore-organization" ]
      },
      "identifier": [ {
        "use": "temp",
        "system": "urn:oid:2.16.840.1.113883.4.4",
        "value": "21-3259825"
      } ],
      "active": true,
      "type": [ {
        "coding": [ {
          "system": "http://terminology.hl7.org/CodeSystem/organization-type",
          "code": "pay",
          "display": "Payer"
        } ]
      } ],
      "name": "Blue Cross Blue Shield of Texas",
      "telecom": [ {
        "system": "phone",
        "value": "(+1) 972-766-6900"
      } ],
      "address": [ {
        "use": "billing",
        "type": "postal",
        "line": [ "P.O. Box 660044" ],
        "city": "Dallas",
        "state": "TX",
        "postalCode": "75266-0044",
        "country": "USA"
      } ]
    },
    "request": {
      "method": "PUT",
      "url": "Organization/cdc7d96a-b266-4c3a-a6d3-fceeb58ddb15"
    }
  }, {
    "fullUrl": "https://madie.cms.gov/Practitioner/8e0f8193-66c3-4a60-9322-aa1b47a8f3b3",
    "resource": {
      "resourceType": "Practitioner",
      "id": "8e0f8193-66c3-4a60-9322-aa1b47a8f3b3",
      "identifier": [ {
        "system": "http://hl7.org/fhir/sid/us-npi",
        "value": "123456"
      } ],
      "name": [ {
        "family": "Evil",
        "prefix": [ "Dr" ]
      } ]
    },
    "request": {
      "method": "PUT",
      "url": "Practitioner/8e0f8193-66c3-4a60-9322-aa1b47a8f3b3"
    }
  }, {
    "fullUrl": "https://madie.cms.gov/MeasureReport/08e74971-359f-4e7f-a2fd-08891d868c85",
    "resource": {
      "resourceType": "MeasureReport",
      "id": "08e74971-359f-4e7f-a2fd-08891d868c85",
      "meta": {
        "profile": [ "http://hl7.org/fhir/us/cqfmeasures/StructureDefinition/test-case-cqfm" ]
      },
      "contained": [ {
        "resourceType": "Parameters",
        "id": "44cdeae9-f340-44e3-ad85-b3d7053331ed-parameters",
        "parameter": [ {
          "name": "subject",
          "valueString": "54851bea-ea21-497a-ad7d-fc9819a6a1c8"
        } ]
      } ],
      "extension": [ {
        "url": "http://hl7.org/fhir/StructureDefinition/cqf-inputParameters",
        "valueReference": {
          "reference": "#44cdeae9-f340-44e3-ad85-b3d7053331ed-parameters"
        }
      }, {
        "url": "http://hl7.org/fhir/us/cqfmeasures/StructureDefinition/cqfm-testCaseDescription",
        "valueMarkdown": "injectable factor Xa and IPC not ordered due to medical reason OnAnesEndTime\n"
      } ],
      "modifierExtension": [ {
        "url": "http://hl7.org/fhir/us/cqfmeasures/StructureDefinition/cqfm-isTestCase",
        "valueBoolean": true
      } ],
      "status": "complete",
      "type": "individual",
      "measure": "https://madie.cms.gov/Measure/CMS108FHIRVTEProphylaxis",
      "period": {
        "start": "2026-01-01",
        "end": "2026-12-31"
      },
      "group": [ {
        "id": "Group_1",
        "population": [ {
          "id": "InitialPopulation_1",
          "code": {
            "coding": [ {
              "system": "http://terminology.hl7.org/CodeSystem/measure-population",
              "code": "initial-population",
              "display": "Initial Population"
            } ]
          },
          "count": 1
        }, {
          "id": "Denominator_1",
          "code": {
            "coding": [ {
              "system": "http://terminology.hl7.org/CodeSystem/measure-population",
              "code": "denominator",
              "display": "Denominator"
            } ]
          },
          "count": 1
        }, {
          "id": "DenominatorExclusion_1",
          "code": {
            "coding": [ {
              "system": "http://terminology.hl7.org/CodeSystem/measure-population",
              "code": "denominator-exclusion",
              "display": "Denominator Exclusion"
            } ]
          },
          "count": 0
        }, {
          "id": "Numerator_1",
          "code": {
            "coding": [ {
              "system": "http://terminology.hl7.org/CodeSystem/measure-population",
              "code": "numerator",
              "display": "Numerator"
            } ]
          },
          "count": 1
        } ],
        "measureScore": {
          "value": 0.0
        }
      } ],
      "evaluatedResource": [ {
        "reference": "Patient/54851bea-ea21-497a-ad7d-fc9819a6a1c8"
      }, {
        "reference": "Encounter/40cfcd88-d71b-4bca-8de2-816a9dfabb7e"
      }, {
        "reference": "Coverage/3065718c-5d5a-486c-b9cf-491849bb684c"
      }, {
        "reference": "ServiceRequest/5c150780-0efe-4487-a4c5-9be51864b472"
      }, {
        "reference": "MedicationRequest/37642690-12ea-4df9-8ec3-0a157522a659"
      }, {
        "reference": "Procedure/96becd9e-e072-4f3b-8779-1c3ebd5938ff"
      }, {
        "reference": "Organization/cdc7d96a-b266-4c3a-a6d3-fceeb58ddb15"
      }, {
        "reference": "Practitioner/8e0f8193-66c3-4a60-9322-aa1b47a8f3b3"
      } ]
    },
    "request": {
      "method": "PUT",
      "url": "MeasureReport/08e74971-359f-4e7f-a2fd-08891d868c85"
    }
  } ]
}