{
  "resourceType": "Bundle",
  "id": "MildAsseThenModAsse",
  "type": "transaction",
  "entry": [ {
    "fullUrl": "https://madie.cms.gov/Patient/7a61226f-6ed7-4fa9-9055-5e9b0234db9b",
    "resource": {
      "resourceType": "Patient",
      "id": "7a61226f-6ed7-4fa9-9055-5e9b0234db9b",
      "meta": {
        "profile": [ "http://hl7.org/fhir/us/qicore/StructureDefinition/qicore-patient" ]
      },
      "extension": [ {
        "url": "http://hl7.org/fhir/us/core/StructureDefinition/us-core-race",
        "extension": [ {
          "url": "ombCategory",
          "valueCoding": {
            "system": "urn:oid:2.16.840.1.113883.6.238",
            "code": "2106-3",
            "display": "White",
            "userSelected": true
          }
        }, {
          "url": "text",
          "valueString": "White"
        } ]
      }, {
        "url": "http://hl7.org/fhir/us/core/StructureDefinition/us-core-ethnicity",
        "extension": [ {
          "url": "ombCategory",
          "valueCoding": {
            "system": "urn:oid:2.16.840.1.113883.6.238",
            "code": "2186-5",
            "display": "Not Hispanic or Latino",
            "userSelected": true
          }
        }, {
          "url": "text",
          "valueString": "Hispanic or Latino"
        } ]
      }, {
        "url": "http://hl7.org/fhir/us/core/StructureDefinition/us-core-sex",
        "valueCode": "248153007"
      } ],
      "identifier": [ {
        "type": {
          "coding": [ {
            "system": "http://terminology.hl7.org/CodeSystem/v2-0203",
            "code": "MR"
          } ]
        },
        "system": "https://madie.cms.gov/",
        "value": "MildAsseThenModAsse"
      } ],
      "active": true,
      "name": [ {
        "use": "usual",
        "text": "MildAsseThenModAsse",
        "family": "MSROBSPass4",
        "given": [ "MildAsseThenModAsse" ]
      } ],
      "gender": "male",
      "birthDate": "1950-03-10",
      "address": [ {
        "text": "MildAsseThenModAsse, Screened No at risk Assessed Mild then moderate Malnourished Diagnosed Care Plan, ID=MildAsseThenModAsse, DOB: 10 Mar 1950"
      } ]
    },
    "request": {
      "method": "PUT",
      "url": "Patient/7a61226f-6ed7-4fa9-9055-5e9b0234db9b"
    }
  }, {
    "fullUrl": "https://madie.cms.gov/Encounter/c9b9c6e8-dafc-44bf-bd98-5521dd25e2af",
    "resource": {
      "resourceType": "Encounter",
      "id": "c9b9c6e8-dafc-44bf-bd98-5521dd25e2af",
      "meta": {
        "profile": [ "http://hl7.org/fhir/us/qicore/StructureDefinition/qicore-encounter" ]
      },
      "status": "finished",
      "class": {
        "system": "http://terminology.hl7.org/CodeSystem/v3-ActCode",
        "code": "IMP",
        "display": "inpatient encounter"
      },
      "type": [ {
        "coding": [ {
          "system": "http://snomed.info/sct",
          "code": "183452005"
        } ]
      } ],
      "subject": {
        "reference": "Patient/7a61226f-6ed7-4fa9-9055-5e9b0234db9b"
      },
      "period": {
        "start": "2026-07-14T08:00:00.000+00:00",
        "end": "2026-07-16T08:00:00.000+00:00"
      },
      "reasonReference": [ {
        "reference": "Condition/3aed0ee4-c9e8-4456-827c-75823a47f253"
      } ]
    },
    "request": {
      "method": "PUT",
      "url": "Encounter/c9b9c6e8-dafc-44bf-bd98-5521dd25e2af"
    }
  }, {
    "fullUrl": "https://madie.cms.gov/Condition/3aed0ee4-c9e8-4456-827c-75823a47f253",
    "resource": {
      "resourceType": "Condition",
      "id": "3aed0ee4-c9e8-4456-827c-75823a47f253",
      "meta": {
        "profile": [ "http://hl7.org/fhir/us/qicore/StructureDefinition/qicore-condition-encounter-diagnosis" ]
      },
      "clinicalStatus": {
        "coding": [ {
          "system": "http://terminology.hl7.org/CodeSystem/condition-clinical",
          "code": "active",
          "display": "Active",
          "userSelected": true
        } ]
      },
      "verificationStatus": {
        "coding": [ {
          "system": "http://terminology.hl7.org/CodeSystem/condition-ver-status",
          "code": "confirmed",
          "display": "Confirmed",
          "userSelected": true
        } ]
      },
      "category": [ {
        "coding": [ {
          "system": "http://terminology.hl7.org/CodeSystem/condition-category",
          "code": "encounter-diagnosis",
          "display": "Encounter Diagnosis",
          "userSelected": true
        } ]
      } ],
      "code": {
        "coding": [ {
          "system": "http://snomed.info/sct",
          "code": "77675002",
          "display": "Anorexia nervosa, restricting type (disorder)",
          "userSelected": true
        } ]
      },
      "subject": {
        "reference": "Patient/7a61226f-6ed7-4fa9-9055-5e9b0234db9b"
      },
      "onsetPeriod": {
        "start": "2026-07-14T08:00:00.000+00:00"
      },
      "recordedDate": "2026-07-14T08:15:00.000+00:00"
    },
    "request": {
      "method": "PUT",
      "url": "Condition/3aed0ee4-c9e8-4456-827c-75823a47f253"
    }
  }, {
    "fullUrl": "https://madie.cms.gov/Observation/a1ee8708-4005-4ea8-8f9d-4a9a3f34cd5b",
    "resource": {
      "resourceType": "Observation",
      "id": "a1ee8708-4005-4ea8-8f9d-4a9a3f34cd5b",
      "meta": {
        "profile": [ "http://hl7.org/fhir/us/qicore/StructureDefinition/qicore-observation-screening-assessment" ]
      },
      "status": "final",
      "category": [ {
        "coding": [ {
          "system": "http://terminology.hl7.org/CodeSystem/observation-category",
          "code": "survey",
          "display": "Survey"
        } ]
      } ],
      "code": {
        "coding": [ {
          "system": "http://loinc.org",
          "code": "98967-3",
          "display": "Nutritional Risk Screening 2002 panel",
          "userSelected": true
        } ]
      },
      "subject": {
        "reference": "Patient/7a61226f-6ed7-4fa9-9055-5e9b0234db9b"
      },
      "effectiveDateTime": "2026-07-15T08:00:00.000+00:00",
      "valueCodeableConcept": {
        "coding": [ {
          "system": "http://snomed.info/sct",
          "code": "704361005",
          "display": "At increased risk of deficient food intake (finding)",
          "userSelected": true
        } ]
      }
    },
    "request": {
      "method": "PUT",
      "url": "Observation/a1ee8708-4005-4ea8-8f9d-4a9a3f34cd5b"
    }
  }, {
    "fullUrl": "https://madie.cms.gov/Observation/91835c4f-0fec-422e-9cda-ba218a7f9e8a",
    "resource": {
      "resourceType": "Observation",
      "id": "91835c4f-0fec-422e-9cda-ba218a7f9e8a",
      "meta": {
        "profile": [ "http://hl7.org/fhir/us/qicore/StructureDefinition/qicore-observation-screening-assessment" ]
      },
      "status": "final",
      "category": [ {
        "coding": [ {
          "system": "http://terminology.hl7.org/CodeSystem/observation-category",
          "code": "survey",
          "display": "Survey"
        } ]
      } ],
      "code": {
        "coding": [ {
          "system": "http://loinc.org",
          "code": "75285-7",
          "display": "Comparative nutrition assessment standards panel",
          "userSelected": true
        } ]
      },
      "subject": {
        "reference": "Patient/7a61226f-6ed7-4fa9-9055-5e9b0234db9b"
      },
      "effectiveDateTime": "2026-07-16T07:00:00.000+00:00",
      "valueCodeableConcept": {
        "coding": [ {
          "system": "http://snomed.info/sct",
          "code": "190606006",
          "display": "Moderate protein energy malnutrition (disorder)",
          "userSelected": true
        } ]
      }
    },
    "request": {
      "method": "PUT",
      "url": "Observation/91835c4f-0fec-422e-9cda-ba218a7f9e8a"
    }
  }, {
    "fullUrl": "https://madie.cms.gov/Observation/a1ee8708-4005-4ea8-8f9d-4a9a3f34cd5b",
    "resource": {
      "resourceType": "Observation",
      "id": "a1ee8708-4005-4ea8-8f9d-4a9a3f34cd5b",
      "meta": {
        "profile": [ "http://hl7.org/fhir/us/qicore/StructureDefinition/qicore-observation-screening-assessment" ]
      },
      "status": "final",
      "category": [ {
        "coding": [ {
          "system": "http://terminology.hl7.org/CodeSystem/observation-category",
          "code": "survey",
          "display": "Survey"
        } ]
      } ],
      "code": {
        "coding": [ {
          "system": "http://loinc.org",
          "code": "75285-7",
          "display": "Comparative nutrition assessment standards panel",
          "userSelected": true
        } ]
      },
      "subject": {
        "reference": "Patient/7a61226f-6ed7-4fa9-9055-5e9b0234db9b"
      },
      "effectiveDateTime": "2026-07-14T08:00:00.000+00:00",
      "valueCodeableConcept": {
        "coding": [ {
          "system": "http://loinc.org",
          "code": "LA33701-6",
          "display": "Well nourished",
          "userSelected": true
        } ]
      }
    },
    "request": {
      "method": "PUT",
      "url": "Observation/a1ee8708-4005-4ea8-8f9d-4a9a3f34cd5b"
    }
  }, {
    "fullUrl": "https://madie.cms.gov/Procedure/f2b097d8-481d-4644-a606-c7a86a34ff78",
    "resource": {
      "resourceType": "Procedure",
      "id": "f2b097d8-481d-4644-a606-c7a86a34ff78",
      "meta": {
        "profile": [ "http://hl7.org/fhir/us/qicore/StructureDefinition/qicore-procedure" ]
      },
      "extension": [ {
        "url": "http://hl7.org/fhir/us/qicore/StructureDefinition/qicore-recorded",
        "valueDateTime": "2026-02-02T11:30:00.000+00:00"
      } ],
      "status": "completed",
      "code": {
        "coding": [ {
          "system": "http://snomed.info/sct",
          "code": "445101000124100",
          "display": "Collaborating in nutrition therapy (procedure)"
        } ],
        "text": "Collaborating in nutrition therapy (procedure)"
      },
      "subject": {
        "reference": "Patient/7a61226f-6ed7-4fa9-9055-5e9b0234db9b"
      },
      "encounter": {
        "reference": "Encounter/MildAsseThenModAsseMSROBSPass4"
      },
      "performedPeriod": {
        "start": "2026-07-14T08:00:00.000+00:00",
        "end": "2026-07-14T08:15:00.000+00:00"
      }
    },
    "request": {
      "method": "PUT",
      "url": "Procedure/f2b097d8-481d-4644-a606-c7a86a34ff78"
    }
  }, {
    "fullUrl": "https://madie.cms.gov/Coverage/51c2bbd2-1f77-47f2-9428-31ff902a4999",
    "resource": {
      "resourceType": "Coverage",
      "id": "51c2bbd2-1f77-47f2-9428-31ff902a4999",
      "meta": {
        "profile": [ "http://hl7.org/fhir/us/qicore/StructureDefinition/qicore-coverage" ]
      },
      "status": "active",
      "type": {
        "coding": [ {
          "system": "https://nahdo.org/sopt",
          "version": "9.2",
          "code": "11",
          "display": "Medicare Managed Care (Includes Medicare Advantage Plans)"
        } ]
      },
      "subscriberId": "97531",
      "beneficiary": {
        "reference": "Patient/7a61226f-6ed7-4fa9-9055-5e9b0234db9b"
      },
      "dependent": "0",
      "relationship": {
        "coding": [ {
          "system": "http://terminology.hl7.org/CodeSystem/subscriber-relationship",
          "code": "self"
        } ]
      },
      "period": {
        "start": "2026-10-01T00:00:00.000+00:00"
      },
      "payor": [ {
        "reference": "Organization/e635354a-570e-4394-84c1-2269a3148821"
      } ]
    },
    "request": {
      "method": "PUT",
      "url": "Coverage/51c2bbd2-1f77-47f2-9428-31ff902a4999"
    }
  }, {
    "fullUrl": "https://madie.cms.gov/Organization/e635354a-570e-4394-84c1-2269a3148821",
    "resource": {
      "resourceType": "Organization",
      "id": "e635354a-570e-4394-84c1-2269a3148821",
      "meta": {
        "profile": [ "http://hl7.org/fhir/us/qicore/StructureDefinition/qicore-organization" ]
      },
      "identifier": [ {
        "use": "temp",
        "system": "urn:oid:2.16.840.1.113883.4.4",
        "value": "21-3259825"
      } ],
      "active": true,
      "type": [ {
        "coding": [ {
          "system": "http://terminology.hl7.org/CodeSystem/organization-type",
          "code": "pay",
          "display": "Payer"
        } ]
      } ],
      "name": "Blue Cross Blue Shield of Texas",
      "telecom": [ {
        "system": "phone",
        "value": "(+1) 972-766-6900"
      } ],
      "address": [ {
        "use": "billing",
        "type": "postal",
        "line": [ "P.O. Box 660044" ],
        "city": "Dallas",
        "state": "TX",
        "postalCode": "75266-0044",
        "country": "USA"
      } ]
    },
    "request": {
      "method": "PUT",
      "url": "Organization/e635354a-570e-4394-84c1-2269a3148821"
    }
  }, {
    "fullUrl": "https://madie.cms.gov/MeasureReport/55a10cad-3c0c-4558-9931-92ed8f409c8f",
    "resource": {
      "resourceType": "MeasureReport",
      "id": "55a10cad-3c0c-4558-9931-92ed8f409c8f",
      "meta": {
        "profile": [ "http://hl7.org/fhir/us/cqfmeasures/StructureDefinition/test-case-cqfm" ]
      },
      "contained": [ {
        "resourceType": "Parameters",
        "id": "1371e5b3-cece-450f-b893-0eb3ef34571f-parameters",
        "parameter": [ {
          "name": "subject",
          "valueString": "7a61226f-6ed7-4fa9-9055-5e9b0234db9b"
        } ]
      } ],
      "extension": [ {
        "url": "http://hl7.org/fhir/StructureDefinition/cqf-inputParameters",
        "valueReference": {
          "reference": "#1371e5b3-cece-450f-b893-0eb3ef34571f-parameters"
        }
      }, {
        "url": "http://hl7.org/fhir/us/cqfmeasures/StructureDefinition/cqfm-testCaseDescription",
        "valueMarkdown": "Screened, At Risk, No Referral, Assessed,  Not/Mildly Malnourished, then mod malnourished, Diagnosis, Nutrition Care Plan"
      } ],
      "modifierExtension": [ {
        "url": "http://hl7.org/fhir/us/cqfmeasures/StructureDefinition/cqfm-isTestCase",
        "valueBoolean": true
      } ],
      "status": "complete",
      "type": "individual",
      "measure": "https://madie.cms.gov/Measure/CMS986FHIRMalnutritionScore",
      "period": {
        "start": "2026-01-01",
        "end": "2026-12-31"
      },
      "group": [ {
        "id": "Group_1",
        "population": [ {
          "id": "InitialPopulation_1",
          "code": {
            "coding": [ {
              "system": "http://terminology.hl7.org/CodeSystem/measure-population",
              "code": "initial-population",
              "display": "Initial Population"
            } ]
          },
          "count": 1
        }, {
          "id": "MeasurePopulation_1",
          "code": {
            "coding": [ {
              "system": "http://terminology.hl7.org/CodeSystem/measure-population",
              "code": "measure-population",
              "display": "Measure Population"
            } ]
          },
          "count": 1
        }, {
          "id": "MeasurePopulationExclusion_1",
          "code": {
            "coding": [ {
              "system": "http://terminology.hl7.org/CodeSystem/measure-population",
              "code": "measure-population-exclusion",
              "display": "Measure Population Exclusion"
            } ]
          },
          "count": 0
        }, {
          "id": "MeasureObservation_1_1",
          "code": {
            "coding": [ {
              "system": "http://terminology.hl7.org/CodeSystem/measure-population",
              "code": "measure-population-observation",
              "display": "Measure Population Observation"
            } ]
          },
          "count": 1
        } ],
        "measureScore": {
          "value": 0.0
        }
      }, {
        "id": "Group_2",
        "population": [ {
          "id": "InitialPopulation_2",
          "code": {
            "coding": [ {
              "system": "http://terminology.hl7.org/CodeSystem/measure-population",
              "code": "initial-population",
              "display": "Initial Population"
            } ]
          },
          "count": 1
        }, {
          "id": "MeasurePopulation_2",
          "code": {
            "coding": [ {
              "system": "http://terminology.hl7.org/CodeSystem/measure-population",
              "code": "measure-population",
              "display": "Measure Population"
            } ]
          },
          "count": 1
        }, {
          "id": "MeasurePopulationExclusion_2",
          "code": {
            "coding": [ {
              "system": "http://terminology.hl7.org/CodeSystem/measure-population",
              "code": "measure-population-exclusion",
              "display": "Measure Population Exclusion"
            } ]
          },
          "count": 0
        }, {
          "id": "MeasureObservation_2_1",
          "code": {
            "coding": [ {
              "system": "http://terminology.hl7.org/CodeSystem/measure-population",
              "code": "measure-population-observation",
              "display": "Measure Population Observation"
            } ]
          },
          "count": 1
        } ],
        "measureScore": {
          "value": 0.0
        }
      }, {
        "id": "Group_3",
        "population": [ {
          "id": "InitialPopulation_3",
          "code": {
            "coding": [ {
              "system": "http://terminology.hl7.org/CodeSystem/measure-population",
              "code": "initial-population",
              "display": "Initial Population"
            } ]
          },
          "count": 1
        }, {
          "id": "MeasurePopulation_3",
          "code": {
            "coding": [ {
              "system": "http://terminology.hl7.org/CodeSystem/measure-population",
              "code": "measure-population",
              "display": "Measure Population"
            } ]
          },
          "count": 1
        }, {
          "id": "MeasurePopulationExclusion_3",
          "code": {
            "coding": [ {
              "system": "http://terminology.hl7.org/CodeSystem/measure-population",
              "code": "measure-population-exclusion",
              "display": "Measure Population Exclusion"
            } ]
          },
          "count": 0
        }, {
          "id": "MeasureObservation_3_1",
          "code": {
            "coding": [ {
              "system": "http://terminology.hl7.org/CodeSystem/measure-population",
              "code": "measure-population-observation",
              "display": "Measure Population Observation"
            } ]
          },
          "count": 1
        } ],
        "measureScore": {
          "value": 0.0
        }
      }, {
        "id": "Group_4",
        "population": [ {
          "id": "InitialPopulation_4",
          "code": {
            "coding": [ {
              "system": "http://terminology.hl7.org/CodeSystem/measure-population",
              "code": "initial-population",
              "display": "Initial Population"
            } ]
          },
          "count": 1
        }, {
          "id": "MeasurePopulation_4",
          "code": {
            "coding": [ {
              "system": "http://terminology.hl7.org/CodeSystem/measure-population",
              "code": "measure-population",
              "display": "Measure Population"
            } ]
          },
          "count": 1
        }, {
          "id": "MeasurePopulationExclusion_4",
          "code": {
            "coding": [ {
              "system": "http://terminology.hl7.org/CodeSystem/measure-population",
              "code": "measure-population-exclusion",
              "display": "Measure Population Exclusion"
            } ]
          },
          "count": 0
        }, {
          "id": "MeasureObservation_4_1",
          "code": {
            "coding": [ {
              "system": "http://terminology.hl7.org/CodeSystem/measure-population",
              "code": "measure-population-observation",
              "display": "Measure Population Observation"
            } ]
          },
          "count": 1
        } ],
        "measureScore": {
          "value": 0.0
        }
      }, {
        "id": "Group_5",
        "population": [ {
          "id": "InitialPopulation_5",
          "code": {
            "coding": [ {
              "system": "http://terminology.hl7.org/CodeSystem/measure-population",
              "code": "initial-population",
              "display": "Initial Population"
            } ]
          },
          "count": 1
        }, {
          "id": "MeasurePopulation_5",
          "code": {
            "coding": [ {
              "system": "http://terminology.hl7.org/CodeSystem/measure-population",
              "code": "measure-population",
              "display": "Measure Population"
            } ]
          },
          "count": 1
        }, {
          "id": "MeasurePopulationExclusion_5",
          "code": {
            "coding": [ {
              "system": "http://terminology.hl7.org/CodeSystem/measure-population",
              "code": "measure-population-exclusion",
              "display": "Measure Population Exclusion"
            } ]
          },
          "count": 0
        }, {
          "id": "MeasureObservation_5_1",
          "code": {
            "coding": [ {
              "system": "http://terminology.hl7.org/CodeSystem/measure-population",
              "code": "measure-population-observation",
              "display": "Measure Population Observation"
            } ]
          },
          "count": 4
        } ],
        "measureScore": {
          "value": 0.0
        }
      }, {
        "id": "Group_6",
        "population": [ {
          "id": "InitialPopulation_6",
          "code": {
            "coding": [ {
              "system": "http://terminology.hl7.org/CodeSystem/measure-population",
              "code": "initial-population",
              "display": "Initial Population"
            } ]
          },
          "count": 1
        }, {
          "id": "MeasurePopulation_6",
          "code": {
            "coding": [ {
              "system": "http://terminology.hl7.org/CodeSystem/measure-population",
              "code": "measure-population",
              "display": "Measure Population"
            } ]
          },
          "count": 1
        }, {
          "id": "MeasurePopulationExclusion_6",
          "code": {
            "coding": [ {
              "system": "http://terminology.hl7.org/CodeSystem/measure-population",
              "code": "measure-population-exclusion",
              "display": "Measure Population Exclusion"
            } ]
          },
          "count": 0
        }, {
          "id": "MeasureObservation_6_1",
          "code": {
            "coding": [ {
              "system": "http://terminology.hl7.org/CodeSystem/measure-population",
              "code": "measure-population-observation",
              "display": "Measure Population Observation"
            } ]
          },
          "count": 100
        } ],
        "measureScore": {
          "value": 0.0
        }
      } ],
      "evaluatedResource": [ {
        "reference": "Patient/7a61226f-6ed7-4fa9-9055-5e9b0234db9b"
      }, {
        "reference": "Encounter/c9b9c6e8-dafc-44bf-bd98-5521dd25e2af"
      }, {
        "reference": "Condition/3aed0ee4-c9e8-4456-827c-75823a47f253"
      }, {
        "reference": "Observation/a1ee8708-4005-4ea8-8f9d-4a9a3f34cd5b"
      }, {
        "reference": "Observation/91835c4f-0fec-422e-9cda-ba218a7f9e8a"
      }, {
        "reference": "Observation/a1ee8708-4005-4ea8-8f9d-4a9a3f34cd5b"
      }, {
        "reference": "Procedure/f2b097d8-481d-4644-a606-c7a86a34ff78"
      }, {
        "reference": "Coverage/51c2bbd2-1f77-47f2-9428-31ff902a4999"
      }, {
        "reference": "Organization/e635354a-570e-4394-84c1-2269a3148821"
      } ]
    },
    "request": {
      "method": "PUT",
      "url": "MeasureReport/55a10cad-3c0c-4558-9931-92ed8f409c8f"
    }
  } ]
}