{
  "resourceType": "Bundle",
  "id": "62ec3038ea03a4ebacd6a088",
  "type": "transaction",
  "entry": [ {
    "fullUrl": "https://madie.cms.gov/Patient/6f04cfd6-8557-4eff-84cb-9d3ed094dc4b",
    "resource": {
      "resourceType": "Patient",
      "id": "6f04cfd6-8557-4eff-84cb-9d3ed094dc4b",
      "meta": {
        "profile": [ "http://hl7.org/fhir/us/qicore/StructureDefinition/qicore-patient" ]
      },
      "extension": [ {
        "url": "http://hl7.org/fhir/us/core/StructureDefinition/us-core-race",
        "extension": [ {
          "url": "ombCategory",
          "valueCoding": {
            "system": "urn:oid:2.16.840.1.113883.6.238",
            "code": "1002-5",
            "display": "American Indian or Alaska Native",
            "userSelected": true
          }
        }, {
          "url": "text",
          "valueString": "American Indian or Alaska Native"
        } ]
      }, {
        "url": "http://hl7.org/fhir/us/core/StructureDefinition/us-core-ethnicity",
        "extension": [ {
          "url": "ombCategory",
          "valueCoding": {
            "system": "urn:oid:2.16.840.1.113883.6.238",
            "code": "2135-2",
            "display": "Hispanic or Latino",
            "userSelected": true
          }
        }, {
          "url": "text",
          "valueString": "Hispanic or Latino"
        } ]
      } ],
      "identifier": [ {
        "type": {
          "coding": [ {
            "system": "http://terminology.hl7.org/CodeSystem/v2-0203",
            "code": "MR"
          } ]
        },
        "system": "https://bonnie-fhir.healthit.gov/",
        "value": "62ec3038ea03a4ebacd6a088"
      } ],
      "name": [ {
        "family": "NumerFail",
        "given": [ "MedsNoDocStatusNotValid" ]
      } ],
      "gender": "unknown",
      "birthDate": "1967-01-19"
    },
    "request": {
      "method": "PUT",
      "url": "Patient/6f04cfd6-8557-4eff-84cb-9d3ed094dc4b"
    }
  }, {
    "fullUrl": "https://madie.cms.gov/Encounter/c438fcc5-c40d-43f7-a7c9-733a57b1ff05",
    "resource": {
      "resourceType": "Encounter",
      "id": "c438fcc5-c40d-43f7-a7c9-733a57b1ff05",
      "meta": {
        "profile": [ "http://hl7.org/fhir/us/qicore/StructureDefinition/qicore-encounter" ]
      },
      "status": "finished",
      "class": {
        "system": "http://terminology.hl7.org/CodeSystem/v3-ActCode",
        "code": "IMP",
        "display": "inpatient encounter"
      },
      "type": [ {
        "coding": [ {
          "system": "http://snomed.info/sct",
          "version": "2022-03",
          "code": "10197000",
          "display": "Psychiatric interview and evaluation (procedure)",
          "userSelected": true
        } ]
      } ],
      "subject": {
        "reference": "Patient/6f04cfd6-8557-4eff-84cb-9d3ed094dc4b"
      },
      "period": {
        "start": "2026-12-30T13:00:00.000+00:00",
        "end": "2026-12-30T14:15:00.000+00:00"
      }
    },
    "request": {
      "method": "PUT",
      "url": "Encounter/c438fcc5-c40d-43f7-a7c9-733a57b1ff05"
    }
  }, {
    "fullUrl": "https://madie.cms.gov/Task/8f833e82-20a9-40c8-82de-b1770fa94624",
    "resource": {
      "resourceType": "Task",
      "id": "8f833e82-20a9-40c8-82de-b1770fa94624",
      "meta": {
        "profile": [ "http://hl7.org/fhir/us/qicore/StructureDefinition/qicore-task" ]
      },
      "identifier": [ {
        "use": "official",
        "system": "http:/goodhealth.org/identifiers",
        "value": "20170201-002"
      } ],
      "status": "ready",
      "intent": "proposal",
      "priority": "routine",
      "code": {
        "coding": [ {
          "system": "http://snomed.info/sct",
          "code": "428191000124101",
          "display": "Documentation of current medications (procedure)",
          "userSelected": true
        } ]
      },
      "for": {
        "reference": "Patient/6f04cfd6-8557-4eff-84cb-9d3ed094dc4b"
      },
      "executionPeriod": {
        "start": "2026-12-30T13:45:00+10:00"
      },
      "authoredOn": "2026-12-30T13:45:00.000+00:00"
    },
    "request": {
      "method": "PUT",
      "url": "Task/8f833e82-20a9-40c8-82de-b1770fa94624"
    }
  }, {
    "fullUrl": "https://madie.cms.gov/MeasureReport/a19fbb92-e9b2-493c-a79e-21e2cd712ceb",
    "resource": {
      "resourceType": "MeasureReport",
      "id": "a19fbb92-e9b2-493c-a79e-21e2cd712ceb",
      "meta": {
        "profile": [ "http://hl7.org/fhir/us/cqfmeasures/StructureDefinition/test-case-cqfm" ]
      },
      "contained": [ {
        "resourceType": "Parameters",
        "id": "f6f48ff2-9274-4973-bdf0-47233602b57c-parameters",
        "parameter": [ {
          "name": "subject",
          "valueString": "6f04cfd6-8557-4eff-84cb-9d3ed094dc4b"
        } ]
      } ],
      "extension": [ {
        "url": "http://hl7.org/fhir/StructureDefinition/cqf-inputParameters",
        "valueReference": {
          "reference": "#f6f48ff2-9274-4973-bdf0-47233602b57c-parameters"
        }
      }, {
        "url": "http://hl7.org/fhir/us/cqfmeasures/StructureDefinition/cqfm-testCaseDescription",
        "valueMarkdown": "Qualifying encounter (status finished) during MP Start is after end. Medications documented before encounter period (edge test) status = accepted"
      } ],
      "modifierExtension": [ {
        "url": "http://hl7.org/fhir/us/cqfmeasures/StructureDefinition/cqfm-isTestCase",
        "valueBoolean": true
      } ],
      "status": "complete",
      "type": "individual",
      "measure": "https://madie.cms.gov/Measure/CMS68FHIRDocumentationofCurrentMedications",
      "period": {
        "start": "2026-01-01",
        "end": "2026-12-31"
      },
      "group": [ {
        "id": "Group_1",
        "population": [ {
          "id": "InitialPopulation_1",
          "code": {
            "coding": [ {
              "system": "http://terminology.hl7.org/CodeSystem/measure-population",
              "code": "initial-population",
              "display": "Initial Population"
            } ]
          },
          "count": 1
        }, {
          "id": "Denominator_1",
          "code": {
            "coding": [ {
              "system": "http://terminology.hl7.org/CodeSystem/measure-population",
              "code": "denominator",
              "display": "Denominator"
            } ]
          },
          "count": 1
        }, {
          "id": "Numerator_1",
          "code": {
            "coding": [ {
              "system": "http://terminology.hl7.org/CodeSystem/measure-population",
              "code": "numerator",
              "display": "Numerator"
            } ]
          },
          "count": 0
        }, {
          "id": "DenominatorException_1",
          "code": {
            "coding": [ {
              "system": "http://terminology.hl7.org/CodeSystem/measure-population",
              "code": "denominator-exception",
              "display": "Denominator Exception"
            } ]
          },
          "count": 0
        } ],
        "measureScore": {
          "value": 0.0
        }
      } ],
      "evaluatedResource": [ {
        "reference": "Patient/6f04cfd6-8557-4eff-84cb-9d3ed094dc4b"
      }, {
        "reference": "Encounter/c438fcc5-c40d-43f7-a7c9-733a57b1ff05"
      }, {
        "reference": "Task/8f833e82-20a9-40c8-82de-b1770fa94624"
      } ]
    },
    "request": {
      "method": "PUT",
      "url": "MeasureReport/a19fbb92-e9b2-493c-a79e-21e2cd712ceb"
    }
  } ]
}