{
  "resourceType": "Bundle",
  "id": "Patient-10-DENEXPass-FrailtyDeviceUsed",
  "type": "transaction",
  "entry": [ {
    "fullUrl": "https://madie.cms.gov/Patient/cade5021-b1bf-43e9-a0a4-659c05b386d0",
    "resource": {
      "resourceType": "Patient",
      "id": "cade5021-b1bf-43e9-a0a4-659c05b386d0",
      "meta": {
        "profile": [ "http://hl7.org/fhir/us/qicore/StructureDefinition/qicore-patient" ]
      },
      "extension": [ {
        "url": "http://hl7.org/fhir/us/core/StructureDefinition/us-core-race",
        "extension": [ {
          "url": "ombCategory",
          "valueCoding": {
            "system": "urn:oid:2.16.840.1.113883.6.238",
            "code": "2028-9",
            "display": "Asian"
          }
        }, {
          "url": "text",
          "valueString": "Asian"
        } ]
      }, {
        "url": "http://hl7.org/fhir/us/core/StructureDefinition/us-core-ethnicity",
        "extension": [ {
          "url": "ombCategory",
          "valueCoding": {
            "system": "urn:oid:2.16.840.1.113883.6.238",
            "code": "2135-2",
            "display": "Hispanic or Latino"
          }
        }, {
          "url": "text",
          "valueString": "Hispanic or Latino"
        } ]
      } ],
      "identifier": [ {
        "system": "http://hospital.smarthealthit.org",
        "value": "999999995"
      } ],
      "name": [ {
        "family": "Bertha",
        "given": [ "Betty" ]
      } ],
      "gender": "female",
      "birthDate": "1958-12-31"
    },
    "request": {
      "method": "PUT",
      "url": "Patient/cade5021-b1bf-43e9-a0a4-659c05b386d0"
    }
  }, {
    "fullUrl": "https://madie.cms.gov/Encounter/2593f955-dfc5-4a5d-acee-840721a8274c",
    "resource": {
      "resourceType": "Encounter",
      "id": "2593f955-dfc5-4a5d-acee-840721a8274c",
      "meta": {
        "profile": [ "http://hl7.org/fhir/us/qicore/StructureDefinition/qicore-encounter" ]
      },
      "status": "finished",
      "class": {
        "system": "http://terminology.hl7.org/CodeSystem/v3-ActCode",
        "code": "AMB",
        "display": "ambulatory"
      },
      "type": [ {
        "coding": [ {
          "system": "http://snomed.info/sct",
          "code": "185460008",
          "display": "Home visit request by patient (procedure)"
        } ]
      } ],
      "subject": {
        "reference": "Patient/cade5021-b1bf-43e9-a0a4-659c05b386d0"
      },
      "period": {
        "start": "2026-01-01T00:00:00.000+00:00",
        "end": "2026-01-01T00:15:00.000+00:00"
      }
    },
    "request": {
      "method": "PUT",
      "url": "Encounter/2593f955-dfc5-4a5d-acee-840721a8274c"
    }
  }, {
    "fullUrl": "https://madie.cms.gov/Condition/8cc947b3-cdf4-4a33-b59d-d4043f07945f",
    "resource": {
      "resourceType": "Condition",
      "id": "8cc947b3-cdf4-4a33-b59d-d4043f07945f",
      "meta": {
        "profile": [ "http://hl7.org/fhir/us/qicore/StructureDefinition/qicore-condition-encounter-diagnosis" ]
      },
      "clinicalStatus": {
        "coding": [ {
          "system": "http://terminology.hl7.org/CodeSystem/condition-clinical",
          "code": "active"
        } ]
      },
      "category": [ {
        "coding": [ {
          "system": "http://terminology.hl7.org/CodeSystem/condition-category",
          "code": "encounter-diagnosis",
          "display": "Encounter Diagnosis"
        } ]
      } ],
      "code": {
        "coding": [ {
          "system": "http://snomed.info/sct",
          "code": "102781000119107",
          "display": "Sensory neuropathy due to type 1 diabetes mellitus (disorder)"
        } ]
      },
      "subject": {
        "reference": "Patient/cade5021-b1bf-43e9-a0a4-659c05b386d0"
      },
      "onsetDateTime": "2026-01-01T23:59:00.000+00:00"
    },
    "request": {
      "method": "PUT",
      "url": "Condition/8cc947b3-cdf4-4a33-b59d-d4043f07945f"
    }
  }, {
    "fullUrl": "https://madie.cms.gov/MedicationRequest/6563a26b-bc0d-4c05-b419-6d3398657262",
    "resource": {
      "resourceType": "MedicationRequest",
      "id": "6563a26b-bc0d-4c05-b419-6d3398657262",
      "meta": {
        "profile": [ "http://hl7.org/fhir/us/qicore/StructureDefinition/qicore-medicationrequest" ]
      },
      "status": "active",
      "intent": "order",
      "doNotPerform": false,
      "medicationCodeableConcept": {
        "coding": [ {
          "system": "http://www.nlm.nih.gov/research/umls/rxnorm",
          "code": "312836",
          "display": "rivastigmine 6 MG Oral Capsule"
        } ]
      },
      "subject": {
        "reference": "Patient/cade5021-b1bf-43e9-a0a4-659c05b386d0"
      },
      "authoredOn": "2026-01-01T00:00:00.000+00:00",
      "requester": {
        "reference": "Practitioner/example"
      },
      "dispenseRequest": {
        "expectedSupplyDuration": {
          "value": 90,
          "system": "http://unitsofmeasure.org",
          "code": "days"
        }
      }
    },
    "request": {
      "method": "PUT",
      "url": "MedicationRequest/6563a26b-bc0d-4c05-b419-6d3398657262"
    }
  }, {
    "fullUrl": "https://madie.cms.gov/Observation/8e3ca1fe-c67a-4f76-b942-3e0c0012cba6",
    "resource": {
      "resourceType": "Observation",
      "id": "8e3ca1fe-c67a-4f76-b942-3e0c0012cba6",
      "meta": {
        "profile": [ "http://hl7.org/fhir/us/qicore/StructureDefinition/qicore-observation-screening-assessment" ]
      },
      "status": "final",
      "category": [ {
        "coding": [ {
          "system": "http://terminology.hl7.org/CodeSystem/observation-category",
          "code": "survey"
        } ]
      } ],
      "code": {
        "coding": [ {
          "system": "http://loinc.org",
          "code": "98181-1",
          "display": "Medical equipment used"
        } ]
      },
      "subject": {
        "reference": "Patient/cade5021-b1bf-43e9-a0a4-659c05b386d0"
      },
      "effectivePeriod": {
        "start": "2026-01-01T00:00:00.000+00:00",
        "end": "2026-01-01T01:00:00.000+00:00"
      },
      "valueCodeableConcept": {
        "coding": [ {
          "system": "http://snomed.info/sct",
          "code": "262177002",
          "display": "Static oxygen cylinder (physical object)"
        } ]
      }
    },
    "request": {
      "method": "PUT",
      "url": "Observation/8e3ca1fe-c67a-4f76-b942-3e0c0012cba6"
    }
  }, {
    "fullUrl": "https://madie.cms.gov/MeasureReport/a9f2e77c-b0e2-4d4a-bae7-416538538377",
    "resource": {
      "resourceType": "MeasureReport",
      "id": "a9f2e77c-b0e2-4d4a-bae7-416538538377",
      "meta": {
        "profile": [ "http://hl7.org/fhir/us/cqfmeasures/StructureDefinition/test-case-cqfm" ]
      },
      "contained": [ {
        "resourceType": "Parameters",
        "id": "71faee26-cd05-47e8-9db8-a052e35da4f9-parameters",
        "parameter": [ {
          "name": "subject",
          "valueString": "cade5021-b1bf-43e9-a0a4-659c05b386d0"
        } ]
      } ],
      "extension": [ {
        "url": "http://hl7.org/fhir/StructureDefinition/cqf-inputParameters",
        "valueReference": {
          "reference": "#71faee26-cd05-47e8-9db8-a052e35da4f9-parameters"
        }
      }, {
        "url": "http://hl7.org/fhir/us/cqfmeasures/StructureDefinition/cqfm-testCaseDescription",
        "valueMarkdown": "Frailty device used"
      } ],
      "modifierExtension": [ {
        "url": "http://hl7.org/fhir/us/cqfmeasures/StructureDefinition/cqfm-isTestCase",
        "valueBoolean": true
      } ],
      "status": "complete",
      "type": "individual",
      "measure": "https://madie.cms.gov/Measure/CMS122FHIRDiabetesAssessGreaterThan9Percent",
      "period": {
        "start": "2026-01-01",
        "end": "2026-12-31"
      },
      "group": [ {
        "id": "Group_1",
        "population": [ {
          "id": "InitialPopulation_1",
          "code": {
            "coding": [ {
              "system": "http://terminology.hl7.org/CodeSystem/measure-population",
              "code": "initial-population",
              "display": "Initial Population"
            } ]
          },
          "count": 1
        }, {
          "id": "Denominator_1",
          "code": {
            "coding": [ {
              "system": "http://terminology.hl7.org/CodeSystem/measure-population",
              "code": "denominator",
              "display": "Denominator"
            } ]
          },
          "count": 1
        }, {
          "id": "DenominatorExclusion_1",
          "code": {
            "coding": [ {
              "system": "http://terminology.hl7.org/CodeSystem/measure-population",
              "code": "denominator-exclusion",
              "display": "Denominator Exclusion"
            } ]
          },
          "count": 1
        }, {
          "id": "Numerator_1",
          "code": {
            "coding": [ {
              "system": "http://terminology.hl7.org/CodeSystem/measure-population",
              "code": "numerator",
              "display": "Numerator"
            } ]
          },
          "count": 0
        } ],
        "measureScore": {
          "value": 1.0
        }
      } ],
      "evaluatedResource": [ {
        "reference": "Patient/cade5021-b1bf-43e9-a0a4-659c05b386d0"
      }, {
        "reference": "Encounter/2593f955-dfc5-4a5d-acee-840721a8274c"
      }, {
        "reference": "Condition/8cc947b3-cdf4-4a33-b59d-d4043f07945f"
      }, {
        "reference": "MedicationRequest/6563a26b-bc0d-4c05-b419-6d3398657262"
      }, {
        "reference": "Observation/8e3ca1fe-c67a-4f76-b942-3e0c0012cba6"
      } ]
    },
    "request": {
      "method": "PUT",
      "url": "MeasureReport/a9f2e77c-b0e2-4d4a-bae7-416538538377"
    }
  } ]
}