{
  "resourceType": "Bundle",
  "id": "654634131341",
  "type": "transaction",
  "entry": [ {
    "fullUrl": "https://madie.cms.gov/Patient/c58e088d-0b16-4e3d-aaad-3577cdec75d3",
    "resource": {
      "resourceType": "Patient",
      "id": "c58e088d-0b16-4e3d-aaad-3577cdec75d3",
      "meta": {
        "profile": [ "http://hl7.org/fhir/us/qicore/StructureDefinition/qicore-patient" ]
      },
      "extension": [ {
        "url": "http://hl7.org/fhir/us/core/StructureDefinition/us-core-race",
        "extension": [ {
          "url": "ombCategory",
          "valueCoding": {
            "system": "urn:oid:2.16.840.1.113883.6.238",
            "code": "1002-5",
            "display": "American Indian or Alaska Native"
          }
        }, {
          "url": "text",
          "valueString": "American Indian or Alaska Native"
        } ]
      }, {
        "url": "http://hl7.org/fhir/us/core/StructureDefinition/us-core-ethnicity",
        "extension": [ {
          "url": "ombCategory",
          "valueCoding": {
            "system": "urn:oid:2.16.840.1.113883.6.238",
            "code": "2135-2",
            "display": "Hispanic or Latino"
          }
        }, {
          "url": "text",
          "valueString": "Hispanic or Latino"
        } ]
      } ],
      "identifier": [ {
        "type": {
          "coding": [ {
            "system": "http://terminology.hl7.org/CodeSystem/v2-0203",
            "code": "MR"
          } ]
        },
        "system": "https://bonnie-fhir.healthit.gov/",
        "value": "645646313131"
      } ],
      "name": [ {
        "family": "DENEXFail",
        "given": [ "LVADCndtnAfterEnctr" ]
      } ],
      "gender": "female",
      "birthDate": "1983-07-27"
    },
    "request": {
      "method": "PUT",
      "url": "Patient/c58e088d-0b16-4e3d-aaad-3577cdec75d3"
    }
  }, {
    "fullUrl": "https://madie.cms.gov/Encounter/6b123f03-8d3d-4fab-ae40-f746907c190f",
    "resource": {
      "resourceType": "Encounter",
      "id": "6b123f03-8d3d-4fab-ae40-f746907c190f",
      "meta": {
        "profile": [ "http://hl7.org/fhir/us/qicore/StructureDefinition/qicore-encounter" ]
      },
      "status": "finished",
      "class": {
        "system": "http://terminology.hl7.org/CodeSystem/v3-ActCode",
        "code": "AMB",
        "display": "ambulatory"
      },
      "type": [ {
        "coding": [ {
          "system": "http://snomed.info/sct",
          "version": "http://snomed.info/sct/731000124108/version/20240301",
          "code": "185463005",
          "display": "Visit out of hours (procedure)"
        } ]
      } ],
      "subject": {
        "reference": "Patient/c58e088d-0b16-4e3d-aaad-3577cdec75d3"
      },
      "period": {
        "start": "2026-02-27T08:00:00.000+00:00",
        "end": "2026-02-27T08:15:00.000+00:00"
      }
    },
    "request": {
      "method": "PUT",
      "url": "Encounter/6b123f03-8d3d-4fab-ae40-f746907c190f"
    }
  }, {
    "fullUrl": "https://madie.cms.gov/Encounter/f692eaf6-8f42-4f8b-a9b4-8298b889f477",
    "resource": {
      "resourceType": "Encounter",
      "id": "f692eaf6-8f42-4f8b-a9b4-8298b889f477",
      "meta": {
        "profile": [ "http://hl7.org/fhir/us/qicore/StructureDefinition/qicore-encounter" ]
      },
      "status": "finished",
      "class": {
        "system": "http://terminology.hl7.org/CodeSystem/v3-ActCode",
        "code": "AMB",
        "display": "ambulatory"
      },
      "type": [ {
        "coding": [ {
          "system": "http://snomed.info/sct",
          "version": "http://snomed.info/sct/731000124108/version/20240301",
          "code": "185463005",
          "display": "Visit out of hours (procedure)"
        } ]
      } ],
      "subject": {
        "reference": "Patient/c58e088d-0b16-4e3d-aaad-3577cdec75d3"
      },
      "period": {
        "start": "2026-06-12T08:00:00.000+00:00",
        "end": "2026-06-12T08:15:00.000+00:00"
      }
    },
    "request": {
      "method": "PUT",
      "url": "Encounter/f692eaf6-8f42-4f8b-a9b4-8298b889f477"
    }
  }, {
    "fullUrl": "https://madie.cms.gov/Condition/9c1b8b64-3be0-420d-b78c-5f2f7e6650ec",
    "resource": {
      "resourceType": "Condition",
      "id": "9c1b8b64-3be0-420d-b78c-5f2f7e6650ec",
      "meta": {
        "profile": [ "http://hl7.org/fhir/us/qicore/StructureDefinition/qicore-condition-problems-health-concerns" ]
      },
      "clinicalStatus": {
        "coding": [ {
          "system": "http://terminology.hl7.org/CodeSystem/condition-clinical",
          "code": "active",
          "display": "Active"
        } ]
      },
      "verificationStatus": {
        "coding": [ {
          "system": "http://terminology.hl7.org/CodeSystem/condition-ver-status",
          "code": "confirmed",
          "display": "Confirmed"
        } ]
      },
      "category": [ {
        "coding": [ {
          "system": "http://terminology.hl7.org/CodeSystem/condition-category",
          "code": "problem-list-item",
          "display": "problem list item"
        } ]
      } ],
      "severity": {
        "coding": [ {
          "system": "http://snomed.info/sct",
          "version": "http://snomed.info/sct/731000124108/version/20240301",
          "code": "24484000",
          "display": "Severe (severity modifier) (qualifier value)"
        } ]
      },
      "code": {
        "coding": [ {
          "system": "http://snomed.info/sct",
          "version": "http://snomed.info/sct/731000124108/version/20240301",
          "code": "134401001",
          "display": "Left ventricular systolic dysfunction (disorder)"
        } ]
      },
      "subject": {
        "reference": "Patient/c58e088d-0b16-4e3d-aaad-3577cdec75d3"
      },
      "onsetPeriod": {
        "start": "2026-02-18T08:00:00.000+00:00",
        "end": "2026-02-18T08:15:00.000+00:00"
      }
    },
    "request": {
      "method": "PUT",
      "url": "Condition/9c1b8b64-3be0-420d-b78c-5f2f7e6650ec"
    }
  }, {
    "fullUrl": "https://madie.cms.gov/Condition/3fc39f8d-3f13-49ea-a30d-05fb4cb2d75e",
    "resource": {
      "resourceType": "Condition",
      "id": "3fc39f8d-3f13-49ea-a30d-05fb4cb2d75e",
      "meta": {
        "profile": [ "http://hl7.org/fhir/us/qicore/StructureDefinition/qicore-condition-problems-health-concerns" ]
      },
      "clinicalStatus": {
        "coding": [ {
          "system": "http://terminology.hl7.org/CodeSystem/condition-clinical",
          "code": "active",
          "display": "Active"
        } ]
      },
      "verificationStatus": {
        "coding": [ {
          "system": "http://terminology.hl7.org/CodeSystem/condition-ver-status",
          "code": "confirmed",
          "display": "Confirmed"
        } ]
      },
      "category": [ {
        "coding": [ {
          "system": "http://terminology.hl7.org/CodeSystem/condition-category",
          "code": "problem-list-item",
          "display": "problem list item"
        } ]
      } ],
      "code": {
        "coding": [ {
          "system": "http://snomed.info/sct",
          "version": "http://snomed.info/sct/731000124108/version/20240301",
          "code": "10091002",
          "display": "High output heart failure (disorder)"
        } ]
      },
      "subject": {
        "reference": "Patient/c58e088d-0b16-4e3d-aaad-3577cdec75d3"
      },
      "onsetPeriod": {
        "start": "2026-02-22T08:00:00.000+00:00"
      }
    },
    "request": {
      "method": "PUT",
      "url": "Condition/3fc39f8d-3f13-49ea-a30d-05fb4cb2d75e"
    }
  }, {
    "fullUrl": "https://madie.cms.gov/Procedure/8aa185ce-0bdb-4527-992a-b41fc6946c88",
    "resource": {
      "resourceType": "Procedure",
      "id": "8aa185ce-0bdb-4527-992a-b41fc6946c88",
      "meta": {
        "profile": [ "http://hl7.org/fhir/us/qicore/StructureDefinition/qicore-procedure" ]
      },
      "extension": [ {
        "url": "http://hl7.org/fhir/us/qicore/StructureDefinition/qicore-recorded",
        "valueDateTime": "2026-01-31T08:00:00.000+00:00"
      } ],
      "status": "completed",
      "code": {
        "coding": [ {
          "system": "http://snomed.info/sct",
          "version": "http://snomed.info/sct/731000124108/version/20240301",
          "code": "232967006",
          "display": "Implantation of left ventricular assist device (procedure)"
        } ]
      },
      "subject": {
        "reference": "Patient/c58e088d-0b16-4e3d-aaad-3577cdec75d3"
      },
      "performedPeriod": {
        "start": "2026-09-30T08:00:00.000+00:00"
      }
    },
    "request": {
      "method": "PUT",
      "url": "Procedure/8aa185ce-0bdb-4527-992a-b41fc6946c88"
    }
  }, {
    "fullUrl": "https://madie.cms.gov/MeasureReport/ec42e904-9236-4c21-9ecf-d9a56bcf4746",
    "resource": {
      "resourceType": "MeasureReport",
      "id": "ec42e904-9236-4c21-9ecf-d9a56bcf4746",
      "meta": {
        "profile": [ "http://hl7.org/fhir/us/cqfmeasures/StructureDefinition/test-case-cqfm" ]
      },
      "contained": [ {
        "resourceType": "Parameters",
        "id": "6beabe9c-1231-4467-8594-597aa6d8274f-parameters",
        "parameter": [ {
          "name": "subject",
          "valueString": "c58e088d-0b16-4e3d-aaad-3577cdec75d3"
        } ]
      } ],
      "extension": [ {
        "url": "http://hl7.org/fhir/StructureDefinition/cqf-inputParameters",
        "valueReference": {
          "reference": "#6beabe9c-1231-4467-8594-597aa6d8274f-parameters"
        }
      }, {
        "url": "http://hl7.org/fhir/us/cqfmeasures/StructureDefinition/cqfm-testCaseDescription",
        "valueMarkdown": "Patient with LVAD related condition after encounter. Patient included due to documentation of LVAD after encounter."
      } ],
      "modifierExtension": [ {
        "url": "http://hl7.org/fhir/us/cqfmeasures/StructureDefinition/cqfm-isTestCase",
        "valueBoolean": true
      } ],
      "status": "complete",
      "type": "individual",
      "measure": "https://madie.cms.gov/Measure/CMS144FHIRHFBetaBlockerTherapyforLVSD",
      "period": {
        "start": "2026-01-01",
        "end": "2026-12-31"
      },
      "group": [ {
        "id": "Group_1",
        "population": [ {
          "id": "InitialPopulation_1",
          "code": {
            "coding": [ {
              "system": "http://terminology.hl7.org/CodeSystem/measure-population",
              "code": "initial-population",
              "display": "Initial Population"
            } ]
          },
          "count": 1
        }, {
          "id": "Denominator_1",
          "code": {
            "coding": [ {
              "system": "http://terminology.hl7.org/CodeSystem/measure-population",
              "code": "denominator",
              "display": "Denominator"
            } ]
          },
          "count": 1
        }, {
          "id": "DenominatorExclusion_1",
          "code": {
            "coding": [ {
              "system": "http://terminology.hl7.org/CodeSystem/measure-population",
              "code": "denominator-exclusion",
              "display": "Denominator Exclusion"
            } ]
          },
          "count": 0
        }, {
          "id": "Numerator_1",
          "code": {
            "coding": [ {
              "system": "http://terminology.hl7.org/CodeSystem/measure-population",
              "code": "numerator",
              "display": "Numerator"
            } ]
          },
          "count": 0
        }, {
          "id": "DenominatorException_1",
          "code": {
            "coding": [ {
              "system": "http://terminology.hl7.org/CodeSystem/measure-population",
              "code": "denominator-exception",
              "display": "Denominator Exception"
            } ]
          },
          "count": 0
        } ],
        "measureScore": {
          "value": 1.0
        }
      } ],
      "evaluatedResource": [ {
        "reference": "Patient/c58e088d-0b16-4e3d-aaad-3577cdec75d3"
      }, {
        "reference": "Encounter/6b123f03-8d3d-4fab-ae40-f746907c190f"
      }, {
        "reference": "Encounter/f692eaf6-8f42-4f8b-a9b4-8298b889f477"
      }, {
        "reference": "Condition/9c1b8b64-3be0-420d-b78c-5f2f7e6650ec"
      }, {
        "reference": "Condition/3fc39f8d-3f13-49ea-a30d-05fb4cb2d75e"
      }, {
        "reference": "Procedure/8aa185ce-0bdb-4527-992a-b41fc6946c88"
      } ]
    },
    "request": {
      "method": "PUT",
      "url": "MeasureReport/ec42e904-9236-4c21-9ecf-d9a56bcf4746"
    }
  } ]
}