{
  "resourceType": "Bundle",
  "id": "63487c300968f801225401d2",
  "type": "transaction",
  "entry": [ {
    "fullUrl": "https://madie.cms.gov/Patient/e8157340-2867-44fc-8277-4e09507f4546",
    "resource": {
      "resourceType": "Patient",
      "id": "e8157340-2867-44fc-8277-4e09507f4546",
      "meta": {
        "profile": [ "http://hl7.org/fhir/us/qicore/StructureDefinition/qicore-patient" ]
      },
      "text": {
        "status": "generated",
        "div": "<div xmlns=\"http://www.w3.org/1999/xhtml\"><div class=\"hapiHeaderText\">CalcEGA42Weeks_EDDRelDtTime2WksPriorToDelivery <b>DENPASS </b></div><table class=\"hapiPropertyTable\"><tbody><tr><td>Identifier</td><td>c6b51506d3a7092894a3f06af44f7ab397fd257a35f97f16644057feff48ec70</td></tr><tr><td>Date of birth</td><td><span>14 February 1985</span></td></tr></tbody></table></div>"
      },
      "extension": [ {
        "url": "http://hl7.org/fhir/us/core/StructureDefinition/us-core-race",
        "extension": [ {
          "url": "ombCategory",
          "valueCoding": {
            "system": "urn:oid:2.16.840.1.113883.6.238",
            "code": "1002-5",
            "display": "American Indian or Alaska Native",
            "userSelected": true
          }
        }, {
          "url": "text",
          "valueString": "American Indian or Alaska Native"
        } ]
      }, {
        "url": "http://hl7.org/fhir/us/core/StructureDefinition/us-core-ethnicity",
        "extension": [ {
          "url": "ombCategory",
          "valueCoding": {
            "system": "urn:oid:2.16.840.1.113883.6.238",
            "code": "2135-2",
            "display": "Hispanic or Latino",
            "userSelected": true
          }
        }, {
          "url": "text",
          "valueString": "Hispanic or Latino"
        } ]
      } ],
      "identifier": [ {
        "type": {
          "coding": [ {
            "system": "http://terminology.hl7.org/CodeSystem/v2-0203",
            "code": "MR"
          } ]
        },
        "system": "https://bonnie-fhir.healthit.gov/",
        "value": "63487c300968f801225401d2"
      } ],
      "active": true,
      "name": [ {
        "use": "usual",
        "family": "DENPass",
        "given": [ "CalcEGA42Weeks_EDDRelDtTime2WksPriorToDelivery" ]
      } ],
      "gender": "female",
      "birthDate": "1998-02-14"
    },
    "request": {
      "method": "PUT",
      "url": "Patient/e8157340-2867-44fc-8277-4e09507f4546"
    }
  }, {
    "fullUrl": "https://madie.cms.gov/Observation/3645260d-cabb-4707-91c9-8d3e35cdff4d",
    "resource": {
      "resourceType": "Observation",
      "id": "3645260d-cabb-4707-91c9-8d3e35cdff4d",
      "meta": {
        "profile": [ "http://hl7.org/fhir/us/qicore/StructureDefinition/qicore-simple-observation" ]
      },
      "status": "final",
      "category": [ {
        "coding": [ {
          "system": "http://terminology.hl7.org/CodeSystem/observation-category",
          "code": "exam",
          "display": "exam",
          "userSelected": true
        } ]
      } ],
      "code": {
        "coding": [ {
          "system": "http://loinc.org",
          "code": "11996-6"
        } ]
      },
      "subject": {
        "reference": "Patient/e8157340-2867-44fc-8277-4e09507f4546"
      },
      "effectiveDateTime": "2025-08-19T19:00:00.000+00:00",
      "valueInteger": 1
    },
    "request": {
      "method": "PUT",
      "url": "Observation/3645260d-cabb-4707-91c9-8d3e35cdff4d"
    }
  }, {
    "fullUrl": "https://madie.cms.gov/Observation/19f98812-30ec-44a3-9896-90f7c956ed56",
    "resource": {
      "resourceType": "Observation",
      "id": "19f98812-30ec-44a3-9896-90f7c956ed56",
      "meta": {
        "profile": [ "http://hl7.org/fhir/us/qicore/StructureDefinition/qicore-simple-observation" ]
      },
      "status": "final",
      "category": [ {
        "coding": [ {
          "system": "http://terminology.hl7.org/CodeSystem/observation-category",
          "code": "exam",
          "display": "exam",
          "userSelected": true
        } ]
      } ],
      "code": {
        "coding": [ {
          "system": "http://loinc.org",
          "code": "93857-1"
        } ]
      },
      "subject": {
        "reference": "Patient/e8157340-2867-44fc-8277-4e09507f4546"
      },
      "effectiveDateTime": "2026-01-15T19:00:00.000+00:00",
      "valueDateTime": "2026-01-15T19:00:00.000+00:00"
    },
    "request": {
      "method": "PUT",
      "url": "Observation/19f98812-30ec-44a3-9896-90f7c956ed56"
    }
  }, {
    "fullUrl": "https://madie.cms.gov/Observation/d7e275d1-6895-4b89-a394-4e5a146e9978",
    "resource": {
      "resourceType": "Observation",
      "id": "d7e275d1-6895-4b89-a394-4e5a146e9978",
      "meta": {
        "profile": [ "http://hl7.org/fhir/us/qicore/StructureDefinition/qicore-simple-observation" ]
      },
      "status": "final",
      "category": [ {
        "coding": [ {
          "system": "http://terminology.hl7.org/CodeSystem/observation-category",
          "code": "exam",
          "display": "exam",
          "userSelected": true
        } ]
      } ],
      "code": {
        "coding": [ {
          "system": "http://loinc.org",
          "code": "11778-8"
        } ]
      },
      "subject": {
        "reference": "Patient/e8157340-2867-44fc-8277-4e09507f4546"
      },
      "effectiveDateTime": "2026-01-01T08:00:00.000+00:00",
      "valueDateTime": "2026-01-01T08:00:00.000+00:00"
    },
    "request": {
      "method": "PUT",
      "url": "Observation/d7e275d1-6895-4b89-a394-4e5a146e9978"
    }
  }, {
    "fullUrl": "https://madie.cms.gov/Encounter/09b2cc37-e09e-48f3-802f-55093904b6fe",
    "resource": {
      "resourceType": "Encounter",
      "id": "09b2cc37-e09e-48f3-802f-55093904b6fe",
      "meta": {
        "profile": [ "http://hl7.org/fhir/us/qicore/StructureDefinition/qicore-encounter" ]
      },
      "status": "finished",
      "class": {
        "system": "http://terminology.hl7.org/CodeSystem/v3-ActCode",
        "code": "IMP",
        "display": "inpatient encounter"
      },
      "type": [ {
        "coding": [ {
          "system": "http://snomed.info/sct",
          "code": "183452005"
        } ]
      } ],
      "subject": {
        "reference": "Patient/e8157340-2867-44fc-8277-4e09507f4546"
      },
      "period": {
        "start": "2026-01-15T08:00:00.000+00:00",
        "end": "2026-01-20T08:15:00.000+00:00"
      },
      "length": {
        "value": 2,
        "unit": "days"
      },
      "reasonReference": [ {
        "reference": "Condition/1afef0f6-1672-4aab-adca-29621b2f9ab4"
      } ]
    },
    "request": {
      "method": "PUT",
      "url": "Encounter/09b2cc37-e09e-48f3-802f-55093904b6fe"
    }
  }, {
    "fullUrl": "https://madie.cms.gov/Coverage/5f5f9e501c76ba674bb03382",
    "resource": {
      "resourceType": "Coverage",
      "id": "5f5f9e501c76ba674bb03382",
      "meta": {
        "profile": [ "http://hl7.org/fhir/us/qicore/StructureDefinition/qicore-coverage" ]
      },
      "status": "active",
      "subscriberId": "523435",
      "beneficiary": {
        "reference": "Patient/e8157340-2867-44fc-8277-4e09507f4546"
      },
      "relationship": {
        "coding": [ {
          "system": "http://terminology.hl7.org/CodeSystem/subscriber-relationship",
          "code": "self"
        } ]
      },
      "period": {
        "start": "1986-02-14T08:00:00.000+00:00"
      },
      "payor": [ {
        "reference": "Organization/2b4ebbaa-1da6-4866-8361-67346b962a27"
      } ]
    },
    "request": {
      "method": "PUT",
      "url": "Coverage/5f5f9e501c76ba674bb03382"
    }
  }, {
    "fullUrl": "https://madie.cms.gov/Procedure/28ee29a2-0a4e-474d-aa60-64866d43ecd8",
    "resource": {
      "resourceType": "Procedure",
      "id": "28ee29a2-0a4e-474d-aa60-64866d43ecd8",
      "meta": {
        "profile": [ "http://hl7.org/fhir/us/qicore/StructureDefinition/qicore-procedure" ]
      },
      "extension": [ {
        "url": "http://hl7.org/fhir/us/qicore/StructureDefinition/qicore-recorded",
        "valueDateTime": "2014-04-05T13:35:00.000+00:00"
      } ],
      "status": "completed",
      "code": {
        "coding": [ {
          "system": "http://www.cms.gov/Medicare/Coding/ICD10",
          "code": "10D07Z3"
        } ]
      },
      "subject": {
        "reference": "Patient/e8157340-2867-44fc-8277-4e09507f4546"
      },
      "performedPeriod": {
        "start": "2026-01-15T08:10:00.000+00:00",
        "end": "2026-01-15T09:14:00.000+00:00"
      }
    },
    "request": {
      "method": "PUT",
      "url": "Procedure/28ee29a2-0a4e-474d-aa60-64866d43ecd8"
    }
  }, {
    "fullUrl": "https://madie.cms.gov/Condition/1afef0f6-1672-4aab-adca-29621b2f9ab4",
    "resource": {
      "resourceType": "Condition",
      "id": "1afef0f6-1672-4aab-adca-29621b2f9ab4",
      "meta": {
        "profile": [ "http://hl7.org/fhir/us/qicore/StructureDefinition/qicore-condition-encounter-diagnosis" ]
      },
      "category": [ {
        "coding": [ {
          "system": "http://terminology.hl7.org/CodeSystem/condition-category",
          "code": "encounter-diagnosis",
          "display": "Encounter Diagnosis"
        } ]
      } ],
      "code": {
        "coding": [ {
          "system": "http://snomed.info/sct",
          "version": "2022-09",
          "code": "169826009",
          "display": "Single live birth from singleton pregnancy (finding)",
          "userSelected": true
        } ]
      },
      "subject": {
        "reference": "Patient/e8157340-2867-44fc-8277-4e09507f4546"
      },
      "encounter": {
        "reference": "Encounter/09b2cc37-e09e-48f3-802f-55093904b6fe"
      },
      "recordedDate": "2026-10-20T08:00:00.000+00:00"
    },
    "request": {
      "method": "PUT",
      "url": "Condition/1afef0f6-1672-4aab-adca-29621b2f9ab4"
    }
  }, {
    "fullUrl": "https://madie.cms.gov/Organization/2b4ebbaa-1da6-4866-8361-67346b962a27",
    "resource": {
      "resourceType": "Organization",
      "id": "2b4ebbaa-1da6-4866-8361-67346b962a27",
      "meta": {
        "profile": [ "http://hl7.org/fhir/us/qicore/StructureDefinition/qicore-organization" ]
      },
      "identifier": [ {
        "use": "temp",
        "system": "urn:oid:2.16.840.1.113883.4.4",
        "value": "21-3259825"
      } ],
      "active": true,
      "type": [ {
        "coding": [ {
          "system": "http://terminology.hl7.org/CodeSystem/organization-type",
          "code": "pay",
          "display": "Payer"
        } ]
      } ],
      "name": "Blue Cross Blue Shield of Texas",
      "telecom": [ {
        "system": "phone",
        "value": "(+1) 972-766-6900"
      } ],
      "address": [ {
        "use": "billing",
        "type": "postal",
        "line": [ "P.O. Box 660044" ],
        "city": "Dallas",
        "state": "TX",
        "postalCode": "75266-0044",
        "country": "USA"
      } ]
    },
    "request": {
      "method": "PUT",
      "url": "Organization/2b4ebbaa-1da6-4866-8361-67346b962a27"
    }
  }, {
    "fullUrl": "https://madie.cms.gov/Practitioner/7ec65d89-f435-47b5-b95c-b296a2347567",
    "resource": {
      "resourceType": "Practitioner",
      "id": "7ec65d89-f435-47b5-b95c-b296a2347567",
      "meta": {
        "profile": [ "http://hl7.org/fhir/us/qicore/StructureDefinition/qicore-practitioner" ]
      },
      "identifier": [ {
        "system": "http://hl7.org/fhir/sid/us-npi",
        "value": "1234567890"
      } ],
      "name": [ {
        "family": "Evil",
        "prefix": [ "Dr" ]
      } ]
    },
    "request": {
      "method": "PUT",
      "url": "Practitioner/7ec65d89-f435-47b5-b95c-b296a2347567"
    }
  }, {
    "fullUrl": "https://madie.cms.gov/MeasureReport/900f2365-ce21-4bb7-b173-09b66c5f2395",
    "resource": {
      "resourceType": "MeasureReport",
      "id": "900f2365-ce21-4bb7-b173-09b66c5f2395",
      "meta": {
        "profile": [ "http://hl7.org/fhir/us/cqfmeasures/StructureDefinition/test-case-cqfm" ]
      },
      "contained": [ {
        "resourceType": "Parameters",
        "id": "f61b91bb-2ed2-411f-b3b9-150bdf8deffb-parameters",
        "parameter": [ {
          "name": "subject",
          "valueString": "e8157340-2867-44fc-8277-4e09507f4546"
        } ]
      } ],
      "extension": [ {
        "url": "http://hl7.org/fhir/StructureDefinition/cqf-inputParameters",
        "valueReference": {
          "reference": "#f61b91bb-2ed2-411f-b3b9-150bdf8deffb-parameters"
        }
      }, {
        "url": "http://hl7.org/fhir/us/cqfmeasures/StructureDefinition/cqfm-testCaseDescription",
        "valueMarkdown": "\"Calculated EGA is 42 weeks with EDD relevant date/time 2 weeks prior to admission.\n\n"
      } ],
      "modifierExtension": [ {
        "url": "http://hl7.org/fhir/us/cqfmeasures/StructureDefinition/cqfm-isTestCase",
        "valueBoolean": true
      } ],
      "status": "complete",
      "type": "individual",
      "measure": "https://madie.cms.gov/Measure/CMS0334FHIRPCCesareanBirth",
      "period": {
        "start": "2026-01-01",
        "end": "2026-12-31"
      },
      "group": [ {
        "id": "Group_1",
        "population": [ {
          "id": "InitialPopulation_1",
          "code": {
            "coding": [ {
              "system": "http://terminology.hl7.org/CodeSystem/measure-population",
              "code": "initial-population",
              "display": "Initial Population"
            } ]
          },
          "count": 1
        }, {
          "id": "Denominator_1",
          "code": {
            "coding": [ {
              "system": "http://terminology.hl7.org/CodeSystem/measure-population",
              "code": "denominator",
              "display": "Denominator"
            } ]
          },
          "count": 1
        }, {
          "id": "DenominatorExclusion_1",
          "code": {
            "coding": [ {
              "system": "http://terminology.hl7.org/CodeSystem/measure-population",
              "code": "denominator-exclusion",
              "display": "Denominator Exclusion"
            } ]
          },
          "count": 0
        }, {
          "id": "Numerator_1",
          "code": {
            "coding": [ {
              "system": "http://terminology.hl7.org/CodeSystem/measure-population",
              "code": "numerator",
              "display": "Numerator"
            } ]
          },
          "count": 0
        } ],
        "measureScore": {
          "value": 0.0
        }
      } ],
      "evaluatedResource": [ {
        "reference": "Patient/e8157340-2867-44fc-8277-4e09507f4546"
      }, {
        "reference": "Observation/3645260d-cabb-4707-91c9-8d3e35cdff4d"
      }, {
        "reference": "Observation/19f98812-30ec-44a3-9896-90f7c956ed56"
      }, {
        "reference": "Observation/d7e275d1-6895-4b89-a394-4e5a146e9978"
      }, {
        "reference": "Encounter/09b2cc37-e09e-48f3-802f-55093904b6fe"
      }, {
        "reference": "Coverage/5f5f9e501c76ba674bb03382"
      }, {
        "reference": "Procedure/28ee29a2-0a4e-474d-aa60-64866d43ecd8"
      }, {
        "reference": "Condition/1afef0f6-1672-4aab-adca-29621b2f9ab4"
      }, {
        "reference": "Organization/2b4ebbaa-1da6-4866-8361-67346b962a27"
      }, {
        "reference": "Practitioner/7ec65d89-f435-47b5-b95c-b296a2347567"
      } ]
    },
    "request": {
      "method": "PUT",
      "url": "MeasureReport/900f2365-ce21-4bb7-b173-09b66c5f2395"
    }
  } ]
}