{
  "resourceType": "Bundle",
  "id": "6356cb3054e383debade759c",
  "type": "transaction",
  "entry": [ {
    "fullUrl": "https://madie.cms.gov/Patient/311993a9-f56b-4f3b-8588-0a0e50e18cbb",
    "resource": {
      "resourceType": "Patient",
      "id": "311993a9-f56b-4f3b-8588-0a0e50e18cbb",
      "meta": {
        "profile": [ "http://hl7.org/fhir/us/qicore/StructureDefinition/qicore-patient" ]
      },
      "text": {
        "status": "generated",
        "div": "<div xmlns=\"http://www.w3.org/1999/xhtml\"><div class=\"hapiHeaderText\">LastAssPrfEDDRelvTm1MinOver42WksB4DELRsltDtTime<b>DENOMFIL</b></div><table class=\"hapiPropertyTable\"><tbody><tr><td>Date of birth</td><td><span>01 February 1958</span></td></tr></tbody></table></div>"
      },
      "extension": [ {
        "url": "http://hl7.org/fhir/us/core/StructureDefinition/us-core-race",
        "extension": [ {
          "url": "ombCategory",
          "valueCoding": {
            "system": "urn:oid:2.16.840.1.113883.6.238",
            "code": "1002-5",
            "display": "American Indian or Alaska Native",
            "userSelected": true
          }
        }, {
          "url": "text",
          "valueString": "American Indian or Alaska Native"
        } ]
      }, {
        "url": "http://hl7.org/fhir/us/core/StructureDefinition/us-core-ethnicity",
        "extension": [ {
          "url": "ombCategory",
          "valueCoding": {
            "system": "urn:oid:2.16.840.1.113883.6.238",
            "code": "2135-2",
            "display": "Hispanic or Latino",
            "userSelected": true
          }
        }, {
          "url": "text",
          "valueString": "Hispanic or Latino"
        } ]
      } ],
      "identifier": [ {
        "type": {
          "coding": [ {
            "system": "http://terminology.hl7.org/CodeSystem/v2-0203",
            "code": "MR"
          } ]
        },
        "system": "https://bonnie-fhir.healthit.gov/",
        "value": "6356cb3054e383debade759c"
      } ],
      "active": true,
      "name": [ {
        "use": "usual",
        "family": "DENOMFail",
        "given": [ "LastAssPrfEDDRelvTm1MinOver42WksB4DELRsltDtTime" ]
      } ],
      "gender": "female",
      "birthDate": "1971-02-01"
    },
    "request": {
      "method": "PUT",
      "url": "Patient/311993a9-f56b-4f3b-8588-0a0e50e18cbb"
    }
  }, {
    "fullUrl": "https://madie.cms.gov/Observation/8a427d98-7166-41c8-9336-07422014fc30",
    "resource": {
      "resourceType": "Observation",
      "id": "8a427d98-7166-41c8-9336-07422014fc30",
      "meta": {
        "profile": [ "http://hl7.org/fhir/us/qicore/StructureDefinition/qicore-simple-observation" ]
      },
      "status": "final",
      "category": [ {
        "coding": [ {
          "system": "http://terminology.hl7.org/CodeSystem/observation-category",
          "code": "exam",
          "display": "exam",
          "userSelected": true
        } ]
      } ],
      "code": {
        "coding": [ {
          "system": "http://loinc.org",
          "code": "93857-1"
        } ]
      },
      "subject": {
        "reference": "Patient/311993a9-f56b-4f3b-8588-0a0e50e18cbb"
      },
      "effectiveDateTime": "2026-02-01T08:00:00Z",
      "performer": [ {
        "reference": "Organization/example1",
        "display": "Hendricks Country Hospital"
      } ],
      "valueDateTime": "2026-02-01T08:00:00.000+00:00"
    },
    "request": {
      "method": "PUT",
      "url": "Observation/8a427d98-7166-41c8-9336-07422014fc30"
    }
  }, {
    "fullUrl": "https://madie.cms.gov/Observation/15905c5a-32ad-4325-9c98-b9b626250500",
    "resource": {
      "resourceType": "Observation",
      "id": "15905c5a-32ad-4325-9c98-b9b626250500",
      "meta": {
        "profile": [ "http://hl7.org/fhir/us/qicore/StructureDefinition/qicore-simple-observation" ]
      },
      "status": "final",
      "category": [ {
        "coding": [ {
          "system": "http://terminology.hl7.org/CodeSystem/observation-category",
          "code": "exam",
          "display": "exam",
          "userSelected": true
        } ]
      } ],
      "code": {
        "coding": [ {
          "system": "http://loinc.org",
          "code": "11778-8"
        } ]
      },
      "subject": {
        "reference": "Patient/311993a9-f56b-4f3b-8588-0a0e50e18cbb"
      },
      "effectiveDateTime": "2025-04-13T07:59:00Z",
      "performer": [ {
        "reference": "Organization/example1",
        "display": "Hendricks Country Hospital"
      } ],
      "valueDateTime": "2026-02-01T08:00:00.000+00:00"
    },
    "request": {
      "method": "PUT",
      "url": "Observation/15905c5a-32ad-4325-9c98-b9b626250500"
    }
  }, {
    "fullUrl": "https://madie.cms.gov/Encounter/43058f4b-6bde-4a09-95a7-986982a6433c",
    "resource": {
      "resourceType": "Encounter",
      "id": "43058f4b-6bde-4a09-95a7-986982a6433c",
      "meta": {
        "profile": [ "http://hl7.org/fhir/us/qicore/StructureDefinition/qicore-encounter" ]
      },
      "status": "finished",
      "class": {
        "system": "http://terminology.hl7.org/CodeSystem/v3-ActCode",
        "code": "IMP",
        "display": "inpatient encounter"
      },
      "type": [ {
        "coding": [ {
          "system": "http://snomed.info/sct",
          "code": "183452005"
        } ]
      } ],
      "subject": {
        "reference": "Patient/311993a9-f56b-4f3b-8588-0a0e50e18cbb"
      },
      "period": {
        "start": "2026-01-30T08:00:00Z",
        "end": "2026-02-05T08:15:00.000+00:00"
      },
      "reasonCode": [ {
        "coding": [ {
          "system": "http://snomed.info/sct",
          "code": "169826009",
          "display": "Single live birth from singleton pregnancy (finding)"
        } ]
      } ]
    },
    "request": {
      "method": "PUT",
      "url": "Encounter/43058f4b-6bde-4a09-95a7-986982a6433c"
    }
  }, {
    "fullUrl": "https://madie.cms.gov/Procedure/941915b3-6ad2-41a6-a2e1-d256661c834c",
    "resource": {
      "resourceType": "Procedure",
      "id": "941915b3-6ad2-41a6-a2e1-d256661c834c",
      "meta": {
        "profile": [ "http://hl7.org/fhir/us/qicore/StructureDefinition/qicore-procedure" ]
      },
      "extension": [ {
        "url": "http://hl7.org/fhir/us/qicore/StructureDefinition/qicore-recorded",
        "valueDateTime": "2014-04-05T13:35:00Z"
      } ],
      "status": "completed",
      "code": {
        "coding": [ {
          "system": "http://snomed.info/sct",
          "code": "10745001"
        } ]
      },
      "subject": {
        "reference": "Patient/311993a9-f56b-4f3b-8588-0a0e50e18cbb"
      },
      "performedPeriod": {
        "start": "2026-02-01T08:00:00Z",
        "end": "2026-02-05T08:15:00.000+00:00"
      }
    },
    "request": {
      "method": "PUT",
      "url": "Procedure/941915b3-6ad2-41a6-a2e1-d256661c834c"
    }
  }, {
    "fullUrl": "https://madie.cms.gov/Coverage/2ae02db8-22c4-4db7-8897-1c633ab1305e",
    "resource": {
      "resourceType": "Coverage",
      "id": "2ae02db8-22c4-4db7-8897-1c633ab1305e",
      "meta": {
        "profile": [ "http://hl7.org/fhir/us/qicore/StructureDefinition/qicore-coverage" ]
      },
      "status": "active",
      "subscriberId": "523435",
      "beneficiary": {
        "reference": "Patient/311993a9-f56b-4f3b-8588-0a0e50e18cbb"
      },
      "relationship": {
        "coding": [ {
          "system": "http://terminology.hl7.org/CodeSystem/subscriber-relationship",
          "code": "self"
        } ]
      },
      "payor": [ {
        "reference": "Organization/48ad84de-59c7-49a1-bea8-3c42fc830d5d"
      } ]
    },
    "request": {
      "method": "PUT",
      "url": "Coverage/2ae02db8-22c4-4db7-8897-1c633ab1305e"
    }
  }, {
    "fullUrl": "https://madie.cms.gov/Organization/48ad84de-59c7-49a1-bea8-3c42fc830d5d",
    "resource": {
      "resourceType": "Organization",
      "id": "48ad84de-59c7-49a1-bea8-3c42fc830d5d",
      "meta": {
        "profile": [ "http://hl7.org/fhir/us/qicore/StructureDefinition/qicore-organization" ]
      },
      "identifier": [ {
        "use": "temp",
        "system": "urn:oid:2.16.840.1.113883.4.4",
        "value": "21-3259825"
      } ],
      "active": true,
      "type": [ {
        "coding": [ {
          "system": "http://terminology.hl7.org/CodeSystem/organization-type",
          "code": "pay",
          "display": "Payer"
        } ]
      } ],
      "name": "Blue Cross Blue Shield of Texas",
      "telecom": [ {
        "system": "phone",
        "value": "(+1) 972-766-6900"
      } ],
      "address": [ {
        "use": "billing",
        "type": "postal",
        "line": [ "P.O. Box 660044" ],
        "city": "Dallas",
        "state": "TX",
        "postalCode": "75266-0044",
        "country": "USA"
      } ]
    },
    "request": {
      "method": "PUT",
      "url": "Organization/48ad84de-59c7-49a1-bea8-3c42fc830d5d"
    }
  }, {
    "fullUrl": "https://madie.cms.gov/Practitioner/fbdae284-48fb-4ef2-b1fe-5d7a81245f8c",
    "resource": {
      "resourceType": "Practitioner",
      "id": "fbdae284-48fb-4ef2-b1fe-5d7a81245f8c",
      "meta": {
        "profile": [ "http://hl7.org/fhir/us/qicore/StructureDefinition/qicore-practitioner" ]
      },
      "identifier": [ {
        "system": "http://hl7.org/fhir/sid/us-npi",
        "value": "1234567890"
      } ],
      "name": [ {
        "family": "Evil",
        "prefix": [ "Dr" ]
      } ]
    },
    "request": {
      "method": "PUT",
      "url": "Practitioner/fbdae284-48fb-4ef2-b1fe-5d7a81245f8c"
    }
  }, {
    "fullUrl": "https://madie.cms.gov/MeasureReport/adf5cf60-dee3-445b-ba53-b9d69766a7d0",
    "resource": {
      "resourceType": "MeasureReport",
      "id": "adf5cf60-dee3-445b-ba53-b9d69766a7d0",
      "meta": {
        "profile": [ "http://hl7.org/fhir/us/cqfmeasures/StructureDefinition/test-case-cqfm" ]
      },
      "contained": [ {
        "resourceType": "Parameters",
        "id": "0a5306e5-7970-43a9-84c3-82207de8fff6-parameters",
        "parameter": [ {
          "name": "subject",
          "valueString": "311993a9-f56b-4f3b-8588-0a0e50e18cbb"
        } ]
      } ],
      "extension": [ {
        "url": "http://hl7.org/fhir/StructureDefinition/cqf-inputParameters",
        "valueReference": {
          "reference": "#0a5306e5-7970-43a9-84c3-82207de8fff6-parameters"
        }
      }, {
        "url": "http://hl7.org/fhir/us/cqfmeasures/StructureDefinition/cqfm-testCaseDescription",
        "valueMarkdown": "Last assessment Performed, Estimated Delivery Date, Relevant time, 1 minute over 42 weeks before Delivery Result Date/Time\n"
      } ],
      "modifierExtension": [ {
        "url": "http://hl7.org/fhir/us/cqfmeasures/StructureDefinition/cqfm-isTestCase",
        "valueBoolean": true
      } ],
      "status": "complete",
      "type": "individual",
      "measure": "https://madie.cms.gov/Measure/CMS1028FHIRPCSevereOBComps",
      "period": {
        "start": "2026-01-01",
        "end": "2026-12-31"
      },
      "group": [ {
        "id": "Group_1",
        "population": [ {
          "id": "InitialPopulation_1",
          "code": {
            "coding": [ {
              "system": "http://terminology.hl7.org/CodeSystem/measure-population",
              "code": "initial-population",
              "display": "Initial Population"
            } ]
          },
          "count": 1
        }, {
          "id": "Denominator_1",
          "code": {
            "coding": [ {
              "system": "http://terminology.hl7.org/CodeSystem/measure-population",
              "code": "denominator",
              "display": "Denominator"
            } ]
          },
          "count": 0
        }, {
          "id": "Numerator_1",
          "code": {
            "coding": [ {
              "system": "http://terminology.hl7.org/CodeSystem/measure-population",
              "code": "numerator",
              "display": "Numerator"
            } ]
          },
          "count": 0
        }, {
          "id": "NumeratorExclusion_1",
          "code": {
            "coding": [ {
              "system": "http://terminology.hl7.org/CodeSystem/measure-population",
              "code": "numerator-exclusion",
              "display": "Numerator Exclusion"
            } ]
          },
          "count": 0
        } ],
        "measureScore": {
          "value": 0.0
        }
      }, {
        "id": "Group_2",
        "population": [ {
          "id": "InitialPopulation_2",
          "code": {
            "coding": [ {
              "system": "http://terminology.hl7.org/CodeSystem/measure-population",
              "code": "initial-population",
              "display": "Initial Population"
            } ]
          },
          "count": 1
        }, {
          "id": "Denominator_2",
          "code": {
            "coding": [ {
              "system": "http://terminology.hl7.org/CodeSystem/measure-population",
              "code": "denominator",
              "display": "Denominator"
            } ]
          },
          "count": 0
        }, {
          "id": "Numerator_2",
          "code": {
            "coding": [ {
              "system": "http://terminology.hl7.org/CodeSystem/measure-population",
              "code": "numerator",
              "display": "Numerator"
            } ]
          },
          "count": 0
        }, {
          "id": "NumeratorExclusion_2",
          "code": {
            "coding": [ {
              "system": "http://terminology.hl7.org/CodeSystem/measure-population",
              "code": "numerator-exclusion",
              "display": "Numerator Exclusion"
            } ]
          },
          "count": 0
        } ],
        "measureScore": {
          "value": 0.0
        }
      } ],
      "evaluatedResource": [ {
        "reference": "Patient/311993a9-f56b-4f3b-8588-0a0e50e18cbb"
      }, {
        "reference": "Observation/8a427d98-7166-41c8-9336-07422014fc30"
      }, {
        "reference": "Observation/15905c5a-32ad-4325-9c98-b9b626250500"
      }, {
        "reference": "Encounter/43058f4b-6bde-4a09-95a7-986982a6433c"
      }, {
        "reference": "Procedure/941915b3-6ad2-41a6-a2e1-d256661c834c"
      }, {
        "reference": "Coverage/2ae02db8-22c4-4db7-8897-1c633ab1305e"
      }, {
        "reference": "Organization/48ad84de-59c7-49a1-bea8-3c42fc830d5d"
      }, {
        "reference": "Practitioner/fbdae284-48fb-4ef2-b1fe-5d7a81245f8c"
      } ]
    },
    "request": {
      "method": "PUT",
      "url": "MeasureReport/adf5cf60-dee3-445b-ba53-b9d69766a7d0"
    }
  } ]
}