{
  "resourceType": "Bundle",
  "id": "60f82c2e98086b570510e281",
  "type": "transaction",
  "entry": [ {
    "fullUrl": "https://madie.cms.gov/Patient/cbe5f41b-754f-49d8-91c4-85823628ceff",
    "resource": {
      "resourceType": "Patient",
      "id": "cbe5f41b-754f-49d8-91c4-85823628ceff",
      "meta": {
        "profile": [ "http://hl7.org/fhir/us/qicore/StructureDefinition/qicore-patient" ]
      },
      "identifier": [ {
        "type": {
          "coding": [ {
            "system": "http://terminology.hl7.org/CodeSystem/v2-0203",
            "code": "MR"
          } ]
        },
        "system": "https://bonnie-fhir.healthit.gov/",
        "value": "60f82c2e98086b570510e281"
      } ],
      "active": true,
      "name": [ {
        "use": "usual",
        "family": "DENEXPass",
        "given": [ "ProcTPAEQEDStart" ]
      } ],
      "gender": "female",
      "birthDate": "1976-09-26"
    },
    "request": {
      "method": "PUT",
      "url": "Patient/cbe5f41b-754f-49d8-91c4-85823628ceff"
    }
  }, {
    "fullUrl": "https://madie.cms.gov/Encounter/9fa6c2b2-a636-4b33-b37a-e885e4dd90b0",
    "resource": {
      "resourceType": "Encounter",
      "id": "9fa6c2b2-a636-4b33-b37a-e885e4dd90b0",
      "meta": {
        "profile": [ "http://hl7.org/fhir/us/qicore/StructureDefinition/qicore-encounter" ]
      },
      "status": "finished",
      "class": {
        "system": "http://terminology.hl7.org/CodeSystem/v3-ActCode",
        "code": "EMER",
        "display": "emergency"
      },
      "type": [ {
        "coding": [ {
          "system": "http://snomed.info/sct",
          "code": "4525004"
        } ]
      } ],
      "subject": {
        "reference": "Patient/cbe5f41b-754f-49d8-91c4-85823628ceff"
      },
      "period": {
        "start": "2026-10-10T06:00:00Z",
        "end": "2026-10-10T08:30:00.000+00:00"
      },
      "length": {
        "value": 0,
        "unit": "days"
      }
    },
    "request": {
      "method": "PUT",
      "url": "Encounter/9fa6c2b2-a636-4b33-b37a-e885e4dd90b0"
    }
  }, {
    "fullUrl": "https://madie.cms.gov/Encounter/76e6ad87-cedd-49e7-86ac-57e1b4aa1d32",
    "resource": {
      "resourceType": "Encounter",
      "id": "76e6ad87-cedd-49e7-86ac-57e1b4aa1d32",
      "meta": {
        "profile": [ "http://hl7.org/fhir/us/qicore/StructureDefinition/qicore-encounter" ]
      },
      "status": "finished",
      "class": {
        "system": "http://terminology.hl7.org/CodeSystem/v3-ActCode",
        "code": "IMP",
        "display": "inpatient encounter"
      },
      "type": [ {
        "coding": [ {
          "system": "http://snomed.info/sct",
          "code": "32485007"
        } ]
      } ],
      "subject": {
        "reference": "Patient/cbe5f41b-754f-49d8-91c4-85823628ceff"
      },
      "period": {
        "start": "2026-10-10T09:00:00Z",
        "end": "2026-10-12T11:15:00.000+00:00"
      },
      "length": {
        "value": 2,
        "unit": "days"
      },
      "reasonReference": [ {
        "reference": "Condition/6194b686-bcfa-4e8e-a1b6-0354ef9a9eb8"
      } ]
    },
    "request": {
      "method": "PUT",
      "url": "Encounter/76e6ad87-cedd-49e7-86ac-57e1b4aa1d32"
    }
  }, {
    "fullUrl": "https://madie.cms.gov/Coverage/34120f25-1044-48d9-8eed-8ab07b3c4ade",
    "resource": {
      "resourceType": "Coverage",
      "id": "34120f25-1044-48d9-8eed-8ab07b3c4ade",
      "status": "active",
      "beneficiary": {
        "reference": "Patient/cbe5f41b-754f-49d8-91c4-85823628ceff"
      },
      "period": {
        "start": "1976-09-26T08:00:00Z"
      },
      "payor": [ {
        "reference": "Organization/7537b783-2553-4bd9-ac01-6207177a558d"
      } ]
    },
    "request": {
      "method": "PUT",
      "url": "Coverage/34120f25-1044-48d9-8eed-8ab07b3c4ade"
    }
  }, {
    "fullUrl": "https://madie.cms.gov/Condition/6194b686-bcfa-4e8e-a1b6-0354ef9a9eb8",
    "resource": {
      "resourceType": "Condition",
      "id": "6194b686-bcfa-4e8e-a1b6-0354ef9a9eb8",
      "meta": {
        "profile": [ "http://hl7.org/fhir/us/qicore/StructureDefinition/qicore-condition-encounter-diagnosis" ]
      },
      "clinicalStatus": {
        "coding": [ {
          "system": "http://terminology.hl7.org/CodeSystem/condition-clinical",
          "code": "active"
        } ]
      },
      "verificationStatus": {
        "coding": [ {
          "system": "http://terminology.hl7.org/CodeSystem/condition-ver-status",
          "code": "confirmed"
        } ]
      },
      "category": [ {
        "coding": [ {
          "system": "http://terminology.hl7.org/CodeSystem/condition-category",
          "code": "encounter-diagnosis",
          "display": "Encounter Diagnosis"
        } ]
      } ],
      "code": {
        "coding": [ {
          "system": "http://snomed.info/sct",
          "version": "2020-09",
          "code": "111297002",
          "display": "Nonparalytic stroke (disorder)",
          "userSelected": true
        } ]
      },
      "subject": {
        "reference": "Patient/cbe5f41b-754f-49d8-91c4-85823628ceff"
      },
      "encounter": {
        "reference": "Encounter/76e6ad87-cedd-49e7-86ac-57e1b4aa1d32"
      },
      "recordedDate": "2026-10-12T11:15:00Z"
    },
    "request": {
      "method": "PUT",
      "url": "Condition/6194b686-bcfa-4e8e-a1b6-0354ef9a9eb8"
    }
  }, {
    "fullUrl": "https://madie.cms.gov/claim/5ca62962b8484628b8de1ec5",
    "resource": {
      "resourceType": "Claim",
      "id": "5ca62962b8484628b8de1ec5",
      "meta": {
        "profile": [ "http://hl7.org/fhir/us/qicore/StructureDefinition/qicore-claim" ]
      },
      "status": "active",
      "type": {
        "coding": [ {
          "system": "http://terminology.hl7.org/CodeSystem/claim-type",
          "code": "institutional"
        } ]
      },
      "use": "claim",
      "patient": {
        "reference": "Patient/cbe5f41b-754f-49d8-91c4-85823628ceff"
      },
      "created": "2026-12-01",
      "provider": {
        "reference": "Practitioner/6c02a11f-3839-4e43-9baf-3902466f92ea"
      },
      "priority": {
        "coding": [ {
          "system": "http://terminology.hl7.org/CodeSystem/processpriority",
          "code": "normal"
        } ]
      },
      "diagnosis": [ {
        "sequence": 1,
        "diagnosisCodeableConcept": {
          "coding": [ {
            "system": "http://hl7.org/fhir/sid/icd-10-cm",
            "code": "I63.00"
          } ]
        },
        "type": [ {
          "coding": [ {
            "system": "http://terminology.hl7.org/CodeSystem/ex-diagnosistype",
            "code": "principal"
          } ]
        } ]
      } ],
      "insurance": [ {
        "sequence": 1,
        "focal": true,
        "coverage": {
          "reference": "Coverage/5fa041661c76ba66d9959367"
        }
      } ],
      "item": [ {
        "sequence": 1,
        "diagnosisSequence": [ 1 ],
        "productOrService": {
          "coding": [ {
            "system": "http://terminology.hl7.org/CodeSystem/ex-USCLS",
            "code": "99555"
          } ]
        },
        "encounter": [ {
          "reference": "Encounter/76e6ad87-cedd-49e7-86ac-57e1b4aa1d32"
        } ]
      } ]
    },
    "request": {
      "method": "PUT",
      "url": "Claim/5ca62962b8484628b8de1ec5"
    }
  }, {
    "fullUrl": "https://madie.cms.gov/Procedure/cd103a3e-862a-4b08-aedc-c5c07db82ad1",
    "resource": {
      "resourceType": "Procedure",
      "id": "cd103a3e-862a-4b08-aedc-c5c07db82ad1",
      "meta": {
        "profile": [ "http://hl7.org/fhir/us/qicore/StructureDefinition/qicore-procedure" ]
      },
      "extension": [ {
        "url": "http://hl7.org/fhir/us/qicore/StructureDefinition/qicore-recorded",
        "valueDateTime": "2026-10-10T06:00:00Z"
      } ],
      "status": "completed",
      "code": {
        "coding": [ {
          "system": "http://snomed.info/sct",
          "code": "307521008"
        } ]
      },
      "subject": {
        "reference": "Patient/cbe5f41b-754f-49d8-91c4-85823628ceff"
      },
      "performedPeriod": {
        "start": "2026-10-10T06:00:00Z",
        "end": "2026-10-10T08:30:00.000+00:00"
      }
    },
    "request": {
      "method": "PUT",
      "url": "Procedure/cd103a3e-862a-4b08-aedc-c5c07db82ad1"
    }
  }, {
    "fullUrl": "https://madie.cms.gov/Organization/7537b783-2553-4bd9-ac01-6207177a558d",
    "resource": {
      "resourceType": "Organization",
      "id": "7537b783-2553-4bd9-ac01-6207177a558d",
      "meta": {
        "profile": [ "http://hl7.org/fhir/us/qicore/StructureDefinition/qicore-organization" ]
      },
      "identifier": [ {
        "use": "temp",
        "system": "urn:oid:2.16.840.1.113883.4.4",
        "value": "21-3259825"
      } ],
      "active": true,
      "type": [ {
        "coding": [ {
          "system": "http://terminology.hl7.org/CodeSystem/organization-type",
          "code": "pay",
          "display": "Payer"
        } ]
      } ],
      "name": "Blue Cross Blue Shield of Texas",
      "telecom": [ {
        "system": "phone",
        "value": "(+1) 972-766-6900"
      } ],
      "address": [ {
        "use": "billing",
        "type": "postal",
        "line": [ "P.O. Box 660044" ],
        "city": "Dallas",
        "state": "TX",
        "postalCode": "75266-0044",
        "country": "USA"
      } ]
    },
    "request": {
      "method": "PUT",
      "url": "Organization/7537b783-2553-4bd9-ac01-6207177a558d"
    }
  }, {
    "fullUrl": "https://madie.cms.gov/Practitioner/6c02a11f-3839-4e43-9baf-3902466f92ea",
    "resource": {
      "resourceType": "Practitioner",
      "id": "6c02a11f-3839-4e43-9baf-3902466f92ea",
      "identifier": [ {
        "system": "http://hl7.org/fhir/sid/us-npi",
        "value": "123456"
      } ],
      "name": [ {
        "family": "Evil",
        "prefix": [ "Dr" ]
      } ]
    },
    "request": {
      "method": "PUT",
      "url": "Practitioner/6c02a11f-3839-4e43-9baf-3902466f92ea"
    }
  }, {
    "fullUrl": "https://madie.cms.gov/MeasureReport/529ae603-5d53-41df-8937-4b9cb38f557e",
    "resource": {
      "resourceType": "MeasureReport",
      "id": "529ae603-5d53-41df-8937-4b9cb38f557e",
      "meta": {
        "profile": [ "http://hl7.org/fhir/us/cqfmeasures/StructureDefinition/test-case-cqfm" ]
      },
      "contained": [ {
        "resourceType": "Parameters",
        "id": "c9387e92-8420-4872-80c6-e8a6bfb40a5d-parameters",
        "parameter": [ {
          "name": "subject",
          "valueString": "cbe5f41b-754f-49d8-91c4-85823628ceff"
        } ]
      } ],
      "extension": [ {
        "url": "http://hl7.org/fhir/StructureDefinition/cqf-inputParameters",
        "valueReference": {
          "reference": "#c9387e92-8420-4872-80c6-e8a6bfb40a5d-parameters"
        }
      }, {
        "url": "http://hl7.org/fhir/us/cqfmeasures/StructureDefinition/cqfm-testCaseDescription",
        "valueMarkdown": "Patient has  Proc IV or IA TPA concurrent with start of ED encounter, global.\"Hospitalization\" =(Ed+IP)\n"
      } ],
      "modifierExtension": [ {
        "url": "http://hl7.org/fhir/us/cqfmeasures/StructureDefinition/cqfm-isTestCase",
        "valueBoolean": true
      } ],
      "status": "complete",
      "type": "individual",
      "measure": "https://madie.cms.gov/Measure/CMS72FHIRSTKAntithromboticDay2",
      "period": {
        "start": "2026-01-01",
        "end": "2026-12-31"
      },
      "group": [ {
        "id": "Group_1",
        "population": [ {
          "id": "InitialPopulation_1",
          "code": {
            "coding": [ {
              "system": "http://terminology.hl7.org/CodeSystem/measure-population",
              "code": "initial-population",
              "display": "Initial Population"
            } ]
          },
          "count": 1
        }, {
          "id": "Denominator_1",
          "code": {
            "coding": [ {
              "system": "http://terminology.hl7.org/CodeSystem/measure-population",
              "code": "denominator",
              "display": "Denominator"
            } ]
          },
          "count": 1
        }, {
          "id": "DenominatorExclusion_1",
          "code": {
            "coding": [ {
              "system": "http://terminology.hl7.org/CodeSystem/measure-population",
              "code": "denominator-exclusion",
              "display": "Denominator Exclusion"
            } ]
          },
          "count": 1
        }, {
          "id": "Numerator_1",
          "code": {
            "coding": [ {
              "system": "http://terminology.hl7.org/CodeSystem/measure-population",
              "code": "numerator",
              "display": "Numerator"
            } ]
          },
          "count": 0
        }, {
          "id": "DenominatorException_1",
          "code": {
            "coding": [ {
              "system": "http://terminology.hl7.org/CodeSystem/measure-population",
              "code": "denominator-exception",
              "display": "Denominator Exception"
            } ]
          },
          "count": 0
        } ],
        "measureScore": {
          "value": 0.0
        }
      } ],
      "evaluatedResource": [ {
        "reference": "Patient/cbe5f41b-754f-49d8-91c4-85823628ceff"
      }, {
        "reference": "Encounter/9fa6c2b2-a636-4b33-b37a-e885e4dd90b0"
      }, {
        "reference": "Encounter/76e6ad87-cedd-49e7-86ac-57e1b4aa1d32"
      }, {
        "reference": "Coverage/34120f25-1044-48d9-8eed-8ab07b3c4ade"
      }, {
        "reference": "Condition/6194b686-bcfa-4e8e-a1b6-0354ef9a9eb8"
      }, {
        "reference": "Claim/5ca62962b8484628b8de1ec5"
      }, {
        "reference": "Procedure/cd103a3e-862a-4b08-aedc-c5c07db82ad1"
      }, {
        "reference": "Organization/7537b783-2553-4bd9-ac01-6207177a558d"
      }, {
        "reference": "Practitioner/6c02a11f-3839-4e43-9baf-3902466f92ea"
      } ]
    },
    "request": {
      "method": "PUT",
      "url": "MeasureReport/529ae603-5d53-41df-8937-4b9cb38f557e"
    }
  } ]
}