{
  "resourceType": "Bundle",
  "id": "6129135802c62a011f2e760d",
  "type": "transaction",
  "entry": [ {
    "fullUrl": "https://madie.cms.gov/Patient/35db40dc-2669-4ea3-98f1-9ef8e45bf6c5",
    "resource": {
      "resourceType": "Patient",
      "id": "35db40dc-2669-4ea3-98f1-9ef8e45bf6c5",
      "meta": {
        "profile": [ "http://hl7.org/fhir/us/qicore/StructureDefinition/qicore-patient" ]
      },
      "text": {
        "status": "generated",
        "div": "<div xmlns=\"http://www.w3.org/1999/xhtml\"><div class=\"hapiHeaderText\">AllSTKEncounter_FailAllNoSTK <b>IPFAIL </b></div><table class=\"hapiPropertyTable\"><tbody><tr><td>Identifier</td><td>05f04bc3a037918e7f8e8e698f994329</td></tr><tr><td>Date of birth</td><td><span>21 August 1994</span></td></tr></tbody></table></div>"
      },
      "extension": [ {
        "url": "http://hl7.org/fhir/us/core/StructureDefinition/us-core-race",
        "extension": [ {
          "url": "ombCategory",
          "valueCoding": {
            "system": "urn:oid:2.16.840.1.113883.6.238",
            "code": "1002-5",
            "display": "American Indian or Alaska Native",
            "userSelected": true
          }
        }, {
          "url": "text",
          "valueString": "American Indian or Alaska Native"
        } ]
      }, {
        "url": "http://hl7.org/fhir/us/core/StructureDefinition/us-core-ethnicity",
        "extension": [ {
          "url": "ombCategory",
          "valueCoding": {
            "system": "urn:oid:2.16.840.1.113883.6.238",
            "code": "2135-2",
            "display": "Hispanic or Latino",
            "userSelected": true
          }
        }, {
          "url": "text",
          "valueString": "Hispanic or Latino"
        } ]
      } ],
      "identifier": [ {
        "type": {
          "coding": [ {
            "system": "http://terminology.hl7.org/CodeSystem/v2-0203",
            "code": "MR"
          } ]
        },
        "system": "https://bonnie-fhir.healthit.gov/",
        "value": "6129135802c62a011f2e760d"
      } ],
      "active": true,
      "name": [ {
        "use": "usual",
        "family": "IPFail",
        "given": [ "AllSTKEncounter_FailAllNoSTK" ]
      } ],
      "gender": "male",
      "birthDate": "2004-08-21"
    },
    "request": {
      "method": "PUT",
      "url": "Patient/35db40dc-2669-4ea3-98f1-9ef8e45bf6c5"
    }
  }, {
    "fullUrl": "https://madie.cms.gov/Encounter/ea8e8c0c-915a-46ae-85fe-0f1ecb6f724b",
    "resource": {
      "resourceType": "Encounter",
      "id": "ea8e8c0c-915a-46ae-85fe-0f1ecb6f724b",
      "meta": {
        "profile": [ "http://hl7.org/fhir/us/qicore/StructureDefinition/qicore-encounter" ]
      },
      "status": "finished",
      "class": {
        "system": "http://terminology.hl7.org/CodeSystem/v3-ActCode",
        "code": "IMP",
        "display": "inpatient encounter",
        "userSelected": true
      },
      "type": [ {
        "coding": [ {
          "system": "http://snomed.info/sct",
          "code": "32485007"
        } ]
      } ],
      "subject": {
        "reference": "Patient/35db40dc-2669-4ea3-98f1-9ef8e45bf6c5"
      },
      "period": {
        "start": "2026-08-21T09:30:00.000+00:00",
        "end": "2026-12-19T10:30:00.000+00:00"
      },
      "length": {
        "value": 120.0,
        "unit": "days"
      }
    },
    "request": {
      "method": "PUT",
      "url": "Encounter/ea8e8c0c-915a-46ae-85fe-0f1ecb6f724b"
    }
  }, {
    "fullUrl": "https://madie.cms.gov/Coverage/9febd9c8-b977-4abb-8877-684e362bdcd8",
    "resource": {
      "resourceType": "Coverage",
      "id": "9febd9c8-b977-4abb-8877-684e362bdcd8",
      "meta": {
        "profile": [ "http://hl7.org/fhir/us/qicore/StructureDefinition/qicore-coverage" ]
      },
      "status": "active",
      "beneficiary": {
        "reference": "Patient/35db40dc-2669-4ea3-98f1-9ef8e45bf6c5"
      },
      "payor": [ {
        "reference": "Organization/719fd356-1be9-42d8-9cce-327cbdfaa37d"
      } ]
    },
    "request": {
      "method": "PUT",
      "url": "Coverage/9febd9c8-b977-4abb-8877-684e362bdcd8"
    }
  }, {
    "fullUrl": "https://madie.cms.gov/Organization/719fd356-1be9-42d8-9cce-327cbdfaa37d",
    "resource": {
      "resourceType": "Organization",
      "id": "719fd356-1be9-42d8-9cce-327cbdfaa37d",
      "meta": {
        "profile": [ "http://hl7.org/fhir/us/qicore/StructureDefinition/qicore-organization" ]
      },
      "identifier": [ {
        "use": "temp",
        "system": "urn:oid:2.16.840.1.113883.4.4",
        "value": "21-3259825"
      } ],
      "active": true,
      "type": [ {
        "coding": [ {
          "system": "http://terminology.hl7.org/CodeSystem/organization-type",
          "code": "pay",
          "display": "Payer"
        } ]
      } ],
      "name": "Blue Cross Blue Shield of Texas",
      "telecom": [ {
        "system": "phone",
        "value": "(+1) 972-766-6900"
      } ],
      "address": [ {
        "use": "billing",
        "type": "postal",
        "line": [ "P.O. Box 660044" ],
        "city": "Dallas",
        "state": "TX",
        "postalCode": "75266-0044",
        "country": "USA"
      } ]
    },
    "request": {
      "method": "PUT",
      "url": "Organization/719fd356-1be9-42d8-9cce-327cbdfaa37d"
    }
  }, {
    "fullUrl": "https://madie.cms.gov/MeasureReport/e8e0fe9b-54ce-4a80-abd6-542ce3ce5636",
    "resource": {
      "resourceType": "MeasureReport",
      "id": "e8e0fe9b-54ce-4a80-abd6-542ce3ce5636",
      "meta": {
        "profile": [ "http://hl7.org/fhir/us/cqfmeasures/StructureDefinition/test-case-cqfm" ]
      },
      "contained": [ {
        "resourceType": "Parameters",
        "id": "bf2252fe-1064-4eba-9151-f49d4630e759-parameters",
        "parameter": [ {
          "name": "subject",
          "valueString": "35db40dc-2669-4ea3-98f1-9ef8e45bf6c5"
        } ]
      } ],
      "extension": [ {
        "url": "http://hl7.org/fhir/StructureDefinition/cqf-inputParameters",
        "valueReference": {
          "reference": "#bf2252fe-1064-4eba-9151-f49d4630e759-parameters"
        }
      }, {
        "url": "http://hl7.org/fhir/us/cqfmeasures/StructureDefinition/cqfm-testCaseDescription",
        "valueMarkdown": "Patient is 18 with Non-Elective Inpatient Encounter (LOS 120 days) ends during MP with no diagnosis of stroke"
      } ],
      "modifierExtension": [ {
        "url": "http://hl7.org/fhir/us/cqfmeasures/StructureDefinition/cqfm-isTestCase",
        "valueBoolean": true
      } ],
      "status": "complete",
      "type": "individual",
      "measure": "https://madie.cms.gov/Measure/CMS104FHIRSTKDCAntithrombotic",
      "period": {
        "start": "2026-01-01",
        "end": "2026-12-31"
      },
      "group": [ {
        "id": "Group_1",
        "population": [ {
          "id": "InitialPopulation_1",
          "code": {
            "coding": [ {
              "system": "http://terminology.hl7.org/CodeSystem/measure-population",
              "code": "initial-population",
              "display": "Initial Population"
            } ]
          },
          "count": 0
        }, {
          "id": "Denominator_1",
          "code": {
            "coding": [ {
              "system": "http://terminology.hl7.org/CodeSystem/measure-population",
              "code": "denominator",
              "display": "Denominator"
            } ]
          },
          "count": 0
        }, {
          "id": "DenominatorExclusion_1",
          "code": {
            "coding": [ {
              "system": "http://terminology.hl7.org/CodeSystem/measure-population",
              "code": "denominator-exclusion",
              "display": "Denominator Exclusion"
            } ]
          },
          "count": 0
        }, {
          "id": "Numerator_1",
          "code": {
            "coding": [ {
              "system": "http://terminology.hl7.org/CodeSystem/measure-population",
              "code": "numerator",
              "display": "Numerator"
            } ]
          },
          "count": 0
        }, {
          "id": "DenominatorException_1",
          "code": {
            "coding": [ {
              "system": "http://terminology.hl7.org/CodeSystem/measure-population",
              "code": "denominator-exception",
              "display": "Denominator Exception"
            } ]
          },
          "count": 0
        } ],
        "measureScore": {
          "value": 0.0
        }
      } ],
      "evaluatedResource": [ {
        "reference": "Patient/35db40dc-2669-4ea3-98f1-9ef8e45bf6c5"
      }, {
        "reference": "Encounter/ea8e8c0c-915a-46ae-85fe-0f1ecb6f724b"
      }, {
        "reference": "Coverage/9febd9c8-b977-4abb-8877-684e362bdcd8"
      }, {
        "reference": "Organization/719fd356-1be9-42d8-9cce-327cbdfaa37d"
      } ]
    },
    "request": {
      "method": "PUT",
      "url": "MeasureReport/e8e0fe9b-54ce-4a80-abd6-542ce3ce5636"
    }
  } ]
}