{
  "resourceType": "Bundle",
  "id": "6129132702c62a011f2e604d",
  "type": "transaction",
  "entry": [ {
    "fullUrl": "https://madie.cms.gov/Patient/3f52eee2-8cec-45d5-a0c2-0e843e108dc3",
    "resource": {
      "resourceType": "Patient",
      "id": "3f52eee2-8cec-45d5-a0c2-0e843e108dc3",
      "meta": {
        "profile": [ "http://hl7.org/fhir/us/qicore/StructureDefinition/qicore-patient" ]
      },
      "text": {
        "status": "generated",
        "div": "<div xmlns=\"http://www.w3.org/1999/xhtml\"><div class=\"hapiHeaderText\">EncEndsBeforeMP <b>IPFAIL </b></div><table class=\"hapiPropertyTable\"><tbody><tr><td>Identifier</td><td>136bc360ca73a2bb45d29c726b2ca601</td></tr><tr><td>Date of birth</td><td><span>21 August 1993</span></td></tr></tbody></table></div>"
      },
      "extension": [ {
        "url": "http://hl7.org/fhir/us/core/StructureDefinition/us-core-race",
        "extension": [ {
          "url": "ombCategory",
          "valueCoding": {
            "system": "urn:oid:2.16.840.1.113883.6.238",
            "code": "1002-5",
            "display": "American Indian or Alaska Native",
            "userSelected": true
          }
        }, {
          "url": "text",
          "valueString": "American Indian or Alaska Native"
        } ]
      }, {
        "url": "http://hl7.org/fhir/us/core/StructureDefinition/us-core-ethnicity",
        "extension": [ {
          "url": "ombCategory",
          "valueCoding": {
            "system": "urn:oid:2.16.840.1.113883.6.238",
            "code": "2135-2",
            "display": "Hispanic or Latino",
            "userSelected": true
          }
        }, {
          "url": "text",
          "valueString": "Hispanic or Latino"
        } ]
      } ],
      "identifier": [ {
        "type": {
          "coding": [ {
            "system": "http://terminology.hl7.org/CodeSystem/v2-0203",
            "code": "MR"
          } ]
        },
        "system": "https://bonnie-fhir.healthit.gov/",
        "value": "6129132702c62a011f2e604d"
      } ],
      "active": true,
      "name": [ {
        "use": "usual",
        "family": "IPFail",
        "given": [ "EncEndsBeforeMP" ]
      } ],
      "gender": "male",
      "birthDate": "2003-08-21"
    },
    "request": {
      "method": "PUT",
      "url": "Patient/3f52eee2-8cec-45d5-a0c2-0e843e108dc3"
    }
  }, {
    "fullUrl": "https://madie.cms.gov/Encounter/ad8e911f-435e-477a-9ce2-dbf86f3bb970",
    "resource": {
      "resourceType": "Encounter",
      "id": "ad8e911f-435e-477a-9ce2-dbf86f3bb970",
      "meta": {
        "profile": [ "http://hl7.org/fhir/us/qicore/StructureDefinition/qicore-encounter" ]
      },
      "status": "finished",
      "class": {
        "system": "http://terminology.hl7.org/CodeSystem/v3-ActCode",
        "code": "IMP",
        "display": "inpatient encounter",
        "userSelected": true
      },
      "type": [ {
        "coding": [ {
          "system": "http://snomed.info/sct",
          "code": "32485007"
        } ]
      } ],
      "subject": {
        "reference": "Patient/3f52eee2-8cec-45d5-a0c2-0e843e108dc3"
      },
      "period": {
        "start": "2024-12-20T09:30:00.000+00:00",
        "end": "2024-12-23T10:30:00.000+00:00"
      },
      "length": {
        "value": 3,
        "unit": "days"
      },
      "diagnosis": [ {
        "condition": {
          "reference": "Condition/0430c7d4-1a7d-4688-95ff-9eaf5b76ad22"
        },
        "use": {
          "coding": [ {
            "system": "http://terminology.hl7.org/CodeSystem/diagnosis-role",
            "code": "billing",
            "display": "Billing"
          } ]
        },
        "rank": 1
      } ]
    },
    "request": {
      "method": "PUT",
      "url": "Encounter/ad8e911f-435e-477a-9ce2-dbf86f3bb970"
    }
  }, {
    "fullUrl": "https://madie.cms.gov/Condition/0430c7d4-1a7d-4688-95ff-9eaf5b76ad22",
    "resource": {
      "resourceType": "Condition",
      "id": "0430c7d4-1a7d-4688-95ff-9eaf5b76ad22",
      "meta": {
        "profile": [ "http://hl7.org/fhir/us/qicore/StructureDefinition/qicore-condition" ]
      },
      "clinicalStatus": {
        "coding": [ {
          "system": "http://terminology.hl7.org/CodeSystem/condition-clinical",
          "code": "active"
        } ]
      },
      "verificationStatus": {
        "coding": [ {
          "system": "http://terminology.hl7.org/CodeSystem/condition-ver-status",
          "code": "confirmed"
        } ]
      },
      "category": [ {
        "coding": [ {
          "system": "http://terminology.hl7.org/CodeSystem/condition-category",
          "code": "encounter-diagnosis",
          "display": "Encounter Diagnosis"
        } ]
      } ],
      "code": {
        "coding": [ {
          "system": "http://snomed.info/sct",
          "version": "2020-09",
          "code": "111297002",
          "display": "Nonparalytic stroke (disorder)",
          "userSelected": true
        } ]
      },
      "subject": {
        "reference": "Patient/3f52eee2-8cec-45d5-a0c2-0e843e108dc3"
      },
      "recordedDate": "2026-07-15T08:00:00.000+00:00"
    },
    "request": {
      "method": "PUT",
      "url": "Condition/0430c7d4-1a7d-4688-95ff-9eaf5b76ad22"
    }
  }, {
    "fullUrl": "https://madie.cms.gov/Coverage/827955d6-15c2-42f6-8589-bb0d56f3b054",
    "resource": {
      "resourceType": "Coverage",
      "id": "827955d6-15c2-42f6-8589-bb0d56f3b054",
      "meta": {
        "profile": [ "http://hl7.org/fhir/us/qicore/StructureDefinition/qicore-coverage" ]
      },
      "status": "active",
      "beneficiary": {
        "reference": "Patient/3f52eee2-8cec-45d5-a0c2-0e843e108dc3"
      },
      "payor": [ {
        "reference": "Organization/d3e4dcc6-be71-4702-a539-aca6c0151ede"
      } ]
    },
    "request": {
      "method": "PUT",
      "url": "Coverage/827955d6-15c2-42f6-8589-bb0d56f3b054"
    }
  }, {
    "fullUrl": "https://madie.cms.gov/Organization/d3e4dcc6-be71-4702-a539-aca6c0151ede",
    "resource": {
      "resourceType": "Organization",
      "id": "d3e4dcc6-be71-4702-a539-aca6c0151ede",
      "meta": {
        "profile": [ "http://hl7.org/fhir/us/qicore/StructureDefinition/qicore-organization" ]
      },
      "identifier": [ {
        "use": "temp",
        "system": "urn:oid:2.16.840.1.113883.4.4",
        "value": "21-3259825"
      } ],
      "active": true,
      "type": [ {
        "coding": [ {
          "system": "http://terminology.hl7.org/CodeSystem/organization-type",
          "code": "pay",
          "display": "Payer"
        } ]
      } ],
      "name": "Blue Cross Blue Shield of Texas",
      "telecom": [ {
        "system": "phone",
        "value": "(+1) 972-766-6900"
      } ],
      "address": [ {
        "use": "billing",
        "type": "postal",
        "line": [ "P.O. Box 660044" ],
        "city": "Dallas",
        "state": "TX",
        "postalCode": "75266-0044",
        "country": "USA"
      } ]
    },
    "request": {
      "method": "PUT",
      "url": "Organization/d3e4dcc6-be71-4702-a539-aca6c0151ede"
    }
  }, {
    "fullUrl": "https://madie.cms.gov/MeasureReport/09fef16e-124e-438f-851a-cbca17986687",
    "resource": {
      "resourceType": "MeasureReport",
      "id": "09fef16e-124e-438f-851a-cbca17986687",
      "meta": {
        "profile": [ "http://hl7.org/fhir/us/cqfmeasures/StructureDefinition/test-case-cqfm" ]
      },
      "contained": [ {
        "resourceType": "Parameters",
        "id": "83ec2734-1fd2-4add-8226-bbb5a71aa1d8-parameters",
        "parameter": [ {
          "name": "subject",
          "valueString": "3f52eee2-8cec-45d5-a0c2-0e843e108dc3"
        } ]
      } ],
      "extension": [ {
        "url": "http://hl7.org/fhir/StructureDefinition/cqf-inputParameters",
        "valueReference": {
          "reference": "#83ec2734-1fd2-4add-8226-bbb5a71aa1d8-parameters"
        }
      }, {
        "url": "http://hl7.org/fhir/us/cqfmeasures/StructureDefinition/cqfm-testCaseDescription",
        "valueMarkdown": "Patient is 18 with Non-Elective Inpatient Encounter ends before MP with principal diagnosis of stroke\n"
      } ],
      "modifierExtension": [ {
        "url": "http://hl7.org/fhir/us/cqfmeasures/StructureDefinition/cqfm-isTestCase",
        "valueBoolean": true
      } ],
      "status": "complete",
      "type": "individual",
      "measure": "https://madie.cms.gov/Measure/CMS104FHIRSTKDCAntithrombotic",
      "period": {
        "start": "2026-01-01",
        "end": "2026-12-31"
      },
      "group": [ {
        "id": "Group_1",
        "population": [ {
          "id": "InitialPopulation_1",
          "code": {
            "coding": [ {
              "system": "http://terminology.hl7.org/CodeSystem/measure-population",
              "code": "initial-population",
              "display": "Initial Population"
            } ]
          },
          "count": 0
        }, {
          "id": "Denominator_1",
          "code": {
            "coding": [ {
              "system": "http://terminology.hl7.org/CodeSystem/measure-population",
              "code": "denominator",
              "display": "Denominator"
            } ]
          },
          "count": 0
        }, {
          "id": "DenominatorExclusion_1",
          "code": {
            "coding": [ {
              "system": "http://terminology.hl7.org/CodeSystem/measure-population",
              "code": "denominator-exclusion",
              "display": "Denominator Exclusion"
            } ]
          },
          "count": 0
        }, {
          "id": "Numerator_1",
          "code": {
            "coding": [ {
              "system": "http://terminology.hl7.org/CodeSystem/measure-population",
              "code": "numerator",
              "display": "Numerator"
            } ]
          },
          "count": 0
        }, {
          "id": "DenominatorException_1",
          "code": {
            "coding": [ {
              "system": "http://terminology.hl7.org/CodeSystem/measure-population",
              "code": "denominator-exception",
              "display": "Denominator Exception"
            } ]
          },
          "count": 0
        } ],
        "measureScore": {
          "value": 0.0
        }
      } ],
      "evaluatedResource": [ {
        "reference": "Patient/3f52eee2-8cec-45d5-a0c2-0e843e108dc3"
      }, {
        "reference": "Encounter/ad8e911f-435e-477a-9ce2-dbf86f3bb970"
      }, {
        "reference": "Condition/0430c7d4-1a7d-4688-95ff-9eaf5b76ad22"
      }, {
        "reference": "Coverage/827955d6-15c2-42f6-8589-bb0d56f3b054"
      }, {
        "reference": "Organization/d3e4dcc6-be71-4702-a539-aca6c0151ede"
      } ]
    },
    "request": {
      "method": "PUT",
      "url": "MeasureReport/09fef16e-124e-438f-851a-cbca17986687"
    }
  } ]
}