{
  "resourceType": "Bundle",
  "id": "63598dd9c35f1c19df09adbd",
  "type": "transaction",
  "entry": [ {
    "fullUrl": "https://madie.cms.gov/Patient/2fb0f85b-1d63-4dc2-ace9-5d3b17c920c3",
    "resource": {
      "resourceType": "Patient",
      "id": "2fb0f85b-1d63-4dc2-ace9-5d3b17c920c3",
      "meta": {
        "profile": [ "http://hl7.org/fhir/us/qicore/StructureDefinition/qicore-patient" ]
      },
      "text": {
        "status": "generated",
        "div": "<div xmlns=\"http://www.w3.org/1999/xhtml\"><div class=\"hapiHeaderText\">RISKHR24hours1MinB4EDOTTriageEnc<b>RISKFail</b></div><table class=\"hapiPropertyTable\"><tbody><tr><td>Date of birth</td><td><span>01 February 2004</span></td></tr></tbody></table></div>"
      },
      "extension": [ {
        "url": "http://hl7.org/fhir/us/core/StructureDefinition/us-core-race",
        "extension": [ {
          "url": "ombCategory",
          "valueCoding": {
            "system": "urn:oid:2.16.840.1.113883.6.238",
            "code": "1002-5",
            "display": "American Indian or Alaska Native",
            "userSelected": true
          }
        }, {
          "url": "text",
          "valueString": "American Indian or Alaska Native"
        } ]
      }, {
        "url": "http://hl7.org/fhir/us/core/StructureDefinition/us-core-ethnicity",
        "extension": [ {
          "url": "ombCategory",
          "valueCoding": {
            "system": "urn:oid:2.16.840.1.113883.6.238",
            "code": "2135-2",
            "display": "Hispanic or Latino",
            "userSelected": true
          }
        }, {
          "url": "text",
          "valueString": "Hispanic or Latino"
        } ]
      } ],
      "identifier": [ {
        "type": {
          "coding": [ {
            "system": "http://terminology.hl7.org/CodeSystem/v2-0203",
            "code": "MR"
          } ]
        },
        "system": "https://bonnie-fhir.healthit.gov/",
        "value": "63598dd9c35f1c19df09adbd"
      } ],
      "active": true,
      "name": [ {
        "use": "usual",
        "family": "RiskFail",
        "given": [ "RISKHR24hours1MinB4EDOTTriageEnc" ]
      } ],
      "gender": "female",
      "birthDate": "2005-02-01"
    },
    "request": {
      "method": "PUT",
      "url": "Patient/2fb0f85b-1d63-4dc2-ace9-5d3b17c920c3"
    }
  }, {
    "fullUrl": "https://madie.cms.gov/Observation/2c581970-0c02-4ce5-8d96-460fe9a4fa6b",
    "resource": {
      "resourceType": "Observation",
      "id": "2c581970-0c02-4ce5-8d96-460fe9a4fa6b",
      "meta": {
        "profile": [ "http://hl7.org/fhir/us/qicore/StructureDefinition/qicore-simple-observation" ]
      },
      "status": "final",
      "category": [ {
        "coding": [ {
          "system": "http://terminology.hl7.org/CodeSystem/observation-category",
          "code": "exam",
          "display": "exam",
          "userSelected": true
        } ]
      } ],
      "code": {
        "coding": [ {
          "system": "http://loinc.org",
          "code": "93857-1"
        } ]
      },
      "subject": {
        "reference": "Patient/2fb0f85b-1d63-4dc2-ace9-5d3b17c920c3"
      },
      "effectiveDateTime": "2026-02-01T08:00:00Z",
      "performer": [ {
        "reference": "Organization/example1",
        "display": "Hendricks Country Hospital"
      } ],
      "valueDateTime": "2026-02-01T08:00:00Z"
    },
    "request": {
      "method": "PUT",
      "url": "Observation/2c581970-0c02-4ce5-8d96-460fe9a4fa6b"
    }
  }, {
    "fullUrl": "https://madie.cms.gov/Observation/5cec41c3-a1c7-4c08-bbc6-5a4ebfaca22b",
    "resource": {
      "resourceType": "Observation",
      "id": "5cec41c3-a1c7-4c08-bbc6-5a4ebfaca22b",
      "meta": {
        "profile": [ "http://hl7.org/fhir/us/qicore/StructureDefinition/qicore-simple-observation" ]
      },
      "status": "final",
      "category": [ {
        "coding": [ {
          "system": "http://terminology.hl7.org/CodeSystem/observation-category",
          "code": "exam",
          "display": "exam",
          "userSelected": true
        } ]
      } ],
      "code": {
        "coding": [ {
          "system": "http://loinc.org",
          "code": "11884-4"
        } ]
      },
      "subject": {
        "reference": "Patient/2fb0f85b-1d63-4dc2-ace9-5d3b17c920c3"
      },
      "effectiveDateTime": "2026-02-01T08:00:00Z",
      "performer": [ {
        "reference": "Organization/example1",
        "display": "Hendricks Country Hospital"
      } ],
      "valueQuantity": {
        "value": 21,
        "system": "http://unitsofmeasure.org",
        "code": "wk"
      }
    },
    "request": {
      "method": "PUT",
      "url": "Observation/5cec41c3-a1c7-4c08-bbc6-5a4ebfaca22b"
    }
  }, {
    "fullUrl": "https://madie.cms.gov/Condition/b72945ec-b816-4fee-9c89-27d22299a879",
    "resource": {
      "resourceType": "Condition",
      "id": "b72945ec-b816-4fee-9c89-27d22299a879",
      "meta": {
        "profile": [ "http://hl7.org/fhir/us/qicore/StructureDefinition/qicore-condition-encounter-diagnosis" ]
      },
      "category": [ {
        "coding": [ {
          "system": "http://terminology.hl7.org/CodeSystem/condition-category",
          "code": "encounter-diagnosis",
          "display": "Encounter Diagnosis"
        } ]
      } ],
      "code": {
        "coding": [ {
          "system": "http://hl7.org/fhir/sid/icd-10-cm",
          "code": "Z3A.21",
          "display": "21 weeks gestation",
          "userSelected": true
        } ]
      },
      "subject": {
        "reference": "Patient/2fb0f85b-1d63-4dc2-ace9-5d3b17c920c3"
      },
      "recordedDate": "2026-10-26T08:00:00Z"
    },
    "request": {
      "method": "PUT",
      "url": "Condition/b72945ec-b816-4fee-9c89-27d22299a879"
    }
  }, {
    "fullUrl": "https://madie.cms.gov/Encounter/5c808514-9d3f-440a-98af-e7455619db55",
    "resource": {
      "resourceType": "Encounter",
      "id": "5c808514-9d3f-440a-98af-e7455619db55",
      "meta": {
        "profile": [ "http://hl7.org/fhir/us/qicore/StructureDefinition/qicore-encounter" ]
      },
      "status": "finished",
      "class": {
        "system": "http://terminology.hl7.org/CodeSystem/v3-ActCode",
        "code": "IMP",
        "display": "inpatient encounter"
      },
      "type": [ {
        "coding": [ {
          "system": "http://snomed.info/sct",
          "code": "183452005"
        } ]
      } ],
      "subject": {
        "reference": "Patient/2fb0f85b-1d63-4dc2-ace9-5d3b17c920c3"
      },
      "period": {
        "start": "2026-02-01T08:00:00Z",
        "end": "2026-02-05T08:15:00Z"
      },
      "reasonReference": [ {
        "reference": "Condition/b72945ec-b816-4fee-9c89-27d22299a879"
      } ]
    },
    "request": {
      "method": "PUT",
      "url": "Encounter/5c808514-9d3f-440a-98af-e7455619db55"
    }
  }, {
    "fullUrl": "https://madie.cms.gov/Encounter/61de86fc-e756-4bee-a77f-12b65187cbad",
    "resource": {
      "resourceType": "Encounter",
      "id": "61de86fc-e756-4bee-a77f-12b65187cbad",
      "meta": {
        "profile": [ "http://hl7.org/fhir/us/qicore/StructureDefinition/qicore-encounter" ]
      },
      "status": "finished",
      "class": {
        "system": "http://terminology.hl7.org/CodeSystem/v3-ActCode",
        "code": "EMER",
        "display": "emergency"
      },
      "type": [ {
        "coding": [ {
          "system": "http://snomed.info/sct",
          "code": "4525004"
        } ]
      } ],
      "subject": {
        "reference": "Patient/2fb0f85b-1d63-4dc2-ace9-5d3b17c920c3"
      },
      "period": {
        "start": "2026-02-01T07:00:00Z",
        "end": "2026-02-01T07:59:00Z"
      }
    },
    "request": {
      "method": "PUT",
      "url": "Encounter/61de86fc-e756-4bee-a77f-12b65187cbad"
    }
  }, {
    "fullUrl": "https://madie.cms.gov/Procedure/ac00739a-9d8a-4a4e-a90f-11dba45675b3",
    "resource": {
      "resourceType": "Procedure",
      "id": "ac00739a-9d8a-4a4e-a90f-11dba45675b3",
      "meta": {
        "profile": [ "http://hl7.org/fhir/us/qicore/StructureDefinition/qicore-procedure" ]
      },
      "extension": [ {
        "url": "http://hl7.org/fhir/us/qicore/StructureDefinition/qicore-recorded",
        "valueDateTime": "2026-02-04T13:35:00Z"
      } ],
      "status": "completed",
      "code": {
        "coding": [ {
          "system": "http://snomed.info/sct",
          "code": "10745001"
        } ]
      },
      "subject": {
        "reference": "Patient/2fb0f85b-1d63-4dc2-ace9-5d3b17c920c3"
      },
      "performedPeriod": {
        "start": "2026-02-01T08:00:00Z",
        "end": "2026-02-05T08:15:00Z"
      }
    },
    "request": {
      "method": "PUT",
      "url": "Procedure/ac00739a-9d8a-4a4e-a90f-11dba45675b3"
    }
  }, {
    "fullUrl": "https://madie.cms.gov/Observation/4fc72ee6-c43b-4766-9d8c-3d9e17b10d6f",
    "resource": {
      "resourceType": "Observation",
      "id": "4fc72ee6-c43b-4766-9d8c-3d9e17b10d6f",
      "meta": {
        "profile": [ "https://hl7.org/fhir/us/core/STU6.1/StructureDefinition-us-core-heart-rate.html" ]
      },
      "status": "final",
      "category": [ {
        "coding": [ {
          "system": "http://terminology.hl7.org/CodeSystem/observation-category",
          "code": "vital-signs",
          "display": "vital-signs",
          "userSelected": true
        } ]
      } ],
      "code": {
        "coding": [ {
          "system": "http://loinc.org",
          "version": "2.73",
          "code": "8867-4",
          "display": "Heart Rate"
        } ]
      },
      "subject": {
        "reference": "Patient/2fb0f85b-1d63-4dc2-ace9-5d3b17c920c3"
      },
      "effectiveDateTime": "2026-01-31T06:59:00",
      "valueQuantity": {
        "value": 85,
        "unit": "/min",
        "system": "http://unitsofmeasure.org",
        "code": "/min"
      }
    },
    "request": {
      "method": "PUT",
      "url": "Observation/4fc72ee6-c43b-4766-9d8c-3d9e17b10d6f"
    }
  }, {
    "fullUrl": "https://madie.cms.gov/MeasureReport/5719a76a-6c0e-4098-9ba7-650fbcbe066d",
    "resource": {
      "resourceType": "MeasureReport",
      "id": "5719a76a-6c0e-4098-9ba7-650fbcbe066d",
      "meta": {
        "profile": [ "http://hl7.org/fhir/us/cqfmeasures/StructureDefinition/test-case-cqfm" ]
      },
      "contained": [ {
        "resourceType": "Parameters",
        "id": "8fc8be5f-047f-44f0-b956-915d71474e0e-parameters",
        "parameter": [ {
          "name": "subject",
          "valueString": "2fb0f85b-1d63-4dc2-ace9-5d3b17c920c3"
        } ]
      } ],
      "extension": [ {
        "url": "http://hl7.org/fhir/StructureDefinition/cqf-inputParameters",
        "valueReference": {
          "reference": "#8fc8be5f-047f-44f0-b956-915d71474e0e-parameters"
        }
      }, {
        "url": "http://hl7.org/fhir/us/cqfmeasures/StructureDefinition/cqfm-testCaseDescription",
        "valueMarkdown": "Patient with heart rate that starts 24 hours and 1 minute before ED OB Triage encounter.  \n"
      } ],
      "modifierExtension": [ {
        "url": "http://hl7.org/fhir/us/cqfmeasures/StructureDefinition/cqfm-isTestCase",
        "valueBoolean": true
      } ],
      "status": "complete",
      "type": "individual",
      "measure": "https://madie.cms.gov/Measure/CMS1028FHIRPCSevereOBComps",
      "period": {
        "start": "2026-01-01",
        "end": "2026-12-31"
      },
      "group": [ {
        "id": "Group_1",
        "population": [ {
          "id": "InitialPopulation_1",
          "code": {
            "coding": [ {
              "system": "http://terminology.hl7.org/CodeSystem/measure-population",
              "code": "initial-population",
              "display": "Initial Population"
            } ]
          },
          "count": 1
        }, {
          "id": "Denominator_1",
          "code": {
            "coding": [ {
              "system": "http://terminology.hl7.org/CodeSystem/measure-population",
              "code": "denominator",
              "display": "Denominator"
            } ]
          },
          "count": 1
        }, {
          "id": "Numerator_1",
          "code": {
            "coding": [ {
              "system": "http://terminology.hl7.org/CodeSystem/measure-population",
              "code": "numerator",
              "display": "Numerator"
            } ]
          },
          "count": 0
        }, {
          "id": "NumeratorExclusion_1",
          "code": {
            "coding": [ {
              "system": "http://terminology.hl7.org/CodeSystem/measure-population",
              "code": "numerator-exclusion",
              "display": "Numerator Exclusion"
            } ]
          },
          "count": 0
        } ],
        "measureScore": {
          "value": 0.0
        }
      }, {
        "id": "Group_2",
        "population": [ {
          "id": "InitialPopulation_2",
          "code": {
            "coding": [ {
              "system": "http://terminology.hl7.org/CodeSystem/measure-population",
              "code": "initial-population",
              "display": "Initial Population"
            } ]
          },
          "count": 1
        }, {
          "id": "Denominator_2",
          "code": {
            "coding": [ {
              "system": "http://terminology.hl7.org/CodeSystem/measure-population",
              "code": "denominator",
              "display": "Denominator"
            } ]
          },
          "count": 1
        }, {
          "id": "Numerator_2",
          "code": {
            "coding": [ {
              "system": "http://terminology.hl7.org/CodeSystem/measure-population",
              "code": "numerator",
              "display": "Numerator"
            } ]
          },
          "count": 0
        }, {
          "id": "NumeratorExclusion_2",
          "code": {
            "coding": [ {
              "system": "http://terminology.hl7.org/CodeSystem/measure-population",
              "code": "numerator-exclusion",
              "display": "Numerator Exclusion"
            } ]
          },
          "count": 0
        } ],
        "measureScore": {
          "value": 0.0
        }
      } ],
      "evaluatedResource": [ {
        "reference": "Patient/2fb0f85b-1d63-4dc2-ace9-5d3b17c920c3"
      }, {
        "reference": "Observation/2c581970-0c02-4ce5-8d96-460fe9a4fa6b"
      }, {
        "reference": "Observation/5cec41c3-a1c7-4c08-bbc6-5a4ebfaca22b"
      }, {
        "reference": "Condition/b72945ec-b816-4fee-9c89-27d22299a879"
      }, {
        "reference": "Encounter/5c808514-9d3f-440a-98af-e7455619db55"
      }, {
        "reference": "Encounter/61de86fc-e756-4bee-a77f-12b65187cbad"
      }, {
        "reference": "Procedure/ac00739a-9d8a-4a4e-a90f-11dba45675b3"
      }, {
        "reference": "Observation/4fc72ee6-c43b-4766-9d8c-3d9e17b10d6f"
      } ]
    },
    "request": {
      "method": "PUT",
      "url": "MeasureReport/5719a76a-6c0e-4098-9ba7-650fbcbe066d"
    }
  } ]
}