{
  "resourceType": "Bundle",
  "id": "633b3f9e0968f80122503cc0",
  "type": "transaction",
  "entry": [ {
    "fullUrl": "https://madie.cms.gov/Patient/1620c73e-eda0-4b5b-be7f-5c63b06c4dba",
    "resource": {
      "resourceType": "Patient",
      "id": "1620c73e-eda0-4b5b-be7f-5c63b06c4dba",
      "meta": {
        "profile": [ "http://hl7.org/fhir/us/qicore/StructureDefinition/qicore-patient" ]
      },
      "text": {
        "status": "generated",
        "div": "<div xmlns=\"http://www.w3.org/1999/xhtml\"><div class=\"hapiHeaderText\">EncEnd=MPEnd <b>IPOPPass </b></div><table class=\"hapiPropertyTable\"><tbody><tr><td>Date of birth</td><td><span>31 January 2004</span></td></tr></tbody></table></div>"
      },
      "extension": [ {
        "url": "http://hl7.org/fhir/us/core/StructureDefinition/us-core-race",
        "extension": [ {
          "url": "ombCategory",
          "valueCoding": {
            "system": "urn:oid:2.16.840.1.113883.6.238",
            "code": "1002-5",
            "display": "American Indian or Alaska Native",
            "userSelected": true
          }
        }, {
          "url": "text",
          "valueString": "American Indian or Alaska Native"
        } ]
      }, {
        "url": "http://hl7.org/fhir/us/core/StructureDefinition/us-core-ethnicity",
        "extension": [ {
          "url": "ombCategory",
          "valueCoding": {
            "system": "urn:oid:2.16.840.1.113883.6.238",
            "code": "2135-2",
            "display": "Hispanic or Latino",
            "userSelected": true
          }
        }, {
          "url": "text",
          "valueString": "Hispanic or Latino"
        } ]
      } ],
      "identifier": [ {
        "type": {
          "coding": [ {
            "system": "http://terminology.hl7.org/CodeSystem/v2-0203",
            "code": "MR"
          } ]
        },
        "system": "https://bonnie-fhir.healthit.gov/",
        "value": "633b3f9e0968f80122503cc0"
      } ],
      "active": true,
      "name": [ {
        "use": "usual",
        "family": "IPOPPass",
        "given": [ "EncEndEQMPEnd" ]
      } ],
      "gender": "female",
      "birthDate": "2005-01-31"
    },
    "request": {
      "method": "PUT",
      "url": "Patient/1620c73e-eda0-4b5b-be7f-5c63b06c4dba"
    }
  }, {
    "fullUrl": "https://madie.cms.gov/Encounter/6d16ee98-3187-4418-bfd7-f6249a96aac7",
    "resource": {
      "resourceType": "Encounter",
      "id": "6d16ee98-3187-4418-bfd7-f6249a96aac7",
      "meta": {
        "profile": [ "http://hl7.org/fhir/us/qicore/StructureDefinition/qicore-encounter" ]
      },
      "status": "finished",
      "class": {
        "system": "http://terminology.hl7.org/CodeSystem/v3-ActCode",
        "code": "IMP",
        "display": "inpatient encounter"
      },
      "type": [ {
        "coding": [ {
          "system": "http://snomed.info/sct",
          "code": "183452005"
        } ]
      } ],
      "subject": {
        "reference": "Patient/1620c73e-eda0-4b5b-be7f-5c63b06c4dba"
      },
      "period": {
        "start": "2026-02-01T08:00:00Z",
        "end": "2026-12-31T23:59:00Z"
      }
    },
    "request": {
      "method": "PUT",
      "url": "Encounter/6d16ee98-3187-4418-bfd7-f6249a96aac7"
    }
  }, {
    "fullUrl": "https://madie.cms.gov/Procedure/5e722421-17f8-4daa-918f-09a0b1d7d73e",
    "resource": {
      "resourceType": "Procedure",
      "id": "5e722421-17f8-4daa-918f-09a0b1d7d73e",
      "meta": {
        "profile": [ "http://hl7.org/fhir/us/qicore/StructureDefinition/qicore-procedure" ]
      },
      "extension": [ {
        "url": "http://hl7.org/fhir/us/qicore/StructureDefinition/qicore-recorded",
        "valueDateTime": "2014-04-05T13:35:00Z"
      } ],
      "status": "completed",
      "code": {
        "coding": [ {
          "system": "http://snomed.info/sct",
          "code": "10745001"
        } ]
      },
      "subject": {
        "reference": "Patient/1620c73e-eda0-4b5b-be7f-5c63b06c4dba"
      },
      "performedPeriod": {
        "start": "2026-02-01T08:00:00Z",
        "end": "2026-02-05T08:15:00Z"
      }
    },
    "request": {
      "method": "PUT",
      "url": "Procedure/5e722421-17f8-4daa-918f-09a0b1d7d73e"
    }
  }, {
    "fullUrl": "https://madie.cms.gov/Coverage/74b46f4c-f2b5-4b0f-a498-474852de75c7",
    "resource": {
      "resourceType": "Coverage",
      "id": "74b46f4c-f2b5-4b0f-a498-474852de75c7",
      "meta": {
        "profile": [ "http://hl7.org/fhir/us/qicore/StructureDefinition/qicore-coverage" ]
      },
      "status": "active",
      "beneficiary": {
        "reference": "Patient/1620c73e-eda0-4b5b-be7f-5c63b06c4dba"
      },
      "payor": [ {
        "reference": "Organization/f832b199-f9c9-4ac0-9245-fd34d8ef8600"
      } ]
    },
    "request": {
      "method": "PUT",
      "url": "Coverage/74b46f4c-f2b5-4b0f-a498-474852de75c7"
    }
  }, {
    "fullUrl": "https://madie.cms.gov/Organization/f832b199-f9c9-4ac0-9245-fd34d8ef8600",
    "resource": {
      "resourceType": "Organization",
      "id": "f832b199-f9c9-4ac0-9245-fd34d8ef8600",
      "meta": {
        "profile": [ "http://hl7.org/fhir/us/qicore/StructureDefinition/qicore-organization" ]
      },
      "identifier": [ {
        "use": "temp",
        "system": "urn:oid:2.16.840.1.113883.4.4",
        "value": "21-3259825"
      } ],
      "active": true,
      "type": [ {
        "coding": [ {
          "system": "http://terminology.hl7.org/CodeSystem/organization-type",
          "code": "pay",
          "display": "Payer"
        } ]
      } ],
      "name": "Blue Cross Blue Shield of Texas",
      "telecom": [ {
        "system": "phone",
        "value": "(+1) 972-766-6900"
      } ],
      "address": [ {
        "use": "billing",
        "type": "postal",
        "line": [ "P.O. Box 660044" ],
        "city": "Dallas",
        "state": "TX",
        "postalCode": "75266-0044",
        "country": "USA"
      } ]
    },
    "request": {
      "method": "PUT",
      "url": "Organization/f832b199-f9c9-4ac0-9245-fd34d8ef8600"
    }
  }, {
    "fullUrl": "https://madie.cms.gov/Practitioner/74f81c2e-8f61-4bd2-a835-95f8b087beb4",
    "resource": {
      "resourceType": "Practitioner",
      "id": "74f81c2e-8f61-4bd2-a835-95f8b087beb4",
      "identifier": [ {
        "system": "http://hl7.org/fhir/sid/us-npi",
        "value": "123456"
      } ],
      "name": [ {
        "family": "Evil",
        "prefix": [ "Dr" ]
      } ]
    },
    "request": {
      "method": "PUT",
      "url": "Practitioner/74f81c2e-8f61-4bd2-a835-95f8b087beb4"
    }
  }, {
    "fullUrl": "https://madie.cms.gov/MeasureReport/a4ace350-807c-48a5-a72b-a613a77795bf",
    "resource": {
      "resourceType": "MeasureReport",
      "id": "a4ace350-807c-48a5-a72b-a613a77795bf",
      "meta": {
        "profile": [ "http://hl7.org/fhir/us/cqfmeasures/StructureDefinition/test-case-cqfm" ]
      },
      "contained": [ {
        "resourceType": "Parameters",
        "id": "004d3467-7a26-44d7-8224-e7150c484b6c-parameters",
        "parameter": [ {
          "name": "subject",
          "valueString": "1620c73e-eda0-4b5b-be7f-5c63b06c4dba"
        } ]
      } ],
      "extension": [ {
        "url": "http://hl7.org/fhir/StructureDefinition/cqf-inputParameters",
        "valueReference": {
          "reference": "#004d3467-7a26-44d7-8224-e7150c484b6c-parameters"
        }
      }, {
        "url": "http://hl7.org/fhir/us/cqfmeasures/StructureDefinition/cqfm-testCaseDescription",
        "valueMarkdown": "Encounter end equals measurement period end.\n"
      } ],
      "modifierExtension": [ {
        "url": "http://hl7.org/fhir/us/cqfmeasures/StructureDefinition/cqfm-isTestCase",
        "valueBoolean": true
      } ],
      "status": "complete",
      "type": "individual",
      "measure": "https://madie.cms.gov/Measure/CMS1028FHIRPCSevereOBComps",
      "period": {
        "start": "2026-01-01",
        "end": "2026-12-31"
      },
      "group": [ {
        "id": "Group_1",
        "population": [ {
          "id": "InitialPopulation_1",
          "code": {
            "coding": [ {
              "system": "http://terminology.hl7.org/CodeSystem/measure-population",
              "code": "initial-population",
              "display": "Initial Population"
            } ]
          },
          "count": 1
        }, {
          "id": "Denominator_1",
          "code": {
            "coding": [ {
              "system": "http://terminology.hl7.org/CodeSystem/measure-population",
              "code": "denominator",
              "display": "Denominator"
            } ]
          },
          "count": 0
        }, {
          "id": "Numerator_1",
          "code": {
            "coding": [ {
              "system": "http://terminology.hl7.org/CodeSystem/measure-population",
              "code": "numerator",
              "display": "Numerator"
            } ]
          },
          "count": 0
        }, {
          "id": "NumeratorExclusion_1",
          "code": {
            "coding": [ {
              "system": "http://terminology.hl7.org/CodeSystem/measure-population",
              "code": "numerator-exclusion",
              "display": "Numerator Exclusion"
            } ]
          },
          "count": 0
        } ],
        "measureScore": {
          "value": 0.0
        }
      }, {
        "id": "Group_2",
        "population": [ {
          "id": "InitialPopulation_2",
          "code": {
            "coding": [ {
              "system": "http://terminology.hl7.org/CodeSystem/measure-population",
              "code": "initial-population",
              "display": "Initial Population"
            } ]
          },
          "count": 1
        }, {
          "id": "Denominator_2",
          "code": {
            "coding": [ {
              "system": "http://terminology.hl7.org/CodeSystem/measure-population",
              "code": "denominator",
              "display": "Denominator"
            } ]
          },
          "count": 0
        }, {
          "id": "Numerator_2",
          "code": {
            "coding": [ {
              "system": "http://terminology.hl7.org/CodeSystem/measure-population",
              "code": "numerator",
              "display": "Numerator"
            } ]
          },
          "count": 0
        }, {
          "id": "NumeratorExclusion_2",
          "code": {
            "coding": [ {
              "system": "http://terminology.hl7.org/CodeSystem/measure-population",
              "code": "numerator-exclusion",
              "display": "Numerator Exclusion"
            } ]
          },
          "count": 0
        } ],
        "measureScore": {
          "value": 0.0
        }
      } ],
      "evaluatedResource": [ {
        "reference": "Patient/1620c73e-eda0-4b5b-be7f-5c63b06c4dba"
      }, {
        "reference": "Encounter/6d16ee98-3187-4418-bfd7-f6249a96aac7"
      }, {
        "reference": "Procedure/5e722421-17f8-4daa-918f-09a0b1d7d73e"
      }, {
        "reference": "Coverage/74b46f4c-f2b5-4b0f-a498-474852de75c7"
      }, {
        "reference": "Organization/f832b199-f9c9-4ac0-9245-fd34d8ef8600"
      }, {
        "reference": "Practitioner/74f81c2e-8f61-4bd2-a835-95f8b087beb4"
      } ]
    },
    "request": {
      "method": "PUT",
      "url": "MeasureReport/a4ace350-807c-48a5-a72b-a613a77795bf"
    }
  } ]
}