{
  "resourceType": "Bundle",
  "id": "60f82c2f98086b570510e29b",
  "type": "transaction",
  "entry": [ {
    "fullUrl": "https://madie.cms.gov/Patient/07663bba-9abe-46e2-b2e6-bcfc26e57a45",
    "resource": {
      "resourceType": "Patient",
      "id": "07663bba-9abe-46e2-b2e6-bcfc26e57a45",
      "meta": {
        "profile": [ "http://hl7.org/fhir/us/qicore/StructureDefinition/qicore-patient" ]
      },
      "text": {
        "status": "generated",
        "div": "<div xmlns=\"http://www.w3.org/1999/xhtml\"><div class=\"hapiHeaderText\">TPADocumentDurEncStart <b>DENEXPASS </b></div><table class=\"hapiPropertyTable\"><tbody><tr><td>Identifier</td><td>5981f557d06c41b4b186d8d3a5e5beb330864a8389842b2eb20afd1fb0cd01de</td></tr><tr><td>Date of birth</td><td><span>26 September 1975</span></td></tr></tbody></table></div>"
      },
      "extension": [ {
        "url": "http://hl7.org/fhir/us/core/StructureDefinition/us-core-race",
        "extension": [ {
          "url": "ombCategory",
          "valueCoding": {
            "system": "urn:oid:2.16.840.1.113883.6.238",
            "code": "2054-5",
            "display": "Black or African American",
            "userSelected": true
          }
        }, {
          "url": "text",
          "valueString": "Black or African American"
        } ]
      }, {
        "url": "http://hl7.org/fhir/us/core/StructureDefinition/us-core-ethnicity",
        "extension": [ {
          "url": "ombCategory",
          "valueCoding": {
            "system": "urn:oid:2.16.840.1.113883.6.238",
            "code": "2186-5",
            "display": "Not Hispanic or Latino",
            "userSelected": true
          }
        }, {
          "url": "text",
          "valueString": "Not Hispanic or Latino"
        } ]
      } ],
      "identifier": [ {
        "type": {
          "coding": [ {
            "system": "http://terminology.hl7.org/CodeSystem/v2-0203",
            "code": "MR"
          } ]
        },
        "system": "https://bonnie-fhir.healthit.gov/",
        "value": "60f82c2f98086b570510e29b"
      } ],
      "active": true,
      "name": [ {
        "use": "usual",
        "family": "DENEXPass",
        "given": [ "TPADocumentDurEncStart" ]
      } ],
      "gender": "female",
      "birthDate": "1976-09-26"
    },
    "request": {
      "method": "PUT",
      "url": "Patient/07663bba-9abe-46e2-b2e6-bcfc26e57a45"
    }
  }, {
    "fullUrl": "https://madie.cms.gov/Condition/2fe87125-1c1c-445e-b270-47c9b85c260c",
    "resource": {
      "resourceType": "Condition",
      "id": "2fe87125-1c1c-445e-b270-47c9b85c260c",
      "meta": {
        "profile": [ "http://hl7.org/fhir/us/qicore/StructureDefinition/qicore-condition-problems-health-concerns" ]
      },
      "clinicalStatus": {
        "coding": [ {
          "system": "http://terminology.hl7.org/CodeSystem/condition-clinical",
          "code": "active",
          "display": "active",
          "userSelected": true
        } ]
      },
      "verificationStatus": {
        "coding": [ {
          "system": "http://terminology.hl7.org/CodeSystem/condition-ver-status",
          "code": "confirmed",
          "display": "confirmed",
          "userSelected": true
        } ]
      },
      "category": [ {
        "coding": [ {
          "system": "http://terminology.hl7.org/CodeSystem/condition-category",
          "code": "problem-list-item",
          "display": "Problem List Item"
        } ]
      } ],
      "code": {
        "coding": [ {
          "system": "http://hl7.org/fhir/sid/icd-10-cm",
          "code": "Z92.82",
          "display": "Thrombolytic Therapy Given"
        } ]
      },
      "subject": {
        "reference": "Patient/07663bba-9abe-46e2-b2e6-bcfc26e57a45"
      },
      "onsetDateTime": "2026-10-10T06:16:00Z",
      "recordedDate": "2026-10-11T06:15:00.000+00:00"
    },
    "request": {
      "method": "PUT",
      "url": "Condition/2fe87125-1c1c-445e-b270-47c9b85c260c"
    }
  }, {
    "fullUrl": "https://madie.cms.gov/Encounter/a00ceddd-3769-4e68-998f-f3e50d3b981e",
    "resource": {
      "resourceType": "Encounter",
      "id": "a00ceddd-3769-4e68-998f-f3e50d3b981e",
      "meta": {
        "profile": [ "http://hl7.org/fhir/us/qicore/StructureDefinition/qicore-encounter" ]
      },
      "status": "finished",
      "class": {
        "system": "http://terminology.hl7.org/CodeSystem/v3-ActCode",
        "code": "IMP",
        "display": "inpatient encounter"
      },
      "type": [ {
        "coding": [ {
          "system": "http://snomed.info/sct",
          "code": "32485007"
        } ]
      } ],
      "subject": {
        "reference": "Patient/07663bba-9abe-46e2-b2e6-bcfc26e57a45"
      },
      "period": {
        "start": "2026-10-10T06:15:00Z",
        "end": "2026-10-24T11:30:00.000+00:00"
      },
      "length": {
        "value": 14,
        "unit": "days"
      },
      "reasonReference": [ {
        "reference": "Condition/2fe87125-1c1c-445e-b270-47c9b85c260c"
      } ]
    },
    "request": {
      "method": "PUT",
      "url": "Encounter/a00ceddd-3769-4e68-998f-f3e50d3b981e"
    }
  }, {
    "fullUrl": "https://madie.cms.gov/claim/5ca62962b8484628b8de1ec5",
    "resource": {
      "resourceType": "Claim",
      "id": "5ca62962b8484628b8de1ec5",
      "meta": {
        "profile": [ "http://hl7.org/fhir/us/qicore/StructureDefinition/qicore-claim" ]
      },
      "status": "active",
      "type": {
        "coding": [ {
          "system": "http://terminology.hl7.org/CodeSystem/claim-type",
          "code": "institutional"
        } ]
      },
      "use": "claim",
      "patient": {
        "reference": "Patient/07663bba-9abe-46e2-b2e6-bcfc26e57a45"
      },
      "created": "2026-12-01",
      "provider": {
        "reference": "Practitioner/4e5675d0-b807-40b7-9704-c1ad41b44c3d"
      },
      "priority": {
        "coding": [ {
          "system": "http://terminology.hl7.org/CodeSystem/processpriority",
          "code": "normal"
        } ]
      },
      "diagnosis": [ {
        "sequence": 1,
        "diagnosisCodeableConcept": {
          "coding": [ {
            "system": "http://hl7.org/fhir/sid/icd-10-cm",
            "code": "I63.00"
          } ]
        },
        "type": [ {
          "coding": [ {
            "system": "http://terminology.hl7.org/CodeSystem/ex-diagnosistype",
            "code": "principal"
          } ]
        } ]
      } ],
      "insurance": [ {
        "sequence": 1,
        "focal": true,
        "coverage": {
          "reference": "Coverage/3c0d74cf-bb72-423d-9b48-9c1a202dace1"
        }
      } ],
      "item": [ {
        "sequence": 1,
        "diagnosisSequence": [ 1 ],
        "productOrService": {
          "coding": [ {
            "system": "http://terminology.hl7.org/CodeSystem/ex-USCLS",
            "code": "99555"
          } ]
        },
        "encounter": [ {
          "reference": "Encounter/a00ceddd-3769-4e68-998f-f3e50d3b981e"
        } ]
      } ]
    },
    "request": {
      "method": "PUT",
      "url": "Claim/5ca62962b8484628b8de1ec5"
    }
  }, {
    "fullUrl": "https://madie.cms.gov/Coverage/3c0d74cf-bb72-423d-9b48-9c1a202dace1",
    "resource": {
      "resourceType": "Coverage",
      "id": "3c0d74cf-bb72-423d-9b48-9c1a202dace1",
      "status": "active",
      "beneficiary": {
        "reference": "Patient/07663bba-9abe-46e2-b2e6-bcfc26e57a45"
      },
      "period": {
        "start": "1976-09-26T08:00:00Z"
      },
      "payor": [ {
        "reference": "Organization/cd92a107-bf0d-433e-bbb1-395c2619878d"
      } ]
    },
    "request": {
      "method": "PUT",
      "url": "Coverage/3c0d74cf-bb72-423d-9b48-9c1a202dace1"
    }
  }, {
    "fullUrl": "https://madie.cms.gov/Condition/e0fd7792-57a3-4f43-ad2e-460155a6712d",
    "resource": {
      "resourceType": "Condition",
      "id": "e0fd7792-57a3-4f43-ad2e-460155a6712d",
      "meta": {
        "profile": [ "http://hl7.org/fhir/us/qicore/StructureDefinition/qicore-condition-encounter-diagnosis" ]
      },
      "clinicalStatus": {
        "coding": [ {
          "system": "http://terminology.hl7.org/CodeSystem/condition-clinical",
          "code": "active"
        } ]
      },
      "verificationStatus": {
        "coding": [ {
          "system": "http://terminology.hl7.org/CodeSystem/condition-ver-status",
          "code": "confirmed"
        } ]
      },
      "category": [ {
        "coding": [ {
          "system": "http://terminology.hl7.org/CodeSystem/condition-category",
          "code": "encounter-diagnosis",
          "display": "Encounter Diagnosis"
        } ]
      } ],
      "code": {
        "coding": [ {
          "system": "http://snomed.info/sct",
          "version": "2020-09",
          "code": "111297002",
          "display": "Nonparalytic stroke (disorder)",
          "userSelected": true
        } ]
      },
      "subject": {
        "reference": "Patient/07663bba-9abe-46e2-b2e6-bcfc26e57a45"
      },
      "recordedDate": "2026-08-13T08:00:00Z"
    },
    "request": {
      "method": "PUT",
      "url": "Condition/e0fd7792-57a3-4f43-ad2e-460155a6712d"
    }
  }, {
    "fullUrl": "https://madie.cms.gov/Organization/cd92a107-bf0d-433e-bbb1-395c2619878d",
    "resource": {
      "resourceType": "Organization",
      "id": "cd92a107-bf0d-433e-bbb1-395c2619878d",
      "meta": {
        "profile": [ "http://hl7.org/fhir/us/qicore/StructureDefinition/qicore-organization" ]
      },
      "identifier": [ {
        "use": "temp",
        "system": "urn:oid:2.16.840.1.113883.4.4",
        "value": "21-3259825"
      } ],
      "active": true,
      "type": [ {
        "coding": [ {
          "system": "http://terminology.hl7.org/CodeSystem/organization-type",
          "code": "pay",
          "display": "Payer"
        } ]
      } ],
      "name": "Blue Cross Blue Shield of Texas",
      "telecom": [ {
        "system": "phone",
        "value": "(+1) 972-766-6900"
      } ],
      "address": [ {
        "use": "billing",
        "type": "postal",
        "line": [ "P.O. Box 660044" ],
        "city": "Dallas",
        "state": "TX",
        "postalCode": "75266-0044",
        "country": "USA"
      } ]
    },
    "request": {
      "method": "PUT",
      "url": "Organization/cd92a107-bf0d-433e-bbb1-395c2619878d"
    }
  }, {
    "fullUrl": "https://madie.cms.gov/Practitioner/4e5675d0-b807-40b7-9704-c1ad41b44c3d",
    "resource": {
      "resourceType": "Practitioner",
      "id": "4e5675d0-b807-40b7-9704-c1ad41b44c3d",
      "identifier": [ {
        "system": "http://hl7.org/fhir/sid/us-npi",
        "value": "123456"
      } ],
      "name": [ {
        "family": "Evil",
        "prefix": [ "Dr" ]
      } ]
    },
    "request": {
      "method": "PUT",
      "url": "Practitioner/4e5675d0-b807-40b7-9704-c1ad41b44c3d"
    }
  }, {
    "fullUrl": "https://madie.cms.gov/MeasureReport/1a79f391-18ac-499b-a15b-211739c60fdc",
    "resource": {
      "resourceType": "MeasureReport",
      "id": "1a79f391-18ac-499b-a15b-211739c60fdc",
      "meta": {
        "profile": [ "http://hl7.org/fhir/us/cqfmeasures/StructureDefinition/test-case-cqfm" ]
      },
      "contained": [ {
        "resourceType": "Parameters",
        "id": "348fd9c1-2d70-45f6-b228-988b7dde6724-parameters",
        "parameter": [ {
          "name": "subject",
          "valueString": "07663bba-9abe-46e2-b2e6-bcfc26e57a45"
        } ]
      } ],
      "extension": [ {
        "url": "http://hl7.org/fhir/StructureDefinition/cqf-inputParameters",
        "valueReference": {
          "reference": "#348fd9c1-2d70-45f6-b228-988b7dde6724-parameters"
        }
      }, {
        "url": "http://hl7.org/fhir/us/cqfmeasures/StructureDefinition/cqfm-testCaseDescription",
        "valueMarkdown": "Coverage for condition of Prior TPA "
      } ],
      "modifierExtension": [ {
        "url": "http://hl7.org/fhir/us/cqfmeasures/StructureDefinition/cqfm-isTestCase",
        "valueBoolean": true
      } ],
      "status": "complete",
      "type": "individual",
      "measure": "https://madie.cms.gov/Measure/CMS72FHIRSTKAntithromboticDay2",
      "period": {
        "start": "2026-01-01",
        "end": "2026-12-31"
      },
      "group": [ {
        "id": "Group_1",
        "population": [ {
          "id": "InitialPopulation_1",
          "code": {
            "coding": [ {
              "system": "http://terminology.hl7.org/CodeSystem/measure-population",
              "code": "initial-population",
              "display": "Initial Population"
            } ]
          },
          "count": 1
        }, {
          "id": "Denominator_1",
          "code": {
            "coding": [ {
              "system": "http://terminology.hl7.org/CodeSystem/measure-population",
              "code": "denominator",
              "display": "Denominator"
            } ]
          },
          "count": 1
        }, {
          "id": "DenominatorExclusion_1",
          "code": {
            "coding": [ {
              "system": "http://terminology.hl7.org/CodeSystem/measure-population",
              "code": "denominator-exclusion",
              "display": "Denominator Exclusion"
            } ]
          },
          "count": 1
        }, {
          "id": "Numerator_1",
          "code": {
            "coding": [ {
              "system": "http://terminology.hl7.org/CodeSystem/measure-population",
              "code": "numerator",
              "display": "Numerator"
            } ]
          },
          "count": 0
        }, {
          "id": "DenominatorException_1",
          "code": {
            "coding": [ {
              "system": "http://terminology.hl7.org/CodeSystem/measure-population",
              "code": "denominator-exception",
              "display": "Denominator Exception"
            } ]
          },
          "count": 0
        } ],
        "measureScore": {
          "value": 0.0
        }
      } ],
      "evaluatedResource": [ {
        "reference": "Patient/07663bba-9abe-46e2-b2e6-bcfc26e57a45"
      }, {
        "reference": "Condition/2fe87125-1c1c-445e-b270-47c9b85c260c"
      }, {
        "reference": "Encounter/a00ceddd-3769-4e68-998f-f3e50d3b981e"
      }, {
        "reference": "Claim/5ca62962b8484628b8de1ec5"
      }, {
        "reference": "Coverage/3c0d74cf-bb72-423d-9b48-9c1a202dace1"
      }, {
        "reference": "Condition/e0fd7792-57a3-4f43-ad2e-460155a6712d"
      }, {
        "reference": "Organization/cd92a107-bf0d-433e-bbb1-395c2619878d"
      }, {
        "reference": "Practitioner/4e5675d0-b807-40b7-9704-c1ad41b44c3d"
      } ]
    },
    "request": {
      "method": "PUT",
      "url": "MeasureReport/1a79f391-18ac-499b-a15b-211739c60fdc"
    }
  } ]
}