{
  "resourceType": "Bundle",
  "id": "633b3f9f0968f80122503ce3",
  "type": "transaction",
  "entry": [ {
    "fullUrl": "https://madie.cms.gov/Patient/f538dfbc-b3d0-48c5-aed5-76a2e2515f2d",
    "resource": {
      "resourceType": "Patient",
      "id": "f538dfbc-b3d0-48c5-aed5-76a2e2515f2d",
      "meta": {
        "profile": [ "http://hl7.org/fhir/us/qicore/StructureDefinition/qicore-patient" ]
      },
      "text": {
        "status": "generated",
        "div": "<div xmlns=\"http://www.w3.org/1999/xhtml\"><div class=\"hapiHeaderText\">LastAssPrfEGAResultQuantityEQ19wk<b>DENOMFAIL</b></div><table class=\"hapiPropertyTable\"><tbody><tr><td>Date of birth</td><td><span>01 February 2004</span></td></tr></tbody></table></div>"
      },
      "extension": [ {
        "url": "http://hl7.org/fhir/us/core/StructureDefinition/us-core-race",
        "extension": [ {
          "url": "ombCategory",
          "valueCoding": {
            "system": "urn:oid:2.16.840.1.113883.6.238",
            "code": "1002-5",
            "display": "American Indian or Alaska Native",
            "userSelected": true
          }
        }, {
          "url": "text",
          "valueString": "American Indian or Alaska Native"
        } ]
      }, {
        "url": "http://hl7.org/fhir/us/core/StructureDefinition/us-core-ethnicity",
        "extension": [ {
          "url": "ombCategory",
          "valueCoding": {
            "system": "urn:oid:2.16.840.1.113883.6.238",
            "code": "2135-2",
            "display": "Hispanic or Latino",
            "userSelected": true
          }
        }, {
          "url": "text",
          "valueString": "Hispanic or Latino"
        } ]
      } ],
      "identifier": [ {
        "type": {
          "coding": [ {
            "system": "http://terminology.hl7.org/CodeSystem/v2-0203",
            "code": "MR"
          } ]
        },
        "system": "https://bonnie-fhir.healthit.gov/",
        "value": "633b3f9f0968f80122503ce3"
      } ],
      "active": true,
      "name": [ {
        "use": "usual",
        "family": "DENOMFail",
        "given": [ "LastAssPrfEGAResultQuantityEQ19wk" ]
      } ],
      "gender": "female",
      "birthDate": "2005-02-01"
    },
    "request": {
      "method": "PUT",
      "url": "Patient/f538dfbc-b3d0-48c5-aed5-76a2e2515f2d"
    }
  }, {
    "fullUrl": "https://madie.cms.gov/Observation/50d01e5b-67ed-4e89-beeb-c6ba7d9bf69e",
    "resource": {
      "resourceType": "Observation",
      "id": "50d01e5b-67ed-4e89-beeb-c6ba7d9bf69e",
      "meta": {
        "profile": [ "http://hl7.org/fhir/us/qicore/StructureDefinition/qicore-simple-observation" ]
      },
      "status": "final",
      "category": [ {
        "coding": [ {
          "system": "http://terminology.hl7.org/CodeSystem/observation-category",
          "code": "exam",
          "display": "exam",
          "userSelected": true
        } ]
      } ],
      "code": {
        "coding": [ {
          "system": "http://loinc.org",
          "code": "93857-1"
        } ]
      },
      "subject": {
        "reference": "Patient/f538dfbc-b3d0-48c5-aed5-76a2e2515f2d"
      },
      "effectiveDateTime": "2026-02-01T08:00:00Z",
      "performer": [ {
        "reference": "Organization/example1",
        "display": "Hendricks Country Hospital"
      } ],
      "valueDateTime": "2026-02-01T08:00:00.000+00:00"
    },
    "request": {
      "method": "PUT",
      "url": "Observation/50d01e5b-67ed-4e89-beeb-c6ba7d9bf69e"
    }
  }, {
    "fullUrl": "https://madie.cms.gov/Observation/38761620-5aa6-4ac2-9332-41bcbbded7da",
    "resource": {
      "resourceType": "Observation",
      "id": "38761620-5aa6-4ac2-9332-41bcbbded7da",
      "meta": {
        "profile": [ "http://hl7.org/fhir/us/qicore/StructureDefinition/qicore-simple-observation" ]
      },
      "status": "final",
      "category": [ {
        "coding": [ {
          "system": "http://terminology.hl7.org/CodeSystem/observation-category",
          "code": "exam",
          "display": "exam",
          "userSelected": true
        } ]
      } ],
      "code": {
        "coding": [ {
          "system": "http://loinc.org",
          "code": "11884-4"
        } ]
      },
      "subject": {
        "reference": "Patient/f538dfbc-b3d0-48c5-aed5-76a2e2515f2d"
      },
      "effectiveDateTime": "2026-02-01T07:00:00Z",
      "performer": [ {
        "reference": "Organization/example1",
        "display": "Hendricks Country Hospital"
      } ],
      "valueQuantity": {
        "value": 20,
        "unit": "wk"
      }
    },
    "request": {
      "method": "PUT",
      "url": "Observation/38761620-5aa6-4ac2-9332-41bcbbded7da"
    }
  }, {
    "fullUrl": "https://madie.cms.gov/Observation/ad44d68b-fd7e-4289-b757-9fd7e566ae22",
    "resource": {
      "resourceType": "Observation",
      "id": "ad44d68b-fd7e-4289-b757-9fd7e566ae22",
      "meta": {
        "profile": [ "http://hl7.org/fhir/us/qicore/StructureDefinition/qicore-simple-observation" ]
      },
      "status": "final",
      "category": [ {
        "coding": [ {
          "system": "http://terminology.hl7.org/CodeSystem/observation-category",
          "code": "exam",
          "display": "exam",
          "userSelected": true
        } ]
      } ],
      "code": {
        "coding": [ {
          "system": "http://loinc.org",
          "code": "11884-4"
        } ]
      },
      "subject": {
        "reference": "Patient/f538dfbc-b3d0-48c5-aed5-76a2e2515f2d"
      },
      "effectiveDateTime": "2026-02-01T08:00:00Z",
      "performer": [ {
        "reference": "Organization/example1",
        "display": "Hendricks Country Hospital"
      } ],
      "valueQuantity": {
        "value": 19,
        "unit": "wk"
      }
    },
    "request": {
      "method": "PUT",
      "url": "Observation/ad44d68b-fd7e-4289-b757-9fd7e566ae22"
    }
  }, {
    "fullUrl": "https://madie.cms.gov/Encounter/d5046b67-7a5b-473a-ab64-659638dbffa8",
    "resource": {
      "resourceType": "Encounter",
      "id": "d5046b67-7a5b-473a-ab64-659638dbffa8",
      "meta": {
        "profile": [ "http://hl7.org/fhir/us/qicore/StructureDefinition/qicore-encounter" ]
      },
      "status": "finished",
      "class": {
        "system": "http://terminology.hl7.org/CodeSystem/v3-ActCode",
        "code": "IMP",
        "display": "inpatient encounter"
      },
      "type": [ {
        "coding": [ {
          "system": "http://snomed.info/sct",
          "code": "183452005"
        } ]
      } ],
      "subject": {
        "reference": "Patient/f538dfbc-b3d0-48c5-aed5-76a2e2515f2d"
      },
      "period": {
        "start": "2026-02-01T08:00:00Z",
        "end": "2026-02-05T08:15:00.000+00:00"
      },
      "reasonCode": [ {
        "coding": [ {
          "system": "http://snomed.info/sct",
          "code": "169826009",
          "display": "Single live birth from singleton pregnancy (finding)"
        } ]
      } ]
    },
    "request": {
      "method": "PUT",
      "url": "Encounter/d5046b67-7a5b-473a-ab64-659638dbffa8"
    }
  }, {
    "fullUrl": "https://madie.cms.gov/Coverage/21e19388-aaa4-4274-9e72-6bba0ac32bb2",
    "resource": {
      "resourceType": "Coverage",
      "id": "21e19388-aaa4-4274-9e72-6bba0ac32bb2",
      "status": "active",
      "subscriberId": "523435",
      "beneficiary": {
        "reference": "Patient/f538dfbc-b3d0-48c5-aed5-76a2e2515f2d"
      },
      "relationship": {
        "coding": [ {
          "system": "http://terminology.hl7.org/CodeSystem/subscriber-relationship",
          "code": "self"
        } ]
      },
      "period": {
        "start": "2005-02-01T08:00:00Z"
      },
      "payor": [ {
        "reference": "Organization/fbc6e979-f2ae-4108-ace0-58467a9c62fa"
      } ]
    },
    "request": {
      "method": "PUT",
      "url": "Coverage/21e19388-aaa4-4274-9e72-6bba0ac32bb2"
    }
  }, {
    "fullUrl": "https://madie.cms.gov/Procedure/15db562f-5f13-4b86-add9-187b3d0fa972",
    "resource": {
      "resourceType": "Procedure",
      "id": "15db562f-5f13-4b86-add9-187b3d0fa972",
      "meta": {
        "profile": [ "http://hl7.org/fhir/us/qicore/StructureDefinition/qicore-procedure" ]
      },
      "extension": [ {
        "url": "http://hl7.org/fhir/us/qicore/StructureDefinition/qicore-recorded",
        "valueDateTime": "2014-04-05T13:35:00Z"
      } ],
      "status": "completed",
      "code": {
        "coding": [ {
          "system": "http://snomed.info/sct",
          "code": "10745001"
        } ]
      },
      "subject": {
        "reference": "Patient/f538dfbc-b3d0-48c5-aed5-76a2e2515f2d"
      },
      "performedPeriod": {
        "start": "2026-02-01T08:00:00Z",
        "end": "2026-02-05T08:15:00.000+00:00"
      }
    },
    "request": {
      "method": "PUT",
      "url": "Procedure/15db562f-5f13-4b86-add9-187b3d0fa972"
    }
  }, {
    "fullUrl": "https://madie.cms.gov/Organization/fbc6e979-f2ae-4108-ace0-58467a9c62fa",
    "resource": {
      "resourceType": "Organization",
      "id": "fbc6e979-f2ae-4108-ace0-58467a9c62fa",
      "meta": {
        "profile": [ "http://hl7.org/fhir/us/qicore/StructureDefinition/qicore-organization" ]
      },
      "identifier": [ {
        "use": "temp",
        "system": "urn:oid:2.16.840.1.113883.4.4",
        "value": "21-3259825"
      } ],
      "active": true,
      "type": [ {
        "coding": [ {
          "system": "http://terminology.hl7.org/CodeSystem/organization-type",
          "code": "pay",
          "display": "Payer"
        } ]
      } ],
      "name": "Blue Cross Blue Shield of Texas",
      "telecom": [ {
        "system": "phone",
        "value": "(+1) 972-766-6900"
      } ],
      "address": [ {
        "use": "billing",
        "type": "postal",
        "line": [ "P.O. Box 660044" ],
        "city": "Dallas",
        "state": "TX",
        "postalCode": "75266-0044",
        "country": "USA"
      } ]
    },
    "request": {
      "method": "PUT",
      "url": "Organization/fbc6e979-f2ae-4108-ace0-58467a9c62fa"
    }
  }, {
    "fullUrl": "https://madie.cms.gov/Practitioner/54d73e8b-b5eb-4498-905f-7bc272f7110e",
    "resource": {
      "resourceType": "Practitioner",
      "id": "54d73e8b-b5eb-4498-905f-7bc272f7110e",
      "meta": {
        "profile": [ "http://hl7.org/fhir/us/qicore/StructureDefinition/qicore-practitioner" ]
      },
      "identifier": [ {
        "system": "http://hl7.org/fhir/sid/us-npi",
        "value": "1234567890"
      } ],
      "name": [ {
        "family": "Evil",
        "prefix": [ "Dr" ]
      } ]
    },
    "request": {
      "method": "PUT",
      "url": "Practitioner/54d73e8b-b5eb-4498-905f-7bc272f7110e"
    }
  }, {
    "fullUrl": "https://madie.cms.gov/MeasureReport/5f80d614-2960-4de2-b423-86a58ed4de5e",
    "resource": {
      "resourceType": "MeasureReport",
      "id": "5f80d614-2960-4de2-b423-86a58ed4de5e",
      "meta": {
        "profile": [ "http://hl7.org/fhir/us/cqfmeasures/StructureDefinition/test-case-cqfm" ]
      },
      "contained": [ {
        "resourceType": "Parameters",
        "id": "52b76518-43c0-4726-b92f-6131ddb42c67-parameters",
        "parameter": [ {
          "name": "subject",
          "valueString": "f538dfbc-b3d0-48c5-aed5-76a2e2515f2d"
        } ]
      } ],
      "extension": [ {
        "url": "http://hl7.org/fhir/StructureDefinition/cqf-inputParameters",
        "valueReference": {
          "reference": "#52b76518-43c0-4726-b92f-6131ddb42c67-parameters"
        }
      }, {
        "url": "http://hl7.org/fhir/us/cqfmeasures/StructureDefinition/cqfm-testCaseDescription",
        "valueMarkdown": "Last Assessment Performed EGA = 19 weeks\n"
      } ],
      "modifierExtension": [ {
        "url": "http://hl7.org/fhir/us/cqfmeasures/StructureDefinition/cqfm-isTestCase",
        "valueBoolean": true
      } ],
      "status": "complete",
      "type": "individual",
      "measure": "https://madie.cms.gov/Measure/CMS1028FHIRPCSevereOBComps",
      "period": {
        "start": "2026-01-01",
        "end": "2026-12-31"
      },
      "group": [ {
        "id": "Group_1",
        "population": [ {
          "id": "InitialPopulation_1",
          "code": {
            "coding": [ {
              "system": "http://terminology.hl7.org/CodeSystem/measure-population",
              "code": "initial-population",
              "display": "Initial Population"
            } ]
          },
          "count": 1
        }, {
          "id": "Denominator_1",
          "code": {
            "coding": [ {
              "system": "http://terminology.hl7.org/CodeSystem/measure-population",
              "code": "denominator",
              "display": "Denominator"
            } ]
          },
          "count": 0
        }, {
          "id": "Numerator_1",
          "code": {
            "coding": [ {
              "system": "http://terminology.hl7.org/CodeSystem/measure-population",
              "code": "numerator",
              "display": "Numerator"
            } ]
          },
          "count": 0
        }, {
          "id": "NumeratorExclusion_1",
          "code": {
            "coding": [ {
              "system": "http://terminology.hl7.org/CodeSystem/measure-population",
              "code": "numerator-exclusion",
              "display": "Numerator Exclusion"
            } ]
          },
          "count": 0
        } ],
        "measureScore": {
          "value": 0.0
        }
      }, {
        "id": "Group_2",
        "population": [ {
          "id": "InitialPopulation_2",
          "code": {
            "coding": [ {
              "system": "http://terminology.hl7.org/CodeSystem/measure-population",
              "code": "initial-population",
              "display": "Initial Population"
            } ]
          },
          "count": 1
        }, {
          "id": "Denominator_2",
          "code": {
            "coding": [ {
              "system": "http://terminology.hl7.org/CodeSystem/measure-population",
              "code": "denominator",
              "display": "Denominator"
            } ]
          },
          "count": 0
        }, {
          "id": "Numerator_2",
          "code": {
            "coding": [ {
              "system": "http://terminology.hl7.org/CodeSystem/measure-population",
              "code": "numerator",
              "display": "Numerator"
            } ]
          },
          "count": 0
        }, {
          "id": "NumeratorExclusion_2",
          "code": {
            "coding": [ {
              "system": "http://terminology.hl7.org/CodeSystem/measure-population",
              "code": "numerator-exclusion",
              "display": "Numerator Exclusion"
            } ]
          },
          "count": 0
        } ],
        "measureScore": {
          "value": 0.0
        }
      } ],
      "evaluatedResource": [ {
        "reference": "Patient/f538dfbc-b3d0-48c5-aed5-76a2e2515f2d"
      }, {
        "reference": "Observation/50d01e5b-67ed-4e89-beeb-c6ba7d9bf69e"
      }, {
        "reference": "Observation/38761620-5aa6-4ac2-9332-41bcbbded7da"
      }, {
        "reference": "Observation/ad44d68b-fd7e-4289-b757-9fd7e566ae22"
      }, {
        "reference": "Encounter/d5046b67-7a5b-473a-ab64-659638dbffa8"
      }, {
        "reference": "Coverage/21e19388-aaa4-4274-9e72-6bba0ac32bb2"
      }, {
        "reference": "Procedure/15db562f-5f13-4b86-add9-187b3d0fa972"
      }, {
        "reference": "Organization/fbc6e979-f2ae-4108-ace0-58467a9c62fa"
      }, {
        "reference": "Practitioner/54d73e8b-b5eb-4498-905f-7bc272f7110e"
      } ]
    },
    "request": {
      "method": "PUT",
      "url": "MeasureReport/5f80d614-2960-4de2-b423-86a58ed4de5e"
    }
  } ]
}