{
  "resourceType": "Bundle",
  "id": "661579e3db207d74c03b8a54",
  "type": "transaction",
  "entry": [ {
    "fullUrl": "https://madie.cms.gov/Patient/d5fe6f9c-6036-4004-9993-290f3a2be34a",
    "resource": {
      "resourceType": "Patient",
      "id": "d5fe6f9c-6036-4004-9993-290f3a2be34a",
      "meta": {
        "profile": [ "http://hl7.org/fhir/us/qicore/StructureDefinition/qicore-patient" ]
      },
      "extension": [ {
        "url": "http://hl7.org/fhir/us/core/StructureDefinition/us-core-race",
        "extension": [ {
          "url": "ombCategory",
          "valueCoding": {
            "system": "urn:oid:2.16.840.1.113883.6.238",
            "code": "1002-5",
            "display": "American Indian or Alaska Native",
            "userSelected": true
          }
        }, {
          "url": "text",
          "valueString": "American Indian or Alaska Native"
        }, {
          "url": "detailed",
          "valueCoding": {
            "system": "urn:oid:2.16.840.1.113883.6.238",
            "code": "1653-5",
            "display": "Tohono O'Odham"
          }
        } ]
      }, {
        "url": "http://hl7.org/fhir/us/core/StructureDefinition/us-core-ethnicity",
        "extension": [ {
          "url": "ombCategory",
          "valueCoding": {
            "system": "urn:oid:2.16.840.1.113883.6.238",
            "code": "2186-5",
            "display": "Not Hispanic or Latino",
            "userSelected": true
          }
        }, {
          "url": "text",
          "valueString": "Not Hispanic or Latino"
        }, {
          "url": "detailed",
          "valueCoding": {
            "system": "urn:oid:2.16.840.1.113883.6.238",
            "code": "2153-5",
            "display": "Mexican American Indian"
          }
        } ]
      } ],
      "identifier": [ {
        "type": {
          "coding": [ {
            "system": "http://terminology.hl7.org/CodeSystem/v2-0203",
            "code": "MR"
          } ]
        },
        "system": "https://bonnie-fhir.healthit.gov/",
        "value": "62aa60bdc4be4c506d4a534b"
      } ],
      "name": [ {
        "family": "NUMERStrat1Pass",
        "given": [ "TimeToTx61Min" ]
      } ],
      "gender": "other",
      "birthDate": "2011-12-31",
      "address": [ {
        "use": "home",
        "line": [ "Van Egmondkade 23" ],
        "city": "Amsterdam",
        "postalCode": "1024 RJ",
        "country": "NLD"
      } ]
    },
    "request": {
      "method": "PUT",
      "url": "Patient/d5fe6f9c-6036-4004-9993-290f3a2be34a"
    }
  }, {
    "fullUrl": "https://madie.cms.gov/Encounter/8007a9fa-c9aa-4d40-81fa-b0c1154dbed1",
    "resource": {
      "resourceType": "Encounter",
      "id": "8007a9fa-c9aa-4d40-81fa-b0c1154dbed1",
      "meta": {
        "profile": [ "http://hl7.org/fhir/us/qicore/StructureDefinition/qicore-encounter" ]
      },
      "status": "finished",
      "class": {
        "system": "http://terminology.hl7.org/CodeSystem/v3-ActCode",
        "code": "EMER",
        "display": "emergency"
      },
      "type": [ {
        "coding": [ {
          "system": "http://snomed.info/sct",
          "version": "2023-09",
          "code": "4525004",
          "display": "Emergency department patient visit (procedure)",
          "userSelected": true
        } ]
      } ],
      "subject": {
        "reference": "Patient/d5fe6f9c-6036-4004-9993-290f3a2be34a"
      },
      "period": {
        "start": "2027-05-01T08:00:00.000+00:00",
        "end": "2027-05-01T12:15:00.000+00:00"
      },
      "diagnosis": [ {
        "condition": {
          "reference": "Condition/7020f6b5-543b-4620-a7b4-8554f5f7d79a"
        },
        "use": {
          "coding": [ {
            "system": "http://terminology.hl7.org/CodeSystem/diagnosis-role",
            "code": "billing"
          } ]
        },
        "rank": 1
      } ],
      "location": [ {
        "location": {
          "reference": "Location/679150c5-bddd-4a98-8aa7-d9071287153e"
        },
        "period": {
          "start": "2027-05-01T07:45:00.000+00:00",
          "end": "2027-05-01T12:15:00.000+00:00"
        }
      }, {
        "location": {
          "reference": "Location/ca4143ff-e422-4689-8110-81dff83a2586"
        },
        "period": {
          "start": "2027-05-01T09:01:00.000+00:00",
          "end": "2027-05-01T12:15:00.000+00:00"
        }
      } ]
    },
    "request": {
      "method": "PUT",
      "url": "Encounter/8007a9fa-c9aa-4d40-81fa-b0c1154dbed1"
    }
  }, {
    "fullUrl": "https://madie.cms.gov/Location/679150c5-bddd-4a98-8aa7-d9071287153e",
    "resource": {
      "resourceType": "Location",
      "id": "679150c5-bddd-4a98-8aa7-d9071287153e",
      "meta": {
        "profile": [ "http://hl7.org/fhir/us/qicore/StructureDefinition/qicore-location" ]
      },
      "identifier": [ {
        "use": "usual",
        "system": "http://exampleoflocation.com",
        "value": "B1-S.F1"
      } ],
      "name": "Emergency Department",
      "type": [ {
        "coding": [ {
          "system": "https://www.cdc.gov/nhsn/cdaportal/terminology/codesystem/hsloc.html",
          "version": "2022",
          "code": "1108-0",
          "display": "Emergency Department",
          "userSelected": true
        } ]
      } ]
    },
    "request": {
      "method": "PUT",
      "url": "Location/679150c5-bddd-4a98-8aa7-d9071287153e"
    }
  }, {
    "fullUrl": "https://madie.cms.gov/Location/ca4143ff-e422-4689-8110-81dff83a2586",
    "resource": {
      "resourceType": "Location",
      "id": "ca4143ff-e422-4689-8110-81dff83a2586",
      "meta": {
        "profile": [ "http://hl7.org/fhir/us/qicore/StructureDefinition/qicore-location" ]
      },
      "identifier": [ {
        "use": "usual",
        "system": "http://exampleoflocation.com",
        "value": "B1-S.F2"
      } ],
      "name": "Treatment Room",
      "type": [ {
        "coding": [ {
          "system": "https://www.cdc.gov/nhsn/cdaportal/terminology/codesystem/hsloc.html",
          "version": "2022",
          "code": "1209-6",
          "display": "Treatment Room",
          "userSelected": true
        } ]
      } ]
    },
    "request": {
      "method": "PUT",
      "url": "Location/ca4143ff-e422-4689-8110-81dff83a2586"
    }
  }, {
    "fullUrl": "https://madie.cms.gov/Condition/7020f6b5-543b-4620-a7b4-8554f5f7d79a",
    "resource": {
      "resourceType": "Condition",
      "id": "7020f6b5-543b-4620-a7b4-8554f5f7d79a",
      "meta": {
        "profile": [ "http://hl7.org/fhir/us/qicore/StructureDefinition/qicore-condition-encounter-diagnosis" ]
      },
      "category": [ {
        "coding": [ {
          "system": "http://terminology.hl7.org/CodeSystem/condition-category",
          "code": "encounter-diagnosis",
          "display": "Encounter Diagnosis"
        } ]
      } ],
      "code": {
        "coding": [ {
          "system": "http://snomed.info/sct",
          "version": "2023-09",
          "code": "10674711000119105",
          "display": "Acute severe exacerbation of asthma co-occurrent with allergic rhinitis (disorder)",
          "userSelected": true
        } ]
      },
      "subject": {
        "reference": "Patient/d5fe6f9c-6036-4004-9993-290f3a2be34a"
      },
      "recordedDate": "2027-04-09T08:00:00.000+00:00"
    },
    "request": {
      "method": "PUT",
      "url": "Condition/7020f6b5-543b-4620-a7b4-8554f5f7d79a"
    }
  }, {
    "fullUrl": "https://madie.cms.gov/Location/31af0770-87c4-4b32-bb9c-1b4f84a87013",
    "resource": {
      "resourceType": "Location",
      "id": "31af0770-87c4-4b32-bb9c-1b4f84a87013",
      "meta": {
        "profile": [ "http://hl7.org/fhir/us/qicore/StructureDefinition/qicore-location" ]
      },
      "identifier": [ {
        "use": "usual",
        "system": "http://exampleoflocation.com",
        "value": "B1-S.F2"
      } ],
      "name": "Emergency Department",
      "type": [ {
        "coding": [ {
          "system": "https://www.cdc.gov/nhsn/cdaportal/terminology/codesystem/hsloc.html",
          "version": "2022",
          "code": "1108-0",
          "display": "Emergency Department",
          "userSelected": true
        } ]
      } ]
    },
    "request": {
      "method": "PUT",
      "url": "Location/31af0770-87c4-4b32-bb9c-1b4f84a87013"
    }
  }, {
    "fullUrl": "https://madie.cms.gov/Location/79f7680f-c611-415f-b271-61ffd6aded81",
    "resource": {
      "resourceType": "Location",
      "id": "79f7680f-c611-415f-b271-61ffd6aded81",
      "meta": {
        "profile": [ "http://hl7.org/fhir/us/qicore/StructureDefinition/qicore-location" ]
      },
      "identifier": [ {
        "use": "usual",
        "system": "http://exampleoflocation.com",
        "value": "B1-S.F2"
      } ],
      "name": "MEmergency Department",
      "type": [ {
        "coding": [ {
          "system": "https://www.cdc.gov/nhsn/cdaportal/terminology/codesystem/hsloc.html",
          "version": "2022",
          "code": "1209-6",
          "display": "Treatment Room"
        } ]
      } ]
    },
    "request": {
      "method": "PUT",
      "url": "Location/79f7680f-c611-415f-b271-61ffd6aded81"
    }
  }, {
    "fullUrl": "https://madie.cms.gov/claim/ClaimBehavior-NotSubsAbuse",
    "resource": {
      "resourceType": "Claim",
      "id": "ClaimBehavior-NotSubsAbuse",
      "meta": {
        "profile": [ "http://hl7.org/fhir/us/qicore/StructureDefinition/qicore-claim" ]
      },
      "status": "active",
      "type": {
        "coding": [ {
          "system": "http://terminology.hl7.org/CodeSystem/claim-type",
          "code": "institutional"
        } ]
      },
      "use": "claim",
      "patient": {
        "reference": "Patient/d5fe6f9c-6036-4004-9993-290f3a2be34a"
      },
      "created": "2027-05-01",
      "provider": {
        "reference": "Practitioner/ca361e8a-a6f1-4164-8fd7-7f39728f17d0"
      },
      "priority": {
        "coding": [ {
          "system": "http://terminology.hl7.org/CodeSystem/processpriority",
          "code": "normal"
        } ]
      },
      "diagnosis": [ {
        "sequence": 1,
        "diagnosisReference": {
          "reference": "Condition/7020f6b5-543b-4620-a7b4-8554f5f7d79a"
        },
        "type": [ {
          "coding": [ {
            "system": "http://terminology.hl7.org/CodeSystem/ex-diagnosistype",
            "code": "principal"
          } ]
        } ]
      } ],
      "insurance": [ {
        "sequence": 1,
        "focal": true,
        "coverage": {
          "reference": "Coverage/607bc53a-8d0a-4183-9ea4-baa781489ff4"
        }
      } ],
      "item": [ {
        "sequence": 1,
        "diagnosisSequence": [ 1 ],
        "productOrService": {
          "coding": [ {
            "system": "http://terminology.hl7.org/CodeSystem/ex-USCLS",
            "code": "99555"
          } ]
        },
        "encounter": [ {
          "reference": "Encounter/8007a9fa-c9aa-4d40-81fa-b0c1154dbed1"
        } ]
      } ]
    },
    "request": {
      "method": "PUT",
      "url": "Claim/ClaimBehavior-NotSubsAbuse"
    }
  }, {
    "fullUrl": "https://madie.cms.gov/Coverage/607bc53a-8d0a-4183-9ea4-baa781489ff4",
    "resource": {
      "resourceType": "Coverage",
      "id": "607bc53a-8d0a-4183-9ea4-baa781489ff4",
      "meta": {
        "profile": [ "http://hl7.org/fhir/us/qicore/StructureDefinition/qicore-coverage" ]
      },
      "identifier": [ {
        "type": {
          "coding": [ {
            "system": "http://terminology.hl7.org/CodeSystem/v2-0203",
            "code": "MB"
          } ]
        }
      } ],
      "status": "active",
      "type": {
        "coding": [ {
          "system": "https://nahdo.org/sopt",
          "code": "1",
          "display": "MEDICARE"
        } ]
      },
      "beneficiary": {
        "reference": "Patient/d5fe6f9c-6036-4004-9993-290f3a2be34a"
      },
      "relationship": {
        "coding": [ {
          "system": "http://terminology.hl7.org/CodeSystem/subscriber-relationship",
          "code": "self"
        } ]
      },
      "period": {
        "start": "2024-12-31T00:00:00.000+00:00"
      },
      "payor": [ {
        "reference": "Organization/4f5afb12-5f21-44d7-b3a9-159602c683bb"
      } ]
    },
    "request": {
      "method": "PUT",
      "url": "Coverage/607bc53a-8d0a-4183-9ea4-baa781489ff4"
    }
  }, {
    "fullUrl": "https://madie.cms.gov/Organization/4f5afb12-5f21-44d7-b3a9-159602c683bb",
    "resource": {
      "resourceType": "Organization",
      "id": "4f5afb12-5f21-44d7-b3a9-159602c683bb",
      "meta": {
        "profile": [ "http://hl7.org/fhir/us/qicore/StructureDefinition/qicore-organization" ]
      },
      "identifier": [ {
        "use": "temp",
        "system": "urn:oid:2.16.840.1.113883.4.4",
        "value": "21-3259825"
      } ],
      "active": true,
      "type": [ {
        "coding": [ {
          "system": "http://terminology.hl7.org/CodeSystem/organization-type",
          "code": "pay",
          "display": "Payer"
        } ]
      } ],
      "name": "Blue Cross Blue Shield of Texas",
      "telecom": [ {
        "system": "phone",
        "value": "(+1) 972-766-6900"
      } ],
      "address": [ {
        "use": "billing",
        "type": "postal",
        "line": [ "P.O. Box 660044" ],
        "city": "Dallas",
        "state": "TX",
        "postalCode": "75266-0044",
        "country": "USA"
      } ]
    },
    "request": {
      "method": "PUT",
      "url": "Organization/4f5afb12-5f21-44d7-b3a9-159602c683bb"
    }
  }, {
    "fullUrl": "https://madie.cms.gov/Practitioner/ca361e8a-a6f1-4164-8fd7-7f39728f17d0",
    "resource": {
      "resourceType": "Practitioner",
      "id": "ca361e8a-a6f1-4164-8fd7-7f39728f17d0",
      "meta": {
        "profile": [ "http://hl7.org/fhir/us/qicore/StructureDefinition/qicore-practitioner" ]
      },
      "identifier": [ {
        "system": "http://hl7.org/fhir/sid/us-npi",
        "value": "9999999896"
      } ],
      "name": [ {
        "family": "Evil",
        "prefix": [ "Dr" ]
      } ]
    },
    "request": {
      "method": "PUT",
      "url": "Practitioner/ca361e8a-a6f1-4164-8fd7-7f39728f17d0"
    }
  }, {
    "fullUrl": "https://madie.cms.gov/MeasureReport/bd8e2ba3-f083-4c10-a2ce-268c56129377",
    "resource": {
      "resourceType": "MeasureReport",
      "id": "bd8e2ba3-f083-4c10-a2ce-268c56129377",
      "meta": {
        "profile": [ "http://hl7.org/fhir/us/cqfmeasures/StructureDefinition/test-case-cqfm" ]
      },
      "contained": [ {
        "resourceType": "Parameters",
        "id": "1749b38d-7a9d-4fd2-81dd-fedd828ddf32-parameters",
        "parameter": [ {
          "name": "subject",
          "valueString": "d5fe6f9c-6036-4004-9993-290f3a2be34a"
        } ]
      } ],
      "extension": [ {
        "url": "http://hl7.org/fhir/StructureDefinition/cqf-inputParameters",
        "valueReference": {
          "reference": "#1749b38d-7a9d-4fd2-81dd-fedd828ddf32-parameters"
        }
      }, {
        "url": "http://hl7.org/fhir/us/cqfmeasures/StructureDefinition/cqfm-testCaseDescription",
        "valueMarkdown": "\tChild, age 18, Encounter first day of MP, time to treatment 61 minutes, no mental illness, gender \"other\""
      } ],
      "modifierExtension": [ {
        "url": "http://hl7.org/fhir/us/cqfmeasures/StructureDefinition/cqfm-isTestCase",
        "valueBoolean": true
      } ],
      "status": "complete",
      "type": "individual",
      "measure": "https://madie.cms.gov/Measure/CMS1264FHIRECATREHQR",
      "period": {
        "start": "2027-01-01",
        "end": "2027-12-31"
      },
      "group": [ {
        "id": "Group_1",
        "population": [ {
          "id": "InitialPopulation_1",
          "code": {
            "coding": [ {
              "system": "http://terminology.hl7.org/CodeSystem/measure-population",
              "code": "initial-population",
              "display": "Initial Population"
            } ]
          },
          "count": 1
        }, {
          "id": "Denominator_1",
          "code": {
            "coding": [ {
              "system": "http://terminology.hl7.org/CodeSystem/measure-population",
              "code": "denominator",
              "display": "Denominator"
            } ]
          },
          "count": 1
        }, {
          "id": "Numerator_1",
          "code": {
            "coding": [ {
              "system": "http://terminology.hl7.org/CodeSystem/measure-population",
              "code": "numerator",
              "display": "Numerator"
            } ]
          },
          "count": 1
        } ],
        "measureScore": {
          "value": 0.0
        },
        "stratifier": [ {
          "id": "Stratification_1_1",
          "code": [ {
            "text": "Strata-1"
          } ],
          "stratum": [ {
            "value": {
              "text": "Strata-1"
            },
            "population": [ {
              "id": "InitialPopulation_1",
              "code": {
                "coding": [ {
                  "system": "http://terminology.hl7.org/CodeSystem/measure-population",
                  "code": "initial-population",
                  "display": "Initial Population"
                } ]
              },
              "count": 1
            }, {
              "id": "Denominator_1",
              "code": {
                "coding": [ {
                  "system": "http://terminology.hl7.org/CodeSystem/measure-population",
                  "code": "denominator",
                  "display": "Denominator"
                } ]
              },
              "count": 1
            }, {
              "id": "Numerator_1",
              "code": {
                "coding": [ {
                  "system": "http://terminology.hl7.org/CodeSystem/measure-population",
                  "code": "numerator",
                  "display": "Numerator"
                } ]
              },
              "count": 1
            } ]
          } ]
        }, {
          "id": "Stratification_1_2",
          "code": [ {
            "text": "Strata-2"
          } ],
          "stratum": [ {
            "value": {
              "text": "Strata-2"
            },
            "population": [ {
              "id": "InitialPopulation_1",
              "code": {
                "coding": [ {
                  "system": "http://terminology.hl7.org/CodeSystem/measure-population",
                  "code": "initial-population",
                  "display": "Initial Population"
                } ]
              },
              "count": 0
            }, {
              "id": "Denominator_1",
              "code": {
                "coding": [ {
                  "system": "http://terminology.hl7.org/CodeSystem/measure-population",
                  "code": "denominator",
                  "display": "Denominator"
                } ]
              },
              "count": 0
            }, {
              "id": "Numerator_1",
              "code": {
                "coding": [ {
                  "system": "http://terminology.hl7.org/CodeSystem/measure-population",
                  "code": "numerator",
                  "display": "Numerator"
                } ]
              },
              "count": 0
            } ]
          } ]
        }, {
          "id": "Stratification_1_3",
          "code": [ {
            "text": "Strata-3"
          } ],
          "stratum": [ {
            "value": {
              "text": "Strata-3"
            },
            "population": [ {
              "id": "InitialPopulation_1",
              "code": {
                "coding": [ {
                  "system": "http://terminology.hl7.org/CodeSystem/measure-population",
                  "code": "initial-population",
                  "display": "Initial Population"
                } ]
              },
              "count": 0
            }, {
              "id": "Denominator_1",
              "code": {
                "coding": [ {
                  "system": "http://terminology.hl7.org/CodeSystem/measure-population",
                  "code": "denominator",
                  "display": "Denominator"
                } ]
              },
              "count": 0
            }, {
              "id": "Numerator_1",
              "code": {
                "coding": [ {
                  "system": "http://terminology.hl7.org/CodeSystem/measure-population",
                  "code": "numerator",
                  "display": "Numerator"
                } ]
              },
              "count": 0
            } ]
          } ]
        }, {
          "id": "Stratification_1_4",
          "code": [ {
            "text": "Strata-4"
          } ],
          "stratum": [ {
            "value": {
              "text": "Strata-4"
            },
            "population": [ {
              "id": "InitialPopulation_1",
              "code": {
                "coding": [ {
                  "system": "http://terminology.hl7.org/CodeSystem/measure-population",
                  "code": "initial-population",
                  "display": "Initial Population"
                } ]
              },
              "count": 0
            }, {
              "id": "Denominator_1",
              "code": {
                "coding": [ {
                  "system": "http://terminology.hl7.org/CodeSystem/measure-population",
                  "code": "denominator",
                  "display": "Denominator"
                } ]
              },
              "count": 0
            }, {
              "id": "Numerator_1",
              "code": {
                "coding": [ {
                  "system": "http://terminology.hl7.org/CodeSystem/measure-population",
                  "code": "numerator",
                  "display": "Numerator"
                } ]
              },
              "count": 0
            } ]
          } ]
        } ]
      } ],
      "evaluatedResource": [ {
        "reference": "Patient/d5fe6f9c-6036-4004-9993-290f3a2be34a"
      }, {
        "reference": "Encounter/8007a9fa-c9aa-4d40-81fa-b0c1154dbed1"
      }, {
        "reference": "Location/679150c5-bddd-4a98-8aa7-d9071287153e"
      }, {
        "reference": "Location/ca4143ff-e422-4689-8110-81dff83a2586"
      }, {
        "reference": "Condition/7020f6b5-543b-4620-a7b4-8554f5f7d79a"
      }, {
        "reference": "Location/31af0770-87c4-4b32-bb9c-1b4f84a87013"
      }, {
        "reference": "Location/79f7680f-c611-415f-b271-61ffd6aded81"
      }, {
        "reference": "Claim/ClaimBehavior-NotSubsAbuse"
      }, {
        "reference": "Coverage/607bc53a-8d0a-4183-9ea4-baa781489ff4"
      }, {
        "reference": "Organization/4f5afb12-5f21-44d7-b3a9-159602c683bb"
      }, {
        "reference": "Practitioner/ca361e8a-a6f1-4164-8fd7-7f39728f17d0"
      } ]
    },
    "request": {
      "method": "PUT",
      "url": "MeasureReport/bd8e2ba3-f083-4c10-a2ce-268c56129377"
    }
  } ]
}