{
  "resourceType": "Bundle",
  "id": "63487c300968f801225401c2",
  "type": "transaction",
  "entry": [ {
    "fullUrl": "https://madie.cms.gov/Patient/acd8399d-1cc5-423e-95f5-27969e479297",
    "resource": {
      "resourceType": "Patient",
      "id": "acd8399d-1cc5-423e-95f5-27969e479297",
      "meta": {
        "profile": [ "http://hl7.org/fhir/us/qicore/StructureDefinition/qicore-patient" ]
      },
      "text": {
        "status": "generated",
        "div": "<div xmlns=\"http://www.w3.org/1999/xhtml\"><div class=\"hapiHeaderText\">BadBirthDate<b>IPOPFail</b></div><table class=\"hapiPropertyTable\"><tbody><tr><td>Identifier</td><td>d130de5f4e42b38bd935fc8ebcd660c0e5f442917fd322d307794dfacd0563d2</td></tr><tr><td>Date of birth</td><td><span>14 February 1899</span></td></tr></tbody></table></div>"
      },
      "extension": [ {
        "url": "http://hl7.org/fhir/us/core/StructureDefinition/us-core-race",
        "extension": [ {
          "url": "ombCategory",
          "valueCoding": {
            "system": "urn:oid:2.16.840.1.113883.6.238",
            "code": "1002-5",
            "display": "American Indian or Alaska Native",
            "userSelected": true
          }
        }, {
          "url": "text",
          "valueString": "American Indian or Alaska Native"
        } ]
      }, {
        "url": "http://hl7.org/fhir/us/core/StructureDefinition/us-core-ethnicity",
        "extension": [ {
          "url": "ombCategory",
          "valueCoding": {
            "system": "urn:oid:2.16.840.1.113883.6.238",
            "code": "2135-2",
            "display": "Hispanic or Latino",
            "userSelected": true
          }
        }, {
          "url": "text",
          "valueString": "Hispanic or Latino"
        } ]
      } ],
      "identifier": [ {
        "type": {
          "coding": [ {
            "system": "http://terminology.hl7.org/CodeSystem/v2-0203",
            "code": "MR"
          } ]
        },
        "system": "https://bonnie-fhir.healthit.gov/",
        "value": "63487c300968f801225401c2"
      } ],
      "active": true,
      "name": [ {
        "use": "usual",
        "family": "IPOPFail",
        "given": [ "BadBirthDate" ]
      } ],
      "gender": "female",
      "birthDate": "1899-02-14"
    },
    "request": {
      "method": "PUT",
      "url": "Patient/acd8399d-1cc5-423e-95f5-27969e479297"
    }
  }, {
    "fullUrl": "https://madie.cms.gov/Encounter/174c835e-0f94-4c61-b75e-f3e075ac8446",
    "resource": {
      "resourceType": "Encounter",
      "id": "174c835e-0f94-4c61-b75e-f3e075ac8446",
      "meta": {
        "profile": [ "http://hl7.org/fhir/us/qicore/StructureDefinition/qicore-encounter" ]
      },
      "status": "finished",
      "class": {
        "system": "http://terminology.hl7.org/CodeSystem/v3-ActCode",
        "code": "IMP",
        "display": "inpatient encounter"
      },
      "type": [ {
        "coding": [ {
          "system": "http://snomed.info/sct",
          "code": "8715000"
        } ]
      } ],
      "subject": {
        "reference": "Patient/acd8399d-1cc5-423e-95f5-27969e479297"
      },
      "period": {
        "start": "2026-11-28T08:00:00.000+00:00",
        "end": "2026-11-30T08:15:00.000+00:00"
      },
      "reasonCode": [ {
        "coding": [ {
          "system": "http://snomed.info/sct",
          "code": "169826009",
          "display": "Single live birth from singleton pregnancy (finding)"
        } ]
      } ]
    },
    "request": {
      "method": "PUT",
      "url": "Encounter/174c835e-0f94-4c61-b75e-f3e075ac8446"
    }
  }, {
    "fullUrl": "https://madie.cms.gov/Procedure/bf48f675-3800-465d-b2a5-a42143172bcb",
    "resource": {
      "resourceType": "Procedure",
      "id": "bf48f675-3800-465d-b2a5-a42143172bcb",
      "meta": {
        "profile": [ "http://hl7.org/fhir/us/qicore/StructureDefinition/qicore-procedure" ]
      },
      "extension": [ {
        "url": "http://hl7.org/fhir/us/qicore/StructureDefinition/qicore-recorded",
        "valueDateTime": "2014-04-05T13:35:00.000+00:00"
      } ],
      "status": "completed",
      "code": {
        "coding": [ {
          "system": "http://www.cms.gov/Medicare/Coding/ICD10",
          "code": "10D00Z0"
        } ]
      },
      "subject": {
        "reference": "Patient/acd8399d-1cc5-423e-95f5-27969e479297"
      },
      "performedPeriod": {
        "start": "2026-11-28T20:00:00.000+00:00",
        "end": "2026-11-28T20:15:00.000+00:00"
      }
    },
    "request": {
      "method": "PUT",
      "url": "Procedure/bf48f675-3800-465d-b2a5-a42143172bcb"
    }
  }, {
    "fullUrl": "https://madie.cms.gov/Coverage/eaee9c85-351b-4567-82f5-6eeea7b17045",
    "resource": {
      "resourceType": "Coverage",
      "id": "eaee9c85-351b-4567-82f5-6eeea7b17045",
      "meta": {
        "profile": [ "http://hl7.org/fhir/us/qicore/StructureDefinition/qicore-coverage" ]
      },
      "status": "active",
      "subscriberId": "523435",
      "beneficiary": {
        "reference": "Patient/acd8399d-1cc5-423e-95f5-27969e479297"
      },
      "relationship": {
        "coding": [ {
          "system": "http://terminology.hl7.org/CodeSystem/subscriber-relationship",
          "code": "self"
        } ]
      },
      "payor": [ {
        "reference": "Organization/0adea147-8354-45a5-8004-91052c28460c"
      } ]
    },
    "request": {
      "method": "PUT",
      "url": "Coverage/eaee9c85-351b-4567-82f5-6eeea7b17045"
    }
  }, {
    "fullUrl": "https://madie.cms.gov/Organization/0adea147-8354-45a5-8004-91052c28460c",
    "resource": {
      "resourceType": "Organization",
      "id": "0adea147-8354-45a5-8004-91052c28460c",
      "meta": {
        "profile": [ "http://hl7.org/fhir/us/qicore/StructureDefinition/qicore-organization" ]
      },
      "identifier": [ {
        "use": "temp",
        "system": "urn:oid:2.16.840.1.113883.4.4",
        "value": "21-3259825"
      } ],
      "active": true,
      "type": [ {
        "coding": [ {
          "system": "http://terminology.hl7.org/CodeSystem/organization-type",
          "code": "pay",
          "display": "Payer"
        } ]
      } ],
      "name": "Blue Cross Blue Shield of Texas",
      "telecom": [ {
        "system": "phone",
        "value": "(+1) 972-766-6900"
      } ],
      "address": [ {
        "use": "billing",
        "type": "postal",
        "line": [ "P.O. Box 660044" ],
        "city": "Dallas",
        "state": "TX",
        "postalCode": "75266-0044",
        "country": "USA"
      } ]
    },
    "request": {
      "method": "PUT",
      "url": "Organization/0adea147-8354-45a5-8004-91052c28460c"
    }
  }, {
    "fullUrl": "https://madie.cms.gov/Practitioner/9d24d33b-216e-48cf-bb21-8c5dddbfdf80",
    "resource": {
      "resourceType": "Practitioner",
      "id": "9d24d33b-216e-48cf-bb21-8c5dddbfdf80",
      "meta": {
        "profile": [ "http://hl7.org/fhir/us/qicore/StructureDefinition/qicore-practitioner" ]
      },
      "identifier": [ {
        "system": "http://hl7.org/fhir/sid/us-npi",
        "value": "1234567890"
      } ],
      "name": [ {
        "family": "Evil",
        "prefix": [ "Dr" ]
      } ]
    },
    "request": {
      "method": "PUT",
      "url": "Practitioner/9d24d33b-216e-48cf-bb21-8c5dddbfdf80"
    }
  }, {
    "fullUrl": "https://madie.cms.gov/MeasureReport/44550888-eb7f-4e65-90cc-fe2eceebd712",
    "resource": {
      "resourceType": "MeasureReport",
      "id": "44550888-eb7f-4e65-90cc-fe2eceebd712",
      "meta": {
        "profile": [ "http://hl7.org/fhir/us/cqfmeasures/StructureDefinition/test-case-cqfm" ]
      },
      "contained": [ {
        "resourceType": "Parameters",
        "id": "46c311c7-3ca1-41c4-bf39-98d63074d2eb-parameters",
        "parameter": [ {
          "name": "subject",
          "valueString": "acd8399d-1cc5-423e-95f5-27969e479297"
        } ]
      } ],
      "extension": [ {
        "url": "http://hl7.org/fhir/StructureDefinition/cqf-inputParameters",
        "valueReference": {
          "reference": "#46c311c7-3ca1-41c4-bf39-98d63074d2eb-parameters"
        }
      }, {
        "url": "http://hl7.org/fhir/us/cqfmeasures/StructureDefinition/cqfm-testCaseDescription",
        "valueMarkdown": "Birth date is bad - year before 1900, should fail IPP\n"
      } ],
      "modifierExtension": [ {
        "url": "http://hl7.org/fhir/us/cqfmeasures/StructureDefinition/cqfm-isTestCase",
        "valueBoolean": true
      } ],
      "status": "complete",
      "type": "individual",
      "measure": "https://madie.cms.gov/Measure/CMS0334FHIRPCCesareanBirth",
      "period": {
        "start": "2026-01-01",
        "end": "2026-12-31"
      },
      "group": [ {
        "id": "Group_1",
        "population": [ {
          "id": "InitialPopulation_1",
          "code": {
            "coding": [ {
              "system": "http://terminology.hl7.org/CodeSystem/measure-population",
              "code": "initial-population",
              "display": "Initial Population"
            } ]
          },
          "count": 0
        }, {
          "id": "Denominator_1",
          "code": {
            "coding": [ {
              "system": "http://terminology.hl7.org/CodeSystem/measure-population",
              "code": "denominator",
              "display": "Denominator"
            } ]
          },
          "count": 0
        }, {
          "id": "DenominatorExclusion_1",
          "code": {
            "coding": [ {
              "system": "http://terminology.hl7.org/CodeSystem/measure-population",
              "code": "denominator-exclusion",
              "display": "Denominator Exclusion"
            } ]
          },
          "count": 0
        }, {
          "id": "Numerator_1",
          "code": {
            "coding": [ {
              "system": "http://terminology.hl7.org/CodeSystem/measure-population",
              "code": "numerator",
              "display": "Numerator"
            } ]
          },
          "count": 0
        } ],
        "measureScore": {
          "value": 0.0
        }
      } ],
      "evaluatedResource": [ {
        "reference": "Patient/acd8399d-1cc5-423e-95f5-27969e479297"
      }, {
        "reference": "Encounter/174c835e-0f94-4c61-b75e-f3e075ac8446"
      }, {
        "reference": "Procedure/bf48f675-3800-465d-b2a5-a42143172bcb"
      }, {
        "reference": "Coverage/eaee9c85-351b-4567-82f5-6eeea7b17045"
      }, {
        "reference": "Organization/0adea147-8354-45a5-8004-91052c28460c"
      }, {
        "reference": "Practitioner/9d24d33b-216e-48cf-bb21-8c5dddbfdf80"
      } ]
    },
    "request": {
      "method": "PUT",
      "url": "MeasureReport/44550888-eb7f-4e65-90cc-fe2eceebd712"
    }
  } ]
}