{
  "resourceType": "Bundle",
  "id": "61168b8798086b77ef9c5ecc",
  "type": "transaction",
  "entry": [ {
    "fullUrl": "https://madie.cms.gov/Patient/6aef5a18-59bd-4a47-80bc-2bd44636e41f",
    "resource": {
      "resourceType": "Patient",
      "id": "6aef5a18-59bd-4a47-80bc-2bd44636e41f",
      "meta": {
        "profile": [ "http://hl7.org/fhir/us/qicore/StructureDefinition/qicore-patient" ]
      },
      "extension": [ {
        "url": "http://hl7.org/fhir/us/core/StructureDefinition/us-core-race",
        "extension": [ {
          "url": "ombCategory",
          "valueCoding": {
            "system": "urn:oid:2.16.840.1.113883.6.238",
            "code": "1002-5",
            "display": "American Indian or Alaska Native",
            "userSelected": true
          }
        }, {
          "url": "text",
          "valueString": "American Indian or Alaska Native"
        } ]
      }, {
        "url": "http://hl7.org/fhir/us/core/StructureDefinition/us-core-ethnicity",
        "extension": [ {
          "url": "ombCategory",
          "valueCoding": {
            "system": "urn:oid:2.16.840.1.113883.6.238",
            "code": "2186-5",
            "display": "Not Hispanic or Latino",
            "userSelected": true
          }
        }, {
          "url": "text",
          "valueString": "Not Hispanic or Latino"
        } ]
      }, {
        "url": "http://hl7.org/fhir/us/core/StructureDefinition/us-core-sex",
        "valueCode": "248152002"
      } ],
      "identifier": [ {
        "type": {
          "coding": [ {
            "system": "http://terminology.hl7.org/CodeSystem/v2-0203",
            "code": "MR"
          } ]
        },
        "system": "https://bonnie-fhir.healthit.gov/",
        "value": "61168b8798086b77ef9c5ecc"
      } ],
      "active": true,
      "name": [ {
        "use": "usual",
        "family": "DENEXCEPPass",
        "given": [ "CommEdemaAbsentNotDoneMR" ]
      } ],
      "gender": "female",
      "birthDate": "1973-08-29"
    },
    "request": {
      "method": "PUT",
      "url": "Patient/6aef5a18-59bd-4a47-80bc-2bd44636e41f"
    }
  }, {
    "fullUrl": "https://madie.cms.gov/Communication/3f96a222-bb25-4548-ae04-a925c0a2b770",
    "resource": {
      "resourceType": "Communication",
      "id": "3f96a222-bb25-4548-ae04-a925c0a2b770",
      "meta": {
        "profile": [ "http://hl7.org/fhir/us/qicore/StructureDefinition/qicore-communicationnotdone" ]
      },
      "extension": [ {
        "url": "http://hl7.org/fhir/us/qicore/StructureDefinition/qicore-recorded",
        "valueDateTime": "2014-07-02T15:00:00.000+00:00"
      } ],
      "modifierExtension": [ {
        "url": "http://hl7.org/fhir/us/qicore/StructureDefinition/qicore-notDone",
        "valueBoolean": true
      }, {
        "url": "http://hl7.org/fhir/us/qicore/StructureDefinition/qicore-notDone",
        "valueBoolean": true
      } ],
      "status": "not-done",
      "statusReason": {
        "coding": [ {
          "system": "http://snomed.info/sct",
          "version": "http://snomed.info/sct/731000124108/version/202303",
          "code": "183932001",
          "display": "Procedure contraindicated (situation)",
          "userSelected": true
        } ]
      },
      "subject": {
        "reference": "Patient/6aef5a18-59bd-4a47-80bc-2bd44636e41f"
      },
      "sent": "2026-07-09T08:00:00.000+00:00",
      "reasonCode": [ {
        "coding": [ {
          "system": "http://snomed.info/sct",
          "code": "428341000124108"
        } ]
      } ]
    },
    "request": {
      "method": "PUT",
      "url": "Communication/3f96a222-bb25-4548-ae04-a925c0a2b770"
    }
  }, {
    "fullUrl": "https://madie.cms.gov/Condition/f72011c8-8b34-448b-8fbb-13cb2bcc74fa",
    "resource": {
      "resourceType": "Condition",
      "id": "f72011c8-8b34-448b-8fbb-13cb2bcc74fa",
      "meta": {
        "profile": [ "http://hl7.org/fhir/us/qicore/StructureDefinition/qicore-condition-problems-health-concerns" ]
      },
      "clinicalStatus": {
        "coding": [ {
          "system": "http://terminology.hl7.org/CodeSystem/condition-clinical",
          "code": "active",
          "display": "active",
          "userSelected": true
        } ]
      },
      "category": [ {
        "coding": [ {
          "system": "http://terminology.hl7.org/CodeSystem/condition-category",
          "code": "problem-list-item",
          "display": "Problem List Item"
        } ]
      } ],
      "code": {
        "coding": [ {
          "system": "http://snomed.info/sct",
          "version": "http://snomed.info/sct/731000124108/version/202303",
          "code": "193349004"
        }, {
          "system": "http://hl7.org/fhir/sid/icd-10-cm",
          "version": "2023",
          "code": "E08.311"
        } ]
      },
      "subject": {
        "reference": "Patient/6aef5a18-59bd-4a47-80bc-2bd44636e41f"
      },
      "onsetDateTime": "2023-07-01T15:00:00.000+00:00"
    },
    "request": {
      "method": "PUT",
      "url": "Condition/f72011c8-8b34-448b-8fbb-13cb2bcc74fa"
    }
  }, {
    "fullUrl": "https://madie.cms.gov/Observation/cc854f4e-7705-450b-a127-d514ad98355d",
    "resource": {
      "resourceType": "Observation",
      "id": "cc854f4e-7705-450b-a127-d514ad98355d",
      "meta": {
        "profile": [ "http://hl7.org/fhir/us/qicore/StructureDefinition/qicore-observation-clinical-result" ]
      },
      "status": "final",
      "category": [ {
        "coding": [ {
          "system": "http://terminology.hl7.org/CodeSystem/observation-category",
          "code": "vital-signs",
          "display": "Vital Signs"
        } ]
      } ],
      "code": {
        "coding": [ {
          "system": "http://loinc.org",
          "version": "2.73",
          "code": "32451-7"
        } ]
      },
      "subject": {
        "reference": "Patient/6aef5a18-59bd-4a47-80bc-2bd44636e41f"
      },
      "effectiveDateTime": "2026-07-09T08:00:00.000+00:00",
      "valueBoolean": true
    },
    "request": {
      "method": "PUT",
      "url": "Observation/cc854f4e-7705-450b-a127-d514ad98355d"
    }
  }, {
    "fullUrl": "https://madie.cms.gov/Encounter/86056f20-72c3-41a3-9fed-068724d8e613",
    "resource": {
      "resourceType": "Encounter",
      "id": "86056f20-72c3-41a3-9fed-068724d8e613",
      "meta": {
        "profile": [ "http://hl7.org/fhir/us/qicore/StructureDefinition/qicore-encounter" ]
      },
      "status": "finished",
      "class": {
        "system": "http://terminology.hl7.org/CodeSystem/v3-ActCode",
        "code": "AMB"
      },
      "type": [ {
        "coding": [ {
          "system": "http://www.ama-assn.org/go/cpt",
          "version": "2023",
          "code": "99205"
        } ]
      } ],
      "subject": {
        "reference": "Patient/6aef5a18-59bd-4a47-80bc-2bd44636e41f"
      },
      "period": {
        "start": "2026-07-02T15:00:00.000+00:00",
        "end": "2026-08-02T16:00:00.000+00:00"
      }
    },
    "request": {
      "method": "PUT",
      "url": "Encounter/86056f20-72c3-41a3-9fed-068724d8e613"
    }
  }, {
    "fullUrl": "https://madie.cms.gov/Communication/857707c3-8e7b-461e-890d-3f804973e6e9",
    "resource": {
      "resourceType": "Communication",
      "id": "857707c3-8e7b-461e-890d-3f804973e6e9",
      "meta": {
        "profile": [ "http://hl7.org/fhir/us/qicore/StructureDefinition/qicore-communicationnotdone" ]
      },
      "extension": [ {
        "url": "http://hl7.org/fhir/us/qicore/StructureDefinition/qicore-recorded",
        "valueDateTime": "2026-07-09T08:00:00.000+00:00"
      } ],
      "status": "not-done",
      "statusReason": {
        "coding": [ {
          "system": "http://snomed.info/sct",
          "version": "http://snomed.info/sct/731000124108/version/202303",
          "code": "183932001",
          "display": "Procedure contraindicated (situation)",
          "userSelected": true
        } ]
      },
      "category": [ {
        "coding": [ {
          "system": "http://snomed.info/sct",
          "code": "428341000124108",
          "display": "Macular edema absent (situation)",
          "userSelected": true
        } ]
      } ],
      "sent": "2026-07-09T08:00:00.000+00:00",
      "reasonCode": [ {
        "coding": [ {
          "system": "http://snomed.info/sct",
          "version": "http://snomed.info/sct/731000124108/version/202303",
          "code": "428341000124108",
          "display": "Macular edema absent (situation)"
        } ]
      } ]
    },
    "request": {
      "method": "PUT",
      "url": "Communication/857707c3-8e7b-461e-890d-3f804973e6e9"
    }
  }, {
    "fullUrl": "https://madie.cms.gov/MeasureReport/186461f8-df13-4193-9e08-6c0f65876937",
    "resource": {
      "resourceType": "MeasureReport",
      "id": "186461f8-df13-4193-9e08-6c0f65876937",
      "meta": {
        "profile": [ "http://hl7.org/fhir/us/cqfmeasures/StructureDefinition/test-case-cqfm" ]
      },
      "contained": [ {
        "resourceType": "Parameters",
        "id": "d6848379-26c1-4b18-9e1c-8ae260262c01-parameters",
        "parameter": [ {
          "name": "subject",
          "valueString": "6aef5a18-59bd-4a47-80bc-2bd44636e41f"
        } ]
      } ],
      "extension": [ {
        "url": "http://hl7.org/fhir/StructureDefinition/cqf-inputParameters",
        "valueReference": {
          "reference": "#d6848379-26c1-4b18-9e1c-8ae260262c01-parameters"
        }
      }, {
        "url": "http://hl7.org/fhir/us/cqfmeasures/StructureDefinition/cqfm-testCaseDescription",
        "valueMarkdown": "Patient with communication of macular edema absent not done due to medical reason. \n\n"
      } ],
      "modifierExtension": [ {
        "url": "http://hl7.org/fhir/us/cqfmeasures/StructureDefinition/cqfm-isTestCase",
        "valueBoolean": true
      } ],
      "status": "complete",
      "type": "individual",
      "measure": "https://madie.cms.gov/Measure/CMS142FHIRDRCommunicationWithPhysicianManagingDiabetes",
      "period": {
        "start": "2026-01-01",
        "end": "2026-12-31"
      },
      "group": [ {
        "id": "Group_1",
        "population": [ {
          "id": "InitialPopulation_1",
          "code": {
            "coding": [ {
              "system": "http://terminology.hl7.org/CodeSystem/measure-population",
              "code": "initial-population",
              "display": "Initial Population"
            } ]
          },
          "count": 1
        }, {
          "id": "Denominator_1",
          "code": {
            "coding": [ {
              "system": "http://terminology.hl7.org/CodeSystem/measure-population",
              "code": "denominator",
              "display": "Denominator"
            } ]
          },
          "count": 1
        }, {
          "id": "Numerator_1",
          "code": {
            "coding": [ {
              "system": "http://terminology.hl7.org/CodeSystem/measure-population",
              "code": "numerator",
              "display": "Numerator"
            } ]
          },
          "count": 0
        }, {
          "id": "DenominatorException_1",
          "code": {
            "coding": [ {
              "system": "http://terminology.hl7.org/CodeSystem/measure-population",
              "code": "denominator-exception",
              "display": "Denominator Exception"
            } ]
          },
          "count": 1
        } ],
        "measureScore": {
          "value": 1.0
        }
      } ],
      "evaluatedResource": [ {
        "reference": "Patient/6aef5a18-59bd-4a47-80bc-2bd44636e41f"
      }, {
        "reference": "Communication/3f96a222-bb25-4548-ae04-a925c0a2b770"
      }, {
        "reference": "Condition/f72011c8-8b34-448b-8fbb-13cb2bcc74fa"
      }, {
        "reference": "Observation/cc854f4e-7705-450b-a127-d514ad98355d"
      }, {
        "reference": "Encounter/86056f20-72c3-41a3-9fed-068724d8e613"
      }, {
        "reference": "Communication/857707c3-8e7b-461e-890d-3f804973e6e9"
      } ]
    },
    "request": {
      "method": "PUT",
      "url": "MeasureReport/186461f8-df13-4193-9e08-6c0f65876937"
    }
  } ]
}