{
  "resourceType": "Bundle",
  "id": "63487c2e0968f80122540173",
  "type": "transaction",
  "entry": [ {
    "fullUrl": "https://madie.cms.gov/Patient/8b0160c7-9fb9-47e0-8a7d-ac8afc5b3ea3",
    "resource": {
      "resourceType": "Patient",
      "id": "8b0160c7-9fb9-47e0-8a7d-ac8afc5b3ea3",
      "meta": {
        "profile": [ "http://hl7.org/fhir/us/qicore/StructureDefinition/qicore-patient" ]
      },
      "text": {
        "status": "generated",
        "div": "<div xmlns=\"http://www.w3.org/1999/xhtml\"><div class=\"hapiHeaderText\">AssessGARelDtTimeB4TimeOfDel <b>DENPASS </b></div><table class=\"hapiPropertyTable\"><tbody><tr><td>Identifier</td><td>399eb1d15b18a70b0a1fc126870ee45fba3a6862e3faa339c35b816b8fe113c4</td></tr><tr><td>Date of birth</td><td><span>14 February 1985</span></td></tr></tbody></table></div>"
      },
      "extension": [ {
        "url": "http://hl7.org/fhir/us/core/StructureDefinition/us-core-race",
        "extension": [ {
          "url": "ombCategory",
          "valueCoding": {
            "system": "urn:oid:2.16.840.1.113883.6.238",
            "code": "1002-5",
            "display": "American Indian or Alaska Native",
            "userSelected": true
          }
        }, {
          "url": "text",
          "valueString": "American Indian or Alaska Native"
        } ]
      }, {
        "url": "http://hl7.org/fhir/us/core/StructureDefinition/us-core-ethnicity",
        "extension": [ {
          "url": "ombCategory",
          "valueCoding": {
            "system": "urn:oid:2.16.840.1.113883.6.238",
            "code": "2135-2",
            "display": "Hispanic or Latino",
            "userSelected": true
          }
        }, {
          "url": "text",
          "valueString": "Hispanic or Latino"
        } ]
      } ],
      "identifier": [ {
        "type": {
          "coding": [ {
            "system": "http://terminology.hl7.org/CodeSystem/v2-0203",
            "code": "MR"
          } ]
        },
        "system": "https://bonnie-fhir.healthit.gov/",
        "value": "63487c2e0968f80122540173"
      } ],
      "active": true,
      "name": [ {
        "use": "usual",
        "family": "DENPass",
        "given": [ "AssessGARelDtTimeB4TimeOfDel" ]
      } ],
      "gender": "female",
      "birthDate": "1998-02-14"
    },
    "request": {
      "method": "PUT",
      "url": "Patient/8b0160c7-9fb9-47e0-8a7d-ac8afc5b3ea3"
    }
  }, {
    "fullUrl": "https://madie.cms.gov/Observation/18e0c372-8c82-45e0-9ae2-62c24d1e0621",
    "resource": {
      "resourceType": "Observation",
      "id": "18e0c372-8c82-45e0-9ae2-62c24d1e0621",
      "meta": {
        "profile": [ "http://hl7.org/fhir/us/qicore/StructureDefinition/qicore-simple-observation" ]
      },
      "status": "final",
      "category": [ {
        "coding": [ {
          "system": "http://terminology.hl7.org/CodeSystem/observation-category",
          "code": "exam",
          "display": "exam",
          "userSelected": true
        } ]
      } ],
      "code": {
        "coding": [ {
          "system": "http://loinc.org",
          "code": "11884-4"
        } ]
      },
      "subject": {
        "reference": "Patient/8b0160c7-9fb9-47e0-8a7d-ac8afc5b3ea3"
      },
      "effectiveDateTime": "2026-06-08T00:00:00.000+00:00",
      "valueQuantity": {
        "value": 37,
        "system": "http://unitsofmeasure.org",
        "code": "wk"
      }
    },
    "request": {
      "method": "PUT",
      "url": "Observation/18e0c372-8c82-45e0-9ae2-62c24d1e0621"
    }
  }, {
    "fullUrl": "https://madie.cms.gov/Observation/446f21f2-89a6-49f3-b7bf-1134b786147b",
    "resource": {
      "resourceType": "Observation",
      "id": "446f21f2-89a6-49f3-b7bf-1134b786147b",
      "meta": {
        "profile": [ "http://hl7.org/fhir/us/qicore/StructureDefinition/qicore-simple-observation" ]
      },
      "status": "final",
      "category": [ {
        "coding": [ {
          "system": "http://terminology.hl7.org/CodeSystem/observation-category",
          "code": "exam",
          "display": "exam",
          "userSelected": true
        } ]
      } ],
      "code": {
        "coding": [ {
          "system": "http://loinc.org",
          "code": "11996-6"
        } ]
      },
      "subject": {
        "reference": "Patient/8b0160c7-9fb9-47e0-8a7d-ac8afc5b3ea3"
      },
      "effectiveDateTime": "2026-06-08T08:00:00.000+00:00",
      "valueInteger": 1
    },
    "request": {
      "method": "PUT",
      "url": "Observation/446f21f2-89a6-49f3-b7bf-1134b786147b"
    }
  }, {
    "fullUrl": "https://madie.cms.gov/Observation/35caefef-b551-4939-9e6f-261192a3d6b0",
    "resource": {
      "resourceType": "Observation",
      "id": "35caefef-b551-4939-9e6f-261192a3d6b0",
      "meta": {
        "profile": [ "http://hl7.org/fhir/us/qicore/StructureDefinition/qicore-simple-observation" ]
      },
      "status": "final",
      "category": [ {
        "coding": [ {
          "system": "http://terminology.hl7.org/CodeSystem/observation-category",
          "code": "exam",
          "display": "exam",
          "userSelected": true
        } ]
      } ],
      "code": {
        "coding": [ {
          "system": "http://loinc.org",
          "code": "93857-1"
        } ]
      },
      "subject": {
        "reference": "Patient/8b0160c7-9fb9-47e0-8a7d-ac8afc5b3ea3"
      },
      "effectiveDateTime": "2026-06-08T09:15:00.000+00:00",
      "valueDateTime": "2026-06-08T09:15:00.000+00:00"
    },
    "request": {
      "method": "PUT",
      "url": "Observation/35caefef-b551-4939-9e6f-261192a3d6b0"
    }
  }, {
    "fullUrl": "https://madie.cms.gov/Encounter/44713cb0-1b18-4c60-a0c0-b63dfa149680",
    "resource": {
      "resourceType": "Encounter",
      "id": "44713cb0-1b18-4c60-a0c0-b63dfa149680",
      "meta": {
        "profile": [ "http://hl7.org/fhir/us/qicore/StructureDefinition/qicore-encounter" ]
      },
      "status": "finished",
      "class": {
        "system": "http://terminology.hl7.org/CodeSystem/v3-ActCode",
        "code": "IMP",
        "display": "inpatient encounter"
      },
      "type": [ {
        "coding": [ {
          "system": "http://snomed.info/sct",
          "code": "183452005"
        } ]
      } ],
      "subject": {
        "reference": "Patient/8b0160c7-9fb9-47e0-8a7d-ac8afc5b3ea3"
      },
      "period": {
        "start": "2026-06-08T08:00:00.000+00:00",
        "end": "2026-06-10T08:15:00.000+00:00"
      },
      "length": {
        "value": 2,
        "unit": "days"
      },
      "reasonReference": [ {
        "reference": "Condition/894deeab-dd5b-4f66-b49a-9f4455da2680"
      } ]
    },
    "request": {
      "method": "PUT",
      "url": "Encounter/44713cb0-1b18-4c60-a0c0-b63dfa149680"
    }
  }, {
    "fullUrl": "https://madie.cms.gov/Procedure/adf2390c-d49f-4b70-8ac0-fa381c513c27",
    "resource": {
      "resourceType": "Procedure",
      "id": "adf2390c-d49f-4b70-8ac0-fa381c513c27",
      "meta": {
        "profile": [ "http://hl7.org/fhir/us/qicore/StructureDefinition/qicore-procedure" ]
      },
      "extension": [ {
        "url": "http://hl7.org/fhir/us/qicore/StructureDefinition/qicore-recorded",
        "valueDateTime": "2014-04-05T13:35:00.000+00:00"
      } ],
      "status": "completed",
      "code": {
        "coding": [ {
          "system": "http://www.cms.gov/Medicare/Coding/ICD10",
          "code": "10D07Z3"
        } ]
      },
      "subject": {
        "reference": "Patient/8b0160c7-9fb9-47e0-8a7d-ac8afc5b3ea3"
      },
      "performedPeriod": {
        "start": "2026-06-08T08:00:00.000+00:00",
        "end": "2026-06-08T09:15:00.000+00:00"
      }
    },
    "request": {
      "method": "PUT",
      "url": "Procedure/adf2390c-d49f-4b70-8ac0-fa381c513c27"
    }
  }, {
    "fullUrl": "https://madie.cms.gov/Condition/894deeab-dd5b-4f66-b49a-9f4455da2680",
    "resource": {
      "resourceType": "Condition",
      "id": "894deeab-dd5b-4f66-b49a-9f4455da2680",
      "meta": {
        "profile": [ "http://hl7.org/fhir/us/qicore/StructureDefinition/qicore-condition-encounter-diagnosis" ]
      },
      "category": [ {
        "coding": [ {
          "system": "http://terminology.hl7.org/CodeSystem/condition-category",
          "code": "encounter-diagnosis",
          "display": "Encounter Diagnosis"
        } ]
      } ],
      "code": {
        "coding": [ {
          "system": "http://snomed.info/sct",
          "version": "2022-09",
          "code": "169826009",
          "display": "Single live birth from singleton pregnancy (finding)",
          "userSelected": true
        } ]
      },
      "subject": {
        "reference": "Patient/8b0160c7-9fb9-47e0-8a7d-ac8afc5b3ea3"
      },
      "encounter": {
        "reference": "Encounter/44713cb0-1b18-4c60-a0c0-b63dfa149680"
      },
      "recordedDate": "2026-10-19T08:00:00.000+00:00"
    },
    "request": {
      "method": "PUT",
      "url": "Condition/894deeab-dd5b-4f66-b49a-9f4455da2680"
    }
  }, {
    "fullUrl": "https://madie.cms.gov/Coverage/668e3a6a-6291-4f1b-9118-7b554252bcd1",
    "resource": {
      "resourceType": "Coverage",
      "id": "668e3a6a-6291-4f1b-9118-7b554252bcd1",
      "meta": {
        "profile": [ "http://hl7.org/fhir/us/qicore/StructureDefinition/qicore-coverage" ]
      },
      "status": "active",
      "subscriberId": "523435",
      "beneficiary": {
        "reference": "Patient/8b0160c7-9fb9-47e0-8a7d-ac8afc5b3ea3"
      },
      "relationship": {
        "coding": [ {
          "system": "http://terminology.hl7.org/CodeSystem/subscriber-relationship",
          "code": "self"
        } ]
      },
      "payor": [ {
        "reference": "Organization/8c771f0e-f9d1-452f-9d45-c2574bc215b0"
      } ]
    },
    "request": {
      "method": "PUT",
      "url": "Coverage/668e3a6a-6291-4f1b-9118-7b554252bcd1"
    }
  }, {
    "fullUrl": "https://madie.cms.gov/Organization/8c771f0e-f9d1-452f-9d45-c2574bc215b0",
    "resource": {
      "resourceType": "Organization",
      "id": "8c771f0e-f9d1-452f-9d45-c2574bc215b0",
      "meta": {
        "profile": [ "http://hl7.org/fhir/us/qicore/StructureDefinition/qicore-organization" ]
      },
      "identifier": [ {
        "use": "temp",
        "system": "urn:oid:2.16.840.1.113883.4.4",
        "value": "21-3259825"
      } ],
      "active": true,
      "type": [ {
        "coding": [ {
          "system": "http://terminology.hl7.org/CodeSystem/organization-type",
          "code": "pay",
          "display": "Payer"
        } ]
      } ],
      "name": "Blue Cross Blue Shield of Texas",
      "telecom": [ {
        "system": "phone",
        "value": "(+1) 972-766-6900"
      } ],
      "address": [ {
        "use": "billing",
        "type": "postal",
        "line": [ "P.O. Box 660044" ],
        "city": "Dallas",
        "state": "TX",
        "postalCode": "75266-0044",
        "country": "USA"
      } ]
    },
    "request": {
      "method": "PUT",
      "url": "Organization/8c771f0e-f9d1-452f-9d45-c2574bc215b0"
    }
  }, {
    "fullUrl": "https://madie.cms.gov/Practitioner/1208ba3b-1a3e-48fe-9170-ab2463796803",
    "resource": {
      "resourceType": "Practitioner",
      "id": "1208ba3b-1a3e-48fe-9170-ab2463796803",
      "meta": {
        "profile": [ "http://hl7.org/fhir/us/qicore/StructureDefinition/qicore-practitioner" ]
      },
      "identifier": [ {
        "system": "http://hl7.org/fhir/sid/us-npi",
        "value": "1234567890"
      } ],
      "name": [ {
        "family": "Evil",
        "prefix": [ "Dr" ]
      } ]
    },
    "request": {
      "method": "PUT",
      "url": "Practitioner/1208ba3b-1a3e-48fe-9170-ab2463796803"
    }
  }, {
    "fullUrl": "https://madie.cms.gov/MeasureReport/cd83b6f4-238a-4221-b59b-d6168fb1fabb",
    "resource": {
      "resourceType": "MeasureReport",
      "id": "cd83b6f4-238a-4221-b59b-d6168fb1fabb",
      "meta": {
        "profile": [ "http://hl7.org/fhir/us/cqfmeasures/StructureDefinition/test-case-cqfm" ]
      },
      "contained": [ {
        "resourceType": "Parameters",
        "id": "2eedb51e-b14c-43ea-a648-fccc42cd5bd5-parameters",
        "parameter": [ {
          "name": "subject",
          "valueString": "8b0160c7-9fb9-47e0-8a7d-ac8afc5b3ea3"
        } ]
      } ],
      "extension": [ {
        "url": "http://hl7.org/fhir/StructureDefinition/cqf-inputParameters",
        "valueReference": {
          "reference": "#2eedb51e-b14c-43ea-a648-fccc42cd5bd5-parameters"
        }
      }, {
        "url": "http://hl7.org/fhir/us/cqfmeasures/StructureDefinition/cqfm-testCaseDescription",
        "valueMarkdown": "Passes: IP, Pt is 27 years of age,  encounter dx of delivery of singleton, gravida, EGA @ 38 weeks  AsseEGA37 (same day, time B4 ) TmDeliver.  Tests \"Gestation37PlusWeeks.authorDatetime 1 day or less on or before TimeOfDelivery.relevantDatetime\".\n"
      } ],
      "modifierExtension": [ {
        "url": "http://hl7.org/fhir/us/cqfmeasures/StructureDefinition/cqfm-isTestCase",
        "valueBoolean": true
      } ],
      "status": "complete",
      "type": "individual",
      "measure": "https://madie.cms.gov/Measure/CMS0334FHIRPCCesareanBirth",
      "period": {
        "start": "2026-01-01",
        "end": "2026-12-31"
      },
      "group": [ {
        "id": "Group_1",
        "population": [ {
          "id": "InitialPopulation_1",
          "code": {
            "coding": [ {
              "system": "http://terminology.hl7.org/CodeSystem/measure-population",
              "code": "initial-population",
              "display": "Initial Population"
            } ]
          },
          "count": 1
        }, {
          "id": "Denominator_1",
          "code": {
            "coding": [ {
              "system": "http://terminology.hl7.org/CodeSystem/measure-population",
              "code": "denominator",
              "display": "Denominator"
            } ]
          },
          "count": 1
        }, {
          "id": "DenominatorExclusion_1",
          "code": {
            "coding": [ {
              "system": "http://terminology.hl7.org/CodeSystem/measure-population",
              "code": "denominator-exclusion",
              "display": "Denominator Exclusion"
            } ]
          },
          "count": 0
        }, {
          "id": "Numerator_1",
          "code": {
            "coding": [ {
              "system": "http://terminology.hl7.org/CodeSystem/measure-population",
              "code": "numerator",
              "display": "Numerator"
            } ]
          },
          "count": 0
        } ],
        "measureScore": {
          "value": 0.0
        }
      } ],
      "evaluatedResource": [ {
        "reference": "Patient/8b0160c7-9fb9-47e0-8a7d-ac8afc5b3ea3"
      }, {
        "reference": "Observation/18e0c372-8c82-45e0-9ae2-62c24d1e0621"
      }, {
        "reference": "Observation/446f21f2-89a6-49f3-b7bf-1134b786147b"
      }, {
        "reference": "Observation/35caefef-b551-4939-9e6f-261192a3d6b0"
      }, {
        "reference": "Encounter/44713cb0-1b18-4c60-a0c0-b63dfa149680"
      }, {
        "reference": "Procedure/adf2390c-d49f-4b70-8ac0-fa381c513c27"
      }, {
        "reference": "Condition/894deeab-dd5b-4f66-b49a-9f4455da2680"
      }, {
        "reference": "Coverage/668e3a6a-6291-4f1b-9118-7b554252bcd1"
      }, {
        "reference": "Organization/8c771f0e-f9d1-452f-9d45-c2574bc215b0"
      }, {
        "reference": "Practitioner/1208ba3b-1a3e-48fe-9170-ab2463796803"
      } ]
    },
    "request": {
      "method": "PUT",
      "url": "MeasureReport/cd83b6f4-238a-4221-b59b-d6168fb1fabb"
    }
  } ]
}