{
  "resourceType": "Bundle",
  "id": "633b3fa00968f80122503d29",
  "type": "transaction",
  "entry": [ {
    "fullUrl": "https://madie.cms.gov/Patient/8e16ccc5-2a18-497a-916f-f7bc94aa94d1",
    "resource": {
      "resourceType": "Patient",
      "id": "8e16ccc5-2a18-497a-916f-f7bc94aa94d1",
      "meta": {
        "profile": [ "http://hl7.org/fhir/us/qicore/StructureDefinition/qicore-patient" ]
      },
      "text": {
        "status": "generated",
        "div": "<div xmlns=\"http://www.w3.org/1999/xhtml\"><div class=\"hapiHeaderText\">DelProcRelDtTm1MinB4MidnightDayB4EncStarts<b>IPFAIL</b></div><table class=\"hapiPropertyTable\"><tbody><tr><td>Date of birth</td><td><span>31 January 2004</span></td></tr></tbody></table></div>"
      },
      "extension": [ {
        "url": "http://hl7.org/fhir/us/core/StructureDefinition/us-core-race",
        "extension": [ {
          "url": "ombCategory",
          "valueCoding": {
            "system": "urn:oid:2.16.840.1.113883.6.238",
            "code": "1002-5",
            "display": "American Indian or Alaska Native",
            "userSelected": true
          }
        }, {
          "url": "text",
          "valueString": "American Indian or Alaska Native"
        } ]
      }, {
        "url": "http://hl7.org/fhir/us/core/StructureDefinition/us-core-ethnicity",
        "extension": [ {
          "url": "ombCategory",
          "valueCoding": {
            "system": "urn:oid:2.16.840.1.113883.6.238",
            "code": "2135-2",
            "display": "Hispanic or Latino",
            "userSelected": true
          }
        }, {
          "url": "text",
          "valueString": "Hispanic or Latino"
        } ]
      } ],
      "identifier": [ {
        "type": {
          "coding": [ {
            "system": "http://terminology.hl7.org/CodeSystem/v2-0203",
            "code": "MR"
          } ]
        },
        "system": "https://bonnie-fhir.healthit.gov/",
        "value": "633b3fa00968f80122503d29"
      } ],
      "active": true,
      "name": [ {
        "use": "usual",
        "family": "IPFail",
        "given": [ "DelProcRelDtTm1MinB4MidnightDayB4EncStarts" ]
      } ],
      "gender": "female",
      "birthDate": "2005-01-31"
    },
    "request": {
      "method": "PUT",
      "url": "Patient/8e16ccc5-2a18-497a-916f-f7bc94aa94d1"
    }
  }, {
    "fullUrl": "https://madie.cms.gov/Encounter/c83d8773-8f8d-4b89-b597-7cb88cf8d3ca",
    "resource": {
      "resourceType": "Encounter",
      "id": "c83d8773-8f8d-4b89-b597-7cb88cf8d3ca",
      "meta": {
        "profile": [ "http://hl7.org/fhir/us/qicore/StructureDefinition/qicore-encounter" ]
      },
      "status": "finished",
      "class": {
        "system": "http://terminology.hl7.org/CodeSystem/v3-ActCode",
        "code": "IMP",
        "display": "inpatient encounter"
      },
      "type": [ {
        "coding": [ {
          "system": "http://snomed.info/sct",
          "code": "183452005"
        } ]
      } ],
      "subject": {
        "reference": "Patient/8e16ccc5-2a18-497a-916f-f7bc94aa94d1"
      },
      "period": {
        "start": "2026-02-01T09:00:00Z",
        "end": "2026-02-05T08:15:00.000+00:00"
      }
    },
    "request": {
      "method": "PUT",
      "url": "Encounter/c83d8773-8f8d-4b89-b597-7cb88cf8d3ca"
    }
  }, {
    "fullUrl": "https://madie.cms.gov/Procedure/0393ea02-2806-4d27-ab4b-51aceeb3cd01",
    "resource": {
      "resourceType": "Procedure",
      "id": "0393ea02-2806-4d27-ab4b-51aceeb3cd01",
      "meta": {
        "profile": [ "http://hl7.org/fhir/us/qicore/StructureDefinition/qicore-procedure" ]
      },
      "extension": [ {
        "url": "http://hl7.org/fhir/us/qicore/StructureDefinition/qicore-recorded",
        "valueDateTime": "2014-04-05T13:35:00Z"
      } ],
      "status": "completed",
      "code": {
        "coding": [ {
          "system": "http://snomed.info/sct",
          "code": "10745001"
        } ]
      },
      "subject": {
        "reference": "Patient/8e16ccc5-2a18-497a-916f-f7bc94aa94d1"
      },
      "performedDateTime": "2026-01-31T23:59:00Z"
    },
    "request": {
      "method": "PUT",
      "url": "Procedure/0393ea02-2806-4d27-ab4b-51aceeb3cd01"
    }
  }, {
    "fullUrl": "https://madie.cms.gov/Coverage/127f934b-e136-4e7b-a866-f40827abeeb9",
    "resource": {
      "resourceType": "Coverage",
      "id": "127f934b-e136-4e7b-a866-f40827abeeb9",
      "meta": {
        "profile": [ "http://hl7.org/fhir/us/qicore/StructureDefinition/qicore-coverage" ]
      },
      "status": "active",
      "beneficiary": {
        "reference": "Patient/8e16ccc5-2a18-497a-916f-f7bc94aa94d1"
      },
      "payor": [ {
        "reference": "Organization/c0952b2d-6878-4c54-b95b-9d3d9ae3f1b2"
      } ]
    },
    "request": {
      "method": "PUT",
      "url": "Coverage/127f934b-e136-4e7b-a866-f40827abeeb9"
    }
  }, {
    "fullUrl": "https://madie.cms.gov/Organization/c0952b2d-6878-4c54-b95b-9d3d9ae3f1b2",
    "resource": {
      "resourceType": "Organization",
      "id": "c0952b2d-6878-4c54-b95b-9d3d9ae3f1b2",
      "meta": {
        "profile": [ "http://hl7.org/fhir/us/qicore/StructureDefinition/qicore-organization" ]
      },
      "identifier": [ {
        "use": "temp",
        "system": "urn:oid:2.16.840.1.113883.4.4",
        "value": "21-3259825"
      } ],
      "active": true,
      "type": [ {
        "coding": [ {
          "system": "http://terminology.hl7.org/CodeSystem/organization-type",
          "code": "pay",
          "display": "Payer"
        } ]
      } ],
      "name": "Blue Cross Blue Shield of Texas",
      "telecom": [ {
        "system": "phone",
        "value": "(+1) 972-766-6900"
      } ],
      "address": [ {
        "use": "billing",
        "type": "postal",
        "line": [ "P.O. Box 660044" ],
        "city": "Dallas",
        "state": "TX",
        "postalCode": "75266-0044",
        "country": "USA"
      } ]
    },
    "request": {
      "method": "PUT",
      "url": "Organization/c0952b2d-6878-4c54-b95b-9d3d9ae3f1b2"
    }
  }, {
    "fullUrl": "https://madie.cms.gov/Practitioner/40835e27-390a-423b-af3a-ed9be2449292",
    "resource": {
      "resourceType": "Practitioner",
      "id": "40835e27-390a-423b-af3a-ed9be2449292",
      "identifier": [ {
        "system": "http://hl7.org/fhir/sid/us-npi",
        "value": "123456"
      } ],
      "name": [ {
        "family": "Evil",
        "prefix": [ "Dr" ]
      } ]
    },
    "request": {
      "method": "PUT",
      "url": "Practitioner/40835e27-390a-423b-af3a-ed9be2449292"
    }
  }, {
    "fullUrl": "https://madie.cms.gov/MeasureReport/22c6a6b0-c43f-4820-9e45-917167585c9f",
    "resource": {
      "resourceType": "MeasureReport",
      "id": "22c6a6b0-c43f-4820-9e45-917167585c9f",
      "meta": {
        "profile": [ "http://hl7.org/fhir/us/cqfmeasures/StructureDefinition/test-case-cqfm" ]
      },
      "contained": [ {
        "resourceType": "Parameters",
        "id": "2e7178bc-13a8-4783-8c10-b374e343ed64-parameters",
        "parameter": [ {
          "name": "subject",
          "valueString": "8e16ccc5-2a18-497a-916f-f7bc94aa94d1"
        } ]
      } ],
      "extension": [ {
        "url": "http://hl7.org/fhir/StructureDefinition/cqf-inputParameters",
        "valueReference": {
          "reference": "#2e7178bc-13a8-4783-8c10-b374e343ed64-parameters"
        }
      }, {
        "url": "http://hl7.org/fhir/us/cqfmeasures/StructureDefinition/cqfm-testCaseDescription",
        "valueMarkdown": "Delivery Procedure rel date/time = 11:59 pm day before encounter starts.\n"
      } ],
      "modifierExtension": [ {
        "url": "http://hl7.org/fhir/us/cqfmeasures/StructureDefinition/cqfm-isTestCase",
        "valueBoolean": true
      } ],
      "status": "complete",
      "type": "individual",
      "measure": "https://madie.cms.gov/Measure/CMS1028FHIRPCSevereOBComps",
      "period": {
        "start": "2026-01-01",
        "end": "2026-12-31"
      },
      "group": [ {
        "id": "Group_1",
        "population": [ {
          "id": "InitialPopulation_1",
          "code": {
            "coding": [ {
              "system": "http://terminology.hl7.org/CodeSystem/measure-population",
              "code": "initial-population",
              "display": "Initial Population"
            } ]
          },
          "count": 0
        }, {
          "id": "Denominator_1",
          "code": {
            "coding": [ {
              "system": "http://terminology.hl7.org/CodeSystem/measure-population",
              "code": "denominator",
              "display": "Denominator"
            } ]
          },
          "count": 0
        }, {
          "id": "Numerator_1",
          "code": {
            "coding": [ {
              "system": "http://terminology.hl7.org/CodeSystem/measure-population",
              "code": "numerator",
              "display": "Numerator"
            } ]
          },
          "count": 0
        }, {
          "id": "NumeratorExclusion_1",
          "code": {
            "coding": [ {
              "system": "http://terminology.hl7.org/CodeSystem/measure-population",
              "code": "numerator-exclusion",
              "display": "Numerator Exclusion"
            } ]
          },
          "count": 0
        } ],
        "measureScore": {
          "value": 0.0
        }
      }, {
        "id": "Group_2",
        "population": [ {
          "id": "InitialPopulation_2",
          "code": {
            "coding": [ {
              "system": "http://terminology.hl7.org/CodeSystem/measure-population",
              "code": "initial-population",
              "display": "Initial Population"
            } ]
          },
          "count": 0
        }, {
          "id": "Denominator_2",
          "code": {
            "coding": [ {
              "system": "http://terminology.hl7.org/CodeSystem/measure-population",
              "code": "denominator",
              "display": "Denominator"
            } ]
          },
          "count": 0
        }, {
          "id": "Numerator_2",
          "code": {
            "coding": [ {
              "system": "http://terminology.hl7.org/CodeSystem/measure-population",
              "code": "numerator",
              "display": "Numerator"
            } ]
          },
          "count": 0
        }, {
          "id": "NumeratorExclusion_2",
          "code": {
            "coding": [ {
              "system": "http://terminology.hl7.org/CodeSystem/measure-population",
              "code": "numerator-exclusion",
              "display": "Numerator Exclusion"
            } ]
          },
          "count": 0
        } ],
        "measureScore": {
          "value": 0.0
        }
      } ],
      "evaluatedResource": [ {
        "reference": "Patient/8e16ccc5-2a18-497a-916f-f7bc94aa94d1"
      }, {
        "reference": "Encounter/c83d8773-8f8d-4b89-b597-7cb88cf8d3ca"
      }, {
        "reference": "Procedure/0393ea02-2806-4d27-ab4b-51aceeb3cd01"
      }, {
        "reference": "Coverage/127f934b-e136-4e7b-a866-f40827abeeb9"
      }, {
        "reference": "Organization/c0952b2d-6878-4c54-b95b-9d3d9ae3f1b2"
      }, {
        "reference": "Practitioner/40835e27-390a-423b-af3a-ed9be2449292"
      } ]
    },
    "request": {
      "method": "PUT",
      "url": "MeasureReport/22c6a6b0-c43f-4820-9e45-917167585c9f"
    }
  } ]
}