{
  "resourceType": "Bundle",
  "id": "ScreAtriNorefAsseModDxCp",
  "type": "transaction",
  "entry": [ {
    "fullUrl": "https://madie.cms.gov/Patient/2d70f119-a79e-4602-8840-36d26d91cdf6",
    "resource": {
      "resourceType": "Patient",
      "id": "2d70f119-a79e-4602-8840-36d26d91cdf6",
      "meta": {
        "profile": [ "http://hl7.org/fhir/us/qicore/StructureDefinition/qicore-patient" ]
      },
      "extension": [ {
        "url": "http://hl7.org/fhir/us/core/StructureDefinition/us-core-race",
        "extension": [ {
          "url": "ombCategory",
          "valueCoding": {
            "system": "urn:oid:2.16.840.1.113883.6.238",
            "code": "2106-3",
            "display": "White",
            "userSelected": true
          }
        }, {
          "url": "text",
          "valueString": "White"
        } ]
      }, {
        "url": "http://hl7.org/fhir/us/core/StructureDefinition/us-core-ethnicity",
        "extension": [ {
          "url": "ombCategory",
          "valueCoding": {
            "system": "urn:oid:2.16.840.1.113883.6.238",
            "code": "2186-5",
            "display": "Not Hispanic or Latino",
            "userSelected": true
          }
        }, {
          "url": "text",
          "valueString": "Not Hispanic or Latino"
        } ]
      }, {
        "url": "http://hl7.org/fhir/us/core/StructureDefinition/us-core-sex",
        "valueCode": "248153007"
      } ],
      "identifier": [ {
        "type": {
          "coding": [ {
            "system": "http://terminology.hl7.org/CodeSystem/v2-0203",
            "code": "MR"
          } ]
        },
        "system": "https://madie.cms.gov/",
        "value": "ScreAtriNorefAsseModDxCp"
      } ],
      "active": true,
      "name": [ {
        "use": "usual",
        "text": "ScreAtriNorefAsseModDxCp",
        "family": "MSROBSPass4",
        "given": [ "ScreAtriNorefAsseModDxCp" ]
      } ],
      "gender": "male",
      "birthDate": "1939-01-01",
      "address": [ {
        "text": "ScreAtriNorefAsseModDxCp, Screened at risk Assessed Severely Malnourished Diagnosed Care Plan, ID=ScreAtriNorefAsseModDxCp, DOB: 01 Jan 1939"
      } ]
    },
    "request": {
      "method": "PUT",
      "url": "Patient/2d70f119-a79e-4602-8840-36d26d91cdf6"
    }
  }, {
    "fullUrl": "https://madie.cms.gov/Encounter/38ecfe1b-7782-4a62-aefe-860e576a011a",
    "resource": {
      "resourceType": "Encounter",
      "id": "38ecfe1b-7782-4a62-aefe-860e576a011a",
      "meta": {
        "profile": [ "http://hl7.org/fhir/us/qicore/StructureDefinition/qicore-encounter" ]
      },
      "status": "finished",
      "class": {
        "system": "http://terminology.hl7.org/CodeSystem/v3-ActCode",
        "code": "IMP",
        "display": "inpatient encounter"
      },
      "type": [ {
        "coding": [ {
          "system": "http://snomed.info/sct",
          "code": "183452005"
        } ]
      } ],
      "subject": {
        "reference": "Patient/2d70f119-a79e-4602-8840-36d26d91cdf6"
      },
      "period": {
        "start": "2026-02-01T08:00:00.000+00:00",
        "end": "2026-02-07T08:15:00.000+00:00"
      },
      "reasonReference": [ {
        "reference": "Condition/a8527d1e-22c2-4da9-b6bf-aaa2c539dfe4"
      } ]
    },
    "request": {
      "method": "PUT",
      "url": "Encounter/38ecfe1b-7782-4a62-aefe-860e576a011a"
    }
  }, {
    "fullUrl": "https://madie.cms.gov/Condition/a8527d1e-22c2-4da9-b6bf-aaa2c539dfe4",
    "resource": {
      "resourceType": "Condition",
      "id": "a8527d1e-22c2-4da9-b6bf-aaa2c539dfe4",
      "meta": {
        "profile": [ "http://hl7.org/fhir/us/qicore/StructureDefinition/qicore-condition-encounter-diagnosis" ]
      },
      "clinicalStatus": {
        "coding": [ {
          "system": "http://terminology.hl7.org/CodeSystem/condition-clinical",
          "code": "active",
          "display": "Active",
          "userSelected": true
        } ]
      },
      "verificationStatus": {
        "coding": [ {
          "system": "http://terminology.hl7.org/CodeSystem/condition-ver-status",
          "code": "confirmed",
          "display": "Confirmed",
          "userSelected": true
        } ]
      },
      "category": [ {
        "coding": [ {
          "system": "http://terminology.hl7.org/CodeSystem/condition-category",
          "code": "encounter-diagnosis",
          "display": "Encounter Diagnosis",
          "userSelected": true
        } ]
      } ],
      "code": {
        "coding": [ {
          "system": "http://snomed.info/sct",
          "code": "722959000",
          "display": "Anorexia nervosa co-occurrent with dangerously low body weight (disorder)",
          "userSelected": true
        } ]
      },
      "subject": {
        "reference": "Patient/2d70f119-a79e-4602-8840-36d26d91cdf6"
      },
      "onsetPeriod": {
        "start": "2026-02-02T08:00:00.000+00:00"
      },
      "recordedDate": "2026-02-02T11:00:00.000+00:00"
    },
    "request": {
      "method": "PUT",
      "url": "Condition/a8527d1e-22c2-4da9-b6bf-aaa2c539dfe4"
    }
  }, {
    "fullUrl": "https://madie.cms.gov/Observation/c030cb41-e6f0-4e61-9d2f-1572b335b5b3",
    "resource": {
      "resourceType": "Observation",
      "id": "c030cb41-e6f0-4e61-9d2f-1572b335b5b3",
      "meta": {
        "profile": [ "http://hl7.org/fhir/us/qicore/StructureDefinition/qicore-observation-screening-assessment" ]
      },
      "status": "final",
      "category": [ {
        "coding": [ {
          "system": "http://terminology.hl7.org/CodeSystem/observation-category",
          "code": "survey",
          "display": "Survey"
        } ]
      } ],
      "code": {
        "coding": [ {
          "system": "http://loinc.org",
          "code": "101807-6",
          "display": "Malnutrition risk screen results indicator",
          "userSelected": true
        } ]
      },
      "subject": {
        "reference": "Patient/2d70f119-a79e-4602-8840-36d26d91cdf6"
      },
      "effectiveDateTime": "2026-02-02T09:00:00.000+00:00",
      "valueCodeableConcept": {
        "coding": [ {
          "system": "http://loinc.org",
          "code": "LA27538-0",
          "display": "At risk for malnutrition",
          "userSelected": true
        } ]
      }
    },
    "request": {
      "method": "PUT",
      "url": "Observation/c030cb41-e6f0-4e61-9d2f-1572b335b5b3"
    }
  }, {
    "fullUrl": "https://madie.cms.gov/Observation/fade5360-26cd-4495-9307-8eddf3969d8f",
    "resource": {
      "resourceType": "Observation",
      "id": "fade5360-26cd-4495-9307-8eddf3969d8f",
      "meta": {
        "profile": [ "http://hl7.org/fhir/us/qicore/StructureDefinition/qicore-observation-screening-assessment" ]
      },
      "status": "final",
      "category": [ {
        "coding": [ {
          "system": "http://terminology.hl7.org/CodeSystem/observation-category",
          "code": "survey",
          "display": "Survey"
        } ]
      } ],
      "code": {
        "coding": [ {
          "system": "http://loinc.org",
          "code": "101819-1",
          "display": "Nutritional assessment for malnutrition status",
          "userSelected": true
        } ]
      },
      "subject": {
        "reference": "Patient/2d70f119-a79e-4602-8840-36d26d91cdf6"
      },
      "effectiveDateTime": "2026-02-02T10:00:00.000+00:00",
      "valueCodeableConcept": {
        "coding": [ {
          "system": "http://snomed.info/sct",
          "code": "788876001",
          "display": "Cachexia due to malignant neoplastic disease (finding)",
          "userSelected": true
        } ]
      }
    },
    "request": {
      "method": "PUT",
      "url": "Observation/fade5360-26cd-4495-9307-8eddf3969d8f"
    }
  }, {
    "fullUrl": "https://madie.cms.gov/Procedure/dc58f995-b9bf-4ba2-ae68-f0f9d4cd9fe3",
    "resource": {
      "resourceType": "Procedure",
      "id": "dc58f995-b9bf-4ba2-ae68-f0f9d4cd9fe3",
      "meta": {
        "profile": [ "http://hl7.org/fhir/us/qicore/StructureDefinition/qicore-procedure" ]
      },
      "extension": [ {
        "url": "http://hl7.org/fhir/us/qicore/StructureDefinition/qicore-recorded",
        "valueDateTime": "2026-02-02T11:30:00.000+00:00"
      } ],
      "status": "completed",
      "code": {
        "coding": [ {
          "system": "http://snomed.info/sct",
          "code": "386373004",
          "display": "Nutrition therapy (regime/therapy)"
        } ],
        "text": "Nutrition therapy (regime/therapy)"
      },
      "subject": {
        "reference": "Patient/2d70f119-a79e-4602-8840-36d26d91cdf6"
      },
      "encounter": {
        "reference": "Encounter/ScreAtriNorefAsseModDxCpMSROBSPass4"
      },
      "performedPeriod": {
        "start": "2026-02-01T11:30:00.000+00:00",
        "end": "2026-02-07T08:15:00.000+00:00"
      }
    },
    "request": {
      "method": "PUT",
      "url": "Procedure/dc58f995-b9bf-4ba2-ae68-f0f9d4cd9fe3"
    }
  }, {
    "fullUrl": "https://madie.cms.gov/Coverage/8908491a-be5a-4141-a570-62f91d770813",
    "resource": {
      "resourceType": "Coverage",
      "id": "8908491a-be5a-4141-a570-62f91d770813",
      "meta": {
        "profile": [ "http://hl7.org/fhir/us/qicore/StructureDefinition/qicore-coverage" ]
      },
      "status": "active",
      "type": {
        "coding": [ {
          "system": "https://nahdo.org/sopt",
          "version": "9.2",
          "code": "11",
          "display": "Medicare Managed Care (Includes Medicare Advantage Plans)"
        } ]
      },
      "subscriberId": "97531",
      "beneficiary": {
        "reference": "Patient/2d70f119-a79e-4602-8840-36d26d91cdf6"
      },
      "dependent": "0",
      "relationship": {
        "coding": [ {
          "system": "http://terminology.hl7.org/CodeSystem/subscriber-relationship",
          "code": "self"
        } ]
      },
      "period": {
        "start": "2024-10-01T00:00:00.000+00:00"
      },
      "payor": [ {
        "reference": "Organization/3869633f-3896-4236-8903-eac25bb7c2f1"
      } ]
    },
    "request": {
      "method": "PUT",
      "url": "Coverage/8908491a-be5a-4141-a570-62f91d770813"
    }
  }, {
    "fullUrl": "https://madie.cms.gov/Organization/3869633f-3896-4236-8903-eac25bb7c2f1",
    "resource": {
      "resourceType": "Organization",
      "id": "3869633f-3896-4236-8903-eac25bb7c2f1",
      "meta": {
        "profile": [ "http://hl7.org/fhir/us/qicore/StructureDefinition/qicore-organization" ]
      },
      "identifier": [ {
        "use": "temp",
        "system": "urn:oid:2.16.840.1.113883.4.4",
        "value": "21-3259825"
      } ],
      "active": true,
      "type": [ {
        "coding": [ {
          "system": "http://terminology.hl7.org/CodeSystem/organization-type",
          "code": "pay",
          "display": "Payer"
        } ]
      } ],
      "name": "Blue Cross Blue Shield of Texas",
      "telecom": [ {
        "system": "phone",
        "value": "(+1) 972-766-6900"
      } ],
      "address": [ {
        "use": "billing",
        "type": "postal",
        "line": [ "P.O. Box 660044" ],
        "city": "Dallas",
        "state": "TX",
        "postalCode": "75266-0044",
        "country": "USA"
      } ]
    },
    "request": {
      "method": "PUT",
      "url": "Organization/3869633f-3896-4236-8903-eac25bb7c2f1"
    }
  }, {
    "fullUrl": "https://madie.cms.gov/MeasureReport/ad0799e3-4c71-407e-a645-52e43d2147d9",
    "resource": {
      "resourceType": "MeasureReport",
      "id": "ad0799e3-4c71-407e-a645-52e43d2147d9",
      "meta": {
        "profile": [ "http://hl7.org/fhir/us/cqfmeasures/StructureDefinition/test-case-cqfm" ]
      },
      "contained": [ {
        "resourceType": "Parameters",
        "id": "efe52ce6-a1d2-4e29-9b4e-2ff362860c2e-parameters",
        "parameter": [ {
          "name": "subject",
          "valueString": "2d70f119-a79e-4602-8840-36d26d91cdf6"
        } ]
      } ],
      "extension": [ {
        "url": "http://hl7.org/fhir/StructureDefinition/cqf-inputParameters",
        "valueReference": {
          "reference": "#efe52ce6-a1d2-4e29-9b4e-2ff362860c2e-parameters"
        }
      }, {
        "url": "http://hl7.org/fhir/us/cqfmeasures/StructureDefinition/cqfm-testCaseDescription",
        "valueMarkdown": "Screened, At Risk, No Referral, Assessed, Severe Malnutrition, Diagnosis, Nutrition Care Plan"
      } ],
      "modifierExtension": [ {
        "url": "http://hl7.org/fhir/us/cqfmeasures/StructureDefinition/cqfm-isTestCase",
        "valueBoolean": true
      } ],
      "status": "complete",
      "type": "individual",
      "measure": "https://madie.cms.gov/Measure/CMS986FHIRMalnutritionScore",
      "period": {
        "start": "2026-01-01",
        "end": "2026-12-31"
      },
      "group": [ {
        "id": "Group_1",
        "population": [ {
          "id": "InitialPopulation_1",
          "code": {
            "coding": [ {
              "system": "http://terminology.hl7.org/CodeSystem/measure-population",
              "code": "initial-population",
              "display": "Initial Population"
            } ]
          },
          "count": 1
        }, {
          "id": "MeasurePopulation_1",
          "code": {
            "coding": [ {
              "system": "http://terminology.hl7.org/CodeSystem/measure-population",
              "code": "measure-population",
              "display": "Measure Population"
            } ]
          },
          "count": 1
        }, {
          "id": "MeasurePopulationExclusion_1",
          "code": {
            "coding": [ {
              "system": "http://terminology.hl7.org/CodeSystem/measure-population",
              "code": "measure-population-exclusion",
              "display": "Measure Population Exclusion"
            } ]
          },
          "count": 0
        }, {
          "id": "MeasureObservation_1_1",
          "code": {
            "coding": [ {
              "system": "http://terminology.hl7.org/CodeSystem/measure-population",
              "code": "measure-population-observation",
              "display": "Measure Population Observation"
            } ]
          },
          "count": 1
        } ],
        "measureScore": {
          "value": 0.0
        }
      }, {
        "id": "Group_2",
        "population": [ {
          "id": "InitialPopulation_2",
          "code": {
            "coding": [ {
              "system": "http://terminology.hl7.org/CodeSystem/measure-population",
              "code": "initial-population",
              "display": "Initial Population"
            } ]
          },
          "count": 1
        }, {
          "id": "MeasurePopulation_2",
          "code": {
            "coding": [ {
              "system": "http://terminology.hl7.org/CodeSystem/measure-population",
              "code": "measure-population",
              "display": "Measure Population"
            } ]
          },
          "count": 1
        }, {
          "id": "MeasurePopulationExclusion_2",
          "code": {
            "coding": [ {
              "system": "http://terminology.hl7.org/CodeSystem/measure-population",
              "code": "measure-population-exclusion",
              "display": "Measure Population Exclusion"
            } ]
          },
          "count": 0
        }, {
          "id": "MeasureObservation_2_1",
          "code": {
            "coding": [ {
              "system": "http://terminology.hl7.org/CodeSystem/measure-population",
              "code": "measure-population-observation",
              "display": "Measure Population Observation"
            } ]
          },
          "count": 1
        } ],
        "measureScore": {
          "value": 0.0
        }
      }, {
        "id": "Group_3",
        "population": [ {
          "id": "InitialPopulation_3",
          "code": {
            "coding": [ {
              "system": "http://terminology.hl7.org/CodeSystem/measure-population",
              "code": "initial-population",
              "display": "Initial Population"
            } ]
          },
          "count": 1
        }, {
          "id": "MeasurePopulation_3",
          "code": {
            "coding": [ {
              "system": "http://terminology.hl7.org/CodeSystem/measure-population",
              "code": "measure-population",
              "display": "Measure Population"
            } ]
          },
          "count": 1
        }, {
          "id": "MeasurePopulationExclusion_3",
          "code": {
            "coding": [ {
              "system": "http://terminology.hl7.org/CodeSystem/measure-population",
              "code": "measure-population-exclusion",
              "display": "Measure Population Exclusion"
            } ]
          },
          "count": 0
        }, {
          "id": "MeasureObservation_3_1",
          "code": {
            "coding": [ {
              "system": "http://terminology.hl7.org/CodeSystem/measure-population",
              "code": "measure-population-observation",
              "display": "Measure Population Observation"
            } ]
          },
          "count": 1
        } ],
        "measureScore": {
          "value": 0.0
        }
      }, {
        "id": "Group_4",
        "population": [ {
          "id": "InitialPopulation_4",
          "code": {
            "coding": [ {
              "system": "http://terminology.hl7.org/CodeSystem/measure-population",
              "code": "initial-population",
              "display": "Initial Population"
            } ]
          },
          "count": 1
        }, {
          "id": "MeasurePopulation_4",
          "code": {
            "coding": [ {
              "system": "http://terminology.hl7.org/CodeSystem/measure-population",
              "code": "measure-population",
              "display": "Measure Population"
            } ]
          },
          "count": 1
        }, {
          "id": "MeasurePopulationExclusion_4",
          "code": {
            "coding": [ {
              "system": "http://terminology.hl7.org/CodeSystem/measure-population",
              "code": "measure-population-exclusion",
              "display": "Measure Population Exclusion"
            } ]
          },
          "count": 0
        }, {
          "id": "MeasureObservation_4_1",
          "code": {
            "coding": [ {
              "system": "http://terminology.hl7.org/CodeSystem/measure-population",
              "code": "measure-population-observation",
              "display": "Measure Population Observation"
            } ]
          },
          "count": 1
        } ],
        "measureScore": {
          "value": 0.0
        }
      }, {
        "id": "Group_5",
        "population": [ {
          "id": "InitialPopulation_5",
          "code": {
            "coding": [ {
              "system": "http://terminology.hl7.org/CodeSystem/measure-population",
              "code": "initial-population",
              "display": "Initial Population"
            } ]
          },
          "count": 1
        }, {
          "id": "MeasurePopulation_5",
          "code": {
            "coding": [ {
              "system": "http://terminology.hl7.org/CodeSystem/measure-population",
              "code": "measure-population",
              "display": "Measure Population"
            } ]
          },
          "count": 1
        }, {
          "id": "MeasurePopulationExclusion_5",
          "code": {
            "coding": [ {
              "system": "http://terminology.hl7.org/CodeSystem/measure-population",
              "code": "measure-population-exclusion",
              "display": "Measure Population Exclusion"
            } ]
          },
          "count": 0
        }, {
          "id": "MeasureObservation_5_1",
          "code": {
            "coding": [ {
              "system": "http://terminology.hl7.org/CodeSystem/measure-population",
              "code": "measure-population-observation",
              "display": "Measure Population Observation"
            } ]
          },
          "count": 4
        } ],
        "measureScore": {
          "value": 0.0
        }
      }, {
        "id": "Group_6",
        "population": [ {
          "id": "InitialPopulation_6",
          "code": {
            "coding": [ {
              "system": "http://terminology.hl7.org/CodeSystem/measure-population",
              "code": "initial-population",
              "display": "Initial Population"
            } ]
          },
          "count": 1
        }, {
          "id": "MeasurePopulation_6",
          "code": {
            "coding": [ {
              "system": "http://terminology.hl7.org/CodeSystem/measure-population",
              "code": "measure-population",
              "display": "Measure Population"
            } ]
          },
          "count": 1
        }, {
          "id": "MeasurePopulationExclusion_6",
          "code": {
            "coding": [ {
              "system": "http://terminology.hl7.org/CodeSystem/measure-population",
              "code": "measure-population-exclusion",
              "display": "Measure Population Exclusion"
            } ]
          },
          "count": 0
        }, {
          "id": "MeasureObservation_6_1",
          "code": {
            "coding": [ {
              "system": "http://terminology.hl7.org/CodeSystem/measure-population",
              "code": "measure-population-observation",
              "display": "Measure Population Observation"
            } ]
          },
          "count": 100
        } ],
        "measureScore": {
          "value": 0.0
        }
      } ],
      "evaluatedResource": [ {
        "reference": "Patient/2d70f119-a79e-4602-8840-36d26d91cdf6"
      }, {
        "reference": "Encounter/38ecfe1b-7782-4a62-aefe-860e576a011a"
      }, {
        "reference": "Condition/a8527d1e-22c2-4da9-b6bf-aaa2c539dfe4"
      }, {
        "reference": "Observation/c030cb41-e6f0-4e61-9d2f-1572b335b5b3"
      }, {
        "reference": "Observation/fade5360-26cd-4495-9307-8eddf3969d8f"
      }, {
        "reference": "Procedure/dc58f995-b9bf-4ba2-ae68-f0f9d4cd9fe3"
      }, {
        "reference": "Coverage/8908491a-be5a-4141-a570-62f91d770813"
      }, {
        "reference": "Organization/3869633f-3896-4236-8903-eac25bb7c2f1"
      } ]
    },
    "request": {
      "method": "PUT",
      "url": "MeasureReport/ad0799e3-4c71-407e-a645-52e43d2147d9"
    }
  } ]
}