{"resourceType":"Bundle","id":"CMS1056CTClinicalFHIR-bundle","type":"transaction","timestamp":"2025-07-15T07:42:20.308-06:00","entry":[{"resource":{"resourceType":"Library","id":"CMS1056CTClinicalFHIR","meta":{"profile":["http://hl7.org/fhir/uv/crmi/StructureDefinition/crmi-shareablelibrary","http://hl7.org/fhir/uv/crmi/StructureDefinition/crmi-computablelibrary","http://hl7.org/fhir/uv/crmi/StructureDefinition/crmi-publishablelibrary","http://hl7.org/fhir/uv/crmi/StructureDefinition/crmi-executablelibrary","http://hl7.org/fhir/uv/cql/StructureDefinition/cql-library","http://hl7.org/fhir/uv/cql/StructureDefinition/elm-json-library","http://hl7.org/fhir/uv/cql/StructureDefinition/elm-xml-library"]},"language":"en","text":{"status":"extensions","div":"<div xmlns=\"http://www.w3.org/1999/xhtml\">\n    <table class=\"grid dict\">\n        \n        \n        <tr>\n            <th scope=\"row\"><b>Title: </b></th>\n            <td style=\"padding-left: 4px;\">CMS1056CTClinicalFHIR</td>\n        </tr>\n        \n\n        \n        \n        <tr>\n            <th scope=\"row\"><b>Id: </b></th>\n            <td style=\"padding-left: 4px;\">CMS1056CTClinicalFHIR</td>\n        </tr>\n        \n\n        \n        \n        <tr>\n            <th scope=\"row\"><b>Version: </b></th>\n            <td style=\"padding-left: 4px;\">0.6.000</td>\n        </tr>\n        \n\n        \n        <tr>\n            <th scope=\"row\"><b>Url: </b></th>\n            <td style=\"padding-left: 4px;\">https://madie.cms.gov/Library/CMS1056CTClinicalFHIR</td>\n        </tr>\n        \n\n        \n        <tr>\n            <th scope=\"row\">\n                <b>\n                    \n                        official\n                    \n                </b>\n            </th>\n            <td style=\"padding-left: 4px;\">\n                \n                <p style=\"margin-bottom: 5px;\">\n                    <span>CMS1056CTClinicalFHIR</span>\n                </p>\n                \n            </td>\n        </tr>\n        \n\n        \n\n        \n\n        \n\n        \n        <tr>\n            <th scope=\"row\"><b>Type: </b></th>\n            <td style=\"padding-left: 4px;\">\n                \n                    \n                        \n                        <p style=\"margin-bottom: 5px;\">\n                            <b>system: </b> <span>http://terminology.hl7.org/CodeSystem/library-type</span>\n                        </p>\n                        \n                        \n                        <p style=\"margin-bottom: 5px;\">\n                            <b>code: </b> <span>logic-library</span>\n                        </p>\n                        \n                        \n                    \n                \n                \n            </td>\n        </tr>\n        \n\n        \n\n        \n        <tr>\n            <th scope=\"row\"><b>Date: </b></th>\n            <td style=\"padding-left: 4px;\">2025-04-18T13:49:26+00:00</td>\n        </tr>\n        \n\n        \n        <tr>\n            <th scope=\"row\"><b>Publisher: </b></th>\n            <td style=\"padding-left: 4px;\">Alara Imaging, Inc.</td>\n        </tr>\n        \n\n        \n        <tr>\n            <th scope=\"row\"><b>Description: </b></th>\n            <td style=\"padding-left: 4px;\">CMS1056CTClinicalFHIR</td>\n        </tr>\n        \n\n        \n\n        \n\n        \n\n        \n\n        \n\n        \n\n        \n\n        \n\n        \n\n        \n\n        \n        <tr>\n            <th scope=\"row\"><b>Related Artifacts: </b></th>\n            <td style=\"padding-left: 4px;\">\n                \n                \n                \n                <p><b>Dependencies</b></p>\n                <ul>\n                  \n                    <li>https://madie.cms.gov/Library/SupplementalDataElements|5.1.000</li>\n                  \n                    <li>https://madie.cms.gov/Library/QICoreCommon|4.0.000</li>\n                  \n                    <li>https://madie.cms.gov/Library/FHIRHelpers|4.4.000</li>\n                  \n                    <li>https://madie.cms.gov/Library/AlaraCommonFunctions|1.6.000</li>\n                  \n                    <li>http://loinc.org</li>\n                  \n                </ul>\n                \n                \n                \n                \n                \n            </td>\n        </tr>\n        \n\n        \n\n        \n        <tr>\n          <th scope=\"row\"><b>Data Requirements:</b></th>\n          <td style=\"padding-left: 4px;\">\n            <table class=\"grid-dict\">\n              <tr><th><b>Type</b></th><th><b>Profile</b></th><th><b>MS</b></th><th><b>Code Filter</b></th></tr>\n              \n                <tr>\n                  <th>Patient</th>\n                  <th>http://hl7.org/fhir/us/qicore/StructureDefinition/qicore-patient</th>\n                  <th>;;</th>\n                  <th>\n                    \n                  </th>\n                </tr>\n              \n                <tr>\n                  <th>Observation</th>\n                  <th>http://hl7.org/fhir/us/qicore/StructureDefinition/qicore-observation-lab</th>\n                  <th>;;;;</th>\n                  <th>\n                    \n                      <b>code filter: </b>\n                      \n                      <br/>\n                      \n                      \n                      <span style=\"padding-left: 4px;\">\n                          <b>path: </b><span>code</span>\n                      </span>\n                      \n                      <br/>\n                      \n                      \n                      \n                      \n                          \n                          <p style=\"margin-bottom: 5px;\">\n                              <b>system: </b> <span>http://loinc.org</span>\n                          </p>\n                          \n                          \n                          <p style=\"margin-bottom: 5px;\">\n                              <b>code: </b> <span>96914-7</span>\n                          </p>\n                          \n                          \n                          <p style=\"margin-bottom: 5px;\">\n                              <b>display: </b> <span>CT dose and image quality category</span>\n                          </p>\n                          \n                      \n                    \n                  </th>\n                </tr>\n              \n                <tr>\n                  <th>Coverage</th>\n                  <th>http://hl7.org/fhir/us/qicore/StructureDefinition/qicore-coverage</th>\n                  <th>;;</th>\n                  <th>\n                    \n                      <b>code filter: </b>\n                      \n                      <br/>\n                      \n                      \n                      <span style=\"padding-left: 4px;\">\n                          <b>path: </b><span>type</span>\n                      </span>\n                      \n                      <br/>\n                      \n                      \n                      \n                      <span style=\"padding-left: 4px;\">\n                          <b>value set: </b><span>http://cts.nlm.nih.gov/fhir/ValueSet/2.16.840.1.114222.4.11.3591</span>\n                      </span>\n                      \n                      \n                    \n                  </th>\n                </tr>\n              \n            </table>\n          </td>\n        </tr>\n        \n\n        \n        \n        <tr>\n          <td colspan=\"2\">\n            <table>\n              <tr><th><a id=\"cql-content\"><b>Content: </b></a> text/cql</th></tr>\n              <tr><td><pre><code class=\"language-cql\">library CMS1056CTClinicalFHIR version '0.6.000'\r\n\r\nusing QICore version '6.0.0'\r\n\r\ninclude FHIRHelpers version '4.4.000' called FHIRHelpers\r\ninclude CQMCommon version '4.0.000' called CQMCommon\r\ninclude QICoreCommon version '4.0.000' called QICoreCommon\r\ninclude SupplementalDataElements version '5.1.000' called SDE\r\ninclude AlaraCommonFunctions version '1.6.000' called AlaraCommon\r\n\r\ncodesystem &quot;LOINC&quot;: 'http://loinc.org'\r\n\r\ncode &quot;Birth date&quot;: '21112-8' from &quot;LOINC&quot; display 'Birth date'\r\ncode &quot;CT dose and image quality category&quot;: '96914-7' from &quot;LOINC&quot; display 'CT dose and image quality category'\r\ncode &quot;Full Body&quot;: 'LA31771-1' from &quot;LOINC&quot; display 'Full Body'\r\n\r\nparameter &quot;Measurement Period&quot; Interval&lt;DateTime&gt;\r\n\r\ncontext Patient\r\n\r\ndefine &quot;SDE Ethnicity&quot;:\r\n  SDE.&quot;SDE Ethnicity&quot;\r\n\r\ndefine &quot;SDE Payer&quot;:\r\n  SDE.&quot;SDE Payer&quot;\r\n\r\ndefine &quot;SDE Race&quot;:\r\n  SDE.&quot;SDE Race&quot;\r\n\r\ndefine &quot;SDE Sex&quot;:\r\n  SDE.&quot;SDE Sex&quot;\r\n\r\ndefine &quot;Patients with Qualifying CTScan&quot;:\r\n  [LaboratoryResultObservation: &quot;CT dose and image quality category&quot;] CTScanResult\r\n    where QICoreCommon.ToInterval ( CTScanResult.effective ) ends during day of &quot;Measurement Period&quot;\r\n      and ( AgeInYearsAt(start of &quot;Measurement Period&quot;) &gt;= 18 )\r\n\r\ndefine &quot;Patients with Qualifying CTScan with Values&quot;:\r\n  &quot;Patients with Qualifying CTScan&quot; CTScan\r\n    where AlaraCommon.&quot;Global Noise Value&quot; ( CTScan ) is not null\r\n      and AlaraCommon.&quot;Size Adjusted Value&quot; ( CTScan ) is not null\r\n      and CTScan.value is not null\r\n\r\ndefine &quot;Initial Population&quot;:\r\n  exists ( &quot;Patients with Qualifying CTScan&quot; )\r\n\r\ndefine &quot;Denominator&quot;:\r\n  exists ( &quot;Patients with Qualifying CTScan with Values&quot; )\r\n\r\ndefine &quot;Denominator Exclusion&quot;:\r\n  exists ( &quot;Patients with Qualifying CTScan with Values&quot; CTScan\r\n      where ( CTScan.value as Concept ).codes contains &quot;Full Body&quot;\r\n  )\r\n\r\ndefine &quot;Numerator&quot;:\r\n  exists ( &quot;Patients with Qualifying CTScan with Values&quot; CTScan\r\n      where AlaraCommon.&quot;CT Scan Qualifies&quot; ( CTScan )\r\n  )</code></pre></td></tr>\n            </table>\n          </td>\n        </tr>\n        \n        \n        \n    </table>\n</div>"},"contained":[{"resourceType":"Parameters","id":"options","parameter":[{"name":"translatorVersion","valueString":"3.25.0"},{"name":"option","valueString":"EnableAnnotations"},{"name":"option","valueString":"EnableLocators"},{"name":"option","valueString":"DisableListDemotion"},{"name":"option","valueString":"DisableListPromotion"},{"name":"format","valueString":"JSON"},{"name":"format","valueString":"XML"},{"name":"analyzeDataRequirements","valueBoolean":false},{"name":"collapseDataRequirements","valueBoolean":false},{"name":"compatibilityLevel","valueString":"1.5"},{"name":"enableCqlOnly","valueBoolean":false},{"name":"errorLevel","valueString":"Info"},{"name":"signatureLevel","valueString":"Overloads"},{"name":"validateUnits","valueBoolean":true},{"name":"verifyOnly","valueBoolean":false}]}],"extension":[{"url":"http://hl7.org/fhir/StructureDefinition/cqf-directReferenceCode","valueCoding":{"system":"http://loinc.org","code":"21112-8","display":"Birth date"}},{"url":"http://hl7.org/fhir/StructureDefinition/cqf-directReferenceCode","valueCoding":{"system":"http://loinc.org","code":"96914-7","display":"CT dose and image quality category"}},{"url":"http://hl7.org/fhir/StructureDefinition/cqf-directReferenceCode","valueCoding":{"system":"http://loinc.org","code":"LA31771-1","display":"Full Body"}},{"url":"http://hl7.org/fhir/StructureDefinition/cqf-cqlOptions","valueReference":{"reference":"#options"}}],"url":"https://madie.cms.gov/Library/CMS1056CTClinicalFHIR","identifier":[{"use":"official","system":"https://madie.cms.gov/login","value":"CMS1056CTClinicalFHIR"}],"version":"0.6.000","name":"CMS1056CTClinicalFHIR","title":"CMS1056CTClinicalFHIR","status":"active","experimental":false,"type":{"coding":[{"system":"http://terminology.hl7.org/CodeSystem/library-type","code":"logic-library"}]},"date":"2025-04-18T13:49:26+00:00","publisher":"Alara Imaging, Inc.","description":"CMS1056CTClinicalFHIR","content":[{"contentType":"text/cql","data":""}]},"request":{"method":"PUT","url":"Library/CMS1056CTClinicalFHIR"}},{"resource":{"resourceType":"Patient","id":"93a345b0-259a-4c1d-8c85-280a6e78a006","meta":{"profile":["http://hl7.org/fhir/us/core/StructureDefinition/us-core-patient","http://hl7.org/fhir/us/qicore/StructureDefinition/qicore-patient"]},"extension":[{"url":"http://hl7.org/fhir/us/core/StructureDefinition/us-core-race","extension":[{"url":"ombCategory","valueCoding":{"system":"urn:oid:2.16.840.1.113883.6.238","code":"2028-9","display":"Asian"}},{"url":"text","valueString":"Asian"}]},{"url":"http://hl7.org/fhir/us/core/StructureDefinition/us-core-ethnicity","extension":[{"url":"ombCategory","valueCoding":{"system":"urn:oid:2.16.840.1.113883.6.238","code":"2135-2","display":"Hispanic or Latino"}},{"url":"text","valueString":"Hispanic or Latino"}]},{"url":"http://hl7.org/fhir/us/core/StructureDefinition/us-core-sex","valueCode":"248152002"}],"identifier":[{"system":"http://hospital.smarthealthit.org","value":"999999995"}],"name":[{"family":"MissingResults","given":["DENOMFail"]}],"gender":"female","birthDate":"1986-06-12"},"request":{"method":"PUT","url":"Patient/93a345b0-259a-4c1d-8c85-280a6e78a006"}},{"resource":{"resourceType":"MeasureReport","id":"3e46aab5-060f-42e6-9e74-41097447aba5","meta":{"profile":["http://hl7.org/fhir/us/cqfmeasures/StructureDefinition/test-case-cqfm"]},"contained":[{"resourceType":"Parameters","id":"6b94a940-09e8-41be-b534-fac74f5576c9-parameters","parameter":[{"name":"subject","valueString":"93a345b0-259a-4c1d-8c85-280a6e78a006"}]}],"extension":[{"url":"http://hl7.org/fhir/StructureDefinition/cqf-inputParameters","valueReference":{"reference":"#6b94a940-09e8-41be-b534-fac74f5576c9-parameters"}},{"url":"http://hl7.org/fhir/us/cqfmeasures/StructureDefinition/cqfm-testCaseDescription","valueMarkdown":"Patient has a valid scan but it is missing result values"}],"modifierExtension":[{"url":"http://hl7.org/fhir/us/cqfmeasures/StructureDefinition/cqfm-isTestCase","valueBoolean":true}],"status":"complete","type":"individual","measure":"https://madie.cms.gov/Measure/CMS1056CTClinicalFHIR","period":{"start":"2026-01-01","end":"2026-12-31"},"group":[{"id":"Group_1","population":[{"id":"InitialPopulation_1","code":{"coding":[{"system":"http://terminology.hl7.org/CodeSystem/measure-population","code":"initial-population","display":"Initial Population"}]},"count":1},{"id":"Denominator_1","code":{"coding":[{"system":"http://terminology.hl7.org/CodeSystem/measure-population","code":"denominator","display":"Denominator"}]},"count":0},{"id":"DenominatorExclusion_1","code":{"coding":[{"system":"http://terminology.hl7.org/CodeSystem/measure-population","code":"denominator-exclusion","display":"Denominator Exclusion"}]},"count":0},{"id":"Numerator_1","code":{"coding":[{"system":"http://terminology.hl7.org/CodeSystem/measure-population","code":"numerator","display":"Numerator"}]},"count":0}],"measureScore":{"value":1.0}}],"evaluatedResource":[{"reference":"Patient/93a345b0-259a-4c1d-8c85-280a6e78a006"},{"reference":"Observation/a67c167e-3c43-4d4d-8dfc-11960eaca3c3"}]},"request":{"method":"PUT","url":"MeasureReport/3e46aab5-060f-42e6-9e74-41097447aba5"}},{"resource":{"resourceType":"Observation","id":"a67c167e-3c43-4d4d-8dfc-11960eaca3c3","meta":{"profile":["http://hl7.org/fhir/us/qicore/StructureDefinition/qicore-observation-lab"]},"status":"final","category":[{"coding":[{"system":"http://terminology.hl7.org/CodeSystem/observation-category","code":"imaging","display":"Imaging"}]}],"code":{"coding":[{"system":"http://loinc.org","code":"96914-7","display":"CT dose and image quality category"}],"text":"CT dose and image quality category"},"subject":{"reference":"Patient/93a345b0-259a-4c1d-8c85-280a6e78a006"},"effectiveDateTime":"2026-03-02T00:00:00+00:00","valueCodeableConcept":{"coding":[{"system":"http://loinc.org","code":"LA31753-9","display":"Abdomen and Pelvis Routine Dose"}]}},"request":{"method":"PUT","url":"Observation/a67c167e-3c43-4d4d-8dfc-11960eaca3c3"}},{"resource":{"resourceType":"Observation","id":"e653028c-14df-43d1-94ee-c652ada21562","meta":{"profile":["http://hl7.org/fhir/us/qicore/StructureDefinition/qicore-observation"]},"status":"final","category":[{"coding":[{"system":"http://terminology.hl7.org/CodeSystem/observation-category","code":"imaging","display":"Imaging"}]}],"code":{"coding":[{"system":"http://loinc.org","code":"96914-7","display":"CT dose and image quality category"}],"text":"CT dose and image quality category"},"subject":{"reference":"Patient/d735a266-abd3-4392-b9f4-7eb953ea9529"},"effectiveDateTime":"2026-01-02T00:00:00+00:00","valueCodeableConcept":{"coding":[{"system":"http://loinc.org","code":"LA31764-6","display":"Head High Dose"}]},"component":[{"code":{"coding":[{"system":"http://loinc.org","code":"96912-1","display":"Calculated CT global noise"}]},"valueQuantity":{"value":114,"unit":"[hnsf'U]","system":"http://unitsofmeasure.org","code":"[hnsf'U]"}},{"code":{"coding":[{"system":"http://loinc.org","code":"96913-9","display":"Calculated CT size-adjusted dose"}]},"valueQuantity":{"value":1024,"unit":"mGy.cm","system":"http://unitsofmeasure.org","code":"mGy.cm"}}]},"request":{"method":"PUT","url":"Observation/e653028c-14df-43d1-94ee-c652ada21562"}},{"resource":{"resourceType":"Observation","id":"89eaf397-761d-47a1-beea-9dadee3f19be","meta":{"profile":["http://hl7.org/fhir/us/qicore/StructureDefinition/qicore-observation"]},"status":"final","category":[{"coding":[{"system":"http://terminology.hl7.org/CodeSystem/observation-category","code":"imaging","display":"Imaging"}]}],"code":{"coding":[{"system":"http://loinc.org","code":"96914-7","display":"CT dose and image quality category"}],"text":"CT dose and image quality category"},"subject":{"reference":"Patient/d735a266-abd3-4392-b9f4-7eb953ea9529"},"effectiveDateTime":"2026-01-02T00:00:00+00:00","valueCodeableConcept":{"coding":[{"system":"http://loinc.org","code":"LA31769-5","display":"Simultaneous Head and Neck Routine Dose"}]},"component":[{"code":{"coding":[{"system":"http://loinc.org","code":"96912-1","display":"Calculated CT global noise"}]},"valueQuantity":{"value":24,"unit":"[hnsf'U]","system":"http://unitsofmeasure.org","code":"[hnsf'U]"}},{"code":{"coding":[{"system":"http://loinc.org","code":"96913-9","display":"Calculated CT size-adjusted dose"}]},"valueQuantity":{"value":2284,"unit":"mGy.cm","system":"http://unitsofmeasure.org","code":"mGy.cm"}}]},"request":{"method":"PUT","url":"Observation/89eaf397-761d-47a1-beea-9dadee3f19be"}},{"resource":{"resourceType":"Observation","id":"1b4478e5-1f35-4b5e-a762-ae2df6c1bfa3","meta":{"profile":["http://hl7.org/fhir/us/qicore/StructureDefinition/qicore-observation"]},"status":"final","category":[{"coding":[{"system":"http://terminology.hl7.org/CodeSystem/observation-category","code":"imaging","display":"Imaging"}]}],"code":{"coding":[{"system":"http://loinc.org","code":"96914-7","display":"CT dose and image quality category"}],"text":"CT dose and image quality category"},"subject":{"reference":"Patient/d735a266-abd3-4392-b9f4-7eb953ea9529"},"effectiveDateTime":"2026-01-02T00:00:00+00:00","valueCodeableConcept":{"coding":[{"system":"http://loinc.org","code":"LA31761-2","display":"Cardiac High Dose or Chest High Dose"}]},"component":[{"code":{"coding":[{"system":"http://loinc.org","code":"96912-1","display":"Calculated CT global noise"}]},"valueQuantity":{"value":48,"unit":"[hnsf'U]","system":"http://unitsofmeasure.org","code":"[hnsf'U]"}},{"code":{"coding":[{"system":"http://loinc.org","code":"96913-9","display":"Calculated CT size-adjusted dose"}]},"valueQuantity":{"value":1281,"unit":"mGy.cm","system":"http://unitsofmeasure.org","code":"mGy.cm"}}]},"request":{"method":"PUT","url":"Observation/1b4478e5-1f35-4b5e-a762-ae2df6c1bfa3"}},{"resource":{"resourceType":"Observation","id":"d8820d2d-9dce-4b74-b5fb-642316fec2df","meta":{"profile":["http://hl7.org/fhir/us/qicore/StructureDefinition/qicore-observation"]},"status":"final","category":[{"coding":[{"system":"http://terminology.hl7.org/CodeSystem/observation-category","code":"imaging","display":"Imaging"}]}],"code":{"coding":[{"system":"http://loinc.org","code":"96914-7","display":"CT dose and image quality category"}],"text":"CT dose and image quality category"},"subject":{"reference":"Patient/d735a266-abd3-4392-b9f4-7eb953ea9529"},"effectiveDateTime":"2026-01-02T00:00:00+00:00","valueCodeableConcept":{"coding":[{"system":"http://loinc.org","code":"LA31770-3","display":"Simultaneous Head and Neck High Dose"}]},"component":[{"code":{"coding":[{"system":"http://loinc.org","code":"96912-1","display":"Calculated CT global noise"}]},"valueQuantity":{"value":24,"unit":"[hnsf'U]","system":"http://unitsofmeasure.org","code":"[hnsf'U]"}},{"code":{"coding":[{"system":"http://loinc.org","code":"96913-9","display":"Calculated CT size-adjusted dose"}]},"valueQuantity":{"value":3091,"unit":"mGy.cm","system":"http://unitsofmeasure.org","code":"mGy.cm"}}]},"request":{"method":"PUT","url":"Observation/d8820d2d-9dce-4b74-b5fb-642316fec2df"}},{"resource":{"resourceType":"Observation","id":"c4b9003c-5f31-44f8-9988-ee1d0886ac59","meta":{"profile":["http://hl7.org/fhir/us/qicore/StructureDefinition/qicore-observation"]},"status":"final","category":[{"coding":[{"system":"http://terminology.hl7.org/CodeSystem/observation-category","code":"imaging","display":"Imaging"}]}],"code":{"coding":[{"system":"http://loinc.org","code":"96914-7","display":"CT dose and image quality category"}],"text":"CT dose and image quality category"},"subject":{"reference":"Patient/d735a266-abd3-4392-b9f4-7eb953ea9529"},"effectiveDateTime":"2026-01-02T00:00:00+00:00","valueCodeableConcept":{"coding":[{"system":"http://loinc.org","code":"LA31753-9","display":"Abdomen and Pelvis Routine Dose"}]},"component":[{"code":{"coding":[{"system":"http://loinc.org","code":"96912-1","display":"Calculated CT global noise"}]},"valueQuantity":{"value":28,"unit":"[hnsf'U]","system":"http://unitsofmeasure.org","code":"[hnsf'U]"}},{"code":{"coding":[{"system":"http://loinc.org","code":"96913-9","display":"Calculated CT size-adjusted dose"}]},"valueQuantity":{"value":643,"unit":"mGy.cm","system":"http://unitsofmeasure.org","code":"mGy.cm"}}]},"request":{"method":"PUT","url":"Observation/c4b9003c-5f31-44f8-9988-ee1d0886ac59"}},{"resource":{"resourceType":"Observation","id":"e63dd562-a0cc-490f-a361-53d393065dfb","meta":{"profile":["http://hl7.org/fhir/us/qicore/StructureDefinition/qicore-observation"]},"status":"final","category":[{"coding":[{"system":"http://terminology.hl7.org/CodeSystem/observation-category","code":"imaging","display":"Imaging"}]}],"code":{"coding":[{"system":"http://loinc.org","code":"96914-7","display":"CT dose and image quality category"}],"text":"CT dose and image quality category"},"subject":{"reference":"Patient/d735a266-abd3-4392-b9f4-7eb953ea9529"},"effectiveDateTime":"2026-01-02T00:00:00+00:00","valueCodeableConcept":{"coding":[{"system":"http://loinc.org","code":"LA31763-8","display":"Head Routine Dose"}]},"component":[{"code":{"coding":[{"system":"http://loinc.org","code":"96912-1","display":"Calculated CT global noise"}]},"valueQuantity":{"value":114,"unit":"[hnsf'U]","system":"http://unitsofmeasure.org","code":"[hnsf'U]"}},{"code":{"coding":[{"system":"http://loinc.org","code":"96913-9","display":"Calculated CT size-adjusted dose"}]},"valueQuantity":{"value":1024,"unit":"mGy.cm","system":"http://unitsofmeasure.org","code":"mGy.cm"}}]},"request":{"method":"PUT","url":"Observation/e63dd562-a0cc-490f-a361-53d393065dfb"}},{"resource":{"resourceType":"Observation","id":"bd727d33-80a8-4d87-aa9e-376186239488","meta":{"profile":["http://hl7.org/fhir/us/qicore/StructureDefinition/qicore-observation"]},"status":"final","category":[{"coding":[{"system":"http://terminology.hl7.org/CodeSystem/observation-category","code":"imaging","display":"Imaging"}]}],"code":{"coding":[{"system":"http://loinc.org","code":"96914-7","display":"CT dose and image quality category"}],"text":"CT dose and image quality category"},"subject":{"reference":"Patient/d735a266-abd3-4392-b9f4-7eb953ea9529"},"effectiveDateTime":"2026-01-02T00:00:00+00:00","valueCodeableConcept":{"coding":[{"system":"http://loinc.org","code":"LA31768-7","display":"Simultaneous Chest and Abdomen and Pelvis"}]},"component":[{"code":{"coding":[{"system":"http://loinc.org","code":"96912-1","display":"Calculated CT global noise"}]},"valueQuantity":{"value":28,"unit":"[hnsf'U]","system":"http://unitsofmeasure.org","code":"[hnsf'U]"}},{"code":{"coding":[{"system":"http://loinc.org","code":"96913-9","display":"Calculated CT size-adjusted dose"}]},"valueQuantity":{"value":1636,"unit":"mGy.cm","system":"http://unitsofmeasure.org","code":"mGy.cm"}}]},"request":{"method":"PUT","url":"Observation/bd727d33-80a8-4d87-aa9e-376186239488"}},{"resource":{"resourceType":"Patient","id":"d735a266-abd3-4392-b9f4-7eb953ea9529","meta":{"profile":["http://hl7.org/fhir/us/core/StructureDefinition/us-core-patient","http://hl7.org/fhir/us/qicore/StructureDefinition/qicore-patient"]},"extension":[{"url":"http://hl7.org/fhir/us/core/StructureDefinition/us-core-race","extension":[{"url":"ombCategory","valueCoding":{"system":"urn:oid:2.16.840.1.113883.6.238","code":"2028-9","display":"Asian"}},{"url":"text","valueString":"Asian"}]},{"url":"http://hl7.org/fhir/us/core/StructureDefinition/us-core-ethnicity","extension":[{"url":"ombCategory","valueCoding":{"system":"urn:oid:2.16.840.1.113883.6.238","code":"2135-2","display":"Hispanic or Latino"}},{"url":"text","valueString":"Hispanic or Latino"}]}],"identifier":[{"system":"http://hospital.smarthealthit.org","value":"999999995"}],"name":[{"family":"AllScans","given":["DENOMPass"]}],"gender":"female","birthDate":"1986-06-12"},"request":{"method":"PUT","url":"Patient/d735a266-abd3-4392-b9f4-7eb953ea9529"}},{"resource":{"resourceType":"MeasureReport","id":"e6f8dff5-28f8-4a60-8b14-4a362836af67","meta":{"profile":["http://hl7.org/fhir/us/cqfmeasures/StructureDefinition/test-case-cqfm"]},"contained":[{"resourceType":"Parameters","id":"5f0c3006-80b9-4b36-ae52-29005b41407d-parameters","parameter":[{"name":"subject","valueString":"d735a266-abd3-4392-b9f4-7eb953ea9529"}]}],"extension":[{"url":"http://hl7.org/fhir/StructureDefinition/cqf-inputParameters","valueReference":{"reference":"#5f0c3006-80b9-4b36-ae52-29005b41407d-parameters"}},{"url":"http://hl7.org/fhir/us/cqfmeasures/StructureDefinition/cqfm-testCaseDescription","valueMarkdown":"Patient has one of each valid type of CT Scan with good results"}],"modifierExtension":[{"url":"http://hl7.org/fhir/us/cqfmeasures/StructureDefinition/cqfm-isTestCase","valueBoolean":true}],"status":"complete","type":"individual","measure":"https://madie.cms.gov/Measure/CMS1056CTClinicalFHIR","period":{"start":"2026-01-01","end":"2026-12-31"},"group":[{"id":"Group_1","population":[{"id":"InitialPopulation_1","code":{"coding":[{"system":"http://terminology.hl7.org/CodeSystem/measure-population","code":"initial-population","display":"Initial Population"}]},"count":1},{"id":"Denominator_1","code":{"coding":[{"system":"http://terminology.hl7.org/CodeSystem/measure-population","code":"denominator","display":"Denominator"}]},"count":1},{"id":"DenominatorExclusion_1","code":{"coding":[{"system":"http://terminology.hl7.org/CodeSystem/measure-population","code":"denominator-exclusion","display":"Denominator Exclusion"}]},"count":0},{"id":"Numerator_1","code":{"coding":[{"system":"http://terminology.hl7.org/CodeSystem/measure-population","code":"numerator","display":"Numerator"}]},"count":0}],"measureScore":{"value":1.0}}],"evaluatedResource":[{"reference":"Patient/d735a266-abd3-4392-b9f4-7eb953ea9529"},{"reference":"Observation/4e1967fc-edd7-4433-b598-b930f88dcaba"},{"reference":"Observation/c4b9003c-5f31-44f8-9988-ee1d0886ac59"},{"reference":"Observation/821c8b10-3f6c-4522-a76e-2949222a27c4"},{"reference":"Observation/e278ed3b-2c1e-4a5a-a5d1-c8014066ef74"},{"reference":"Observation/a8fe1a7e-7cdb-4fc2-9169-79425f6b3417"},{"reference":"Observation/be4ab235-8451-436c-bd78-2b35d5bf45f9"},{"reference":"Observation/eecef827-6d2b-465f-b6a0-a7e5ded36b69"},{"reference":"Observation/1b4478e5-1f35-4b5e-a762-ae2df6c1bfa3"},{"reference":"Observation/e8760b49-de13-4bf2-bbd8-1b5f0379f963"},{"reference":"Observation/e63dd562-a0cc-490f-a361-53d393065dfb"},{"reference":"Observation/e653028c-14df-43d1-94ee-c652ada21562"},{"reference":"Observation/0dd1f81d-dc7a-4f0d-854d-da0d5d44b6c3"},{"reference":"Observation/8788760f-77c9-4511-9e6d-713152be528b"},{"reference":"Observation/6f1ddd72-fba1-4a0f-bc0c-9fed5855ab2c"},{"reference":"Observation/bd727d33-80a8-4d87-aa9e-376186239488"},{"reference":"Observation/9363c47b-c797-45ef-ab64-7835f9765175"},{"reference":"Observation/89eaf397-761d-47a1-beea-9dadee3f19be"},{"reference":"Observation/d8820d2d-9dce-4b74-b5fb-642316fec2df"}]},"request":{"method":"PUT","url":"MeasureReport/e6f8dff5-28f8-4a60-8b14-4a362836af67"}},{"resource":{"resourceType":"Observation","id":"0dd1f81d-dc7a-4f0d-854d-da0d5d44b6c3","meta":{"profile":["http://hl7.org/fhir/us/qicore/StructureDefinition/qicore-observation"]},"status":"final","category":[{"coding":[{"system":"http://terminology.hl7.org/CodeSystem/observation-category","code":"imaging","display":"Imaging"}]}],"code":{"coding":[{"system":"http://loinc.org","code":"96914-7","display":"CT dose and image quality category"}],"text":"CT dose and image quality category"},"subject":{"reference":"Patient/d735a266-abd3-4392-b9f4-7eb953ea9529"},"effectiveDateTime":"2026-01-02T00:00:00+00:00","valueCodeableConcept":{"coding":[{"system":"http://loinc.org","code":"LA31765-3","display":"Extremity"}]},"component":[{"code":{"coding":[{"system":"http://loinc.org","code":"96912-1","display":"Calculated CT global noise"}]},"valueQuantity":{"value":72,"unit":"[hnsf'U]","system":"http://unitsofmeasure.org","code":"[hnsf'U]"}},{"code":{"coding":[{"system":"http://loinc.org","code":"96913-9","display":"Calculated CT size-adjusted dose"}]},"valueQuantity":{"value":319,"unit":"mGy.cm","system":"http://unitsofmeasure.org","code":"mGy.cm"}}]},"request":{"method":"PUT","url":"Observation/0dd1f81d-dc7a-4f0d-854d-da0d5d44b6c3"}},{"resource":{"resourceType":"Observation","id":"821c8b10-3f6c-4522-a76e-2949222a27c4","meta":{"profile":["http://hl7.org/fhir/us/qicore/StructureDefinition/qicore-observation"]},"status":"final","category":[{"coding":[{"system":"http://terminology.hl7.org/CodeSystem/observation-category","code":"imaging","display":"Imaging"}]}],"code":{"coding":[{"system":"http://loinc.org","code":"96914-7","display":"CT dose and image quality category"}],"text":"CT dose and image quality category"},"subject":{"reference":"Patient/d735a266-abd3-4392-b9f4-7eb953ea9529"},"effectiveDateTime":"2026-01-02T00:00:00+00:00","valueCodeableConcept":{"coding":[{"system":"http://loinc.org","code":"LA31754-7","display":"Abdomen and Pelvis High Dose"}]},"component":[{"code":{"coding":[{"system":"http://loinc.org","code":"96912-1","display":"Calculated CT global noise"}]},"valueQuantity":{"value":28,"unit":"[hnsf'U]","system":"http://unitsofmeasure.org","code":"[hnsf'U]"}},{"code":{"coding":[{"system":"http://loinc.org","code":"96913-9","display":"Calculated CT size-adjusted dose"}]},"valueQuantity":{"value":1259,"unit":"mGy.cm","system":"http://unitsofmeasure.org","code":"mGy.cm"}}]},"request":{"method":"PUT","url":"Observation/821c8b10-3f6c-4522-a76e-2949222a27c4"}},{"resource":{"resourceType":"Observation","id":"8788760f-77c9-4511-9e6d-713152be528b","meta":{"profile":["http://hl7.org/fhir/us/qicore/StructureDefinition/qicore-observation"]},"status":"final","category":[{"coding":[{"system":"http://terminology.hl7.org/CodeSystem/observation-category","code":"imaging","display":"Imaging"}]}],"code":{"coding":[{"system":"http://loinc.org","code":"96914-7","display":"CT dose and image quality category"}],"text":"CT dose and image quality category"},"subject":{"reference":"Patient/d735a266-abd3-4392-b9f4-7eb953ea9529"},"effectiveDateTime":"2026-01-02T00:00:00+00:00","valueCodeableConcept":{"coding":[{"system":"http://loinc.org","code":"LA31766-1","display":"Neck or Cervical Spine"}]},"component":[{"code":{"coding":[{"system":"http://loinc.org","code":"96912-1","display":"Calculated CT global noise"}]},"valueQuantity":{"value":24,"unit":"[hnsf'U]","system":"http://unitsofmeasure.org","code":"[hnsf'U]"}},{"code":{"coding":[{"system":"http://loinc.org","code":"96913-9","display":"Calculated CT size-adjusted dose"}]},"valueQuantity":{"value":1259,"unit":"mGy.cm","system":"http://unitsofmeasure.org","code":"mGy.cm"}}]},"request":{"method":"PUT","url":"Observation/8788760f-77c9-4511-9e6d-713152be528b"}},{"resource":{"resourceType":"Observation","id":"eecef827-6d2b-465f-b6a0-a7e5ded36b69","meta":{"profile":["http://hl7.org/fhir/us/qicore/StructureDefinition/qicore-observation"]},"status":"final","category":[{"coding":[{"system":"http://terminology.hl7.org/CodeSystem/observation-category","code":"imaging","display":"Imaging"}]}],"code":{"coding":[{"system":"http://loinc.org","code":"96914-7","display":"CT dose and image quality category"}],"text":"CT dose and image quality category"},"subject":{"reference":"Patient/d735a266-abd3-4392-b9f4-7eb953ea9529"},"effectiveDateTime":"2026-01-02T00:00:00+00:00","valueCodeableConcept":{"coding":[{"system":"http://loinc.org","code":"LA31759-6","display":"Chest Routine Dose"}]},"component":[{"code":{"coding":[{"system":"http://loinc.org","code":"96912-1","display":"Calculated CT global noise"}]},"valueQuantity":{"value":48,"unit":"[hnsf'U]","system":"http://unitsofmeasure.org","code":"[hnsf'U]"}},{"code":{"coding":[{"system":"http://loinc.org","code":"96913-9","display":"Calculated CT size-adjusted dose"}]},"valueQuantity":{"value":376,"unit":"mGy.cm","system":"http://unitsofmeasure.org","code":"mGy.cm"}}]},"request":{"method":"PUT","url":"Observation/eecef827-6d2b-465f-b6a0-a7e5ded36b69"}},{"resource":{"resourceType":"Observation","id":"6f1ddd72-fba1-4a0f-bc0c-9fed5855ab2c","meta":{"profile":["http://hl7.org/fhir/us/qicore/StructureDefinition/qicore-observation"]},"status":"final","category":[{"coding":[{"system":"http://terminology.hl7.org/CodeSystem/observation-category","code":"imaging","display":"Imaging"}]}],"code":{"coding":[{"system":"http://loinc.org","code":"96914-7","display":"CT dose and image quality category"}],"text":"CT dose and image quality category"},"subject":{"reference":"Patient/d735a266-abd3-4392-b9f4-7eb953ea9529"},"effectiveDateTime":"2026-01-02T00:00:00+00:00","valueCodeableConcept":{"coding":[{"system":"http://loinc.org","code":"LA31767-9","display":"Thoracic or Lumbar Spine"}]},"component":[{"code":{"coding":[{"system":"http://loinc.org","code":"96912-1","display":"Calculated CT global noise"}]},"valueQuantity":{"value":24,"unit":"[hnsf'U]","system":"http://unitsofmeasure.org","code":"[hnsf'U]"}},{"code":{"coding":[{"system":"http://loinc.org","code":"96913-9","display":"Calculated CT size-adjusted dose"}]},"valueQuantity":{"value":1259,"unit":"mGy.cm","system":"http://unitsofmeasure.org","code":"mGy.cm"}}]},"request":{"method":"PUT","url":"Observation/6f1ddd72-fba1-4a0f-bc0c-9fed5855ab2c"}},{"resource":{"resourceType":"Observation","id":"4e1967fc-edd7-4433-b598-b930f88dcaba","meta":{"profile":["http://hl7.org/fhir/us/qicore/StructureDefinition/qicore-observation-lab"]},"status":"final","category":[{"coding":[{"system":"http://terminology.hl7.org/CodeSystem/observation-category","code":"imaging","display":"Imaging"}]}],"code":{"coding":[{"system":"http://loinc.org","code":"96914-7","display":"CT dose and image quality category"}],"text":"CT dose and image quality category"},"subject":{"reference":"Patient/d735a266-abd3-4392-b9f4-7eb953ea9529"},"effectiveDateTime":"2026-01-02T00:00:00+00:00","valueCodeableConcept":{"coding":[{"system":"http://loinc.org","code":"LA31752-1","display":"Abdomen and Pelvis Low Dose"}]},"component":[{"code":{"coding":[{"system":"http://loinc.org","code":"96912-1","display":"Calculated CT global noise"}]},"valueQuantity":{"value":63,"unit":"[hnsf'U]","system":"http://unitsofmeasure.org","code":"[hnsf'U]"}},{"code":{"coding":[{"system":"http://loinc.org","code":"96913-9","display":"Calculated CT size-adjusted dose"}]},"valueQuantity":{"value":597,"unit":"mGy.cm","system":"http://unitsofmeasure.org","code":"mGy.cm"}}]},"request":{"method":"PUT","url":"Observation/4e1967fc-edd7-4433-b598-b930f88dcaba"}},{"resource":{"resourceType":"Observation","id":"e8760b49-de13-4bf2-bbd8-1b5f0379f963","meta":{"profile":["http://hl7.org/fhir/us/qicore/StructureDefinition/qicore-observation"]},"status":"final","category":[{"coding":[{"system":"http://terminology.hl7.org/CodeSystem/observation-category","code":"imaging","display":"Imaging"}]}],"code":{"coding":[{"system":"http://loinc.org","code":"96914-7","display":"CT dose and image quality category"}],"text":"CT dose and image quality category"},"subject":{"reference":"Patient/d735a266-abd3-4392-b9f4-7eb953ea9529"},"effectiveDateTime":"2026-01-02T00:00:00+00:00","valueCodeableConcept":{"coding":[{"system":"http://loinc.org","code":"LA31762-0","display":"Head Low Dose"}]},"component":[{"code":{"coding":[{"system":"http://loinc.org","code":"96912-1","display":"Calculated CT global noise"}]},"valueQuantity":{"value":114,"unit":"[hnsf'U]","system":"http://unitsofmeasure.org","code":"[hnsf'U]"}},{"code":{"coding":[{"system":"http://loinc.org","code":"96913-9","display":"Calculated CT size-adjusted dose"}]},"valueQuantity":{"value":581,"unit":"mGy.cm","system":"http://unitsofmeasure.org","code":"mGy.cm"}}]},"request":{"method":"PUT","url":"Observation/e8760b49-de13-4bf2-bbd8-1b5f0379f963"}},{"resource":{"resourceType":"Observation","id":"e278ed3b-2c1e-4a5a-a5d1-c8014066ef74","meta":{"profile":["http://hl7.org/fhir/us/qicore/StructureDefinition/qicore-observation"]},"status":"final","category":[{"coding":[{"system":"http://terminology.hl7.org/CodeSystem/observation-category","code":"imaging","display":"Imaging"}]}],"code":{"coding":[{"system":"http://loinc.org","code":"96914-7","display":"CT dose and image quality category"}],"text":"CT dose and image quality category"},"subject":{"reference":"Patient/d735a266-abd3-4392-b9f4-7eb953ea9529"},"effectiveDateTime":"2026-01-02T00:00:00+00:00","valueCodeableConcept":{"coding":[{"system":"http://loinc.org","code":"LA31755-4","display":"Cardiac Low Dose"}]},"component":[{"code":{"coding":[{"system":"http://loinc.org","code":"96912-1","display":"Calculated CT global noise"}]},"valueQuantity":{"value":54,"unit":"[hnsf'U]","system":"http://unitsofmeasure.org","code":"[hnsf'U]"}},{"code":{"coding":[{"system":"http://loinc.org","code":"96913-9","display":"Calculated CT size-adjusted dose"}]},"valueQuantity":{"value":92,"unit":"mGy.cm","system":"http://unitsofmeasure.org","code":"mGy.cm"}}]},"request":{"method":"PUT","url":"Observation/e278ed3b-2c1e-4a5a-a5d1-c8014066ef74"}},{"resource":{"resourceType":"Observation","id":"9363c47b-c797-45ef-ab64-7835f9765175","meta":{"profile":["http://hl7.org/fhir/us/qicore/StructureDefinition/qicore-observation"]},"status":"final","category":[{"coding":[{"system":"http://terminology.hl7.org/CodeSystem/observation-category","code":"imaging","display":"Imaging"}]}],"code":{"coding":[{"system":"http://loinc.org","code":"96914-7","display":"CT dose and image quality category"}],"text":"CT dose and image quality category"},"subject":{"reference":"Patient/d735a266-abd3-4392-b9f4-7eb953ea9529"},"effectiveDateTime":"2026-01-02T00:00:00+00:00","valueCodeableConcept":{"coding":[{"system":"http://loinc.org","code":"LA31851-1","display":"Simultaneous Thoracic and Lumbar Spine"}]},"component":[{"code":{"coding":[{"system":"http://loinc.org","code":"96912-1","display":"Calculated CT global noise"}]},"valueQuantity":{"value":24,"unit":"[hnsf'U]","system":"http://unitsofmeasure.org","code":"[hnsf'U]"}},{"code":{"coding":[{"system":"http://loinc.org","code":"96913-9","display":"Calculated CT size-adjusted dose"}]},"valueQuantity":{"value":2519,"unit":"mGy.cm","system":"http://unitsofmeasure.org","code":"mGy.cm"}}]},"request":{"method":"PUT","url":"Observation/9363c47b-c797-45ef-ab64-7835f9765175"}},{"resource":{"resourceType":"Observation","id":"a8fe1a7e-7cdb-4fc2-9169-79425f6b3417","meta":{"profile":["http://hl7.org/fhir/us/qicore/StructureDefinition/qicore-observation"]},"status":"final","category":[{"coding":[{"system":"http://terminology.hl7.org/CodeSystem/observation-category","code":"imaging","display":"Imaging"}]}],"code":{"coding":[{"system":"http://loinc.org","code":"96914-7","display":"CT dose and image quality category"}],"text":"CT dose and image quality category"},"subject":{"reference":"Patient/d735a266-abd3-4392-b9f4-7eb953ea9529"},"effectiveDateTime":"2026-01-02T00:00:00+00:00","valueCodeableConcept":{"coding":[{"system":"http://loinc.org","code":"LA31756-2","display":"Cardiac Routine Dose"}]},"component":[{"code":{"coding":[{"system":"http://loinc.org","code":"96912-1","display":"Calculated CT global noise"}]},"valueQuantity":{"value":31,"unit":"[hnsf'U]","system":"http://unitsofmeasure.org","code":"[hnsf'U]"}},{"code":{"coding":[{"system":"http://loinc.org","code":"96913-9","display":"Calculated CT size-adjusted dose"}]},"valueQuantity":{"value":575,"unit":"mGy.cm","system":"http://unitsofmeasure.org","code":"mGy.cm"}}]},"request":{"method":"PUT","url":"Observation/a8fe1a7e-7cdb-4fc2-9169-79425f6b3417"}},{"resource":{"resourceType":"Observation","id":"be4ab235-8451-436c-bd78-2b35d5bf45f9","meta":{"profile":["http://hl7.org/fhir/us/qicore/StructureDefinition/qicore-observation"]},"status":"final","category":[{"coding":[{"system":"http://terminology.hl7.org/CodeSystem/observation-category","code":"imaging","display":"Imaging"}]}],"code":{"coding":[{"system":"http://loinc.org","code":"96914-7","display":"CT dose and image quality category"}],"text":"CT dose and image quality category"},"subject":{"reference":"Patient/d735a266-abd3-4392-b9f4-7eb953ea9529"},"effectiveDateTime":"2026-01-02T00:00:00+00:00","valueCodeableConcept":{"coding":[{"system":"http://loinc.org","code":"LA31758-8","display":"Chest Low Dose"}]},"component":[{"code":{"coding":[{"system":"http://loinc.org","code":"96912-1","display":"Calculated CT global noise"}]},"valueQuantity":{"value":54,"unit":"[hnsf'U]","system":"http://unitsofmeasure.org","code":"[hnsf'U]"}},{"code":{"coding":[{"system":"http://loinc.org","code":"96913-9","display":"Calculated CT size-adjusted dose"}]},"valueQuantity":{"value":376,"unit":"mGy.cm","system":"http://unitsofmeasure.org","code":"mGy.cm"}}]},"request":{"method":"PUT","url":"Observation/be4ab235-8451-436c-bd78-2b35d5bf45f9"}},{"resource":{"resourceType":"Observation","id":"3aff2e73-8fc4-4d77-9709-c2d2d3418235","meta":{"profile":["http://hl7.org/fhir/us/qicore/StructureDefinition/qicore-observation-lab"]},"status":"final","category":[{"coding":[{"system":"http://terminology.hl7.org/CodeSystem/observation-category","code":"imaging","display":"Imaging"}]}],"code":{"coding":[{"system":"http://loinc.org","code":"96914-7","display":"CT dose and image quality category"}],"text":"CT dose and image quality category"},"subject":{"reference":"Patient/03da9890-9eda-480c-99c8-d04a4e2f4204"},"effectiveDateTime":"2026-03-02T00:00:00+00:00","valueCodeableConcept":{"coding":[{"system":"http://loinc.org","code":"LA31753-9","display":"Abdomen and Pelvis Routine Dose"}]},"component":[{"code":{"coding":[{"system":"http://loinc.org","code":"96912-1","display":"Calculated CT global noise"}]},"valueQuantity":{"value":28,"unit":"[hnsf'U]","system":"http://unitsofmeasure.org","code":"[hnsf'U]"}},{"code":{"coding":[{"system":"http://loinc.org","code":"96913-9","display":"Calculated CT size-adjusted dose"}]},"valueQuantity":{"value":597,"unit":"mGy.cm","system":"http://unitsofmeasure.org","code":"mGy.cm"}}]},"request":{"method":"PUT","url":"Observation/3aff2e73-8fc4-4d77-9709-c2d2d3418235"}},{"resource":{"resourceType":"MeasureReport","id":"bd592fc6-72b7-405a-bdb1-a0670132948e","meta":{"profile":["http://hl7.org/fhir/us/cqfmeasures/StructureDefinition/test-case-cqfm"]},"contained":[{"resourceType":"Parameters","id":"d375ebc4-ebff-42ab-8c4d-3604f24a3fee-parameters","parameter":[{"name":"subject","valueString":"03da9890-9eda-480c-99c8-d04a4e2f4204"}]}],"extension":[{"url":"http://hl7.org/fhir/StructureDefinition/cqf-inputParameters","valueReference":{"reference":"#d375ebc4-ebff-42ab-8c4d-3604f24a3fee-parameters"}},{"url":"http://hl7.org/fhir/us/cqfmeasures/StructureDefinition/cqfm-testCaseDescription","valueMarkdown":"Patient has an ABDOPEL RT scan with good dose and good noise"}],"modifierExtension":[{"url":"http://hl7.org/fhir/us/cqfmeasures/StructureDefinition/cqfm-isTestCase","valueBoolean":true}],"status":"complete","type":"individual","measure":"https://madie.cms.gov/Measure/CMS1056CTClinicalFHIR","period":{"start":"2026-01-01","end":"2026-12-31"},"group":[{"id":"Group_1","population":[{"id":"InitialPopulation_1","code":{"coding":[{"system":"http://terminology.hl7.org/CodeSystem/measure-population","code":"initial-population","display":"Initial Population"}]},"count":1},{"id":"Denominator_1","code":{"coding":[{"system":"http://terminology.hl7.org/CodeSystem/measure-population","code":"denominator","display":"Denominator"}]},"count":1},{"id":"DenominatorExclusion_1","code":{"coding":[{"system":"http://terminology.hl7.org/CodeSystem/measure-population","code":"denominator-exclusion","display":"Denominator Exclusion"}]},"count":0},{"id":"Numerator_1","code":{"coding":[{"system":"http://terminology.hl7.org/CodeSystem/measure-population","code":"numerator","display":"Numerator"}]},"count":0}],"measureScore":{"value":1.0}}],"evaluatedResource":[{"reference":"Patient/03da9890-9eda-480c-99c8-d04a4e2f4204"},{"reference":"Observation/3aff2e73-8fc4-4d77-9709-c2d2d3418235"}]},"request":{"method":"PUT","url":"MeasureReport/bd592fc6-72b7-405a-bdb1-a0670132948e"}},{"resource":{"resourceType":"Patient","id":"03da9890-9eda-480c-99c8-d04a4e2f4204","meta":{"profile":["http://hl7.org/fhir/us/core/StructureDefinition/us-core-patient","http://hl7.org/fhir/us/qicore/StructureDefinition/qicore-patient"]},"extension":[{"url":"http://hl7.org/fhir/us/core/StructureDefinition/us-core-race","extension":[{"url":"ombCategory","valueCoding":{"system":"urn:oid:2.16.840.1.113883.6.238","code":"2028-9","display":"Asian"}},{"url":"text","valueString":"Asian"}]},{"url":"http://hl7.org/fhir/us/core/StructureDefinition/us-core-ethnicity","extension":[{"url":"ombCategory","valueCoding":{"system":"urn:oid:2.16.840.1.113883.6.238","code":"2135-2","display":"Hispanic or Latino"}},{"url":"text","valueString":"Hispanic or Latino"}]}],"identifier":[{"system":"http://hospital.smarthealthit.org","value":"999999995"}],"name":[{"family":"AbdopelrtGood","given":["DENOMPass"]}],"gender":"female","birthDate":"1986-06-12"},"request":{"method":"PUT","url":"Patient/03da9890-9eda-480c-99c8-d04a4e2f4204"}},{"resource":{"resourceType":"Observation","id":"8388e16e-6f3e-4efe-adf0-03e4113cf01d","meta":{"profile":["http://hl7.org/fhir/us/qicore/StructureDefinition/qicore-observation-lab"]},"status":"final","category":[{"coding":[{"system":"http://terminology.hl7.org/CodeSystem/observation-category","code":"imaging","display":"Imaging"}]}],"code":{"coding":[{"system":"http://loinc.org","code":"96914-7","display":"CT dose and image quality category"}],"text":"CT dose and image quality category"},"subject":{"reference":"Patient/e80a2dd2-d2e8-4888-86e6-8bf2b6516e79"},"effectiveDateTime":"2026-01-02T00:00:00+00:00","valueCodeableConcept":{"coding":[{"system":"http://loinc.org","code":"LA31752-1","display":"Abdomen and Pelvis Low Dose"}]},"component":[{"code":{"coding":[{"system":"http://loinc.org","code":"96912-1","display":"Calculated CT global noise"}]},"valueQuantity":{"value":65,"unit":"[hnsf'U]","system":"http://unitsofmeasure.org","code":"[hnsf'U]"}},{"code":{"coding":[{"system":"http://loinc.org","code":"96913-9","display":"Calculated CT size-adjusted dose"}]},"valueQuantity":{"value":585,"unit":"mGy.cm","system":"http://unitsofmeasure.org","code":"mGy.cm"}}]},"request":{"method":"PUT","url":"Observation/8388e16e-6f3e-4efe-adf0-03e4113cf01d"}},{"resource":{"resourceType":"Patient","id":"e80a2dd2-d2e8-4888-86e6-8bf2b6516e79","meta":{"profile":["http://hl7.org/fhir/us/core/StructureDefinition/us-core-patient","http://hl7.org/fhir/us/qicore/StructureDefinition/qicore-patient"]},"extension":[{"url":"http://hl7.org/fhir/us/core/StructureDefinition/us-core-race","extension":[{"url":"ombCategory","valueCoding":{"system":"urn:oid:2.16.840.1.113883.6.238","code":"2028-9","display":"Asian"}},{"url":"text","valueString":"Asian"}]},{"url":"http://hl7.org/fhir/us/core/StructureDefinition/us-core-ethnicity","extension":[{"url":"ombCategory","valueCoding":{"system":"urn:oid:2.16.840.1.113883.6.238","code":"2135-2","display":"Hispanic or Latino"}},{"url":"text","valueString":"Hispanic or Latino"}]}],"identifier":[{"system":"http://hospital.smarthealthit.org","value":"999999995"}],"name":[{"family":"HighNoise","given":["NUMERPass"]}],"gender":"female","birthDate":"1987-06-12"},"request":{"method":"PUT","url":"Patient/e80a2dd2-d2e8-4888-86e6-8bf2b6516e79"}},{"resource":{"resourceType":"MeasureReport","id":"985c512f-2a1f-45c3-8584-eae431f67173","meta":{"profile":["http://hl7.org/fhir/us/cqfmeasures/StructureDefinition/test-case-cqfm"]},"contained":[{"resourceType":"Parameters","id":"8255f7c1-087f-4820-91ef-8d8b0e0bebc8-parameters","parameter":[{"name":"subject","valueString":"e80a2dd2-d2e8-4888-86e6-8bf2b6516e79"}]}],"extension":[{"url":"http://hl7.org/fhir/StructureDefinition/cqf-inputParameters","valueReference":{"reference":"#8255f7c1-087f-4820-91ef-8d8b0e0bebc8-parameters"}},{"url":"http://hl7.org/fhir/us/cqfmeasures/StructureDefinition/cqfm-testCaseDescription","valueMarkdown":"Patient has a valid scan and the noise value is too high"}],"modifierExtension":[{"url":"http://hl7.org/fhir/us/cqfmeasures/StructureDefinition/cqfm-isTestCase","valueBoolean":true}],"status":"complete","type":"individual","measure":"https://madie.cms.gov/Measure/CMS1056CTClinicalFHIR","period":{"start":"2026-01-01","end":"2026-12-31"},"group":[{"id":"Group_1","population":[{"id":"InitialPopulation_1","code":{"coding":[{"system":"http://terminology.hl7.org/CodeSystem/measure-population","code":"initial-population","display":"Initial Population"}]},"count":1},{"id":"Denominator_1","code":{"coding":[{"system":"http://terminology.hl7.org/CodeSystem/measure-population","code":"denominator","display":"Denominator"}]},"count":1},{"id":"DenominatorExclusion_1","code":{"coding":[{"system":"http://terminology.hl7.org/CodeSystem/measure-population","code":"denominator-exclusion","display":"Denominator Exclusion"}]},"count":0},{"id":"Numerator_1","code":{"coding":[{"system":"http://terminology.hl7.org/CodeSystem/measure-population","code":"numerator","display":"Numerator"}]},"count":1}],"measureScore":{"value":1.0}}],"evaluatedResource":[{"reference":"Patient/e80a2dd2-d2e8-4888-86e6-8bf2b6516e79"},{"reference":"Observation/8388e16e-6f3e-4efe-adf0-03e4113cf01d"}]},"request":{"method":"PUT","url":"MeasureReport/985c512f-2a1f-45c3-8584-eae431f67173"}},{"resource":{"resourceType":"Observation","id":"b2c838a4-3969-4079-829c-487a17f3f64b","meta":{"profile":["http://hl7.org/fhir/us/qicore/StructureDefinition/qicore-observation-lab"]},"status":"final","category":[{"coding":[{"system":"http://terminology.hl7.org/CodeSystem/observation-category","code":"imaging","display":"Imaging"}]}],"code":{"coding":[{"system":"http://loinc.org","code":"96914-7","display":"CT dose and image quality category"}],"text":"CT dose and image quality category"},"subject":{"reference":"Patient/8852a08d-a245-4549-a661-6afdf2c79d2c"},"effectiveDateTime":"2026-05-02T00:00:00+00:00","valueCodeableConcept":{"coding":[{"system":"http://loinc.org","code":"LA31752-1","display":"Abdomen and Pelvis Low Dose"}]},"component":[{"code":{"coding":[{"system":"http://loinc.org","code":"96912-1","display":"Calculated CT global noise"}]},"valueQuantity":{"value":63}},{"code":{"coding":[{"system":"http://loinc.org","code":"96913-9","display":"Calculated CT size-adjusted dose"}]},"valueQuantity":{"value":597}}]},"request":{"method":"PUT","url":"Observation/b2c838a4-3969-4079-829c-487a17f3f64b"}},{"resource":{"resourceType":"Patient","id":"8852a08d-a245-4549-a661-6afdf2c79d2c","meta":{"profile":["http://hl7.org/fhir/us/core/StructureDefinition/us-core-patient","http://hl7.org/fhir/us/qicore/StructureDefinition/qicore-patient"]},"extension":[{"url":"http://hl7.org/fhir/us/core/StructureDefinition/us-core-race","extension":[{"url":"ombCategory","valueCoding":{"system":"urn:oid:2.16.840.1.113883.6.238","code":"2028-9","display":"Asian"}},{"url":"text","valueString":"Asian"}]},{"url":"http://hl7.org/fhir/us/core/StructureDefinition/us-core-ethnicity","extension":[{"url":"ombCategory","valueCoding":{"system":"urn:oid:2.16.840.1.113883.6.238","code":"2135-2","display":"Hispanic or Latino"}},{"url":"text","valueString":"Hispanic or Latino"}]},{"url":"http://hl7.org/fhir/us/core/StructureDefinition/us-core-sex","valueCode":"248153007"}],"identifier":[{"system":"http://hospital.smarthealthit.org","value":"999999995"}],"name":[{"family":"NoUnits","given":["DENOMFail"]}],"gender":"female","birthDate":"1984-06-12"},"request":{"method":"PUT","url":"Patient/8852a08d-a245-4549-a661-6afdf2c79d2c"}},{"resource":{"resourceType":"MeasureReport","id":"9a5ccffc-fe41-4482-a857-be481fceb5d3","meta":{"profile":["http://hl7.org/fhir/us/cqfmeasures/StructureDefinition/test-case-cqfm"]},"contained":[{"resourceType":"Parameters","id":"98f383af-40dc-4ada-9b5b-aa109b05b2f5-parameters","parameter":[{"name":"subject","valueString":"8852a08d-a245-4549-a661-6afdf2c79d2c"}]}],"extension":[{"url":"http://hl7.org/fhir/StructureDefinition/cqf-inputParameters","valueReference":{"reference":"#98f383af-40dc-4ada-9b5b-aa109b05b2f5-parameters"}},{"url":"http://hl7.org/fhir/us/cqfmeasures/StructureDefinition/cqfm-testCaseDescription","valueMarkdown":"Patient has a valid scan but the units are missing on the results"}],"modifierExtension":[{"url":"http://hl7.org/fhir/us/cqfmeasures/StructureDefinition/cqfm-isTestCase","valueBoolean":true}],"status":"complete","type":"individual","measure":"https://madie.cms.gov/Measure/CMS1056CTClinicalFHIR","period":{"start":"2026-01-01","end":"2026-12-31"},"group":[{"id":"Group_1","population":[{"id":"InitialPopulation_1","code":{"coding":[{"system":"http://terminology.hl7.org/CodeSystem/measure-population","code":"initial-population","display":"Initial Population"}]},"count":1},{"id":"Denominator_1","code":{"coding":[{"system":"http://terminology.hl7.org/CodeSystem/measure-population","code":"denominator","display":"Denominator"}]},"count":0},{"id":"DenominatorExclusion_1","code":{"coding":[{"system":"http://terminology.hl7.org/CodeSystem/measure-population","code":"denominator-exclusion","display":"Denominator Exclusion"}]},"count":0},{"id":"Numerator_1","code":{"coding":[{"system":"http://terminology.hl7.org/CodeSystem/measure-population","code":"numerator","display":"Numerator"}]},"count":0}],"measureScore":{"value":1.0}}],"evaluatedResource":[{"reference":"Patient/8852a08d-a245-4549-a661-6afdf2c79d2c"},{"reference":"Observation/b2c838a4-3969-4079-829c-487a17f3f64b"}]},"request":{"method":"PUT","url":"MeasureReport/9a5ccffc-fe41-4482-a857-be481fceb5d3"}},{"resource":{"resourceType":"MeasureReport","id":"1587cf3b-0013-43d3-ae31-2a40f9054447","meta":{"profile":["http://hl7.org/fhir/us/cqfmeasures/StructureDefinition/test-case-cqfm"]},"contained":[{"resourceType":"Parameters","id":"7344e27e-8248-49cd-b477-4ae46b1d47c7-parameters","parameter":[{"name":"subject","valueString":"405bb76e-a162-49ad-8b52-9f6f745efb64"}]}],"extension":[{"url":"http://hl7.org/fhir/StructureDefinition/cqf-inputParameters","valueReference":{"reference":"#7344e27e-8248-49cd-b477-4ae46b1d47c7-parameters"}},{"url":"http://hl7.org/fhir/us/cqfmeasures/StructureDefinition/cqfm-testCaseDescription","valueMarkdown":"Patient has a valid CT Scan but is 1 day under 18 at the start of the Measurement Period"}],"modifierExtension":[{"url":"http://hl7.org/fhir/us/cqfmeasures/StructureDefinition/cqfm-isTestCase","valueBoolean":true}],"status":"complete","type":"individual","measure":"https://madie.cms.gov/Measure/CMS1056CTClinicalFHIR","period":{"start":"2026-01-01","end":"2026-12-31"},"group":[{"id":"Group_1","population":[{"id":"InitialPopulation_1","code":{"coding":[{"system":"http://terminology.hl7.org/CodeSystem/measure-population","code":"initial-population","display":"Initial Population"}]},"count":0},{"id":"Denominator_1","code":{"coding":[{"system":"http://terminology.hl7.org/CodeSystem/measure-population","code":"denominator","display":"Denominator"}]},"count":0},{"id":"DenominatorExclusion_1","code":{"coding":[{"system":"http://terminology.hl7.org/CodeSystem/measure-population","code":"denominator-exclusion","display":"Denominator Exclusion"}]},"count":0},{"id":"Numerator_1","code":{"coding":[{"system":"http://terminology.hl7.org/CodeSystem/measure-population","code":"numerator","display":"Numerator"}]},"count":0}],"measureScore":{"value":1.0}}],"evaluatedResource":[{"reference":"Patient/405bb76e-a162-49ad-8b52-9f6f745efb64"},{"reference":"Observation/e49c6559-f9ac-411f-bde4-4e78c9891d12"}]},"request":{"method":"PUT","url":"MeasureReport/1587cf3b-0013-43d3-ae31-2a40f9054447"}},{"resource":{"resourceType":"Observation","id":"e49c6559-f9ac-411f-bde4-4e78c9891d12","meta":{"profile":["http://hl7.org/fhir/us/qicore/StructureDefinition/qicore-observation-lab"]},"status":"final","category":[{"coding":[{"system":"http://terminology.hl7.org/CodeSystem/observation-category","code":"imaging","display":"Imaging"}]}],"code":{"coding":[{"system":"http://loinc.org","code":"96914-7","display":"CT dose and image quality category"}],"text":"CT dose and image quality category"},"subject":{"reference":"Patient/405bb76e-a162-49ad-8b52-9f6f745efb64"},"effectiveDateTime":"2024-01-02T00:00:00.000+00:00","valueCodeableConcept":{"coding":[{"system":"http://loinc.org","code":"LA31752-1","display":"Abdomen and Pelvis Low Dose"}]},"component":[{"code":{"coding":[{"system":"http://loinc.org","code":"96912-1","display":"Calculated CT global noise"}]},"valueQuantity":{"value":63,"unit":"[hnsf'U]","system":"http://unitsofmeasure.org","code":"[hnsf'U]"}},{"code":{"coding":[{"system":"http://loinc.org","code":"96913-9","display":"Calculated CT size-adjusted dose"}]},"valueQuantity":{"value":597,"unit":"mGy.cm","system":"http://unitsofmeasure.org","code":"mGy.cm"}}]},"request":{"method":"PUT","url":"Observation/e49c6559-f9ac-411f-bde4-4e78c9891d12"}},{"resource":{"resourceType":"Patient","id":"405bb76e-a162-49ad-8b52-9f6f745efb64","meta":{"profile":["http://hl7.org/fhir/us/core/StructureDefinition/us-core-patient","http://hl7.org/fhir/us/qicore/StructureDefinition/qicore-patient"]},"extension":[{"url":"http://hl7.org/fhir/us/core/StructureDefinition/us-core-race","extension":[{"url":"ombCategory","valueCoding":{"system":"urn:oid:2.16.840.1.113883.6.238","code":"2028-9","display":"Asian"}},{"url":"text","valueString":"Asian"}]},{"url":"http://hl7.org/fhir/us/core/StructureDefinition/us-core-ethnicity","extension":[{"url":"ombCategory","valueCoding":{"system":"urn:oid:2.16.840.1.113883.6.238","code":"2135-2","display":"Hispanic or Latino"}},{"url":"text","valueString":"Hispanic or Latino"}]},{"url":"http://hl7.org/fhir/us/core/StructureDefinition/us-core-sex","valueCode":"184115007"}],"identifier":[{"system":"http://hospital.smarthealthit.org","value":"999999995"}],"name":[{"family":"Under18","given":["IPPFail"]}],"gender":"unknown","birthDate":"2007-01-02"},"request":{"method":"PUT","url":"Patient/405bb76e-a162-49ad-8b52-9f6f745efb64"}},{"resource":{"resourceType":"Coverage","id":"1b656e52-acf7-4231-8344-87caedfbb724","meta":{"profile":["http://hl7.org/fhir/us/qicore/StructureDefinition/qicore-coverage"]},"identifier":[{"system":"http://benefitsinc.com/certificate","value":"12345"}],"status":"active","type":{"coding":[{"system":"https://nahdo.org/sopt","code":"1","display":"MEDICARE"}]},"policyHolder":{"reference":"Patient/15f7e535-9af3-4fdf-b3b3-8fa6b9d6ca76"},"subscriber":{"reference":"Patient/15f7e535-9af3-4fdf-b3b3-8fa6b9d6ca76"},"beneficiary":{"reference":"Patient/15f7e535-9af3-4fdf-b3b3-8fa6b9d6ca76"},"dependent":"0","relationship":{"coding":[{"system":"http://terminology.hl7.org/CodeSystem/subscriber-relationship","code":"self"}]},"period":{"start":"2021-05-23","end":"2027-05-23"},"payor":[{"reference":"Organization/Org-123456"}],"order":9},"request":{"method":"PUT","url":"Coverage/1b656e52-acf7-4231-8344-87caedfbb724"}},{"resource":{"resourceType":"MeasureReport","id":"9775f2d8-dd08-4109-ba37-f525351bc2eb","meta":{"profile":["http://hl7.org/fhir/us/cqfmeasures/StructureDefinition/test-case-cqfm"]},"contained":[{"resourceType":"Parameters","id":"7c52eb95-1bda-47aa-8098-5111c300b8a7-parameters","parameter":[{"name":"subject","valueString":"15f7e535-9af3-4fdf-b3b3-8fa6b9d6ca76"}]}],"extension":[{"url":"http://hl7.org/fhir/StructureDefinition/cqf-inputParameters","valueReference":{"reference":"#7c52eb95-1bda-47aa-8098-5111c300b8a7-parameters"}},{"url":"http://hl7.org/fhir/us/cqfmeasures/StructureDefinition/cqfm-testCaseDescription","valueMarkdown":"Patient has a valid CT Scan and is exactly 18 years old at the start of the Measurement Period"}],"modifierExtension":[{"url":"http://hl7.org/fhir/us/cqfmeasures/StructureDefinition/cqfm-isTestCase","valueBoolean":true}],"status":"complete","type":"individual","measure":"https://madie.cms.gov/Measure/CMS1056CTClinicalFHIR","period":{"start":"2026-01-01","end":"2026-12-31"},"group":[{"id":"Group_1","population":[{"id":"InitialPopulation_1","code":{"coding":[{"system":"http://terminology.hl7.org/CodeSystem/measure-population","code":"initial-population","display":"Initial Population"}]},"count":1},{"id":"Denominator_1","code":{"coding":[{"system":"http://terminology.hl7.org/CodeSystem/measure-population","code":"denominator","display":"Denominator"}]},"count":1},{"id":"DenominatorExclusion_1","code":{"coding":[{"system":"http://terminology.hl7.org/CodeSystem/measure-population","code":"denominator-exclusion","display":"Denominator Exclusion"}]},"count":0},{"id":"Numerator_1","code":{"coding":[{"system":"http://terminology.hl7.org/CodeSystem/measure-population","code":"numerator","display":"Numerator"}]},"count":0}],"measureScore":{"value":1.0}}],"evaluatedResource":[{"reference":"Patient/15f7e535-9af3-4fdf-b3b3-8fa6b9d6ca76"},{"reference":"Observation/eaae8b42-ddc4-472c-88e9-0b15d2dd550a"},{"reference":"Coverage/1b656e52-acf7-4231-8344-87caedfbb724"}]},"request":{"method":"PUT","url":"MeasureReport/9775f2d8-dd08-4109-ba37-f525351bc2eb"}},{"resource":{"resourceType":"Patient","id":"15f7e535-9af3-4fdf-b3b3-8fa6b9d6ca76","meta":{"profile":["http://hl7.org/fhir/us/core/StructureDefinition/us-core-patient","http://hl7.org/fhir/us/qicore/StructureDefinition/qicore-patient"]},"extension":[{"url":"http://hl7.org/fhir/us/core/StructureDefinition/us-core-race","extension":[{"url":"ombCategory","valueCoding":{"system":"urn:oid:2.16.840.1.113883.6.238","code":"2028-9","display":"Asian"}},{"url":"text","valueString":"Asian"},{"url":"detailed","valueCoding":{"system":"urn:oid:2.16.840.1.113883.6.238","code":"2036-2","display":"Filipino"}}]},{"url":"http://hl7.org/fhir/us/core/StructureDefinition/us-core-ethnicity","extension":[{"url":"ombCategory","valueCoding":{"system":"urn:oid:2.16.840.1.113883.6.238","code":"2135-2","display":"Hispanic or Latino"}},{"url":"text","valueString":"Hispanic or Latino"},{"url":"detailed","valueCoding":{"system":"urn:oid:2.16.840.1.113883.6.238","code":"2143-6","display":"Gallego"}}]}],"identifier":[{"system":"http://hospital.smarthealthit.org","value":"999999995"}],"name":[{"family":"Age18","given":["IPPPass"]}],"gender":"female","birthDate":"2005-12-31"},"request":{"method":"PUT","url":"Patient/15f7e535-9af3-4fdf-b3b3-8fa6b9d6ca76"}},{"resource":{"resourceType":"Observation","id":"eaae8b42-ddc4-472c-88e9-0b15d2dd550a","meta":{"profile":["http://hl7.org/fhir/us/qicore/StructureDefinition/qicore-observation-lab"]},"status":"final","category":[{"coding":[{"system":"http://terminology.hl7.org/CodeSystem/observation-category","code":"imaging","display":"Imaging"}]}],"code":{"coding":[{"system":"http://loinc.org","code":"96914-7","display":"CT dose and image quality category"}],"text":"CT dose and image quality category"},"subject":{"reference":"Patient/15f7e535-9af3-4fdf-b3b3-8fa6b9d6ca76"},"effectiveDateTime":"2026-01-02T00:00:00+00:00","valueCodeableConcept":{"coding":[{"system":"http://loinc.org","code":"LA31752-1","display":"Abdomen and Pelvis Low Dose"}]},"component":[{"code":{"coding":[{"system":"http://loinc.org","code":"96912-1","display":"Calculated CT global noise"}]},"valueQuantity":{"value":63,"unit":"[hnsf'U]","system":"http://unitsofmeasure.org","code":"[hnsf'U]"}},{"code":{"coding":[{"system":"http://loinc.org","code":"96913-9","display":"Calculated CT size-adjusted dose"}]},"valueQuantity":{"value":597,"unit":"mGy.cm","system":"http://unitsofmeasure.org","code":"mGy.cm"}}]},"request":{"method":"PUT","url":"Observation/eaae8b42-ddc4-472c-88e9-0b15d2dd550a"}},{"resource":{"resourceType":"Patient","id":"1d5593d0-f513-46f6-8c2d-538685a61185","meta":{"profile":["http://hl7.org/fhir/us/core/StructureDefinition/us-core-patient","http://hl7.org/fhir/us/qicore/StructureDefinition/qicore-patient"]},"extension":[{"url":"http://hl7.org/fhir/us/core/StructureDefinition/us-core-race","extension":[{"url":"ombCategory","valueCoding":{"system":"urn:oid:2.16.840.1.113883.6.238","code":"2028-9","display":"Asian"}},{"url":"text","valueString":"Asian"}]},{"url":"http://hl7.org/fhir/us/core/StructureDefinition/us-core-ethnicity","extension":[{"url":"ombCategory","valueCoding":{"system":"urn:oid:2.16.840.1.113883.6.238","code":"2135-2","display":"Hispanic or Latino"}},{"url":"text","valueString":"Hispanic or Latino"}]},{"url":"http://hl7.org/fhir/us/core/StructureDefinition/us-core-sex","valueCode":"33791000087105"}],"identifier":[{"system":"http://hospital.smarthealthit.org","value":"999999995"}],"name":[{"family":"ScanOutsideMP","given":["IPPFail"]}],"gender":"male","birthDate":"1978-06-12"},"request":{"method":"PUT","url":"Patient/1d5593d0-f513-46f6-8c2d-538685a61185"}},{"resource":{"resourceType":"Observation","id":"2f0f3703-4f45-4cd3-973d-cca3a4309df5","meta":{"profile":["http://hl7.org/fhir/us/qicore/StructureDefinition/qicore-observation-lab"]},"status":"final","category":[{"coding":[{"system":"http://terminology.hl7.org/CodeSystem/observation-category","code":"imaging","display":"Imaging"}]}],"code":{"coding":[{"system":"http://loinc.org","code":"96914-7","display":"CT dose and image quality category"}],"text":"CT dose and image quality category"},"subject":{"reference":"Patient/1d5593d0-f513-46f6-8c2d-538685a61185"},"effectiveDateTime":"2027-01-02T00:00:00+00:00","valueCodeableConcept":{"coding":[{"system":"http://loinc.org","code":"LA31753-9","display":"Abdomen and Pelvis Routine Dose"}]},"component":[{"code":{"coding":[{"system":"http://loinc.org","code":"96912-1","display":"Calculated CT global noise"}]},"valueQuantity":{"value":63,"unit":"[hnsf'U]","system":"http://unitsofmeasure.org","code":"[hnsf'U]"}},{"code":{"coding":[{"system":"http://loinc.org","code":"96913-9","display":"Calculated CT size-adjusted dose"}]},"valueQuantity":{"value":597,"unit":"mGy.cm","system":"http://unitsofmeasure.org","code":"mGy.cm"}}]},"request":{"method":"PUT","url":"Observation/2f0f3703-4f45-4cd3-973d-cca3a4309df5"}},{"resource":{"resourceType":"MeasureReport","id":"85c68a96-cf43-4b46-b2be-d35fc90f6a31","meta":{"profile":["http://hl7.org/fhir/us/cqfmeasures/StructureDefinition/test-case-cqfm"]},"contained":[{"resourceType":"Parameters","id":"75ebf4a2-3b3e-4e2e-8173-ac8607df22d1-parameters","parameter":[{"name":"subject","valueString":"1d5593d0-f513-46f6-8c2d-538685a61185"}]}],"extension":[{"url":"http://hl7.org/fhir/StructureDefinition/cqf-inputParameters","valueReference":{"reference":"#75ebf4a2-3b3e-4e2e-8173-ac8607df22d1-parameters"}},{"url":"http://hl7.org/fhir/us/cqfmeasures/StructureDefinition/cqfm-testCaseDescription","valueMarkdown":"Patient has a valid CT Scan but it is conducted outside the Measurement Period"}],"modifierExtension":[{"url":"http://hl7.org/fhir/us/cqfmeasures/StructureDefinition/cqfm-isTestCase","valueBoolean":true}],"status":"complete","type":"individual","measure":"https://madie.cms.gov/Measure/CMS1056CTClinicalFHIR","period":{"start":"2026-01-01","end":"2026-12-31"},"group":[{"id":"Group_1","population":[{"id":"InitialPopulation_1","code":{"coding":[{"system":"http://terminology.hl7.org/CodeSystem/measure-population","code":"initial-population","display":"Initial Population"}]},"count":0},{"id":"Denominator_1","code":{"coding":[{"system":"http://terminology.hl7.org/CodeSystem/measure-population","code":"denominator","display":"Denominator"}]},"count":0},{"id":"DenominatorExclusion_1","code":{"coding":[{"system":"http://terminology.hl7.org/CodeSystem/measure-population","code":"denominator-exclusion","display":"Denominator Exclusion"}]},"count":0},{"id":"Numerator_1","code":{"coding":[{"system":"http://terminology.hl7.org/CodeSystem/measure-population","code":"numerator","display":"Numerator"}]},"count":0}],"measureScore":{"value":1.0}}],"evaluatedResource":[{"reference":"Patient/1d5593d0-f513-46f6-8c2d-538685a61185"},{"reference":"Observation/2f0f3703-4f45-4cd3-973d-cca3a4309df5"}]},"request":{"method":"PUT","url":"MeasureReport/85c68a96-cf43-4b46-b2be-d35fc90f6a31"}},{"resource":{"resourceType":"MeasureReport","id":"e3d7a2a8-5f9b-4df4-89c1-90c6e90b939f","meta":{"profile":["http://hl7.org/fhir/us/cqfmeasures/StructureDefinition/test-case-cqfm"]},"contained":[{"resourceType":"Parameters","id":"84ebfe86-68ce-42df-8c93-47feda5586a8-parameters","parameter":[{"name":"subject","valueString":"87e15976-6935-4de9-b594-6169b4dbda7a"}]}],"extension":[{"url":"http://hl7.org/fhir/StructureDefinition/cqf-inputParameters","valueReference":{"reference":"#84ebfe86-68ce-42df-8c93-47feda5586a8-parameters"}},{"url":"http://hl7.org/fhir/us/cqfmeasures/StructureDefinition/cqfm-testCaseDescription","valueMarkdown":"Patient has a valid CT Scan but the dose is too high for the given scan type"}],"modifierExtension":[{"url":"http://hl7.org/fhir/us/cqfmeasures/StructureDefinition/cqfm-isTestCase","valueBoolean":true}],"status":"complete","type":"individual","measure":"https://madie.cms.gov/Measure/CMS1056CTClinicalFHIR","period":{"start":"2026-01-01","end":"2026-12-31"},"group":[{"id":"Group_1","population":[{"id":"InitialPopulation_1","code":{"coding":[{"system":"http://terminology.hl7.org/CodeSystem/measure-population","code":"initial-population","display":"Initial Population"}]},"count":1},{"id":"Denominator_1","code":{"coding":[{"system":"http://terminology.hl7.org/CodeSystem/measure-population","code":"denominator","display":"Denominator"}]},"count":1},{"id":"DenominatorExclusion_1","code":{"coding":[{"system":"http://terminology.hl7.org/CodeSystem/measure-population","code":"denominator-exclusion","display":"Denominator Exclusion"}]},"count":0},{"id":"Numerator_1","code":{"coding":[{"system":"http://terminology.hl7.org/CodeSystem/measure-population","code":"numerator","display":"Numerator"}]},"count":1}],"measureScore":{"value":1.0}}],"evaluatedResource":[{"reference":"Patient/87e15976-6935-4de9-b594-6169b4dbda7a"},{"reference":"Observation/bc17de01-a0d9-479b-86b7-4bec34db8ec9"}]},"request":{"method":"PUT","url":"MeasureReport/e3d7a2a8-5f9b-4df4-89c1-90c6e90b939f"}},{"resource":{"resourceType":"Observation","id":"bc17de01-a0d9-479b-86b7-4bec34db8ec9","meta":{"profile":["http://hl7.org/fhir/us/qicore/StructureDefinition/qicore-observation-lab"]},"status":"final","category":[{"coding":[{"system":"http://terminology.hl7.org/CodeSystem/observation-category","code":"imaging","display":"Imaging"}]}],"code":{"coding":[{"system":"http://loinc.org","code":"96914-7","display":"CT dose and image quality category"}],"text":"CT dose and image quality category"},"subject":{"reference":"Patient/87e15976-6935-4de9-b594-6169b4dbda7a"},"effectiveDateTime":"2026-01-02T00:00:00+00:00","valueCodeableConcept":{"coding":[{"system":"http://loinc.org","code":"LA31752-1","display":"Abdomen and Pelvis Low Dose"}]},"component":[{"code":{"coding":[{"system":"http://loinc.org","code":"96912-1","display":"Calculated CT global noise"}]},"valueQuantity":{"value":63,"unit":"[hnsf'U]","system":"http://unitsofmeasure.org","code":"[hnsf'U]"}},{"code":{"coding":[{"system":"http://loinc.org","code":"96913-9","display":"Calculated CT size-adjusted dose"}]},"valueQuantity":{"value":599,"unit":"mGy.cm","system":"http://unitsofmeasure.org","code":"mGy.cm"}}]},"request":{"method":"PUT","url":"Observation/bc17de01-a0d9-479b-86b7-4bec34db8ec9"}},{"resource":{"resourceType":"Patient","id":"87e15976-6935-4de9-b594-6169b4dbda7a","meta":{"profile":["http://hl7.org/fhir/us/core/StructureDefinition/us-core-patient","http://hl7.org/fhir/us/qicore/StructureDefinition/qicore-patient"]},"extension":[{"url":"http://hl7.org/fhir/us/core/StructureDefinition/us-core-race","extension":[{"url":"ombCategory","valueCoding":{"system":"urn:oid:2.16.840.1.113883.6.238","code":"2028-9","display":"Asian"}},{"url":"text","valueString":"Asian"}]},{"url":"http://hl7.org/fhir/us/core/StructureDefinition/us-core-ethnicity","extension":[{"url":"ombCategory","valueCoding":{"system":"urn:oid:2.16.840.1.113883.6.238","code":"2135-2","display":"Hispanic or Latino"}},{"url":"text","valueString":"Hispanic or Latino"}]}],"identifier":[{"system":"http://hospital.smarthealthit.org","value":"999999995"}],"name":[{"family":"HighDose","given":["NUMERPass"]}],"gender":"female","birthDate":"1987-06-12"},"request":{"method":"PUT","url":"Patient/87e15976-6935-4de9-b594-6169b4dbda7a"}},{"resource":{"resourceType":"Patient","id":"a9545a75-1461-4bf0-a105-d60ba84772a5","meta":{"profile":["http://hl7.org/fhir/us/core/StructureDefinition/us-core-patient","http://hl7.org/fhir/us/qicore/StructureDefinition/qicore-patient"]},"extension":[{"url":"http://hl7.org/fhir/us/core/StructureDefinition/us-core-race","extension":[{"url":"ombCategory","valueCoding":{"system":"urn:oid:2.16.840.1.113883.6.238","code":"2028-9","display":"Asian"}},{"url":"text","valueString":"Asian"}]},{"url":"http://hl7.org/fhir/us/core/StructureDefinition/us-core-ethnicity","extension":[{"url":"ombCategory","valueCoding":{"system":"urn:oid:2.16.840.1.113883.6.238","code":"2135-2","display":"Hispanic or Latino"}},{"url":"text","valueString":"Hispanic or Latino"}]}],"identifier":[{"system":"http://hospital.smarthealthit.org","value":"999999995"}],"name":[{"family":"TwoScans","given":["NUMERPass"]}],"birthDate":"1987-06-12"},"request":{"method":"PUT","url":"Patient/a9545a75-1461-4bf0-a105-d60ba84772a5"}},{"resource":{"resourceType":"Observation","id":"c0fb6289-7c0e-4285-baef-dfa7dc87e26e","meta":{"profile":["http://hl7.org/fhir/us/qicore/StructureDefinition/qicore-observation"]},"status":"final","category":[{"coding":[{"system":"http://terminology.hl7.org/CodeSystem/observation-category","code":"imaging","display":"Imaging"}]}],"code":{"coding":[{"system":"http://loinc.org","code":"96914-7","display":"CT dose and image quality category"}],"text":"CT dose and image quality category"},"subject":{"reference":"Patient/a9545a75-1461-4bf0-a105-d60ba84772a5"},"effectiveDateTime":"2026-01-02T00:00:00+00:00","valueCodeableConcept":{"coding":[{"system":"http://loinc.org","code":"LA31752-1","display":"Abdomen and Pelvis Low Dose"}]},"component":[{"code":{"coding":[{"system":"http://loinc.org","code":"96912-1","display":"Calculated CT global noise"}]},"valueQuantity":{"value":63,"unit":"[hnsf'U]","system":"http://unitsofmeasure.org","code":"[hnsf'U]"}},{"code":{"coding":[{"system":"http://loinc.org","code":"96913-9","display":"Calculated CT size-adjusted dose"}]},"valueQuantity":{"value":585,"unit":"mGy.cm","system":"http://unitsofmeasure.org","code":"mGy.cm"}}]},"request":{"method":"PUT","url":"Observation/c0fb6289-7c0e-4285-baef-dfa7dc87e26e"}},{"resource":{"resourceType":"Observation","id":"7afdba67-0138-4007-a792-00ca5a7801e8","meta":{"profile":["http://hl7.org/fhir/us/qicore/StructureDefinition/qicore-observation-lab"]},"status":"final","category":[{"coding":[{"system":"http://terminology.hl7.org/CodeSystem/observation-category","code":"imaging","display":"Imaging"}]}],"code":{"coding":[{"system":"http://loinc.org","code":"96914-7","display":"CT dose and image quality category"}],"text":"CT dose and image quality category"},"subject":{"reference":"Patient/a9545a75-1461-4bf0-a105-d60ba84772a5"},"effectiveDateTime":"2026-01-02T00:00:00+00:00","valueCodeableConcept":{"coding":[{"system":"http://loinc.org","code":"LA31752-1","display":"Abdomen and Pelvis Low Dose"}]},"component":[{"code":{"coding":[{"system":"http://loinc.org","code":"96912-1","display":"Calculated CT global noise"}]},"valueQuantity":{"value":65,"unit":"[hnsf'U]","system":"http://unitsofmeasure.org","code":"[hnsf'U]"}},{"code":{"coding":[{"system":"http://loinc.org","code":"96913-9","display":"Calculated CT size-adjusted dose"}]},"valueQuantity":{"value":585,"unit":"mGy.cm","system":"http://unitsofmeasure.org","code":"mGy.cm"}}]},"request":{"method":"PUT","url":"Observation/7afdba67-0138-4007-a792-00ca5a7801e8"}},{"resource":{"resourceType":"MeasureReport","id":"8d0877fd-b562-4d1e-ae7c-7ca7d5af9773","meta":{"profile":["http://hl7.org/fhir/us/cqfmeasures/StructureDefinition/test-case-cqfm"]},"contained":[{"resourceType":"Parameters","id":"8fc4a4bc-c11d-4e58-8a8b-33c603917b7d-parameters","parameter":[{"name":"subject","valueString":"a9545a75-1461-4bf0-a105-d60ba84772a5"}]}],"extension":[{"url":"http://hl7.org/fhir/StructureDefinition/cqf-inputParameters","valueReference":{"reference":"#8fc4a4bc-c11d-4e58-8a8b-33c603917b7d-parameters"}},{"url":"http://hl7.org/fhir/us/cqfmeasures/StructureDefinition/cqfm-testCaseDescription","valueMarkdown":"Patient has 2 valid scans, 1 has good results and the other has high noise"}],"modifierExtension":[{"url":"http://hl7.org/fhir/us/cqfmeasures/StructureDefinition/cqfm-isTestCase","valueBoolean":true}],"status":"complete","type":"individual","measure":"https://madie.cms.gov/Measure/CMS1056CTClinicalFHIR","period":{"start":"2026-01-01","end":"2026-12-31"},"group":[{"id":"Group_1","population":[{"id":"InitialPopulation_1","code":{"coding":[{"system":"http://terminology.hl7.org/CodeSystem/measure-population","code":"initial-population","display":"Initial Population"}]},"count":1},{"id":"Denominator_1","code":{"coding":[{"system":"http://terminology.hl7.org/CodeSystem/measure-population","code":"denominator","display":"Denominator"}]},"count":1},{"id":"DenominatorExclusion_1","code":{"coding":[{"system":"http://terminology.hl7.org/CodeSystem/measure-population","code":"denominator-exclusion","display":"Denominator Exclusion"}]},"count":0},{"id":"Numerator_1","code":{"coding":[{"system":"http://terminology.hl7.org/CodeSystem/measure-population","code":"numerator","display":"Numerator"}]},"count":1}],"measureScore":{"value":1.0}}],"evaluatedResource":[{"reference":"Patient/a9545a75-1461-4bf0-a105-d60ba84772a5"},{"reference":"Observation/7afdba67-0138-4007-a792-00ca5a7801e8"},{"reference":"Observation/c0fb6289-7c0e-4285-baef-dfa7dc87e26e"}]},"request":{"method":"PUT","url":"MeasureReport/8d0877fd-b562-4d1e-ae7c-7ca7d5af9773"}},{"resource":{"resourceType":"Measure","id":"CMS1056CTClinicalFHIR","meta":{"profile":["http://hl7.org/fhir/uv/crmi/StructureDefinition/crmi-shareablemeasure","http://hl7.org/fhir/us/cqfmeasures/StructureDefinition/computable-measure-cqfm","http://hl7.org/fhir/us/cqfmeasures/StructureDefinition/publishable-measure-cqfm","http://hl7.org/fhir/us/cqfmeasures/StructureDefinition/executable-measure-cqfm","http://hl7.org/fhir/us/cqfmeasures/StructureDefinition/cql-measure-cqfm","http://hl7.org/fhir/us/cqfmeasures/StructureDefinition/elm-measure-cqfm","http://hl7.org/fhir/us/cqfmeasures/StructureDefinition/proportion-measure-cqfm"]},"contained":[{"resourceType":"Library","id":"effective-data-requirements","extension":[{"url":"http://hl7.org/fhir/us/cqfmeasures/StructureDefinition/cqfm-directReferenceCode","valueCoding":{"system":"http://snomed.info/sct","code":"248153007","display":"Male (finding)"}},{"url":"http://hl7.org/fhir/us/cqfmeasures/StructureDefinition/cqfm-directReferenceCode","valueCoding":{"system":"http://snomed.info/sct","code":"248152002","display":"Female (finding)"}},{"url":"http://hl7.org/fhir/us/cqfmeasures/StructureDefinition/cqfm-directReferenceCode","valueCoding":{"system":"http://loinc.org","code":"96914-7","display":"CT dose and image quality category"}},{"url":"http://hl7.org/fhir/us/cqfmeasures/StructureDefinition/cqfm-directReferenceCode","valueCoding":{"system":"http://loinc.org","code":"96912-1","display":"Calculated CT global noise"}},{"url":"http://hl7.org/fhir/us/cqfmeasures/StructureDefinition/cqfm-directReferenceCode","valueCoding":{"system":"http://loinc.org","code":"96913-9","display":"Calculated CT size-adjusted dose"}},{"url":"http://hl7.org/fhir/us/cqfmeasures/StructureDefinition/cqfm-directReferenceCode","valueCoding":{"system":"http://loinc.org","code":"LA31752-1","display":"Abdomen and Pelvis Low Dose"}},{"url":"http://hl7.org/fhir/us/cqfmeasures/StructureDefinition/cqfm-directReferenceCode","valueCoding":{"system":"http://loinc.org","code":"LA31753-9","display":"Abdomen and Pelvis Routine Dose"}},{"url":"http://hl7.org/fhir/us/cqfmeasures/StructureDefinition/cqfm-directReferenceCode","valueCoding":{"system":"http://loinc.org","code":"LA31754-7","display":"Abdomen and Pelvis High Dose"}},{"url":"http://hl7.org/fhir/us/cqfmeasures/StructureDefinition/cqfm-directReferenceCode","valueCoding":{"system":"http://loinc.org","code":"LA31755-4","display":"Cardiac Low Dose"}},{"url":"http://hl7.org/fhir/us/cqfmeasures/StructureDefinition/cqfm-directReferenceCode","valueCoding":{"system":"http://loinc.org","code":"LA31756-2","display":"Cardiac Routine Dose"}},{"url":"http://hl7.org/fhir/us/cqfmeasures/StructureDefinition/cqfm-directReferenceCode","valueCoding":{"system":"http://loinc.org","code":"LA31758-8","display":"Chest Low Dose"}},{"url":"http://hl7.org/fhir/us/cqfmeasures/StructureDefinition/cqfm-directReferenceCode","valueCoding":{"system":"http://loinc.org","code":"LA31759-6","display":"Chest Routine Dose"}},{"url":"http://hl7.org/fhir/us/cqfmeasures/StructureDefinition/cqfm-directReferenceCode","valueCoding":{"system":"http://loinc.org","code":"LA31761-2","display":"Cardiac High Dose or Chest High Dose"}},{"url":"http://hl7.org/fhir/us/cqfmeasures/StructureDefinition/cqfm-directReferenceCode","valueCoding":{"system":"http://loinc.org","code":"LA31762-0","display":"Head Low Dose"}},{"url":"http://hl7.org/fhir/us/cqfmeasures/StructureDefinition/cqfm-directReferenceCode","valueCoding":{"system":"http://loinc.org","code":"LA31763-8","display":"Head Routine Dose"}},{"url":"http://hl7.org/fhir/us/cqfmeasures/StructureDefinition/cqfm-directReferenceCode","valueCoding":{"system":"http://loinc.org","code":"LA31764-6","display":"Head High Dose"}},{"url":"http://hl7.org/fhir/us/cqfmeasures/StructureDefinition/cqfm-directReferenceCode","valueCoding":{"system":"http://loinc.org","code":"LA31765-3","display":"Extremity"}},{"url":"http://hl7.org/fhir/us/cqfmeasures/StructureDefinition/cqfm-directReferenceCode","valueCoding":{"system":"http://loinc.org","code":"LA31766-1","display":"Neck or Cervical Spine"}},{"url":"http://hl7.org/fhir/us/cqfmeasures/StructureDefinition/cqfm-directReferenceCode","valueCoding":{"system":"http://loinc.org","code":"LA31767-9","display":"Thoracic or Lumbar Spine"}},{"url":"http://hl7.org/fhir/us/cqfmeasures/StructureDefinition/cqfm-directReferenceCode","valueCoding":{"system":"http://loinc.org","code":"LA31768-7","display":"Simultaneous Chest and Abdomen and Pelvis"}},{"url":"http://hl7.org/fhir/us/cqfmeasures/StructureDefinition/cqfm-directReferenceCode","valueCoding":{"system":"http://loinc.org","code":"LA31851-1","display":"Simultaneous Thoracic and Lumbar Spine"}},{"url":"http://hl7.org/fhir/us/cqfmeasures/StructureDefinition/cqfm-directReferenceCode","valueCoding":{"system":"http://loinc.org","code":"LA31769-5","display":"Simultaneous Head and Neck Routine Dose"}},{"url":"http://hl7.org/fhir/us/cqfmeasures/StructureDefinition/cqfm-directReferenceCode","valueCoding":{"system":"http://loinc.org","code":"LA31770-3","display":"Simultaneous Head and Neck High Dose"}},{"url":"http://hl7.org/fhir/us/cqfmeasures/StructureDefinition/cqfm-directReferenceCode","valueCoding":{"system":"http://loinc.org","code":"LA31771-1","display":"Full Body"}},{"url":"http://hl7.org/fhir/us/cqfmeasures/StructureDefinition/cqfm-logicDefinition","extension":[{"url":"libraryName","valueString":"SupplementalDataElements"},{"url":"name","valueString":"SDE Sex"},{"url":"statement","valueString":"define \"SDE Sex\":\n  case\n    when Patient.sex = '248153007' then \"Male (finding)\"\n    when Patient.sex = '248152002' then \"Female (finding)\"\n    else null\n  end"},{"url":"displaySequence","valueInteger":0}]},{"url":"http://hl7.org/fhir/us/cqfmeasures/StructureDefinition/cqfm-logicDefinition","extension":[{"url":"libraryName","valueString":"CMS1056CTClinicalFHIR"},{"url":"name","valueString":"SDE Sex"},{"url":"statement","valueString":"define \"SDE Sex\":\n  SDE.\"SDE Sex\""},{"url":"displaySequence","valueInteger":1}]},{"url":"http://hl7.org/fhir/us/cqfmeasures/StructureDefinition/cqfm-logicDefinition","extension":[{"url":"libraryName","valueString":"CMS1056CTClinicalFHIR"},{"url":"name","valueString":"Patients with Qualifying CTScan"},{"url":"statement","valueString":"define \"Patients with Qualifying CTScan\":\n  [LaboratoryResultObservation: \"CT dose and image quality category\"] CTScanResult\n    where QICoreCommon.ToInterval ( CTScanResult.effective ) ends during day of \"Measurement Period\"\n      and ( AgeInYearsAt(start of \"Measurement Period\") >= 18 )"},{"url":"displaySequence","valueInteger":2}]},{"url":"http://hl7.org/fhir/us/cqfmeasures/StructureDefinition/cqfm-logicDefinition","extension":[{"url":"libraryName","valueString":"CMS1056CTClinicalFHIR"},{"url":"name","valueString":"Patients with Qualifying CTScan with Values"},{"url":"statement","valueString":"define \"Patients with Qualifying CTScan with Values\":\n  \"Patients with Qualifying CTScan\" CTScan\n    where AlaraCommon.\"Global Noise Value\" ( CTScan ) is not null\n      and AlaraCommon.\"Size Adjusted Value\" ( CTScan ) is not null\n      and CTScan.value is not null"},{"url":"displaySequence","valueInteger":3}]},{"url":"http://hl7.org/fhir/us/cqfmeasures/StructureDefinition/cqfm-logicDefinition","extension":[{"url":"libraryName","valueString":"CMS1056CTClinicalFHIR"},{"url":"name","valueString":"Numerator"},{"url":"statement","valueString":"define \"Numerator\":\n  exists ( \"Patients with Qualifying CTScan with Values\" CTScan\n      where AlaraCommon.\"CT Scan Qualifies\" ( CTScan )\n  )"},{"url":"displaySequence","valueInteger":4}]},{"url":"http://hl7.org/fhir/us/cqfmeasures/StructureDefinition/cqfm-logicDefinition","extension":[{"url":"libraryName","valueString":"CMS1056CTClinicalFHIR"},{"url":"name","valueString":"Denominator"},{"url":"statement","valueString":"define \"Denominator\":\n  exists ( \"Patients with Qualifying CTScan with Values\" )"},{"url":"displaySequence","valueInteger":5}]},{"url":"http://hl7.org/fhir/us/cqfmeasures/StructureDefinition/cqfm-logicDefinition","extension":[{"url":"libraryName","valueString":"SupplementalDataElements"},{"url":"name","valueString":"SDE Payer"},{"url":"statement","valueString":"define \"SDE Payer\":\n  [Coverage: type in \"Payer Type\"] Payer\n    return {\n      code: Payer.type,\n      period: Payer.period\n    }"},{"url":"displaySequence","valueInteger":6}]},{"url":"http://hl7.org/fhir/us/cqfmeasures/StructureDefinition/cqfm-logicDefinition","extension":[{"url":"libraryName","valueString":"CMS1056CTClinicalFHIR"},{"url":"name","valueString":"SDE Payer"},{"url":"statement","valueString":"define \"SDE Payer\":\n  SDE.\"SDE Payer\""},{"url":"displaySequence","valueInteger":7}]},{"url":"http://hl7.org/fhir/us/cqfmeasures/StructureDefinition/cqfm-logicDefinition","extension":[{"url":"libraryName","valueString":"CMS1056CTClinicalFHIR"},{"url":"name","valueString":"Initial Population"},{"url":"statement","valueString":"define \"Initial Population\":\n  exists ( \"Patients with Qualifying CTScan\" )"},{"url":"displaySequence","valueInteger":8}]},{"url":"http://hl7.org/fhir/us/cqfmeasures/StructureDefinition/cqfm-logicDefinition","extension":[{"url":"libraryName","valueString":"SupplementalDataElements"},{"url":"name","valueString":"SDE Ethnicity"},{"url":"statement","valueString":"define \"SDE Ethnicity\":\n  Patient.ethnicity E\n    return Tuple {\n      codes: { E.ombCategory } union E.detailed,\n      display: E.text\n    }"},{"url":"displaySequence","valueInteger":9}]},{"url":"http://hl7.org/fhir/us/cqfmeasures/StructureDefinition/cqfm-logicDefinition","extension":[{"url":"libraryName","valueString":"CMS1056CTClinicalFHIR"},{"url":"name","valueString":"SDE Ethnicity"},{"url":"statement","valueString":"define \"SDE Ethnicity\":\n  SDE.\"SDE Ethnicity\""},{"url":"displaySequence","valueInteger":10}]},{"url":"http://hl7.org/fhir/us/cqfmeasures/StructureDefinition/cqfm-logicDefinition","extension":[{"url":"libraryName","valueString":"CMS1056CTClinicalFHIR"},{"url":"name","valueString":"Denominator Exclusion"},{"url":"statement","valueString":"define \"Denominator Exclusion\":\n  exists ( \"Patients with Qualifying CTScan with Values\" CTScan\n      where ( CTScan.value as Concept ).codes contains \"Full Body\"\n  )"},{"url":"displaySequence","valueInteger":11}]},{"url":"http://hl7.org/fhir/us/cqfmeasures/StructureDefinition/cqfm-logicDefinition","extension":[{"url":"libraryName","valueString":"SupplementalDataElements"},{"url":"name","valueString":"SDE Race"},{"url":"statement","valueString":"define \"SDE Race\":\n  Patient.race R\n    return Tuple {\n      codes: R.ombCategory union R.detailed,\n      display: R.text\n    }"},{"url":"displaySequence","valueInteger":12}]},{"url":"http://hl7.org/fhir/us/cqfmeasures/StructureDefinition/cqfm-logicDefinition","extension":[{"url":"libraryName","valueString":"CMS1056CTClinicalFHIR"},{"url":"name","valueString":"SDE Race"},{"url":"statement","valueString":"define \"SDE Race\":\n  SDE.\"SDE Race\""},{"url":"displaySequence","valueInteger":13}]},{"url":"http://hl7.org/fhir/us/cqfmeasures/StructureDefinition/cqfm-logicDefinition","extension":[{"url":"libraryName","valueString":"FHIRHelpers"},{"url":"name","valueString":"ToString"},{"url":"statement","valueString":"define function ToString(value uri): value.value"},{"url":"displaySequence","valueInteger":14}]},{"url":"http://hl7.org/fhir/us/cqfmeasures/StructureDefinition/cqfm-logicDefinition","extension":[{"url":"libraryName","valueString":"AlaraCommonFunctions"},{"url":"name","valueString":"Global Noise Value"},{"url":"statement","valueString":"define function \"Global Noise Value\"(Obs LaboratoryResultObservation ):\n  singleton from ( Obs.component C\n      where C.code ~ \"Calculated CT global noise\"\n        and ( C.value as Quantity ).unit = '[hnsf\\'U]'\n      return (C.value as Quantity).value\n  )"},{"url":"displaySequence","valueInteger":15}]},{"url":"http://hl7.org/fhir/us/cqfmeasures/StructureDefinition/cqfm-logicDefinition","extension":[{"url":"libraryName","valueString":"AlaraCommonFunctions"},{"url":"name","valueString":"Size Adjusted Value"},{"url":"statement","valueString":"define function \"Size Adjusted Value\"(Obs LaboratoryResultObservation ):\n  singleton from ( Obs.component C\n      where C.code ~ \"Calculated CT size-adjusted dose\"\n        and ( C.value as Quantity ).unit = 'mGy.cm'\n      return (C.value as Quantity).value\n  )"},{"url":"displaySequence","valueInteger":16}]},{"url":"http://hl7.org/fhir/us/cqfmeasures/StructureDefinition/cqfm-logicDefinition","extension":[{"url":"libraryName","valueString":"AlaraCommonFunctions"},{"url":"name","valueString":"CT Scan Qualifies"},{"url":"statement","valueString":"define function \"CT Scan Qualifies\"(Obs LaboratoryResultObservation ):\n  \"Qualifies\"(Obs, \"Abdomen and Pelvis Low Dose\", 64, 598)\n    or \"Qualifies\"(Obs, \"Abdomen and Pelvis Routine Dose\", 29, 644)\n    or \"Qualifies\"(Obs, \"Abdomen and Pelvis High Dose\", 29, 1260)\n    or \"Qualifies\"(Obs, \"Cardiac Low Dose\", 55, 93)\n    or \"Qualifies\"(Obs, \"Cardiac Routine Dose\", 32, 576)\n    or \"Qualifies\"(Obs, \"Chest Low Dose\", 55, 377)\n    or \"Qualifies\"(Obs, \"Chest Routine Dose\", 49, 377)\n    or \"Qualifies\"(Obs, \"Cardiac High Dose or Chest High Dose\", 49, 1282)\n    or \"Qualifies\"(Obs, \"Head Low Dose\", 115, 582)\n    or \"Qualifies\"(Obs, \"Head Routine Dose\", 115, 1025)\n    or \"Qualifies\"(Obs, \"Head High Dose\", 115, 1832)\n    or \"Qualifies\"(Obs, \"Extremity\", 73, 320)\n    or \"Qualifies\"(Obs, \"Neck or Cervical Spine\", 25, 1260)\n    or \"Qualifies\"(Obs, \"Thoracic or Lumbar Spine\", 25, 1260)\n    or \"Qualifies\"(Obs, \"Simultaneous Chest and Abdomen and Pelvis\", 29, 1637)\n    or \"Qualifies\"(Obs, \"Simultaneous Thoracic and Lumbar Spine\", 25, 2520)\n    or \"Qualifies\"(Obs, \"Simultaneous Head and Neck Routine Dose\", 25, 2285)\n    or \"Qualifies\"(Obs, \"Simultaneous Head and Neck High Dose\", 25, 3092)"},{"url":"displaySequence","valueInteger":17}]},{"url":"http://hl7.org/fhir/us/cqfmeasures/StructureDefinition/cqfm-logicDefinition","extension":[{"url":"libraryName","valueString":"AlaraCommonFunctions"},{"url":"name","valueString":"Qualifies"},{"url":"statement","valueString":"define function \"Qualifies\"(Obs LaboratoryResultObservation, code System.Code, noiseThreshold Decimal, sizeDoseThreshold Decimal ):\n  (Obs.value as Concept).codes contains code\n    and ( \"Global Noise Value\"(Obs)>= noiseThreshold\n        or \"Size Adjusted Value\"(Obs)>= sizeDoseThreshold\n    )"},{"url":"displaySequence","valueInteger":18}]},{"url":"http://hl7.org/fhir/us/cqfmeasures/StructureDefinition/cqfm-logicDefinition","extension":[{"url":"libraryName","valueString":"FHIRHelpers"},{"url":"name","valueString":"ToInterval"},{"url":"statement","valueString":"/*\n@description: Converts the given [Period](https://hl7.org/fhir/datatypes.html#Period)\nvalue to a CQL DateTime Interval\n@comment: If the start value of the given period is unspecified, the starting\nboundary of the resulting interval will be open (meaning the start of the interval\nis unknown, as opposed to interpreted as the beginning of time).\n*/\ndefine function ToInterval(period FHIR.Period):\n    if period is null then\n        null\n    else\n        if period.\"start\" is null then\n            Interval(period.\"start\".value, period.\"end\".value]\n        else\n            Interval[period.\"start\".value, period.\"end\".value]"},{"url":"displaySequence","valueInteger":19}]},{"url":"http://hl7.org/fhir/us/cqfmeasures/StructureDefinition/cqfm-logicDefinition","extension":[{"url":"libraryName","valueString":"FHIRHelpers"},{"url":"name","valueString":"ToCode"},{"url":"statement","valueString":"/*\n@description: Converts the given FHIR [Coding](https://hl7.org/fhir/datatypes.html#Coding) value to a CQL Code.\n*/\ndefine function ToCode(coding FHIR.Coding):\n    if coding is null then\n        null\n    else\n        System.Code {\n          code: coding.code.value,\n          system: coding.system.value,\n          version: coding.version.value,\n          display: coding.display.value\n        }"},{"url":"displaySequence","valueInteger":20}]}],"name":"EffectiveDataRequirements","status":"active","type":{"coding":[{"system":"http://terminology.hl7.org/CodeSystem/library-type","code":"module-definition"}]},"relatedArtifact":[{"type":"depends-on","display":"Library SDE","resource":"Library/SupplementalDataElements|5.1.000"},{"type":"depends-on","display":"Library FHIRHelpers","resource":"Library/FHIRHelpers|4.4.000"},{"type":"depends-on","display":"Library QICoreCommon","resource":"Library/QICoreCommon|4.0.000"},{"type":"depends-on","display":"Library FHIRHelpers","resource":"Library/FHIRHelpers|4.4.000"},{"type":"depends-on","display":"Library AlaraCommon","resource":"Library/AlaraCommonFunctions|1.6.000"},{"type":"depends-on","display":"Library FHIRHelpers","resource":"Library/FHIRHelpers|4.4.000"},{"type":"depends-on","display":"Code system SNOMEDCT","resource":"http://snomed.info/sct"},{"type":"depends-on","display":"Code system LOINC","resource":"http://loinc.org"},{"type":"depends-on","display":"Code system LOINC","resource":"http://loinc.org"},{"type":"depends-on","display":"Value set Payer Type","resource":"http://cts.nlm.nih.gov/fhir/ValueSet/2.16.840.1.114222.4.11.3591"}],"parameter":[{"name":"Measurement Period","use":"in","min":0,"max":"1","type":"Period"},{"name":"SDE Sex","use":"out","min":0,"max":"1","type":"Coding"},{"name":"Numerator","use":"out","min":0,"max":"1","type":"boolean"},{"name":"Denominator","use":"out","min":0,"max":"1","type":"boolean"},{"name":"SDE Payer","use":"out","min":0,"max":"*","type":"Resource"},{"name":"Initial Population","use":"out","min":0,"max":"1","type":"boolean"},{"name":"SDE Ethnicity","use":"out","min":0,"max":"1","type":"Resource"},{"name":"Denominator Exclusion","use":"out","min":0,"max":"1","type":"boolean"},{"name":"SDE Race","use":"out","min":0,"max":"1","type":"Resource"}],"dataRequirement":[{"type":"Patient","profile":["http://hl7.org/fhir/us/qicore/StructureDefinition/qicore-patient"]},{"type":"Patient","profile":["http://hl7.org/fhir/us/qicore/StructureDefinition/qicore-patient"],"mustSupport":["url","value.value"]},{"type":"Patient","profile":["http://hl7.org/fhir/us/qicore/StructureDefinition/qicore-patient"],"mustSupport":["url","value.value"]},{"type":"Patient","profile":["http://hl7.org/fhir/us/qicore/StructureDefinition/qicore-patient"]},{"type":"Observation","profile":["http://hl7.org/fhir/us/qicore/StructureDefinition/qicore-observation-lab"],"mustSupport":["code","effective"],"codeFilter":[{"path":"code","code":[{"system":"http://loinc.org","code":"96914-7","display":"CT dose and image quality category"}]}]},{"type":"Observation","profile":["http://hl7.org/fhir/us/qicore/StructureDefinition/qicore-observation-lab"],"mustSupport":["code","effective","value"],"codeFilter":[{"path":"code","code":[{"system":"http://loinc.org","code":"96914-7","display":"CT dose and image quality category"}]}]},{"type":"Observation","profile":["http://hl7.org/fhir/us/qicore/StructureDefinition/qicore-observation-lab"],"mustSupport":["code","effective","value"],"codeFilter":[{"path":"code","code":[{"system":"http://loinc.org","code":"96914-7","display":"CT dose and image quality category"}]}]},{"type":"Coverage","profile":["http://hl7.org/fhir/us/qicore/StructureDefinition/qicore-coverage"],"mustSupport":["type","period"],"codeFilter":[{"path":"type","valueSet":"http://cts.nlm.nih.gov/fhir/ValueSet/2.16.840.1.114222.4.11.3591"}]},{"type":"Patient","profile":["http://hl7.org/fhir/us/qicore/StructureDefinition/qicore-patient"],"mustSupport":["url"]},{"type":"Patient","profile":["http://hl7.org/fhir/us/qicore/StructureDefinition/qicore-patient"],"mustSupport":["url","extension"]},{"type":"Observation","profile":["http://hl7.org/fhir/us/qicore/StructureDefinition/qicore-observation-lab"],"mustSupport":["code","effective","value","value.codes"],"codeFilter":[{"path":"code","code":[{"system":"http://loinc.org","code":"96914-7","display":"CT dose and image quality category"}]}]},{"type":"Patient","profile":["http://hl7.org/fhir/us/qicore/StructureDefinition/qicore-patient"],"mustSupport":["url"]},{"type":"Patient","profile":["http://hl7.org/fhir/us/qicore/StructureDefinition/qicore-patient"],"mustSupport":["url","extension"]},{"type":"Observation","profile":["http://hl7.org/fhir/us/qicore/StructureDefinition/qicore-observation-lab"],"mustSupport":["code","effective","value"],"codeFilter":[{"path":"code","code":[{"system":"http://loinc.org","code":"96914-7","display":"CT dose and image quality category"}]}]},{"type":"Coverage","profile":["http://hl7.org/fhir/us/qicore/StructureDefinition/qicore-coverage"],"mustSupport":["type","period"],"codeFilter":[{"path":"type","valueSet":"http://cts.nlm.nih.gov/fhir/ValueSet/2.16.840.1.114222.4.11.3591"}]},{"type":"Observation","profile":["http://hl7.org/fhir/us/qicore/StructureDefinition/qicore-observation-lab"],"mustSupport":["code","effective"],"codeFilter":[{"path":"code","code":[{"system":"http://loinc.org","code":"96914-7","display":"CT dose and image quality category"}]}]},{"type":"Patient","profile":["http://hl7.org/fhir/us/qicore/StructureDefinition/qicore-patient"],"mustSupport":["url","extension"]},{"type":"Patient","profile":["http://hl7.org/fhir/us/qicore/StructureDefinition/qicore-patient"],"mustSupport":["url","extension"]}]}],"extension":[{"id":"supplementalDataGuidance","url":"http://hl7.org/fhir/us/cqfmeasures/StructureDefinition/cqfm-supplementalDataGuidance","extension":[{"url":"guidance","valueString":"For every patient evaluated by this measure also identify payer, race, ethnicity and sex; SDE Ethnicity \n SDE Payer \n SDE Race \n SDE Sex \n "},{"url":"usage","valueCodeableConcept":{"coding":[{"system":"http://terminology.hl7.org/CodeSystem/measure-data-usage","code":"supplemental-data","display":"Supplemental Data"}],"text":"Supplemental Data Guidance"}}]},{"url":"http://hl7.org/fhir/uv/crmi/StructureDefinition/crmi-effectiveDataRequirements","valueCanonical":"#effective-data-requirements"},{"id":"effective-data-requirements","url":"http://hl7.org/fhir/us/cqfmeasures/StructureDefinition/cqfm-effectiveDataRequirements","valueReference":{"reference":"#effective-data-requirements"}},{"url":"http://hl7.org/fhir/uv/crmi/StructureDefinition/crmi-softwaresystem","valueReference":{"reference":"Device/cqf-tooling"}}],"url":"https://madie.cms.gov/Measure/CMS1056CTClinicalFHIR","identifier":[{"use":"usual","type":{"coding":[{"system":"http://terminology.hl7.org/CodeSystem/artifact-identifier-type","code":"short-name","display":"Short Name"}]},"system":"https://madie.cms.gov/measure/shortName","value":"CMS1056FHIR"},{"use":"official","type":{"coding":[{"system":"http://terminology.hl7.org/CodeSystem/artifact-identifier-type","code":"version-independent","display":"Version Independent"}]},"system":"urn:ietf:rfc:3986","value":"urn:uuid:e5321c7f-e853-42af-a65a-1957b15bab23"},{"use":"official","type":{"coding":[{"system":"http://terminology.hl7.org/CodeSystem/artifact-identifier-type","code":"version-specific","display":"Version Specific"}]},"system":"urn:ietf:rfc:3986","value":"urn:uuid:7243a2f7-c1d4-4914-9842-148a2f2c11fd"},{"use":"official","type":{"coding":[{"system":"http://terminology.hl7.org/CodeSystem/artifact-identifier-type","code":"endorser","display":"Endorser"}]},"system":"https://madie.cms.gov/measure/cbeId","value":"3662e","assigner":{"display":"CMS Consensus Based Entity"}},{"use":"official","type":{"coding":[{"system":"http://terminology.hl7.org/CodeSystem/artifact-identifier-type","code":"publisher","display":"Publisher"}]},"system":"https://madie.cms.gov/measure/cmsId","value":"1056FHIR","assigner":{"display":"CMS"}}],"version":"0.6.000","name":"CMS1056CTClinicalFHIR","title":"Excessive Radiation Dose or Inadequate Image Quality for Diagnostic Computed Tomography in Adults - Clinician FHIR","status":"active","experimental":false,"date":"2025-06-26T19:30:10+00:00","publisher":"Alara Imaging, Inc.","contact":[{"telecom":[{"system":"url","value":"https://www.alaracare.com/our-commitment"}]}],"description":"This measure provides a standardized method for monitoring the performance of diagnostic CT to discourage unnecessarily high radiation doses, a risk factor for cancer, while preserving image quality. It is expressed as a % of patients with CT exams that are out-of-range based on having either excessive radiation dose or inadequate image quality relative to evidence-based thresholds based on the clinical indication for the exam. All diagnostic CT exams of specified anatomic sites performed in inpatient, outpatient and ambulatory care settings are eligible. This measure is not telehealth eligible. This eCQM requires the use of additional software to access primary data elements stored within radiology electronic health records and translate them into data elements that can be ingested by this eCQM. Additional details are included in the Guidance field.","usage":"This is an inverse measure; as such the higher the value the worse the performance. \n\nThe level of aggregation for this eCQM is the clinician. Parallel eCQMs report CT exams performed in inpatient and outpatient hospital settings and is aggregated on the facility level. A single CT exam may be simultaneously measured in both the MIPS and one of the hospital reporting programs (inpatient or outpatient); however, a single exam cannot be measured in both the inpatient and outpatient hospital quality reporting programs. \n\nTRANSLATION SOFTWARE\n\nAs a radiology measure, the measure derives standardized data elements from structured fields within both the electronic health record (EHR) and the radiology electronic clinical data systems, including the Radiology Information System (RIS) and the Picture Archiving and Communication System (PACS). Primary imaging data including Radiation Dose Structured Reports and image pixel data are stored in the PACS in Digital Imaging and Communications in Medicine (DICOM) format, a universally adopted standard for medical imaging information. Because of limitations in their specifications and format, eCQMs cannot currently access and consume elements from these radiology sources in their original DICOM formats. Thus, translation software was developed to transform primary data into a format that the eCQM can consume. This eCQM requires the use of additional software (translation software) to access the primary data elements that are required for measure computation and translate them into data elements that can be ingested by this eCQM. The purpose of this translation software is to access and link these primary data elements with minimal site burden, assess each CT exam for eligibility based on initial population criteria, and generate the three data elements mapped to a clinical terminology for eCQM consumption: CT Dose and Image Quality Category, Calculated CT Size-Adjusted Dose, and Calculated CT Global Noise. The free translation software necessary to use this eCQM is written and maintained by Alara Imaging, Inc. However, any software vendor capable of calculating and reporting this eCQM in accordance with the measures specifications, including combining radiology data with electronic health system data, and transforming radiology data into a format compatible with eCQM reporting, may report this measure on behalf of hospitals and clinicians.\n\nCODING\n\nThe translation software will create three variables required for measure computation including the CT Dose and Image Quality Category (LOINC(R) Code 96914-7), the Calculated CT Global Noise (LOINC(R) Code 96912-1) and the Calculated CT Size-Adjusted Dose (LOINC(R) Code 96913-9). These variables are defined in the Definition field above. These transformed data elements can be stored in the EHR. \n\nMEASURE CALCULATION\n\nThe measure will evaluate each included CT exam for a patient based on allowable thresholds that are specified by the CT Dose and Image Quality Category. An exam is considered out of range if either the Calculated CT Global Noise or the Calculated CT Size-Adjusted Dose is out of range for the CT Dose and Image Quality Category. Exams will be evaluated against their corresponding threshold, shown below with the following format: [Category shorthand (=CT Dose and Image Quality Category), threshold for the Calculated CT Global Noise in Hounsfield units, threshold for the Calculated CT Size-Adjusted Dose in dose length product].\n\n[LA31752-1 (=Abdomen and Pelvis, Low Dose), 64, 598];\n[LA31753-9 (=Abdomen and Pelvis, Routine Dose), 29, 644];\n[LA31754-7 (=Abdomen and Pelvis, High Dose), 29, 1260];\n[LA31755-4 (=Cardiac Low Dose), 55, 93];\n[LA31756-2 (=Cardiac Routine Dose), 32, 576];\n[LA31758-8 (=Chest Low Dose), 55, 377];\n[LA31759-6 (=Chest Routine Dose), 49, 377];\n[LA31761-2 (=Chest High Dose or Cardiac High Dose), 49, 1282];\n[LA31762-0 (=Head Low Dose), 115, 582];\n[LA31763-8 (=Head Routine Dose), 115, 1025];\n[LA31764-6 (=Head High Dose), 115, 1832];\n[LA31765-3 (=Upper or Lower Extremity), 73, 320];\n[LA31766-1 (=Neck or Cervical Spine), 25, 1260];\n[LA31767-9 (=Thoracic or Lumbar Spine), 25, 1260];\n[LA31768-7 (=Combined Chest, Abdomen and Pelvis), 29, 1637];\n[LA31851-1 (=Combined Thoracic and Lumbar Spine), 25, 2520];\n[LA31769-5 (=Combined Head and Neck, Routine Dose), 25, 2285];\n[LA31770-3 (=Combined Head and Neck, High Dose), 25, 3092]\n\nEXCLUSIONS\n\nCT scans with missing patient age or missing CT Dose and Image Quality Category (LOINC(R) 96914-7) are excluded from the initial population. \nCT scans with a missing Calculated Global Noise value or a missing Calculated CT Size-Adjusted Dose value are not included in the denominator.\nPatients that have one or more CT scans assigned a CT Dose and Image Quality Category (LOINC(R) 96914-7) value using the LOINC(R) answer list (LL5824-9) of full body (LA31771-1) during the measurement period are excluded from the denominator. These exams are included in the initial population because they have a non-missing CT Dose and Image Quality Category but are then removed as a Denominator Exclusion in the eCQM because the value is full body, which reflects CT exams that cannot be categorized by anatomical area or by clinical indication, either because they are simultaneous exams of multiple body regions outside of four commonly encountered multiple region groupings, or because there is insufficient data for their classification based on the given diagnosis and procedure codes.\n\nThis eCQM is a patient-based measure and should report the percentage of patients that had an eligible CT scan performed during the measurement period that had either a size adjusted dose or noise level out of range.\n\nTelehealth encounters are not eligible for this measure because the measure does not contain telehealth-eligible encounter codes.\n\nThis FHIR-based measure has been derived from the QDM-based measure: CMS1056v2. Please refer to the HL7 QI-Core Implementation Guide (https://hl7.org/fhir/us/qicore/STU6/) for more information on QI-Core and mapping recommendations from QDM to QI-Core STU 6 (https://hl7.org/fhir/us/qicore/STU6/qdm-to-qicore.html).","copyright":"The translation software was written and will be updated and maintained by Alara Imaging and will be accessible by creating a secure account through Alaras website.\n\nCopyright (C) 2024 Alara Imaging, Inc. All Rights Reserved. \n\nThis Measure and related data specifications are owned by Alara Imaging, Inc. Alara Imaging, Inc. is not responsible for any use of the Measure. Alara Imaging, Inc. makes no representations, warranties, or endorsement about the quality of any organization or physician that uses or reports performance measures and Alara Imaging, Inc. has no liability to anyone who relies on such measures or specifications.\n\nThe Measure can be reproduced and distributed, without modification, for noncommercial purposes (e.g., use by healthcare providers in connection with their practices). Commercial use is defined as the sale, licensing, or distribution of the Measure for commercial gain, or incorporation of the Measure into a product or service that is sold, licensed or distributed for commercial gain. All commercial uses or requests for modification must be approved by Alara Imaging, Inc. and are subject to a license at the discretion of Alara Imaging, Inc.","effectivePeriod":{"start":"2026-01-01","end":"2026-12-31"},"author":[{"name":"University of California San Francisco","telecom":[{"system":"url","value":"https://www.ucsf.edu/"}]}],"library":["https://madie.cms.gov/Library/CMS1056CTClinicalFHIR"],"disclaimer":"The Measure is not a clinical guideline, does not establish a standard of medical care, and has not been tested for all potential applications.\n\nAlara Imaging, Inc., the University of California San Francisco, and its members and users shall not be responsible for any use or accuracy of the Measure or any code contained within the Measure. THE MEASURE AND SPECIFICATIONS ARE PROVIDED AS IS WITHOUT WARRANTY OF ANY KIND.\n\nLimited proprietary coding is contained in the Measure specifications for convenience. Users of the proprietary code sets should obtain all necessary licenses from the owners of these code sets. Alara Imaging, Inc. disclaims all liability for use or accuracy of any third-party code contained in the specifications. CPT(R) contained in the Measure specifications is copyright 2004-2023 American Medical Association. LOINC(R) is copyright 2004-2023 Regenstrief Institute, Inc. SNOMED Clinical Terms(R) (SNOMED CT[R]) is copyright 2004-2023 International Health Terminology Standards Development Organisation. ICD-10 is copyright 2023 World Health Organization. All Rights Reserved. Due to technical limitations, registered trademarks are indicated by (R) or [R].","rationale":"Diagnostic imaging using CT occurs in more than a third of acute care hospitalizations in the U.S. (Vance, 2013) and greater than 90 million scans are performed annually in the U.S. (IMV, 2019). There is marked observed variation in the radiation doses used to perform these exams (Smith-Bindman, 2019). The inconsistency in how CT exams are performed represents a significant, unnecessary, and modifiable iatrogenic health risk, as there is extensive epidemiological and biological evidence that suggests exposure to radiation in the same range as that routinely delivered by CT increases a person's risk of developing cancer (Board of Radiation Effects, 2006; Grant, 2017; Hong, 2019; Sakata, 2019; Sadakane, 2019, references a and b; Bernier, 2019; Meulepas, 2019; Brenner, 2020; Berrington de Gonzalez, 2020; Sugiyama, 2020; Hauptmann, 2020; Huang, 2020; Abalo, 2021; Cao, 2022; Hauptmann, 2023). It is estimated that 2% (37,000) of the 1.8 million cancers diagnosed annually in the U.S. are caused by CT exams (Berrington de Gonzalez, 2009; NCI Cancer Statistics, 2020).\n\nThe measure focuses on reducing radiation dose in CT, an intermediate outcome directly and proportionally related to cancer prevention. As radiation dose is known to be directly related and proportional to future cancer risk (Board of Radiation Effects, 2006; Berrington de Gonzalez, 2009), any reduction in radiation exposure would be expected to lead to a proportional reduction in cancers. Research suggests that when healthcare organizations and clinicians are provided with a summary of their CT radiation doses, their subsequent doses can be reduced without changing the usefulness of these tests (Smith-Bindman, 2020).\n\nOn the basis of the current estimated number of CT scans performed annually in the U.S. (IMV, 2019), distribution in scan types and observed doses (Demb, 2017; Smith-Bindman, 2019), modeling of the cancer risk associated with CT at different ages of exposure (Berrington de Gonzalez, 2009), and costs of cancer care (Dieguez, 2017; Mariotto, 2011), an estimated 13,982 cancers could be prevented among Medicare beneficiaries annually, resulting in $1.86 billion to $5.21 billion annual cost savings. These cost calculations were supported by more recent data on cancer survivorship and costs, which yielded an estimated $3.04 billion dollars in annual costs savings to Medicare. (Mariotto, 2020; NCI Office of Cancer Survivorship, 2022).","clinicalRecommendationStatement":"The measure aligns with numerous evidence- and consensus-based clinical guidelines asking radiologists to track, optimize, and lower CT radiation doses, guidelines that have been written by the American College of Radiology (Kanal, 2017), cardiovascular imaging societies (Hirshfeld, 2018, references a, b and c noted below), Image Gently Alliance, an initiative begun by the American College of Radiology, the Radiological Society of North America, American Society of Radiologic Technologists, the American Association of Physicists in Medicine, and the Society of Pediatric Radiology, which dozens of U.S. and international organizations have joined as recently as 2020 (Image Gently Alliance, 2022), and the US Food and Drug Administration (FDA, 2019).\n\nThis measure has been strongly supported by a Technical Expert Panel (TEP) comprising a diverse group of clinicians, patient advocates, and leaders of medical specialty societies, payers, and healthcare safety and accrediting organizations, all of whom were engaged through every stage of measure conceptualization, development, and testing. In assessing the face validity of the measure, 100% of TEP members agreed radiation dose and global noise are relevant metrics of CT quality, that size is an appropriate method of risk adjustment, and that performance on this measure of radiation dose and image quality as specified is a representation of quality.","guidance":"This is an inverse measure; as such the higher the value the worse the performance. \n\nThe level of aggregation for this eCQM is the clinician. Parallel eCQMs report CT exams performed in inpatient and outpatient hospital settings and is aggregated on the facility level. A single CT exam may be simultaneously measured in both the MIPS and one of the hospital reporting programs (inpatient or outpatient); however, a single exam cannot be measured in both the inpatient and outpatient hospital quality reporting programs. \n\nTRANSLATION SOFTWARE\n\nAs a radiology measure, the measure derives standardized data elements from structured fields within both the electronic health record (EHR) and the radiology electronic clinical data systems, including the Radiology Information System (RIS) and the Picture Archiving and Communication System (PACS). Primary imaging data including Radiation Dose Structured Reports and image pixel data are stored in the PACS in Digital Imaging and Communications in Medicine (DICOM) format, a universally adopted standard for medical imaging information. Because of limitations in their specifications and format, eCQMs cannot currently access and consume elements from these radiology sources in their original DICOM formats. Thus, translation software was developed to transform primary data into a format that the eCQM can consume. This eCQM requires the use of additional software (translation software) to access the primary data elements that are required for measure computation and translate them into data elements that can be ingested by this eCQM. The purpose of this translation software is to access and link these primary data elements with minimal site burden, assess each CT exam for eligibility based on initial population criteria, and generate the three data elements mapped to a clinical terminology for eCQM consumption: CT Dose and Image Quality Category, Calculated CT Size-Adjusted Dose, and Calculated CT Global Noise. The free translation software necessary to use this eCQM is written and maintained by Alara Imaging, Inc. However, any software vendor capable of calculating and reporting this eCQM in accordance with the measures specifications, including combining radiology data with electronic health system data, and transforming radiology data into a format compatible with eCQM reporting, may report this measure on behalf of hospitals and clinicians.\n\nCODING\n\nThe translation software will create three variables required for measure computation including the CT Dose and Image Quality Category (LOINC(R) Code 96914-7), the Calculated CT Global Noise (LOINC(R) Code 96912-1) and the Calculated CT Size-Adjusted Dose (LOINC(R) Code 96913-9). These variables are defined in the Definition field above. These transformed data elements can be stored in the EHR. \n\nMEASURE CALCULATION\n\nThe measure will evaluate each included CT exam for a patient based on allowable thresholds that are specified by the CT Dose and Image Quality Category. An exam is considered out of range if either the Calculated CT Global Noise or the Calculated CT Size-Adjusted Dose is out of range for the CT Dose and Image Quality Category. Exams will be evaluated against their corresponding threshold, shown below with the following format: [Category shorthand (=CT Dose and Image Quality Category), threshold for the Calculated CT Global Noise in Hounsfield units, threshold for the Calculated CT Size-Adjusted Dose in dose length product].\n\n[LA31752-1 (=Abdomen and Pelvis, Low Dose), 64, 598];\n[LA31753-9 (=Abdomen and Pelvis, Routine Dose), 29, 644];\n[LA31754-7 (=Abdomen and Pelvis, High Dose), 29, 1260];\n[LA31755-4 (=Cardiac Low Dose), 55, 93];\n[LA31756-2 (=Cardiac Routine Dose), 32, 576];\n[LA31758-8 (=Chest Low Dose), 55, 377];\n[LA31759-6 (=Chest Routine Dose), 49, 377];\n[LA31761-2 (=Chest High Dose or Cardiac High Dose), 49, 1282];\n[LA31762-0 (=Head Low Dose), 115, 582];\n[LA31763-8 (=Head Routine Dose), 115, 1025];\n[LA31764-6 (=Head High Dose), 115, 1832];\n[LA31765-3 (=Upper or Lower Extremity), 73, 320];\n[LA31766-1 (=Neck or Cervical Spine), 25, 1260];\n[LA31767-9 (=Thoracic or Lumbar Spine), 25, 1260];\n[LA31768-7 (=Combined Chest, Abdomen and Pelvis), 29, 1637];\n[LA31851-1 (=Combined Thoracic and Lumbar Spine), 25, 2520];\n[LA31769-5 (=Combined Head and Neck, Routine Dose), 25, 2285];\n[LA31770-3 (=Combined Head and Neck, High Dose), 25, 3092]\n\nEXCLUSIONS\n\nCT scans with missing patient age or missing CT Dose and Image Quality Category (LOINC(R) 96914-7) are excluded from the initial population. \nCT scans with a missing Calculated Global Noise value or a missing Calculated CT Size-Adjusted Dose value are not included in the denominator.\nPatients that have one or more CT scans assigned a CT Dose and Image Quality Category (LOINC(R) 96914-7) value using the LOINC(R) answer list (LL5824-9) of full body (LA31771-1) during the measurement period are excluded from the denominator. These exams are included in the initial population because they have a non-missing CT Dose and Image Quality Category but are then removed as a Denominator Exclusion in the eCQM because the value is full body, which reflects CT exams that cannot be categorized by anatomical area or by clinical indication, either because they are simultaneous exams of multiple body regions outside of four commonly encountered multiple region groupings, or because there is insufficient data for their classification based on the given diagnosis and procedure codes.\n\nThis eCQM is a patient-based measure and should report the percentage of patients that had an eligible CT scan performed during the measurement period that had either a size adjusted dose or noise level out of range.\n\nTelehealth encounters are not eligible for this measure because the measure does not contain telehealth-eligible encounter codes.\n\nThis FHIR-based measure has been derived from the QDM-based measure: CMS1056v2. Please refer to the HL7 QI-Core Implementation Guide (https://hl7.org/fhir/us/qicore/STU6/) for more information on QI-Core and mapping recommendations from QDM to QI-Core STU 6 (https://hl7.org/fhir/us/qicore/STU6/qdm-to-qicore.html).","group":[{"id":"Group_1","extension":[{"url":"http://hl7.org/fhir/us/cqfmeasures/StructureDefinition/cqfm-scoring","valueCodeableConcept":{"coding":[{"system":"http://terminology.hl7.org/CodeSystem/measure-scoring","code":"proportion","display":"Proportion"}]}},{"url":"http://hl7.org/fhir/us/cqfmeasures/StructureDefinition/cqfm-populationBasis","valueCode":"boolean"},{"url":"http://hl7.org/fhir/us/cqfmeasures/StructureDefinition/cqfm-type","valueCodeableConcept":{"coding":[{"system":"http://terminology.hl7.org/CodeSystem/measure-type","code":"outcome","display":"Outcome"}]}},{"url":"http://hl7.org/fhir/us/cqfmeasures/StructureDefinition/cqfm-rateAggregation","valueCode":"None"},{"url":"http://hl7.org/fhir/us/cqfmeasures/StructureDefinition/cqfm-improvementNotation","valueCodeableConcept":{"coding":[{"system":"http://terminology.hl7.org/CodeSystem/measure-improvement-notation","code":"increase","display":"Increased score indicates improvement"}]}}],"population":[{"id":"InitialPopulation_1","code":{"coding":[{"system":"http://terminology.hl7.org/CodeSystem/measure-population","code":"initial-population","display":"Initial Population"}]},"description":"Patients aged 18 years and older at the start of the measurement period that have an eligible CT scan with Dose and Image Quality Category performed during the measurement period","criteria":{"language":"text/cql-identifier","expression":"Initial Population"}},{"id":"Denominator_1","code":{"coding":[{"system":"http://terminology.hl7.org/CodeSystem/measure-population","code":"denominator","display":"Denominator"}]},"description":"Equals Initial population where an eligible CT scan has a Calculated Global Noise value and a Calculated CT Size-Adjusted Dose value","criteria":{"language":"text/cql-identifier","expression":"Denominator"}},{"id":"DenominatorExclusion_1","code":{"coding":[{"system":"http://terminology.hl7.org/CodeSystem/measure-population","code":"denominator-exclusion","display":"Denominator Exclusion"}]},"description":"Patients with one or more eligible CT scans that has a CT Dose and Image Quality Category = full body","criteria":{"language":"text/cql-identifier","expression":"Denominator Exclusion"}},{"id":"Numerator_1","code":{"coding":[{"system":"http://terminology.hl7.org/CodeSystem/measure-population","code":"numerator","display":"Numerator"}]},"description":"Patients with one or more eligible CT scans with calculated CT Size-Adjusted Dose greater than or equal to a threshold specific to the CT Dose and Image Quality Category, or Calculated CT Global Noise value greater than or equal to a threshold specific to the CT Dose and Image Quality Category","criteria":{"language":"text/cql-identifier","expression":"Numerator"}}]}],"supplementalData":[{"id":"sde-ethnicity","usage":[{"coding":[{"system":"http://terminology.hl7.org/CodeSystem/measure-data-usage","code":"supplemental-data"}]}],"description":"SDE Ethnicity","criteria":{"language":"text/cql-identifier","expression":"SDE Ethnicity"}},{"id":"sde-payer","usage":[{"coding":[{"system":"http://terminology.hl7.org/CodeSystem/measure-data-usage","code":"supplemental-data"}]}],"description":"SDE Payer","criteria":{"language":"text/cql-identifier","expression":"SDE Payer"}},{"id":"sde-race","usage":[{"coding":[{"system":"http://terminology.hl7.org/CodeSystem/measure-data-usage","code":"supplemental-data"}]}],"description":"SDE Race","criteria":{"language":"text/cql-identifier","expression":"SDE Race"}},{"id":"sde-sex","usage":[{"coding":[{"system":"http://terminology.hl7.org/CodeSystem/measure-data-usage","code":"supplemental-data"}]}],"description":"SDE Sex","criteria":{"language":"text/cql-identifier","expression":"SDE Sex"}}]},"request":{"method":"PUT","url":"Measure/CMS1056CTClinicalFHIR"}}]}