{
  "resourceType": "Bundle",
  "id": "60f82c2f98086b570510e2af",
  "type": "transaction",
  "entry": [ {
    "fullUrl": "https://madie.cms.gov/Patient/1216ea1e-aee7-4c75-8e5d-7f712f6ba3f7",
    "resource": {
      "resourceType": "Patient",
      "id": "1216ea1e-aee7-4c75-8e5d-7f712f6ba3f7",
      "meta": {
        "profile": [ "http://hl7.org/fhir/us/qicore/StructureDefinition/qicore-patient" ]
      },
      "text": {
        "status": "generated",
        "div": "<div xmlns=\"http://www.w3.org/1999/xhtml\"><div class=\"hapiHeaderText\">INRDayOfObs_ED&lt;1hrDayOfObs&gt;1hrDayAftBFEnc2DayAft <b>DENEXCEPFAIL </b></div><table class=\"hapiPropertyTable\"><tbody><tr><td>Identifier</td><td>5057820c9f8087deb980c05c7852ae7b709590e0ebc4e0ba69449350b68c9e65</td></tr><tr><td>Date of birth</td><td><span>26 September 1975</span></td></tr></tbody></table></div>"
      },
      "extension": [ {
        "url": "http://hl7.org/fhir/us/core/StructureDefinition/us-core-race",
        "extension": [ {
          "url": "ombCategory",
          "valueCoding": {
            "system": "urn:oid:2.16.840.1.113883.6.238",
            "code": "2054-5",
            "display": "Black or African American",
            "userSelected": true
          }
        }, {
          "url": "text",
          "valueString": "Black or African American"
        } ]
      }, {
        "url": "http://hl7.org/fhir/us/core/StructureDefinition/us-core-ethnicity",
        "extension": [ {
          "url": "ombCategory",
          "valueCoding": {
            "system": "urn:oid:2.16.840.1.113883.6.238",
            "code": "2186-5",
            "display": "Not Hispanic or Latino",
            "userSelected": true
          }
        }, {
          "url": "text",
          "valueString": "Not Hispanic or Latino"
        } ]
      } ],
      "identifier": [ {
        "type": {
          "coding": [ {
            "system": "http://terminology.hl7.org/CodeSystem/v2-0203",
            "code": "MR"
          } ]
        },
        "system": "https://bonnie-fhir.healthit.gov/",
        "value": "60f82c2f98086b570510e2af"
      } ],
      "active": true,
      "name": [ {
        "use": "usual",
        "family": "DENEXCEPFail",
        "given": [ "INRDayOfObs_ED<1hrDayOfObs>1hrDayAftBFEnc2DayAft" ]
      } ],
      "gender": "female",
      "birthDate": "1976-09-26"
    },
    "request": {
      "method": "PUT",
      "url": "Patient/1216ea1e-aee7-4c75-8e5d-7f712f6ba3f7"
    }
  }, {
    "fullUrl": "https://madie.cms.gov/Encounter/addff304-a2e0-4422-a992-eaa163c84f81",
    "resource": {
      "resourceType": "Encounter",
      "id": "addff304-a2e0-4422-a992-eaa163c84f81",
      "meta": {
        "profile": [ "http://hl7.org/fhir/us/qicore/StructureDefinition/qicore-encounter" ]
      },
      "status": "finished",
      "class": {
        "system": "http://terminology.hl7.org/CodeSystem/v3-ActCode",
        "code": "EMER",
        "display": "emergency"
      },
      "type": [ {
        "coding": [ {
          "system": "http://snomed.info/sct",
          "code": "4525004"
        } ]
      } ],
      "subject": {
        "reference": "Patient/1216ea1e-aee7-4c75-8e5d-7f712f6ba3f7"
      },
      "period": {
        "start": "2026-10-10T06:15:00Z",
        "end": "2026-10-10T23:59:00.000+00:00"
      },
      "length": {
        "value": 0,
        "unit": "days"
      }
    },
    "request": {
      "method": "PUT",
      "url": "Encounter/addff304-a2e0-4422-a992-eaa163c84f81"
    }
  }, {
    "fullUrl": "https://madie.cms.gov/Encounter/9479d453-3a4a-4120-95c2-6c3b0758bf39",
    "resource": {
      "resourceType": "Encounter",
      "id": "9479d453-3a4a-4120-95c2-6c3b0758bf39",
      "meta": {
        "profile": [ "http://hl7.org/fhir/us/qicore/StructureDefinition/qicore-encounter" ]
      },
      "status": "finished",
      "class": {
        "system": "http://terminology.hl7.org/CodeSystem/v3-ActCode",
        "code": "OBSENC",
        "display": "observation encounter"
      },
      "type": [ {
        "coding": [ {
          "system": "http://snomed.info/sct",
          "code": "448851000124103"
        } ]
      } ],
      "subject": {
        "reference": "Patient/1216ea1e-aee7-4c75-8e5d-7f712f6ba3f7"
      },
      "period": {
        "start": "2026-10-11T01:00:00Z",
        "end": "2026-10-11T23:59:00.000+00:00"
      },
      "length": {
        "value": 0,
        "unit": "days"
      }
    },
    "request": {
      "method": "PUT",
      "url": "Encounter/9479d453-3a4a-4120-95c2-6c3b0758bf39"
    }
  }, {
    "fullUrl": "https://madie.cms.gov/Encounter/44666632-86e4-44d4-ae74-b950ea154b4f",
    "resource": {
      "resourceType": "Encounter",
      "id": "44666632-86e4-44d4-ae74-b950ea154b4f",
      "meta": {
        "profile": [ "http://hl7.org/fhir/us/qicore/StructureDefinition/qicore-encounter" ]
      },
      "status": "finished",
      "class": {
        "system": "http://terminology.hl7.org/CodeSystem/v3-ActCode",
        "code": "IMP",
        "display": "inpatient encounter",
        "userSelected": true
      },
      "type": [ {
        "coding": [ {
          "system": "http://snomed.info/sct",
          "code": "32485007"
        } ]
      } ],
      "subject": {
        "reference": "Patient/1216ea1e-aee7-4c75-8e5d-7f712f6ba3f7"
      },
      "period": {
        "start": "2026-10-12T01:00:00Z",
        "end": "2026-10-15T11:30:00.000+00:00"
      },
      "length": {
        "value": 3,
        "unit": "days"
      },
      "reasonReference": [ {
        "reference": "Condition/42b5b956-277f-44a6-b729-25983e1f0874"
      } ]
    },
    "request": {
      "method": "PUT",
      "url": "Encounter/44666632-86e4-44d4-ae74-b950ea154b4f"
    }
  }, {
    "fullUrl": "https://madie.cms.gov/claim/5ca62962b8484628b8de1ec5",
    "resource": {
      "resourceType": "Claim",
      "id": "5ca62962b8484628b8de1ec5",
      "meta": {
        "profile": [ "http://hl7.org/fhir/us/qicore/StructureDefinition/qicore-claim" ]
      },
      "status": "active",
      "type": {
        "coding": [ {
          "system": "http://terminology.hl7.org/CodeSystem/claim-type",
          "code": "institutional"
        } ]
      },
      "use": "claim",
      "patient": {
        "reference": "Patient/d170a0a8-b5ad-4303-b6df-e304dd5f92ad"
      },
      "created": "2026-12-01",
      "provider": {
        "reference": "Practitioner/practitioner-123456"
      },
      "priority": {
        "coding": [ {
          "system": "http://terminology.hl7.org/CodeSystem/processpriority",
          "code": "normal"
        } ]
      },
      "diagnosis": [ {
        "sequence": 1,
        "diagnosisCodeableConcept": {
          "coding": [ {
            "system": "http://hl7.org/fhir/sid/icd-10-cm",
            "code": "I63.00"
          } ]
        },
        "type": [ {
          "coding": [ {
            "system": "http://terminology.hl7.org/CodeSystem/ex-diagnosistype",
            "code": "principal"
          } ]
        } ]
      } ],
      "insurance": [ {
        "sequence": 1,
        "focal": true,
        "coverage": {
          "reference": "Coverage/5fa041661c76ba66d9959367"
        }
      } ],
      "item": [ {
        "sequence": 1,
        "diagnosisSequence": [ 1 ],
        "productOrService": {
          "coding": [ {
            "system": "http://terminology.hl7.org/CodeSystem/ex-USCLS",
            "code": "99555"
          } ]
        },
        "encounter": [ {
          "reference": "Encounter/44666632-86e4-44d4-ae74-b950ea154b4f"
        } ]
      } ]
    },
    "request": {
      "method": "PUT",
      "url": "Claim/5ca62962b8484628b8de1ec5"
    }
  }, {
    "fullUrl": "https://madie.cms.gov/Observation/0c601253-bc22-463e-b74d-6b3776baaec7",
    "resource": {
      "resourceType": "Observation",
      "id": "0c601253-bc22-463e-b74d-6b3776baaec7",
      "meta": {
        "profile": [ "http://hl7.org/fhir/us/qicore/StructureDefinition/qicore-observation-lab" ]
      },
      "status": "final",
      "category": [ {
        "coding": [ {
          "system": "http://terminology.hl7.org/CodeSystem/observation-category",
          "code": "laboratory",
          "display": "Laboratory"
        } ]
      } ],
      "code": {
        "coding": [ {
          "system": "http://loinc.org",
          "code": "34714-6"
        } ]
      },
      "subject": {
        "reference": "Patient/1216ea1e-aee7-4c75-8e5d-7f712f6ba3f7"
      },
      "effectiveDateTime": "2026-10-11T08:00:00Z",
      "issued": "2026-10-11T01:00:00.000+00:00",
      "valueQuantity": {
        "value": 3.6
      }
    },
    "request": {
      "method": "PUT",
      "url": "Observation/0c601253-bc22-463e-b74d-6b3776baaec7"
    }
  }, {
    "fullUrl": "https://madie.cms.gov/Coverage/fcd91501-d50b-4cf3-873f-9d7e99521646",
    "resource": {
      "resourceType": "Coverage",
      "id": "fcd91501-d50b-4cf3-873f-9d7e99521646",
      "status": "active",
      "subscriberId": "523435",
      "beneficiary": {
        "reference": "Patient/1216ea1e-aee7-4c75-8e5d-7f712f6ba3f7"
      },
      "relationship": {
        "coding": [ {
          "system": "http://terminology.hl7.org/CodeSystem/subscriber-relationship",
          "code": "self"
        } ]
      },
      "period": {
        "start": "1976-09-26T08:00:00Z"
      },
      "payor": [ {
        "reference": "Organization/68f17907-3a2c-457d-8d4f-4190620ab916"
      } ]
    },
    "request": {
      "method": "PUT",
      "url": "Coverage/fcd91501-d50b-4cf3-873f-9d7e99521646"
    }
  }, {
    "fullUrl": "https://madie.cms.gov/Condition/42b5b956-277f-44a6-b729-25983e1f0874",
    "resource": {
      "resourceType": "Condition",
      "id": "42b5b956-277f-44a6-b729-25983e1f0874",
      "meta": {
        "profile": [ "http://hl7.org/fhir/us/qicore/StructureDefinition/qicore-condition-encounter-diagnosis" ]
      },
      "clinicalStatus": {
        "coding": [ {
          "system": "http://terminology.hl7.org/CodeSystem/condition-clinical",
          "code": "active"
        } ]
      },
      "verificationStatus": {
        "coding": [ {
          "system": "http://terminology.hl7.org/CodeSystem/condition-ver-status",
          "code": "confirmed"
        } ]
      },
      "category": [ {
        "coding": [ {
          "system": "http://terminology.hl7.org/CodeSystem/condition-category",
          "code": "encounter-diagnosis",
          "display": "Encounter Diagnosis"
        } ]
      } ],
      "code": {
        "coding": [ {
          "system": "http://snomed.info/sct",
          "version": "2020-09",
          "code": "111297002",
          "display": "Nonparalytic stroke (disorder)",
          "userSelected": true
        } ]
      },
      "subject": {
        "reference": "Patient/1216ea1e-aee7-4c75-8e5d-7f712f6ba3f7"
      },
      "recordedDate": "2026-07-28T08:00:00Z"
    },
    "request": {
      "method": "PUT",
      "url": "Condition/42b5b956-277f-44a6-b729-25983e1f0874"
    }
  }, {
    "fullUrl": "https://madie.cms.gov/Organization/68f17907-3a2c-457d-8d4f-4190620ab916",
    "resource": {
      "resourceType": "Organization",
      "id": "68f17907-3a2c-457d-8d4f-4190620ab916",
      "meta": {
        "profile": [ "http://hl7.org/fhir/us/qicore/StructureDefinition/qicore-organization" ]
      },
      "identifier": [ {
        "use": "temp",
        "system": "urn:oid:2.16.840.1.113883.4.4",
        "value": "21-3259825"
      } ],
      "active": true,
      "type": [ {
        "coding": [ {
          "system": "http://terminology.hl7.org/CodeSystem/organization-type",
          "code": "pay",
          "display": "Payer"
        } ]
      } ],
      "name": "Blue Cross Blue Shield of Texas",
      "telecom": [ {
        "system": "phone",
        "value": "(+1) 972-766-6900"
      } ],
      "address": [ {
        "use": "billing",
        "type": "postal",
        "line": [ "P.O. Box 660044" ],
        "city": "Dallas",
        "state": "TX",
        "postalCode": "75266-0044",
        "country": "USA"
      } ]
    },
    "request": {
      "method": "PUT",
      "url": "Organization/68f17907-3a2c-457d-8d4f-4190620ab916"
    }
  }, {
    "fullUrl": "https://madie.cms.gov/MeasureReport/e1b822ef-6424-4927-8fde-77dd973c6244",
    "resource": {
      "resourceType": "MeasureReport",
      "id": "e1b822ef-6424-4927-8fde-77dd973c6244",
      "meta": {
        "profile": [ "http://hl7.org/fhir/us/cqfmeasures/StructureDefinition/test-case-cqfm" ]
      },
      "contained": [ {
        "resourceType": "Parameters",
        "id": "dda58ccf-4036-4f9c-9681-1d9f250395f8-parameters",
        "parameter": [ {
          "name": "subject",
          "valueString": "1216ea1e-aee7-4c75-8e5d-7f712f6ba3f7"
        } ]
      } ],
      "extension": [ {
        "url": "http://hl7.org/fhir/StructureDefinition/cqf-inputParameters",
        "valueReference": {
          "reference": "#dda58ccf-4036-4f9c-9681-1d9f250395f8-parameters"
        }
      }, {
        "url": "http://hl7.org/fhir/us/cqfmeasures/StructureDefinition/cqfm-testCaseDescription",
        "valueMarkdown": "Patient receives INR day of Obs, ED ends 1 min before Obs start at midnight, Obs ends 61 min before IP start at midnight the next day. Testing Day of operator with HospitalizationWithObservation function.\n"
      } ],
      "modifierExtension": [ {
        "url": "http://hl7.org/fhir/us/cqfmeasures/StructureDefinition/cqfm-isTestCase",
        "valueBoolean": true
      } ],
      "status": "complete",
      "type": "individual",
      "measure": "https://madie.cms.gov/Measure/CMS72FHIRSTKAntithromboticDay2",
      "period": {
        "start": "2026-01-01",
        "end": "2026-12-31"
      },
      "group": [ {
        "id": "Group_1",
        "population": [ {
          "id": "InitialPopulation_1",
          "code": {
            "coding": [ {
              "system": "http://terminology.hl7.org/CodeSystem/measure-population",
              "code": "initial-population",
              "display": "Initial Population"
            } ]
          },
          "count": 1
        }, {
          "id": "Denominator_1",
          "code": {
            "coding": [ {
              "system": "http://terminology.hl7.org/CodeSystem/measure-population",
              "code": "denominator",
              "display": "Denominator"
            } ]
          },
          "count": 1
        }, {
          "id": "DenominatorExclusion_1",
          "code": {
            "coding": [ {
              "system": "http://terminology.hl7.org/CodeSystem/measure-population",
              "code": "denominator-exclusion",
              "display": "Denominator Exclusion"
            } ]
          },
          "count": 0
        }, {
          "id": "Numerator_1",
          "code": {
            "coding": [ {
              "system": "http://terminology.hl7.org/CodeSystem/measure-population",
              "code": "numerator",
              "display": "Numerator"
            } ]
          },
          "count": 0
        }, {
          "id": "DenominatorException_1",
          "code": {
            "coding": [ {
              "system": "http://terminology.hl7.org/CodeSystem/measure-population",
              "code": "denominator-exception",
              "display": "Denominator Exception"
            } ]
          },
          "count": 0
        } ],
        "measureScore": {
          "value": 0.0
        }
      } ],
      "evaluatedResource": [ {
        "reference": "Patient/1216ea1e-aee7-4c75-8e5d-7f712f6ba3f7"
      }, {
        "reference": "Encounter/addff304-a2e0-4422-a992-eaa163c84f81"
      }, {
        "reference": "Encounter/9479d453-3a4a-4120-95c2-6c3b0758bf39"
      }, {
        "reference": "Encounter/44666632-86e4-44d4-ae74-b950ea154b4f"
      }, {
        "reference": "Claim/5ca62962b8484628b8de1ec5"
      }, {
        "reference": "Observation/0c601253-bc22-463e-b74d-6b3776baaec7"
      }, {
        "reference": "Coverage/fcd91501-d50b-4cf3-873f-9d7e99521646"
      }, {
        "reference": "Condition/42b5b956-277f-44a6-b729-25983e1f0874"
      }, {
        "reference": "Organization/68f17907-3a2c-457d-8d4f-4190620ab916"
      } ]
    },
    "request": {
      "method": "PUT",
      "url": "MeasureReport/e1b822ef-6424-4927-8fde-77dd973c6244"
    }
  } ]
}