{
  "resourceType": "Bundle",
  "id": "630307ce0968f80122478820",
  "type": "transaction",
  "entry": [ {
    "fullUrl": "https://madie.cms.gov/Patient/8152f580-989d-4f81-9ff5-85688f8e4635",
    "resource": {
      "resourceType": "Patient",
      "id": "8152f580-989d-4f81-9ff5-85688f8e4635",
      "meta": {
        "profile": [ "http://hl7.org/fhir/us/qicore/StructureDefinition/qicore-patient" ]
      },
      "extension": [ {
        "url": "http://hl7.org/fhir/us/core/StructureDefinition/us-core-race",
        "extension": [ {
          "url": "ombCategory",
          "valueCoding": {
            "system": "urn:oid:2.16.840.1.113883.6.238",
            "code": "2106-3",
            "display": "White"
          }
        }, {
          "url": "text",
          "valueString": "White"
        } ]
      }, {
        "url": "http://hl7.org/fhir/us/core/StructureDefinition/us-core-ethnicity",
        "extension": [ {
          "url": "ombCategory",
          "valueCoding": {
            "system": "urn:oid:2.16.840.1.113883.6.238",
            "code": "2186-5",
            "display": "Not Hispanic or Latino"
          }
        }, {
          "url": "text",
          "valueString": "Not Hispanic or Latino"
        } ]
      } ],
      "identifier": [ {
        "type": {
          "coding": [ {
            "system": "http://terminology.hl7.org/CodeSystem/v2-0203",
            "code": "MR"
          } ]
        },
        "system": "https://bonnie-fhir.healthit.gov/",
        "value": "630307ce0968f80122478820"
      } ],
      "name": [ {
        "family": "NUMERPopStrat1Fail",
        "given": [ "FUAssessmentResultGreaterThan5" ]
      } ],
      "gender": "female",
      "birthDate": "2011-01-01"
    },
    "request": {
      "method": "PUT",
      "url": "Patient/8152f580-989d-4f81-9ff5-85688f8e4635"
    }
  }, {
    "fullUrl": "https://madie.cms.gov/Encounter/5bf170e5-a4a3-4173-a5e5-35250b07edd7",
    "resource": {
      "resourceType": "Encounter",
      "id": "5bf170e5-a4a3-4173-a5e5-35250b07edd7",
      "meta": {
        "profile": [ "http://hl7.org/fhir/us/qicore/StructureDefinition/qicore-encounter" ]
      },
      "status": "finished",
      "class": {
        "system": "http://terminology.hl7.org/CodeSystem/v3-ActCode",
        "code": "AMB",
        "display": "ambulatory"
      },
      "type": [ {
        "coding": [ {
          "system": "http://www.ama-assn.org/go/cpt",
          "version": "2024",
          "code": "90791"
        } ]
      } ],
      "subject": {
        "reference": "Patient/8152f580-989d-4f81-9ff5-85688f8e4635"
      },
      "period": {
        "start": "2025-02-25T14:30:00+00:00",
        "end": "2025-02-25T14:50:00+00:00"
      },
      "length": {
        "value": 0,
        "unit": "days"
      }
    },
    "request": {
      "method": "PUT",
      "url": "Encounter/5bf170e5-a4a3-4173-a5e5-35250b07edd7"
    }
  }, {
    "fullUrl": "https://madie.cms.gov/Observation/ea1af18e-ff8d-4126-9084-966ff8be277b",
    "resource": {
      "resourceType": "Observation",
      "id": "ea1af18e-ff8d-4126-9084-966ff8be277b",
      "meta": {
        "profile": [ "http://hl7.org/fhir/us/qicore/StructureDefinition/qicore-observation-screening-assessment" ]
      },
      "status": "final",
      "category": [ {
        "coding": [ {
          "system": "http://terminology.hl7.org/CodeSystem/observation-category",
          "code": "survey",
          "display": "Survey"
        } ]
      } ],
      "code": {
        "coding": [ {
          "system": "http://loinc.org",
          "version": "2.76",
          "code": "44261-6"
        } ]
      },
      "subject": {
        "reference": "Patient/8152f580-989d-4f81-9ff5-85688f8e4635"
      },
      "effectiveDateTime": "2025-02-25T14:35:00+00:00",
      "valueInteger": 20
    },
    "request": {
      "method": "PUT",
      "url": "Observation/ea1af18e-ff8d-4126-9084-966ff8be277b"
    }
  }, {
    "fullUrl": "https://madie.cms.gov/Observation/b657038a-6051-4875-9d03-f0f8adb80ba6",
    "resource": {
      "resourceType": "Observation",
      "id": "b657038a-6051-4875-9d03-f0f8adb80ba6",
      "meta": {
        "profile": [ "http://hl7.org/fhir/us/qicore/StructureDefinition/qicore-observation-screening-assessment" ]
      },
      "status": "final",
      "category": [ {
        "coding": [ {
          "system": "http://terminology.hl7.org/CodeSystem/observation-category",
          "code": "survey",
          "display": "Survey"
        } ]
      } ],
      "code": {
        "coding": [ {
          "system": "http://loinc.org",
          "version": "2.76",
          "code": "44261-6"
        } ]
      },
      "subject": {
        "reference": "Patient/8152f580-989d-4f81-9ff5-85688f8e4635"
      },
      "effectiveDateTime": "2026-02-19T14:30:00+00:00",
      "valueInteger": 7
    },
    "request": {
      "method": "PUT",
      "url": "Observation/b657038a-6051-4875-9d03-f0f8adb80ba6"
    }
  }, {
    "fullUrl": "https://madie.cms.gov/Condition/dced7f58-f934-4c20-b43b-2ce63eb2c31d",
    "resource": {
      "resourceType": "Condition",
      "id": "dced7f58-f934-4c20-b43b-2ce63eb2c31d",
      "meta": {
        "profile": [ "http://hl7.org/fhir/us/qicore/StructureDefinition/qicore-condition-problems-health-concerns" ]
      },
      "clinicalStatus": {
        "coding": [ {
          "system": "http://terminology.hl7.org/CodeSystem/condition-clinical",
          "code": "active",
          "display": "active"
        } ]
      },
      "verificationStatus": {
        "coding": [ {
          "system": "http://terminology.hl7.org/CodeSystem/condition-ver-status",
          "code": "confirmed"
        } ]
      },
      "category": [ {
        "coding": [ {
          "system": "http://terminology.hl7.org/CodeSystem/condition-category",
          "code": "problem-list-item",
          "display": "Problem List Item"
        } ]
      } ],
      "code": {
        "coding": [ {
          "system": "http://hl7.org/fhir/sid/icd-10-cm",
          "version": "2024",
          "code": "F32.9"
        } ]
      },
      "subject": {
        "reference": "Patient/8152f580-989d-4f81-9ff5-85688f8e4635"
      },
      "onsetDateTime": "2025-02-25T14:35:00+00:00"
    },
    "request": {
      "method": "PUT",
      "url": "Condition/dced7f58-f934-4c20-b43b-2ce63eb2c31d"
    }
  }, {
    "fullUrl": "https://madie.cms.gov/MeasureReport/73c32643-58bc-4992-9481-d7b2ecd32813",
    "resource": {
      "resourceType": "MeasureReport",
      "id": "73c32643-58bc-4992-9481-d7b2ecd32813",
      "meta": {
        "profile": [ "http://hl7.org/fhir/us/cqfmeasures/StructureDefinition/test-case-cqfm" ]
      },
      "contained": [ {
        "resourceType": "Parameters",
        "id": "2419f44e-ab19-4319-b733-ecfe526a88a6-parameters",
        "parameter": [ {
          "name": "subject",
          "valueString": "8152f580-989d-4f81-9ff5-85688f8e4635"
        } ]
      } ],
      "extension": [ {
        "url": "http://hl7.org/fhir/StructureDefinition/cqf-inputParameters",
        "valueReference": {
          "reference": "#2419f44e-ab19-4319-b733-ecfe526a88a6-parameters"
        }
      }, {
        "url": "http://hl7.org/fhir/us/cqfmeasures/StructureDefinition/cqfm-testCaseDescription",
        "valueMarkdown": "Patient is 15 years old and has a Major Depression diagnosis, an encounter with PHQ-9>9 during Denom ID period and a PHQ-9>5 during MAP. Patient is in denom for strat 1."
      } ],
      "modifierExtension": [ {
        "url": "http://hl7.org/fhir/us/cqfmeasures/StructureDefinition/cqfm-isTestCase",
        "valueBoolean": true
      } ],
      "status": "complete",
      "type": "individual",
      "measure": "https://madie.cms.gov/Measure/CMS159FHIRDepressionRemissionatTwelveMonths",
      "period": {
        "start": "2026-01-01",
        "end": "2026-12-31"
      },
      "group": [ {
        "id": "Group_1",
        "population": [ {
          "id": "InitialPopulation_1",
          "code": {
            "coding": [ {
              "system": "http://terminology.hl7.org/CodeSystem/measure-population",
              "code": "initial-population",
              "display": "Initial Population"
            } ]
          },
          "count": 1
        }, {
          "id": "Denominator_1",
          "code": {
            "coding": [ {
              "system": "http://terminology.hl7.org/CodeSystem/measure-population",
              "code": "denominator",
              "display": "Denominator"
            } ]
          },
          "count": 1
        }, {
          "id": "DenominatorExclusion_1",
          "code": {
            "coding": [ {
              "system": "http://terminology.hl7.org/CodeSystem/measure-population",
              "code": "denominator-exclusion",
              "display": "Denominator Exclusion"
            } ]
          },
          "count": 0
        }, {
          "id": "Numerator_1",
          "code": {
            "coding": [ {
              "system": "http://terminology.hl7.org/CodeSystem/measure-population",
              "code": "numerator",
              "display": "Numerator"
            } ]
          },
          "count": 0
        } ],
        "measureScore": {
          "value": 1.0
        }
      } ],
      "evaluatedResource": [ {
        "reference": "Patient/8152f580-989d-4f81-9ff5-85688f8e4635"
      }, {
        "reference": "Encounter/5bf170e5-a4a3-4173-a5e5-35250b07edd7"
      }, {
        "reference": "Observation/ea1af18e-ff8d-4126-9084-966ff8be277b"
      }, {
        "reference": "Observation/b657038a-6051-4875-9d03-f0f8adb80ba6"
      }, {
        "reference": "Condition/dced7f58-f934-4c20-b43b-2ce63eb2c31d"
      } ]
    },
    "request": {
      "method": "PUT",
      "url": "MeasureReport/73c32643-58bc-4992-9481-d7b2ecd32813"
    }
  } ]
}