{"resourceType":"Bundle","id":"CMS819FHIRHHORAE-bundle","type":"transaction","entry":[{"resource":{"resourceType":"Encounter","id":"c6bb07ef-9265-4243-977f-3377067c733c","meta":{"profile":["http://hl7.org/fhir/us/qicore/StructureDefinition/qicore-encounter"]},"status":"finished","class":{"system":"http://terminology.hl7.org/CodeSystem/v3-ActCode","code":"IMP","display":"inpatient encounter"},"type":[{"coding":[{"system":"http://snomed.info/sct","code":"183452005"}]}],"subject":{"reference":"Patient/11589117-d7b3-48d2-ac4e-b2dedd2dda37"},"period":{"start":"2025-04-08T09:00:00.000+00:00","end":"2025-04-10T08:15:00.000+00:00"}},"request":{"method":"PUT","url":"Encounter/c6bb07ef-9265-4243-977f-3377067c733c"}},{"resource":{"resourceType":"MedicationAdministration","id":"337ff755-def7-4909-beeb-2c2454fb43b7","meta":{"profile":["http://hl7.org/fhir/us/qicore/StructureDefinition/qicore-medicationadministration"]},"status":"completed","medicationCodeableConcept":{"coding":[{"system":"http://www.nlm.nih.gov/research/umls/rxnorm","code":"1010600","display":"Oxycodone Hydrochloride"}]},"subject":{"reference":"Patient/2adae583-4f70-4492-add5-c56cd38f5843"},"effectivePeriod":{"start":"2026-04-07T08:00:00.000+00:00","end":"2026-04-07T08:15:00.000+00:00"}},"request":{"method":"PUT","url":"MedicationAdministration/337ff755-def7-4909-beeb-2c2454fb43b7"}},{"resource":{"resourceType":"Patient","id":"bdd17c60-c755-4150-8137-fa3884903970","meta":{"profile":["http://hl7.org/fhir/us/qicore/StructureDefinition/qicore-patient"]},"extension":[{"url":"http://hl7.org/fhir/us/core/StructureDefinition/us-core-race","extension":[{"url":"ombCategory","valueCoding":{"system":"urn:oid:2.16.840.1.113883.6.238","code":"2106-3","display":"White"}},{"url":"text","valueString":"White"}]},{"url":"http://hl7.org/fhir/us/core/StructureDefinition/us-core-ethnicity","extension":[{"url":"ombCategory","valueCoding":{"system":"urn:oid:2.16.840.1.113883.6.238","code":"2135-2","display":"Hispanic or Latino"}},{"url":"text","valueString":"Hispanic or Latino"}]},{"url":"http://hl7.org/fhir/us/core/StructureDefinition/us-core-sex","valueCode":"248153007"}],"identifier":[{"system":"http://hospital.smarthealthit.org","value":"999999999"}],"name":[{"family":"Example","given":["Patient"]}],"gender":"female","birthDate":"1956-01-01"},"request":{"method":"PUT","url":"Patient/bdd17c60-c755-4150-8137-fa3884903970"}},{"resource":{"resourceType":"Measure","id":"CMS819FHIRHHORAE","meta":{"profile":["http://hl7.org/fhir/uv/crmi/StructureDefinition/crmi-shareablemeasure","http://hl7.org/fhir/us/cqfmeasures/StructureDefinition/computable-measure-cqfm","http://hl7.org/fhir/us/cqfmeasures/StructureDefinition/publishable-measure-cqfm","http://hl7.org/fhir/us/cqfmeasures/StructureDefinition/executable-measure-cqfm","http://hl7.org/fhir/us/cqfmeasures/StructureDefinition/cql-measure-cqfm","http://hl7.org/fhir/us/cqfmeasures/StructureDefinition/elm-measure-cqfm","http://hl7.org/fhir/us/cqfmeasures/StructureDefinition/proportion-measure-cqfm"]},"contained":[{"resourceType":"Library","id":"effective-data-requirements","extension":[{"url":"http://hl7.org/fhir/us/cqfmeasures/StructureDefinition/cqfm-directReferenceCode","valueCoding":{"system":"http://snomed.info/sct","code":"248153007","display":"Male (finding)"}},{"url":"http://hl7.org/fhir/us/cqfmeasures/StructureDefinition/cqfm-directReferenceCode","valueCoding":{"system":"http://snomed.info/sct","code":"248152002","display":"Female (finding)"}},{"url":"http://hl7.org/fhir/StructureDefinition/cqf-logicDefinition","extension":[{"url":"libraryName","valueString":"SupplementalDataElements"},{"url":"name","valueString":"SDE Sex"},{"url":"statement","valueString":"define \"SDE Sex\":   case     when Patient.sex = '248153007' then \"Male (finding)\"     when Patient.sex = '248152002' then \"Female (finding)\"     else null   end"},{"url":"displaySequence","valueInteger":0}]},{"url":"http://hl7.org/fhir/StructureDefinition/cqf-logicDefinition","extension":[{"url":"libraryName","valueString":"CMS819FHIRHHORAE"},{"url":"name","valueString":"SDE Sex"},{"url":"statement","valueString":"define \"SDE Sex\":   SDE.\"SDE Sex\""},{"url":"displaySequence","valueInteger":1}]},{"url":"http://hl7.org/fhir/StructureDefinition/cqf-logicDefinition","extension":[{"url":"libraryName","valueString":"CMS819FHIRHHORAE"},{"url":"name","valueString":"Non Enteral Opioid Antagonist Administration"},{"url":"statement","valueString":"define \"Non Enteral Opioid Antagonist Administration\":   [\"MedicationAdministration\": \"Opioid Antagonist\"] AntagonistGiven     where AntagonistGiven.status = 'completed'"},{"url":"displaySequence","valueInteger":2}]},{"url":"http://hl7.org/fhir/StructureDefinition/cqf-logicDefinition","extension":[{"url":"libraryName","valueString":"CMS819FHIRHHORAE"},{"url":"name","valueString":"Opioid Administration"},{"url":"statement","valueString":"define \"Opioid Administration\":   [\"MedicationAdministration\": \"Opioids, All\"] Opioids     where Opioids.status = 'completed'"},{"url":"displaySequence","valueInteger":3}]},{"url":"http://hl7.org/fhir/StructureDefinition/cqf-logicDefinition","extension":[{"url":"libraryName","valueString":"CMS819FHIRHHORAE"},{"url":"name","valueString":"Qualifying Encounter"},{"url":"statement","valueString":"define \"Qualifying Encounter\":   [\"Encounter\": \"Encounter Inpatient\"] InpatientEncounter     where AgeInYearsAt(date from start of InpatientEncounter.period) >= 18       and InpatientEncounter.period ends during day of \"Measurement Period\"       and InpatientEncounter.status = 'finished'"},{"url":"displaySequence","valueInteger":4}]},{"url":"http://hl7.org/fhir/StructureDefinition/cqf-logicDefinition","extension":[{"url":"libraryName","valueString":"CMS819FHIRHHORAE"},{"url":"name","valueString":"Encounter With Opioid Administration Outside Of Operating Room"},{"url":"statement","valueString":"define \"Encounter With Opioid Administration Outside Of Operating Room\":   \"Qualifying Encounter\" InpatientEncounter     with \"Opioid Administration\" OpioidGiven       such that OpioidGiven.effective.toInterval ( ) starts during InpatientEncounter.hospitalizationWithObservation ( )         and not exists ( InpatientEncounter.location EncounterLocation             where EncounterLocation.location.getLocation ( ).type in \"Operating Room Suite\"               and OpioidGiven.effective.toInterval ( ) starts during EncounterLocation.period         )"},{"url":"displaySequence","valueInteger":5}]},{"url":"http://hl7.org/fhir/StructureDefinition/cqf-logicDefinition","extension":[{"url":"libraryName","valueString":"CMS819FHIRHHORAE"},{"url":"name","valueString":"Initial Population"},{"url":"statement","valueString":"define \"Initial Population\":   \"Encounter With Opioid Administration Outside Of Operating Room\""},{"url":"displaySequence","valueInteger":6}]},{"url":"http://hl7.org/fhir/StructureDefinition/cqf-logicDefinition","extension":[{"url":"libraryName","valueString":"CMS819FHIRHHORAE"},{"url":"name","valueString":"Denominator"},{"url":"statement","valueString":"define \"Denominator\":   \"Initial Population\""},{"url":"displaySequence","valueInteger":7}]},{"url":"http://hl7.org/fhir/StructureDefinition/cqf-logicDefinition","extension":[{"url":"libraryName","valueString":"CMS819FHIRHHORAE"},{"url":"name","valueString":"Encounter With NonOperating Room Opioid And Antagonist Administration"},{"url":"statement","valueString":"define \"Encounter With NonOperating Room Opioid And Antagonist Administration\":   // Excludes opioid antagonist administered in operating room AND excludes opioids administered in operating room AND opioid is administered before opioid antagonist AND limits opioid antagonist to non-enteral routes//      from     \"Non Enteral Opioid Antagonist Administration\" NonEnteralOpioidAntagonistGiven,     \"Opioid Administration\" OpioidGiven,     \"Denominator\" InpatientHospitalization     where not exists ( InpatientHospitalization.location EncounterLocation         where EncounterLocation.location.getLocation ( ).type in \"Operating Room Suite\"           and NonEnteralOpioidAntagonistGiven.effective.toInterval ( ) starts during EncounterLocation.period     )       and ( NonEnteralOpioidAntagonistGiven.effective.toInterval ( ) starts during InpatientHospitalization.hospitalizationWithObservation ( )           and OpioidGiven.effective.toInterval ( ) starts during InpatientHospitalization.hospitalizationWithObservation ( )           and OpioidGiven.effective.toInterval ( ) ends 12 hours or less before start of NonEnteralOpioidAntagonistGiven.effective.toInterval ( )           and NonEnteralOpioidAntagonistGiven.dosage.route in \"Routes of Administration for Opioid Antagonists\"       )     return InpatientHospitalization"},{"url":"displaySequence","valueInteger":8}]},{"url":"http://hl7.org/fhir/StructureDefinition/cqf-logicDefinition","extension":[{"url":"libraryName","valueString":"CMS819FHIRHHORAE"},{"url":"name","valueString":"Numerator"},{"url":"statement","valueString":"define \"Numerator\":   \"Encounter With NonOperating Room Opioid And Antagonist Administration\""},{"url":"displaySequence","valueInteger":9}]},{"url":"http://hl7.org/fhir/StructureDefinition/cqf-logicDefinition","extension":[{"url":"libraryName","valueString":"SupplementalDataElements"},{"url":"name","valueString":"SDE Payer"},{"url":"statement","valueString":"define \"SDE Payer\":   [Coverage: type in \"Payer Type\"] Payer     return {       code: Payer.type,       period: Payer.period     }"},{"url":"displaySequence","valueInteger":10}]},{"url":"http://hl7.org/fhir/StructureDefinition/cqf-logicDefinition","extension":[{"url":"libraryName","valueString":"CMS819FHIRHHORAE"},{"url":"name","valueString":"SDE Payer"},{"url":"statement","valueString":"define \"SDE Payer\":   SDE.\"SDE Payer\""},{"url":"displaySequence","valueInteger":11}]},{"url":"http://hl7.org/fhir/StructureDefinition/cqf-logicDefinition","extension":[{"url":"libraryName","valueString":"SupplementalDataElements"},{"url":"name","valueString":"SDE Ethnicity"},{"url":"statement","valueString":"define \"SDE Ethnicity\":   Patient.ethnicity E     return Tuple {       codes: { E.ombCategory } union E.detailed,       display: E.text     }"},{"url":"displaySequence","valueInteger":12}]},{"url":"http://hl7.org/fhir/StructureDefinition/cqf-logicDefinition","extension":[{"url":"libraryName","valueString":"CMS819FHIRHHORAE"},{"url":"name","valueString":"SDE Ethnicity"},{"url":"statement","valueString":"define \"SDE Ethnicity\":   SDE.\"SDE Ethnicity\""},{"url":"displaySequence","valueInteger":13}]},{"url":"http://hl7.org/fhir/StructureDefinition/cqf-logicDefinition","extension":[{"url":"libraryName","valueString":"SupplementalDataElements"},{"url":"name","valueString":"SDE Race"},{"url":"statement","valueString":"define \"SDE Race\":   Patient.race R     return Tuple {       codes: R.ombCategory union R.detailed,       display: R.text     }"},{"url":"displaySequence","valueInteger":14}]},{"url":"http://hl7.org/fhir/StructureDefinition/cqf-logicDefinition","extension":[{"url":"libraryName","valueString":"CMS819FHIRHHORAE"},{"url":"name","valueString":"SDE Race"},{"url":"statement","valueString":"define \"SDE Race\":   SDE.\"SDE Race\""},{"url":"displaySequence","valueInteger":15}]},{"url":"http://hl7.org/fhir/StructureDefinition/cqf-logicDefinition","extension":[{"url":"libraryName","valueString":"FHIRHelpers"},{"url":"name","valueString":"ToString"},{"url":"statement","valueString":"define function ToString(value uri): value.value"},{"url":"displaySequence","valueInteger":16}]},{"url":"http://hl7.org/fhir/StructureDefinition/cqf-logicDefinition","extension":[{"url":"libraryName","valueString":"FHIRHelpers"},{"url":"name","valueString":"ToInterval"},{"url":"statement","valueString":"/* @description: Converts the given [Period](https://hl7.org/fhir/datatypes.html#Period) value to a CQL DateTime Interval @comment: If the start value of the given period is unspecified, the starting boundary of the resulting interval will be open (meaning the start of the interval is unknown, as opposed to interpreted as the beginning of time). */ define function ToInterval(period FHIR.Period):     if period is null then         null     else         if period.\"start\" is null then             Interval(period.\"start\".value, period.\"end\".value]         else             Interval[period.\"start\".value, period.\"end\".value]"},{"url":"displaySequence","valueInteger":17}]},{"url":"http://hl7.org/fhir/StructureDefinition/cqf-logicDefinition","extension":[{"url":"libraryName","valueString":"CQMCommon"},{"url":"name","valueString":"hospitalizationWithObservation"},{"url":"statement","valueString":"/* @description: Hospitalization with Observation returns the total interval from the start of any immediately prior emergency department visit through the observation visit to the discharge of the given encounter */ define fluent function hospitalizationWithObservation(TheEncounter Encounter ):   TheEncounter Visit     let ObsVisit: Last([Encounter: \"Observation Services\"] LastObs       where LastObs.status = 'finished'             and LastObs.period ends 1 hour or less on or before start of Visit.period       sort by end of period      ),      VisitStart: Coalesce(start of ObsVisit.period, start of Visit.period),      EDVisit: Last([Encounter: \"Emergency Department Visit\"] LastED       where LastED.status = 'finished'             and LastED.period ends 1 hour or less on or before VisitStart       sort by end of period      )     return Interval[Coalesce(start of EDVisit.period, VisitStart), end of Visit.period]"},{"url":"displaySequence","valueInteger":18}]},{"url":"http://hl7.org/fhir/StructureDefinition/cqf-logicDefinition","extension":[{"url":"libraryName","valueString":"CQMCommon"},{"url":"name","valueString":"getLocation"},{"url":"statement","valueString":"/* @description: Returns the Location resource specified by the given reference. */ define fluent function getLocation(reference Reference):   singleton from (     [Location] L where reference.references(L)   )"},{"url":"displaySequence","valueInteger":19}]},{"url":"http://hl7.org/fhir/StructureDefinition/cqf-logicDefinition","extension":[{"url":"libraryName","valueString":"QICoreCommon"},{"url":"name","valueString":"references"},{"url":"statement","valueString":"/* @description: Returns true if the given reference is to the given resource @comment: Returns true if the `id` element of the given resource exactly equals the tail of the given reference. NOTE: This function assumes resources from the same source server. */ define fluent function references(reference Reference, resource Resource):   resource.id = Last(Split(reference.reference, '/'))"},{"url":"displaySequence","valueInteger":20}]},{"url":"http://hl7.org/fhir/StructureDefinition/cqf-logicDefinition","extension":[{"url":"libraryName","valueString":"FHIRHelpers"},{"url":"name","valueString":"ToConcept"},{"url":"statement","valueString":"/* @description: Converts the given FHIR [CodeableConcept](https://hl7.org/fhir/datatypes.html#CodeableConcept) value to a CQL Concept. */ define function ToConcept(concept FHIR.CodeableConcept):     if concept is null then         null     else         System.Concept {             codes: concept.coding C return ToCode(C),             display: concept.text.value         }"},{"url":"displaySequence","valueInteger":21}]},{"url":"http://hl7.org/fhir/StructureDefinition/cqf-logicDefinition","extension":[{"url":"libraryName","valueString":"FHIRHelpers"},{"url":"name","valueString":"ToCode"},{"url":"statement","valueString":"/* @description: Converts the given FHIR [Coding](https://hl7.org/fhir/datatypes.html#Coding) value to a CQL Code. */ define function ToCode(coding FHIR.Coding):     if coding is null then         null     else         System.Code {           code: coding.code.value,           system: coding.system.value,           version: coding.version.value,           display: coding.display.value         }"},{"url":"displaySequence","valueInteger":22}]}],"name":"EffectiveDataRequirements","status":"active","type":{"coding":[{"system":"http://terminology.hl7.org/CodeSystem/library-type","code":"module-definition"}]},"relatedArtifact":[{"type":"depends-on","display":"Library SDE","resource":"https://madie.cms.gov/Library/SupplementalDataElements|5.1.000"},{"type":"depends-on","display":"Library FHIRHelpers","resource":"https://madie.cms.gov/Library/FHIRHelpers|4.4.000"},{"type":"depends-on","display":"Library QICoreCommon","resource":"https://madie.cms.gov/Library/QICoreCommon|4.0.000"},{"type":"depends-on","display":"Library CQMCommon","resource":"https://madie.cms.gov/Library/CQMCommon|4.1.000"},{"type":"depends-on","display":"Code system SNOMEDCT","resource":"http://snomed.info/sct"},{"type":"depends-on","display":"Value set Opioid Antagonist","resource":"http://cts.nlm.nih.gov/fhir/ValueSet/2.16.840.1.113762.1.4.1248.119"},{"type":"depends-on","display":"Value set Opioids, All","resource":"http://cts.nlm.nih.gov/fhir/ValueSet/2.16.840.1.113762.1.4.1196.226"},{"type":"depends-on","display":"Value set Encounter Inpatient","resource":"http://cts.nlm.nih.gov/fhir/ValueSet/2.16.840.1.113883.3.666.5.307"},{"type":"depends-on","display":"Value set Observation Services","resource":"http://cts.nlm.nih.gov/fhir/ValueSet/2.16.840.1.113762.1.4.1111.143"},{"type":"depends-on","display":"Value set Emergency Department Visit","resource":"http://cts.nlm.nih.gov/fhir/ValueSet/2.16.840.1.113883.3.117.1.7.1.292"},{"type":"depends-on","display":"Value set Operating Room Suite","resource":"http://cts.nlm.nih.gov/fhir/ValueSet/2.16.840.1.113762.1.4.1248.141"},{"type":"depends-on","display":"Value set Routes of Administration for Opioid Antagonists","resource":"http://cts.nlm.nih.gov/fhir/ValueSet/2.16.840.1.113762.1.4.1248.187"},{"type":"depends-on","display":"Value set Payer Type","resource":"http://cts.nlm.nih.gov/fhir/ValueSet/2.16.840.1.114222.4.11.3591"}],"parameter":[{"name":"Measurement Period","use":"in","min":0,"max":"1","type":"Period"},{"name":"Numerator","use":"out","min":0,"max":"*","type":"Resource"},{"name":"Denominator","use":"out","min":0,"max":"*","type":"Resource"},{"name":"Initial Population","use":"out","min":0,"max":"*","type":"Resource"},{"name":"SDE Sex","use":"out","min":0,"max":"1","type":"Coding"},{"name":"SDE Payer","use":"out","min":0,"max":"*","type":"Resource"},{"name":"SDE Ethnicity","use":"out","min":0,"max":"1","type":"Resource"},{"name":"SDE Race","use":"out","min":0,"max":"1","type":"Resource"}],"dataRequirement":[{"type":"Patient","profile":["http://hl7.org/fhir/us/qicore/StructureDefinition/qicore-patient"],"mustSupport":["extension","url"]},{"type":"MedicationAdministration","profile":["http://hl7.org/fhir/us/qicore/StructureDefinition/qicore-medicationadministration"],"mustSupport":["medication","status","status.value","effective","dosage","dosage.route"],"codeFilter":[{"path":"medication","valueSet":"http://cts.nlm.nih.gov/fhir/ValueSet/2.16.840.1.113762.1.4.1248.119"}]},{"type":"MedicationAdministration","profile":["http://hl7.org/fhir/us/qicore/StructureDefinition/qicore-medicationadministration"],"mustSupport":["medication","status","status.value","effective","dosage","dosage.route"],"codeFilter":[{"path":"medication","valueSet":"http://cts.nlm.nih.gov/fhir/ValueSet/2.16.840.1.113762.1.4.1196.226"}]},{"type":"MedicationAdministration","profile":["http://hl7.org/fhir/us/qicore/StructureDefinition/qicore-medicationadministration"],"mustSupport":["medication.reference.value","status","status.value","effective","dosage","dosage.route"]},{"type":"Medication","profile":["http://hl7.org/fhir/us/qicore/StructureDefinition/qicore-medication"],"mustSupport":["id.value","code"]},{"type":"Encounter","profile":["http://hl7.org/fhir/us/qicore/StructureDefinition/qicore-encounter"],"mustSupport":["type","status","status.value","period","location"],"codeFilter":[{"path":"type","valueSet":"http://cts.nlm.nih.gov/fhir/ValueSet/2.16.840.1.113762.1.4.1111.143"}]},{"type":"Encounter","profile":["http://hl7.org/fhir/us/qicore/StructureDefinition/qicore-encounter"],"mustSupport":["type","status","status.value","period","location"],"codeFilter":[{"path":"type","valueSet":"http://cts.nlm.nih.gov/fhir/ValueSet/2.16.840.1.113883.3.117.1.7.1.292"}]},{"type":"Encounter","profile":["http://hl7.org/fhir/us/qicore/StructureDefinition/qicore-encounter"],"mustSupport":["type","period","status","status.value","location"],"codeFilter":[{"path":"type","valueSet":"http://cts.nlm.nih.gov/fhir/ValueSet/2.16.840.1.113883.3.666.5.307"}]},{"type":"Resource","profile":["http://hl7.org/fhir/StructureDefinition/Resource"],"mustSupport":["id","id.value"]},{"type":"Location","profile":["http://hl7.org/fhir/us/qicore/StructureDefinition/qicore-location"]},{"type":"Coverage","profile":["http://hl7.org/fhir/us/qicore/StructureDefinition/qicore-coverage"],"mustSupport":["type","period"],"codeFilter":[{"path":"type","valueSet":"http://cts.nlm.nih.gov/fhir/ValueSet/2.16.840.1.114222.4.11.3591"}]}]}],"extension":[{"id":"supplementalDataGuidance","url":"http://hl7.org/fhir/us/cqfmeasures/StructureDefinition/cqfm-supplementalDataGuidance","extension":[{"url":"guidance","valueString":"For every patient evaluated by this measure also identify payer, race, ethnicity and sex"},{"url":"usage","valueCodeableConcept":{"coding":[{"system":"http://terminology.hl7.org/CodeSystem/measure-data-usage","code":"supplemental-data","display":"Supplemental Data"}],"text":"Supplemental Data Guidance"}}]},{"url":"http://hl7.org/fhir/uv/crmi/StructureDefinition/crmi-effectiveDataRequirements","valueReference":{"reference":"#effective-data-requirements"}},{"url":"http://hl7.org/fhir/uv/crmi/StructureDefinition/crmi-softwaresystem","valueReference":{"reference":"Device/cqf-tooling"}}],"url":"https://madie.cms.gov/Measure/CMS819FHIRHHORAE","identifier":[{"use":"usual","type":{"coding":[{"system":"http://terminology.hl7.org/CodeSystem/artifact-identifier-type","code":"short-name","display":"Short Name"}]},"system":"https://madie.cms.gov/measure/shortName","value":"CMS819FHIR"},{"use":"official","type":{"coding":[{"system":"http://terminology.hl7.org/CodeSystem/artifact-identifier-type","code":"version-independent","display":"Version Independent"}]},"system":"urn:ietf:rfc:3986","value":"urn:uuid:30256069-ee4f-45b8-895a-5452cf8e9e4e"},{"use":"official","type":{"coding":[{"system":"http://terminology.hl7.org/CodeSystem/artifact-identifier-type","code":"version-specific","display":"Version Specific"}]},"system":"urn:ietf:rfc:3986","value":"urn:uuid:761866af-769b-465b-aef0-36f70c94e921"},{"use":"official","type":{"coding":[{"system":"http://terminology.hl7.org/CodeSystem/artifact-identifier-type","code":"endorser","display":"Endorser"}]},"system":"https://madie.cms.gov/measure/cbeId","value":"3501e","assigner":{"display":"CMS Consensus Based Entity"}},{"use":"official","type":{"coding":[{"system":"http://terminology.hl7.org/CodeSystem/artifact-identifier-type","code":"publisher","display":"Publisher"}]},"system":"https://madie.cms.gov/measure/cmsId","value":"819FHIR","assigner":{"display":"CMS"}}],"version":"0.4.000","name":"CMS819FHIRHHORAE","title":"Hospital Harm - Opioid-Related Adverse EventsFHIR","status":"active","experimental":false,"date":"2025-06-19T19:39:00+00:00","publisher":"Centers for Medicare & Medicaid Services (CMS)","contact":[{"telecom":[{"system":"url","value":"https://www.cms.gov/"}]}],"description":"This measure assesses the number of inpatient hospitalizations for patients age 18 and older who have been administered an opioid medication and are subsequently administered an opioid antagonist within 12 hours, an indication of an opioid-related adverse event","usage":"Qualifying encounters (denominator) include all patients 18 years of age or older with at least one opioid medication administered outside of the operating room.  To create the numerator:   1. First, start with those encounters meeting denominator criteria.  2. Next, remove all events where an opioid or opioid antagonist was administered in the operating room.   Opioid antagonist administrations in the operating room are excluded because they could be part of the sedation plan as administered by an anesthesiologist. Encounters that include use of opioid antagonists for procedures and recovery outside of the operating room (e.g., bone marrow biopsy and PACU) are included in the numerator, as it would indicate the patient was over-sedated. Note that should a facility not utilize temporary patient locations, alternative times may be used to determine whether a patient is in the operating room during opioid antagonist administration. Since anesthesia end time could represent the time the anesthesiologist signed off, and thus may include the patient’s time in the PACU, this should be avoided.  3. Next, remove all events where the opioid antagonist was administered via an enteral route. Only opioid antagonists given by a non-enteral (i.e., intravenous, intramuscular, subcutaneous, intranasal, inhalation) route are considered.  4. Finally, remove all administrations of opioid antagonist that were given greater than 12 hours following hospital administration of an opioid medication.  This dQM is an episode-based measure. An episode is defined as each inpatient hospitalization or encounter that ends during the measurement period.  This FHIR-based measure has been derived from the QDM-based measure: CMS819v4. Please refer to the HL7 QI-Core Implementation Guide (https://hl7.org/fhir/us/qicore/STU6/) for more information on QI-Core and mapping recommendations from QDM to QI-Core STU 6 (https://hl7.org/fhir/us/qicore/STU6/qdm-to-qicore.html).","copyright":"Limited proprietary coding is contained in the Measure specifications for user convenience. Users of proprietary code sets should obtain all necessary licenses from the owners of the code sets. Mathematica disclaims all liability for use or accuracy of any third-party codes contained in the specifications.   LOINC(R) copyright 2004-2024 Regenstrief Institute, Inc. This material contains SNOMED Clinical Terms(R) (SNOMED CT[R]) copyright 2004-2024 International Health Terminology Standards Development Organisation. ICD-10 copyright 2024 World Health Organization. All Rights Reserved.","effectivePeriod":{"start":"2026-01-01","end":"2026-12-31"},"author":[{"name":"Mathematica","telecom":[{"system":"url","value":"https://www.mathematica.org/"}]}],"relatedArtifact":[{"type":"citation","citation":"CITATION - Agency for Healthcare Research and Quality. (2019). Medication Errors and Adverse Drug Events. Rockville: US Department of Health & Human Services. Retrieved from https://psnet.ahrq.gov/primer/medication-errors-and-adverse-drug-events "},{"type":"citation","citation":"CITATION - American Heart Association. (2020). Highlights of the 2020 American Heart Association's Guidelines for CPR and ECC. https://cpr.heart.org/-/media/cpr-files/cpr-guidelines-files/highlights/hghlghts_2020_ecc_guidelines_english.pdf "},{"type":"citation","citation":"CITATION - American Heart Association and American Society of Anesthesiologists. (2021). Naloxone in CPR/AED Training and Public Access to Defibrillation.  Retrieved from https://www.heart.org/-/media/Files/About-Us/Policy-Research/Policy-Positions/CPR-and-AED/Naloxone-Position-Statement.pdf "},{"type":"citation","citation":"CITATION - Baker, J., Brovman, E.Y., Rao, N., Beutler, S.S., Urman, R.D. (2020). Potential Opioid-Related Adverse Drug Events Are Associated With Decreased Revenue in Hip Replacement Surgery in the Older Population. Geriatric Orthopaedic Surgery & Rehabilitation. January 2020. doi:10.1177/2151459320915328 "},{"type":"citation","citation":"CITATION - Britch, S.C., Walsh, S.L. (2022). Treatment of opioid overdose: current approaches and recent advances. Psychopharmacology (Berl). 2022;239(7):2063-2081. doi:10.1007/s00213-022-06125-5 "},{"type":"citation","citation":"CITATION - Food and Drug Administration. (2022). Nalmefene Hydrochloride Injection 2mg/2mL (1mg/1mL) [Full Prescribing Information]. Stamford, CT: Purdue Pharma L.P., 02/08/2022. https://www.accessdata.fda.gov/spl/data/d4bb0797-a4ed-4ed4-9904-604433eea4ff/d4bb0797-a4ed-4ed4-9904-604433eea4ff.xml "},{"type":"citation","citation":"CITATION - Kessler, E. R., Shah, M., Gruschkus, S. K., & Raju, A. (2013). Cost and quality implications of opioid-based postsurgical pain control using administrative claims data from a large health system: opioid-related adverse events and their impact on clinical and economic outcomes. Pharmacotherapy, 33(4), 383-391. doi: 10.1002/phar.1223 "},{"type":"citation","citation":"CITATION - Khanna, A.K., Saager, L., Bergese, S.D., et al. (2021). Opioid-induced respiratory depression increases hospital costs and length of stay in patients recovering on the general care floor. BMC Anesthesiol. 2021;21(1):88. Published 2021 Mar 20. doi:10.1186/s12871-021-01307-8 "},{"type":"citation","citation":"CITATION - Lavonas, E. J., Drennan, I. R., Gabrielli, A., Heffner, A. C., Hoyte, C. O., Orkin, A. M., Donnino, M. W. (2015). Part 10: Special Circumstances of Resuscitation. 2015 American Heart Association Guidelines Update for Cardiopulmonary Resuscitation and Emergency Cardiovascular Care, 132(18 suppl 2), S501-S518. doi: 10.1161/cir.0000000000000264 "},{"type":"citation","citation":"CITATION - Lee, L. A., Caplan, R. A., Stephens, L. S., Posner, K. L., Terman, G. W., Voepel-Lewis, T., & Domino, K. B. (2015). Postoperative opioid-induced respiratory depression: a closed claims analysis. Anesthesiology, 122(3), 659-665 "},{"type":"citation","citation":"CITATION - Lynn, R. R., Galinkin, J. (2017). Naloxone dosage for opioid reversal: Current evidence and clinical implications. Therapeutic Advances in Drug Safety, 9(1), 63-88. doi:10.1177/204209861774416 "},{"type":"citation","citation":"CITATION - Makary, M. A., Daniel, M. (2016). Medical error-the third leading cause of death in the US. BMJ, 353, i2139. doi: 10.1136/bmj.i2139 "},{"type":"citation","citation":"CITATION - Med Lett Drugs Ther. (2022). Nalmefene Returns for Reversal of Opioid Overdose. Sep 5;64(1658):141-2 "},{"type":"citation","citation":"CITATION - Nwulu, U., Nirantharakumar, K., Odesanya, R., McDowell, S. E., Coleman, J. J. (2013). Improvement in the detection of adverse drug events by the use of electronic health and prescription records: an evaluation of two trigger tools. Eur J Clin Pharmacol, 69(2), 255-259. doi: 10.1007/s00228-012-1327-1 "},{"type":"citation","citation":"CITATION - Shafi, S., Collinsworth, A.W., Copeland, L.A., et al. (2018). Association of Opioid-Related Adverse Drug Events With Clinical and Cost Outcomes Among Surgical Patients in a Large Integrated Health Care Delivery System. JAMA Surg. 2018;153(8):757-763. doi:10.1001/jamasurg.2018.1039. PMID: 29799927; PMCID: PMC6142954 "},{"type":"citation","citation":"CITATION - Urman, R.D., Khanna, A.K., Bergese, S.D., et al. (2021). Postoperative opioid administration characteristics associated with opioid-induced respiratory depression: Results from the PRODIGY trial. J Clin Anesth. 2021;70:110167. doi:10.1016/j.jclinane.110167 "},{"type":"citation","citation":"CITATION - Urman, R.D., Seger, D.L., Fiskio, J.M., et al. (2021). The Burden of Opioid-Related Adverse Drug Events on Hospitalized Previously Opioid-Free Surgical Patients. J Patient Saf. 2021;17(2):e76-e83 "}],"library":["https://madie.cms.gov/Library/CMS819FHIRHHORAE"],"disclaimer":"This performance measure is not a clinical guideline, does not establish a standard of medical care and has not been tested for all potential applications.  THE MEASURES AND SPECIFICATIONS ARE PROVIDED \"AS IS\" WITHOUT WARRANTY OF ANY KIND.  Due to technical limitations, registered trademarks are indicated by (R) or [R] and unregistered trademarks are indicated by (TM) or [TM].","rationale":"Opioids are often the foundation for sedation and pain relief. Opioid-based analgesia continues to be the most commonly used treatment in postoperative pain management, with more than 95% of surgical patients receiving opioids during their hospitalization (Baker et al., 2020). However, use of opioids can also lead to serious adverse events, including constipation, over sedation, delirium, and respiratory depression (Urman et al., 2021a). Opioid-related adverse events (ORADE) have both patient-level and financial implications. The presence of an ORADE was associated with a 55% longer postoperative length of stay, 29% lower odds of discharge home, and 2.9 times the odds of death (Urman et al., 2021b). For surgical patients, occurrence of opioid-related adverse events was associated with an increase of 1.6 days in length of stay (LOS) and $8225 more in cost for the index hospitalization. Patients who experienced ORADEs while in a hospitalized setting were more likely to have received a higher total dose of opioids during hospitalization (Cone et al., 2023; Shafi et al., 2018). Numerous studies report the additive (risk-adjusted) hospitalization cost burden of surgical patients with ORADEs to be between $4350–$8225, representing a 27–47% increase in (risk-adjusted) admission costs (Khanna et al., 2021).  Most opioid-related adverse events are preventable. Each year, adverse drug events (ADE) account for nearly 700,000 emergency department visits and 100,000 hospitalizations (AHRQ, 2019). An estimated one-third of all adverse events that occur in the inpatient setting are adverse drug events (ODPHP, 2020). Additionally, in a closed-claims analysis, 97% of adverse events were judged preventable with better monitoring and response (Lee et al., 2015). Naloxone administration is often used as an indicator of a severe opioid-related adverse event, and implementation of this measure can advance safe use of opioids in hospitals and prevent these serious and potentially lethal adverse drug events.","clinicalRecommendationStatement":"Naloxone is an opioid reversal agent typically used for severe opioid-related adverse events. Naloxone administration has been used in a number of studies as an indicator of opioid-related adverse events (Yiu, et al., 2022; Lynn & Galinkin, 2017; Nwulu et al., 2013).  From Section 10 of the 2015 American Heart Association Guidelines Update for Cardiopulmonary Resuscitation and Emergency Cardiovascular Care (Lavonas et al., 2015), the following recommendation is listed for use of naloxone:  Naloxone is a potent opioid receptor antagonist in the brain, spinal cord, and gastrointestinal system. Naloxone has an excellent safety profile and can rapidly reverse central nervous system (CNS) and respiratory depression in a patient with an opioid-associated resuscitative emergency.  The 2020 American Heart Association guidelines update for cardiopulmonary resuscitation continue to recommend naloxone for a patient with suspected opioid overdose who has a definite pulse but no normal breathing or only gasping (i.e., a respiratory arrest), in addition to providing standard Pediatric Basic Life Support (PBLS) or Pediatric Advanced Life Support (PALS), it is reasonable for responders to administer intramuscular or intranasal naloxone. These recommendations are identical for adults (American Heart Association, 2020).  In February 2022, the Food and Drug Administration (FDA) approved its abbreviated new drug application for nalmefene hydrochloride injection, 2mg/2mL (1mg/1mL). Nalmefene is an opioid antagonist indicated for the complete or partial reversal of opioid drug effects, including respiratory depression, induced by either natural or synthetic opioids, and in the management of known or suspected opioid overdose (FDA, 2022). In contrast to naloxone, the long half-life of nalmefene is similar to or greater than that of many opioid receptor agonists (Britch & Walsh, 2022), which could decrease the need for repeat drug administration. In May 2023, FDA approved nalmefene hydrochloride nasal spray that delivers 2.7 milligrams (mg) of nalmefene into the nasal cavity (FDA, 2023).","group":[{"id":"Group_1","extension":[{"url":"http://hl7.org/fhir/us/cqfmeasures/StructureDefinition/cqfm-scoring","valueCodeableConcept":{"coding":[{"system":"http://terminology.hl7.org/CodeSystem/measure-scoring","code":"proportion","display":"Proportion"}]}},{"url":"http://hl7.org/fhir/us/cqfmeasures/StructureDefinition/cqfm-populationBasis","valueCode":"Encounter"},{"url":"http://hl7.org/fhir/us/cqfmeasures/StructureDefinition/cqfm-type","valueCodeableConcept":{"coding":[{"system":"http://terminology.hl7.org/CodeSystem/measure-type","code":"outcome","display":"Outcome"}]}},{"url":"http://hl7.org/fhir/us/cqfmeasures/StructureDefinition/cqfm-rateAggregation","valueCode":"None"},{"url":"http://hl7.org/fhir/us/cqfmeasures/StructureDefinition/cqfm-improvementNotation","valueCodeableConcept":{"coding":[{"system":"http://terminology.hl7.org/CodeSystem/measure-improvement-notation","code":"decrease","display":"decrease"}]}}],"population":[{"id":"InitialPopulation_1","code":{"coding":[{"system":"http://terminology.hl7.org/CodeSystem/measure-population","code":"initial-population","display":"Initial Population"}]},"description":"Inpatient hospitalizations that end during the measurement period for patients age 18 and older and at least one opioid medication administration starts during the hospitalization outside of the operating room","criteria":{"language":"text/cql-identifier","expression":"Initial Population"}},{"id":"Denominator_1","code":{"coding":[{"system":"http://terminology.hl7.org/CodeSystem/measure-population","code":"denominator","display":"Denominator"}]},"description":"Equals Initial Population","criteria":{"language":"text/cql-identifier","expression":"Denominator"}},{"id":"Numerator_1","code":{"coding":[{"system":"http://terminology.hl7.org/CodeSystem/measure-population","code":"numerator","display":"Numerator"}]},"description":"Inpatient hospitalizations where a non-enteral opioid antagonist administration starts during the hospitalization outside of the operating room and 12 hours or less following an opioid medication administered outside of the operating room.   The route of administration of the opioid antagonist must be by intranasal spray, inhalation, intramuscular, subcutaneous, or intravenous injection.   Only one numerator event is counted per encounter.","criteria":{"language":"text/cql-identifier","expression":"Numerator"}}]}],"supplementalData":[{"id":"sde-ethnicity","usage":[{"coding":[{"system":"http://terminology.hl7.org/CodeSystem/measure-data-usage","code":"supplemental-data"}]}],"description":"SDE Ethnicity","criteria":{"language":"text/cql-identifier","expression":"SDE Ethnicity"}},{"id":"sde-payer","usage":[{"coding":[{"system":"http://terminology.hl7.org/CodeSystem/measure-data-usage","code":"supplemental-data"}]}],"description":"SDE Payer","criteria":{"language":"text/cql-identifier","expression":"SDE Payer"}},{"id":"sde-race","usage":[{"coding":[{"system":"http://terminology.hl7.org/CodeSystem/measure-data-usage","code":"supplemental-data"}]}],"description":"SDE Race","criteria":{"language":"text/cql-identifier","expression":"SDE Race"}},{"id":"sde-sex","usage":[{"coding":[{"system":"http://terminology.hl7.org/CodeSystem/measure-data-usage","code":"supplemental-data"}]}],"description":"SDE Sex","criteria":{"language":"text/cql-identifier","expression":"SDE Sex"}}]},"request":{"method":"PUT","url":"Measure/CMS819FHIRHHORAE"}},{"resource":{"resourceType":"MeasureReport","id":"d28ca183-a7af-44f8-84b9-431af2d93a15","meta":{"profile":["http://hl7.org/fhir/us/cqfmeasures/StructureDefinition/test-case-cqfm"]},"contained":[{"resourceType":"Parameters","id":"2de83d19-340b-4019-aee7-9fb4ef828095-parameters","parameter":[{"name":"subject","valueString":"1994e69a-472b-4e32-80c1-5c692f36acce"}]}],"extension":[{"url":"http://hl7.org/fhir/StructureDefinition/cqf-inputParameters","valueReference":{"reference":"#2de83d19-340b-4019-aee7-9fb4ef828095-parameters"}},{"url":"http://hl7.org/fhir/us/cqfmeasures/StructureDefinition/cqfm-testCaseDescription","valueMarkdown":"Inpatient encounter where patient given opioid 8:15AM. Antagonist administration start time is 8:15PM, exactly 12 hours after opioid. Meets numerator criteria. "}],"modifierExtension":[{"url":"http://hl7.org/fhir/us/cqfmeasures/StructureDefinition/cqfm-isTestCase","valueBoolean":true}],"status":"complete","type":"individual","measure":"https://madie.cms.gov/Measure/CMS819FHIRHHORAE","period":{"start":"2026-01-01","end":"2026-12-31"},"group":[{"id":"Group_1","population":[{"id":"InitialPopulation_1","code":{"coding":[{"system":"http://terminology.hl7.org/CodeSystem/measure-population","code":"initial-population","display":"Initial Population"}]},"count":1},{"id":"Denominator_1","code":{"coding":[{"system":"http://terminology.hl7.org/CodeSystem/measure-population","code":"denominator","display":"Denominator"}]},"count":1},{"id":"Numerator_1","code":{"coding":[{"system":"http://terminology.hl7.org/CodeSystem/measure-population","code":"numerator","display":"Numerator"}]},"count":1}],"measureScore":{"value":0.0}}],"evaluatedResource":[{"reference":"Patient/1994e69a-472b-4e32-80c1-5c692f36acce"},{"reference":"Encounter/67daed6d-f724-488c-82d0-08edc19c86c8"},{"reference":"MedicationAdministration/922ae883-33b3-4dcc-89b0-d99259ae253e"},{"reference":"MedicationAdministration/4fecde35-1fa2-4b05-8822-dc3be6212106"}]},"request":{"method":"PUT","url":"MeasureReport/d28ca183-a7af-44f8-84b9-431af2d93a15"}},{"resource":{"resourceType":"MeasureReport","id":"90299aeb-5f01-4cad-9015-e5564851f20c","meta":{"profile":["http://hl7.org/fhir/us/cqfmeasures/StructureDefinition/test-case-cqfm"]},"contained":[{"resourceType":"Parameters","id":"2aff8d1d-ddbf-4697-8fcb-5e7b0878d8cf-parameters","parameter":[{"name":"subject","valueString":"bef27397-e972-46e8-8e92-b8d4fd7985dc"}]}],"extension":[{"url":"http://hl7.org/fhir/StructureDefinition/cqf-inputParameters","valueReference":{"reference":"#2aff8d1d-ddbf-4697-8fcb-5e7b0878d8cf-parameters"}},{"url":"http://hl7.org/fhir/us/cqfmeasures/StructureDefinition/cqfm-testCaseDescription","valueMarkdown":"Inpatient encounter starts in year prior to MP,  ends 1st day of MP. Opioid given twice and antagonist given w/in 24 hrs of each. Two qualifying numerators, but should only count one. One numerator passes."}],"modifierExtension":[{"url":"http://hl7.org/fhir/us/cqfmeasures/StructureDefinition/cqfm-isTestCase","valueBoolean":true}],"status":"complete","type":"individual","measure":"https://madie.cms.gov/Measure/CMS819FHIRHHORAE","period":{"start":"2026-01-01","end":"2026-12-31"},"group":[{"id":"Group_1","population":[{"id":"InitialPopulation_1","code":{"coding":[{"system":"http://terminology.hl7.org/CodeSystem/measure-population","code":"initial-population","display":"Initial Population"}]},"count":1},{"id":"Denominator_1","code":{"coding":[{"system":"http://terminology.hl7.org/CodeSystem/measure-population","code":"denominator","display":"Denominator"}]},"count":1},{"id":"Numerator_1","code":{"coding":[{"system":"http://terminology.hl7.org/CodeSystem/measure-population","code":"numerator","display":"Numerator"}]},"count":1}],"measureScore":{"value":0.0}}],"evaluatedResource":[{"reference":"MedicationAdministration/4007451b-68d7-4836-a373-40daf500ff7c"},{"reference":"MedicationAdministration/d7b7a190-701f-4e68-8b83-95dd9556259a"},{"reference":"MedicationAdministration/0fe46050-aac7-4853-add8-b9dabbe182a9"},{"reference":"MedicationAdministration/5432d3d1-2b08-40d9-8ed6-43e1a8a86012"},{"reference":"MedicationAdministration/44e1a56a-d607-4304-aeb2-db9979617eb1"},{"reference":"MedicationAdministration/636b6cda-159a-46ce-8720-89fb98a0b933"},{"reference":"Encounter/72bea60d-fc74-41c3-8697-b57c1843ed67"},{"reference":"Patient/bef27397-e972-46e8-8e92-b8d4fd7985dc"}]},"request":{"method":"PUT","url":"MeasureReport/90299aeb-5f01-4cad-9015-e5564851f20c"}},{"resource":{"resourceType":"MedicationAdministration","id":"4d30a5ad-5750-4b2a-a87c-5476f5f6deb3","meta":{"profile":["http://hl7.org/fhir/us/qicore/StructureDefinition/qicore-medicationadministration"]},"status":"completed","medicationCodeableConcept":{"coding":[{"system":"http://www.nlm.nih.gov/research/umls/rxnorm","code":"1010600"}]},"subject":{"reference":"Patient/cf4e9832-fad4-4041-9c6b-e7605bf0b3a0"},"effectivePeriod":{"start":"2026-08-11T08:00:00.000+00:00","end":"2026-08-11T08:15:00.000+00:00"}},"request":{"method":"PUT","url":"MedicationAdministration/4d30a5ad-5750-4b2a-a87c-5476f5f6deb3"}},{"resource":{"resourceType":"MeasureReport","id":"2138fac9-8fdf-4f9a-81a2-482b31b093cb","meta":{"profile":["http://hl7.org/fhir/us/cqfmeasures/StructureDefinition/test-case-cqfm"]},"contained":[{"resourceType":"Parameters","id":"ee8544aa-0f34-4986-a406-6efdf1c49aef-parameters","parameter":[{"name":"subject","valueString":"67f1ba74-5f3c-4729-9085-69bc55f49225"}]}],"extension":[{"url":"http://hl7.org/fhir/StructureDefinition/cqf-inputParameters","valueReference":{"reference":"#ee8544aa-0f34-4986-a406-6efdf1c49aef-parameters"}},{"url":"http://hl7.org/fhir/us/cqfmeasures/StructureDefinition/cqfm-testCaseDescription","valueMarkdown":"Patient given opioid 8:15AM. Antagonist given, route is oral, given within 12 hours after opioid. Does not meet numerator, as antagonist must be given non-oral/non-enteral route"}],"modifierExtension":[{"url":"http://hl7.org/fhir/us/cqfmeasures/StructureDefinition/cqfm-isTestCase","valueBoolean":true}],"status":"complete","type":"individual","measure":"https://madie.cms.gov/Measure/CMS819FHIRHHORAE","period":{"start":"2026-01-01","end":"2026-12-31"},"group":[{"id":"Group_1","population":[{"id":"InitialPopulation_1","code":{"coding":[{"system":"http://terminology.hl7.org/CodeSystem/measure-population","code":"initial-population","display":"Initial Population"}]},"count":1},{"id":"Denominator_1","code":{"coding":[{"system":"http://terminology.hl7.org/CodeSystem/measure-population","code":"denominator","display":"Denominator"}]},"count":1},{"id":"Numerator_1","code":{"coding":[{"system":"http://terminology.hl7.org/CodeSystem/measure-population","code":"numerator","display":"Numerator"}]},"count":0}],"measureScore":{"value":0.0}}],"evaluatedResource":[{"reference":"MedicationAdministration/1787b184-1def-4c9b-a40f-d7fcad3f437f"},{"reference":"MedicationAdministration/1d2f7c2e-397c-4fc9-abb3-0b459a325f82"},{"reference":"Encounter/1c5e5564-7ca8-478a-942c-3c5694d34b3d"},{"reference":"Patient/67f1ba74-5f3c-4729-9085-69bc55f49225"}]},"request":{"method":"PUT","url":"MeasureReport/2138fac9-8fdf-4f9a-81a2-482b31b093cb"}},{"resource":{"resourceType":"MedicationAdministration","id":"019a875e-b81f-4d65-b229-ae0e602f999a","meta":{"profile":["http://hl7.org/fhir/us/qicore/StructureDefinition/qicore-medicationadministration"]},"status":"completed","medicationCodeableConcept":{"coding":[{"system":"http://www.nlm.nih.gov/research/umls/rxnorm","code":"1725059","display":"Naloxone (opioid antagonist)"}]},"subject":{"reference":"Patient/31b40acc-ca5f-4d1d-bd83-4b1a14eb822e"},"effectiveDateTime":"2026-07-13T09:05:00.000+00:00","dosage":{"route":{"coding":[{"system":"http://snomed.info/sct","code":"47625008","display":"Subcutaneous route"}]}}},"request":{"method":"PUT","url":"MedicationAdministration/019a875e-b81f-4d65-b229-ae0e602f999a"}},{"resource":{"resourceType":"MedicationAdministration","id":"5432d3d1-2b08-40d9-8ed6-43e1a8a86012","meta":{"profile":["http://hl7.org/fhir/us/qicore/StructureDefinition/qicore-medicationadministration"]},"status":"completed","medicationCodeableConcept":{"coding":[{"system":"http://www.nlm.nih.gov/research/umls/rxnorm","code":"1659929","display":"Naloxone (opioid antagonist)"}]},"subject":{"reference":"Patient/bef27397-e972-46e8-8e92-b8d4fd7985dc"},"effectiveDateTime":"2025-12-31T09:00:00.000+00:00","dosage":{"route":{"coding":[{"system":"http://snomed.info/sct","code":"34206005","display":"Intravenous"}]}}},"request":{"method":"PUT","url":"MedicationAdministration/5432d3d1-2b08-40d9-8ed6-43e1a8a86012"}},{"resource":{"resourceType":"MedicationAdministration","id":"b3114d12-7fd9-4d33-81b8-41f443ea66d9","meta":{"profile":["http://hl7.org/fhir/us/qicore/StructureDefinition/qicore-medicationadministration"]},"status":"completed","medicationCodeableConcept":{"coding":[{"system":"http://www.nlm.nih.gov/research/umls/rxnorm","code":"1010600","display":"Opioids"}]},"subject":{"reference":"Patient/31b40acc-ca5f-4d1d-bd83-4b1a14eb822e"},"effectivePeriod":{"start":"2026-10-31T08:00:00.000+00:00","end":"2026-10-31T08:15:00.000+00:00"}},"request":{"method":"PUT","url":"MedicationAdministration/b3114d12-7fd9-4d33-81b8-41f443ea66d9"}},{"resource":{"resourceType":"MedicationAdministration","id":"0fe46050-aac7-4853-add8-b9dabbe182a9","meta":{"profile":["http://hl7.org/fhir/us/qicore/StructureDefinition/qicore-medicationadministration"]},"status":"completed","medicationCodeableConcept":{"coding":[{"system":"http://www.nlm.nih.gov/research/umls/rxnorm","code":"2596175","display":"Nalmefene (opioid antagonist)"}]},"subject":{"reference":"Patient/bef27397-e972-46e8-8e92-b8d4fd7985dc"},"effectiveDateTime":"2025-12-31T09:00:00.000+00:00","dosage":{"route":{"coding":[{"system":"http://snomed.info/sct","code":"34206005","display":"Intravenous"}]}}},"request":{"method":"PUT","url":"MedicationAdministration/0fe46050-aac7-4853-add8-b9dabbe182a9"}},{"resource":{"resourceType":"Encounter","id":"eaab5a11-c1eb-417d-a141-a9e42c944b4c","meta":{"profile":["http://hl7.org/fhir/us/qicore/StructureDefinition/qicore-encounter"]},"status":"finished","class":{"system":"http://terminology.hl7.org/CodeSystem/v3-ActCode","code":"IMP","display":"inpatient encounter"},"type":[{"coding":[{"system":"http://snomed.info/sct","code":"183452005","display":"Inpatient encounter"}]}],"subject":{"reference":"Patient/9e1276d8-5574-424a-b093-0bd89b45019e"},"period":{"start":"2025-12-30T08:00:00.000+00:00","end":"2026-02-08T08:15:00.000+00:00"}},"request":{"method":"PUT","url":"Encounter/eaab5a11-c1eb-417d-a141-a9e42c944b4c"}},{"resource":{"resourceType":"MedicationAdministration","id":"bc1e125a-ac76-445c-9d09-52e763442332","meta":{"profile":["http://hl7.org/fhir/us/qicore/StructureDefinition/qicore-medicationadministration"]},"status":"completed","medicationCodeableConcept":{"coding":[{"system":"http://www.nlm.nih.gov/research/umls/rxnorm","code":"1010600","display":"Oxycodone Hydrochloride"}]},"subject":{"reference":"Patient/2adae583-4f70-4492-add5-c56cd38f5843"},"effectivePeriod":{"start":"2026-04-07T07:00:00.000+00:00","end":"2026-04-07T07:15:00.000+00:00"}},"request":{"method":"PUT","url":"MedicationAdministration/bc1e125a-ac76-445c-9d09-52e763442332"}},{"resource":{"resourceType":"Patient","id":"67f1ba74-5f3c-4729-9085-69bc55f49225","meta":{"profile":["http://hl7.org/fhir/us/qicore/StructureDefinition/qicore-patient"]},"extension":[{"url":"http://hl7.org/fhir/us/core/StructureDefinition/us-core-race","extension":[{"url":"ombCategory","valueCoding":{"system":"urn:oid:2.16.840.1.113883.6.238","code":"2106-3","display":"White"}},{"url":"text","valueString":"White"}]},{"url":"http://hl7.org/fhir/us/core/StructureDefinition/us-core-ethnicity","extension":[{"url":"ombCategory","valueCoding":{"system":"urn:oid:2.16.840.1.113883.6.238","code":"2135-2","display":"Hispanic or Latino"}},{"url":"text","valueString":"Hispanic or Latino"}]},{"url":"http://hl7.org/fhir/us/core/StructureDefinition/us-core-sex","valueCode":"248153007"}],"identifier":[{"system":"http://hospital.smarthealthit.org","value":"999999999"}],"name":[{"family":"Example","given":["Patient"]}],"gender":"female","birthDate":"1956-01-01"},"request":{"method":"PUT","url":"Patient/67f1ba74-5f3c-4729-9085-69bc55f49225"}},{"resource":{"resourceType":"MedicationAdministration","id":"673df3d8-3bc0-4a7e-bd14-97d04432f018","meta":{"profile":["http://hl7.org/fhir/us/qicore/StructureDefinition/qicore-medicationadministration"]},"status":"completed","medicationCodeableConcept":{"coding":[{"system":"http://www.nlm.nih.gov/research/umls/rxnorm","code":"1010600","display":"Opioids, All"}]},"subject":{"reference":"Patient/b88740a3-5143-4b36-ae0d-75a6b95db7e2"},"context":{"reference":"Encounter/0c0287ba-89f4-432d-952d-b5bff2294697"},"effectiveDateTime":"2026-10-31T08:00:00.000+00:00","note":[{"text":"Administered opioid medication as prescribed."}],"dosage":{"rateQuantity":{"value":1,"unit":"mg"}}},"request":{"method":"PUT","url":"MedicationAdministration/673df3d8-3bc0-4a7e-bd14-97d04432f018"}},{"resource":{"resourceType":"Patient","id":"b88740a3-5143-4b36-ae0d-75a6b95db7e2","meta":{"profile":["http://hl7.org/fhir/us/qicore/StructureDefinition/qicore-patient"]},"extension":[{"url":"http://hl7.org/fhir/us/core/StructureDefinition/us-core-race","extension":[{"url":"ombCategory","valueCoding":{"system":"urn:oid:2.16.840.1.113883.6.238","code":"2106-3","display":"White"}},{"url":"text","valueString":"White"}]},{"url":"http://hl7.org/fhir/us/core/StructureDefinition/us-core-ethnicity","extension":[{"url":"ombCategory","valueCoding":{"system":"urn:oid:2.16.840.1.113883.6.238","code":"2135-2","display":"Hispanic or Latino"}},{"url":"text","valueString":"Hispanic or Latino"}]},{"url":"http://hl7.org/fhir/us/core/StructureDefinition/us-core-sex","valueCode":"248153007"}],"identifier":[{"system":"http://hospital.smarthealthit.org","value":"999999999"}],"name":[{"family":"Example","given":["Patient"]}],"gender":"female","birthDate":"1956-01-01"},"request":{"method":"PUT","url":"Patient/b88740a3-5143-4b36-ae0d-75a6b95db7e2"}},{"resource":{"resourceType":"MedicationAdministration","id":"79fa3d63-331b-4905-918d-49f40d5d214d","meta":{"profile":["http://hl7.org/fhir/us/qicore/StructureDefinition/qicore-medicationadministration"]},"status":"completed","medicationCodeableConcept":{"coding":[{"system":"http://www.nlm.nih.gov/research/umls/rxnorm","code":"1010600"}]},"subject":{"reference":"Patient/06d7810a-dcc6-4f6d-ab28-2a0843449475"},"effectivePeriod":{"start":"2026-04-07T08:00:00Z","end":"2026-04-07T08:15:00Z"}},"request":{"method":"PUT","url":"MedicationAdministration/79fa3d63-331b-4905-918d-49f40d5d214d"}},{"resource":{"resourceType":"Location","id":"f334ae9f-85a3-4346-8ad4-ffb5b61d3598","meta":{"profile":["http://hl7.org/fhir/us/qicore/StructureDefinition/qicore-location"]},"identifier":[{"use":"usual","system":"http://exampleoflocation.com","value":"B1-S.F2"}],"name":"Medical Surgical East, first floor","type":[{"coding":[{"system":"https://www.cdc.gov/nhsn/cdaportal/terminology/codesystem/hsloc.html","code":"1096-7","display":"Operating Room/Suite"}]}]},"request":{"method":"PUT","url":"Location/f334ae9f-85a3-4346-8ad4-ffb5b61d3598"}},{"resource":{"resourceType":"MeasureReport","id":"5cd6fa63-1b20-4f47-8e84-d93c57d20cab","meta":{"profile":["http://hl7.org/fhir/us/cqfmeasures/StructureDefinition/test-case-cqfm"]},"contained":[{"resourceType":"Parameters","id":"24fc94d7-e325-4031-8447-8ba277169c65-parameters","parameter":[{"name":"subject","valueString":"bdd17c60-c755-4150-8137-fa3884903970"}]}],"extension":[{"url":"http://hl7.org/fhir/StructureDefinition/cqf-inputParameters","valueReference":{"reference":"#24fc94d7-e325-4031-8447-8ba277169c65-parameters"}},{"url":"http://hl7.org/fhir/us/cqfmeasures/StructureDefinition/cqfm-testCaseDescription","valueMarkdown":"Inpatient encounter. Opioid given during encounter and outside of OR. Meets IPP/Denom"}],"modifierExtension":[{"url":"http://hl7.org/fhir/us/cqfmeasures/StructureDefinition/cqfm-isTestCase","valueBoolean":true}],"status":"complete","type":"individual","measure":"https://madie.cms.gov/Measure/CMS819FHIRHHORAE","period":{"start":"2026-01-01","end":"2026-12-31"},"group":[{"id":"Group_1","population":[{"id":"InitialPopulation_1","code":{"coding":[{"system":"http://terminology.hl7.org/CodeSystem/measure-population","code":"initial-population","display":"Initial Population"}]},"count":1},{"id":"Denominator_1","code":{"coding":[{"system":"http://terminology.hl7.org/CodeSystem/measure-population","code":"denominator","display":"Denominator"}]},"count":1},{"id":"Numerator_1","code":{"coding":[{"system":"http://terminology.hl7.org/CodeSystem/measure-population","code":"numerator","display":"Numerator"}]},"count":0}],"measureScore":{"value":0.0}}],"evaluatedResource":[{"reference":"MedicationAdministration/42de7c1f-b92d-4c18-9d3b-9e168fee2f66"},{"reference":"Encounter/858c663a-49cc-4c70-947f-2f30938a0522"},{"reference":"Patient/bdd17c60-c755-4150-8137-fa3884903970"}]},"request":{"method":"PUT","url":"MeasureReport/5cd6fa63-1b20-4f47-8e84-d93c57d20cab"}},{"resource":{"resourceType":"Patient","id":"11589117-d7b3-48d2-ac4e-b2dedd2dda37","meta":{"profile":["http://hl7.org/fhir/us/qicore/StructureDefinition/qicore-patient"]},"text":{"status":"generated","div":"<div xmlns=\"http://www.w3.org/1999/xhtml\"><div class=\"hapiHeaderText\">Age17 Start of Encounter <b>IPPFAIL </b></div><table class=\"hapiPropertyTable\"><tbody><tr><td>Identifier</td><td>f0eda1c9668fdacdcad3378589bf6e0a71e7dec1618f14fca4d442ec96e402b1</td></tr><tr><td>Date of birth</td><td><span>08 April 2006</span></td></tr></tbody></table></div>"},"extension":[{"url":"http://hl7.org/fhir/us/core/StructureDefinition/us-core-race","extension":[{"url":"ombCategory","valueCoding":{"system":"urn:oid:2.16.840.1.113883.6.238","code":"1002-5","display":"American Indian or Alaska Native","userSelected":true}},{"url":"text","valueString":"American Indian or Alaska Native"}]},{"url":"http://hl7.org/fhir/us/core/StructureDefinition/us-core-ethnicity","extension":[{"url":"ombCategory","valueCoding":{"system":"urn:oid:2.16.840.1.113883.6.238","code":"2135-2","display":"Hispanic or Latino","userSelected":true}},{"url":"text","valueString":"Hispanic or Latino"}]}],"identifier":[{"type":{"coding":[{"system":"http://terminology.hl7.org/CodeSystem/v2-0203","code":"MR"}]},"system":"https://bonnie-fhir.healthit.gov/","value":"627a80a15a0d870123c72530"}],"active":true,"name":[{"use":"usual","family":"IPPFail","given":["Age17StartOfEncounter"]}],"gender":"male","birthDate":"2007-04-09"},"request":{"method":"PUT","url":"Patient/11589117-d7b3-48d2-ac4e-b2dedd2dda37"}},{"resource":{"resourceType":"MedicationAdministration","id":"922ae883-33b3-4dcc-89b0-d99259ae253e","meta":{"profile":["http://hl7.org/fhir/us/qicore/StructureDefinition/qicore-medicationadministration"]},"status":"completed","medicationCodeableConcept":{"coding":[{"system":"http://www.nlm.nih.gov/research/umls/rxnorm","code":"1010600"}]},"subject":{"reference":"Patient/1994e69a-472b-4e32-80c1-5c692f36acce"},"effectivePeriod":{"start":"2026-08-11T08:00:00.000+00:00","end":"2026-08-11T08:15:00.000+00:00"}},"request":{"method":"PUT","url":"MedicationAdministration/922ae883-33b3-4dcc-89b0-d99259ae253e"}},{"resource":{"resourceType":"Patient","id":"2adae583-4f70-4492-add5-c56cd38f5843","meta":{"profile":["http://hl7.org/fhir/us/qicore/StructureDefinition/qicore-patient"]},"text":{"status":"generated","div":"<div xmlns=\"http://www.w3.org/1999/xhtml\"><div class=\"hapiHeaderText\">Opioid exactly 12 hrs before Naloxone <b>NUMERPASS </b></div><table class=\"hapiPropertyTable\"><tbody><tr><td>Date of birth</td><td><span>14 November 1980</span></td></tr></tbody></table></div>"},"identifier":[{"type":{"coding":[{"system":"http://terminology.hl7.org/CodeSystem/v2-0203","code":"MR"}]},"system":"https://bonnie-fhir.healthit.gov/","value":"627a80a15a0d870123c7253e"}],"active":true,"name":[{"use":"usual","family":"NUMERPass","given":["OpioidExactly12hrsBeforeAntagonist"]}],"gender":"female","birthDate":"1981-11-14"},"request":{"method":"PUT","url":"Patient/2adae583-4f70-4492-add5-c56cd38f5843"}},{"resource":{"resourceType":"MedicationAdministration","id":"07cf09bf-4a69-4a74-97a2-6f6875ce9a6d","meta":{"profile":["http://hl7.org/fhir/us/qicore/StructureDefinition/qicore-medicationadministration"]},"status":"completed","medicationCodeableConcept":{"coding":[{"system":"http://www.nlm.nih.gov/research/umls/rxnorm","code":"1010600","display":"Opioid"}]},"subject":{"reference":"Patient/93064568-a739-403d-853f-a3150bd8f752"},"effectivePeriod":{"start":"2026-08-11T08:00:00.000+00:00","end":"2026-08-11T08:15:00.000+00:00"},"dosage":{"route":{"coding":[{"system":"http://snomed.info/sct","code":"34206005","display":"Subcutaneous route (qualifier value)"}]}}},"request":{"method":"PUT","url":"MedicationAdministration/07cf09bf-4a69-4a74-97a2-6f6875ce9a6d"}},{"resource":{"resourceType":"MeasureReport","id":"2b356554-5307-4c42-966e-f47a25d65da7","meta":{"profile":["http://hl7.org/fhir/us/cqfmeasures/StructureDefinition/test-case-cqfm"]},"contained":[{"resourceType":"Parameters","id":"52c4ec0a-0a32-4172-9794-cd7185042adf-parameters","parameter":[{"name":"subject","valueString":"31b40acc-ca5f-4d1d-bd83-4b1a14eb822e"}]}],"extension":[{"url":"http://hl7.org/fhir/StructureDefinition/cqf-inputParameters","valueReference":{"reference":"#52c4ec0a-0a32-4172-9794-cd7185042adf-parameters"}},{"url":"http://hl7.org/fhir/us/cqfmeasures/StructureDefinition/cqfm-testCaseDescription","valueMarkdown":"Two separate encounters. Only one meets Numerator. 2nd encounter had opioid but no antagonist."}],"modifierExtension":[{"url":"http://hl7.org/fhir/us/cqfmeasures/StructureDefinition/cqfm-isTestCase","valueBoolean":true}],"status":"complete","type":"individual","measure":"https://madie.cms.gov/Measure/CMS819FHIRHHORAE","period":{"start":"2026-01-01","end":"2026-12-31"},"group":[{"id":"Group_1","population":[{"id":"InitialPopulation_1","code":{"coding":[{"system":"http://terminology.hl7.org/CodeSystem/measure-population","code":"initial-population","display":"Initial Population"}]},"count":2},{"id":"Denominator_1","code":{"coding":[{"system":"http://terminology.hl7.org/CodeSystem/measure-population","code":"denominator","display":"Denominator"}]},"count":2},{"id":"Numerator_1","code":{"coding":[{"system":"http://terminology.hl7.org/CodeSystem/measure-population","code":"numerator","display":"Numerator"}]},"count":1}],"measureScore":{"value":0.0}}],"evaluatedResource":[{"reference":"MedicationAdministration/65546a57-2f4e-434d-8f46-554a8b84977d"},{"reference":"MedicationAdministration/b3114d12-7fd9-4d33-81b8-41f443ea66d9"},{"reference":"MedicationAdministration/019a875e-b81f-4d65-b229-ae0e602f999a"},{"reference":"Encounter/d7d76b21-38e5-4fd0-b43c-f1899d9e9a13"},{"reference":"Encounter/d7d76b21-38e5-4fd0-b43c-f1899d9e9a13"},{"reference":"Patient/31b40acc-ca5f-4d1d-bd83-4b1a14eb822e"}]},"request":{"method":"PUT","url":"MeasureReport/2b356554-5307-4c42-966e-f47a25d65da7"}},{"resource":{"resourceType":"MedicationAdministration","id":"b254964f-fafb-4232-8082-9902facc46b9","meta":{"profile":["http://hl7.org/fhir/us/qicore/StructureDefinition/qicore-medicationadministration"]},"status":"completed","medicationCodeableConcept":{"coding":[{"system":"http://www.nlm.nih.gov/research/umls/rxnorm","code":"199059","display":"Naloxone Hydrochloride Injection","userSelected":true}]},"subject":{"reference":"Patient/cf4e9832-fad4-4041-9c6b-e7605bf0b3a0"},"effectivePeriod":{"start":"2026-08-11T19:45:00.000+00:00"},"dosage":{"route":{"coding":[{"system":"http://snomed.info/sct","code":"34206005","display":"Subcutaneous route (qualifier value)","userSelected":true}]},"dose":{"value":0.4,"unit":"mg","system":"http://unitsofmeasure.org","code":"mg"}}},"request":{"method":"PUT","url":"MedicationAdministration/b254964f-fafb-4232-8082-9902facc46b9"}},{"resource":{"resourceType":"MedicationAdministration","id":"f38de01e-0e3d-4054-b656-605b0940c2fc","meta":{"profile":["http://hl7.org/fhir/us/qicore/StructureDefinition/qicore-medicationadministration"]},"status":"completed","medicationCodeableConcept":{"coding":[{"system":"http://www.nlm.nih.gov/research/umls/rxnorm","code":"1049251","display":"Opioids, All"}]},"subject":{"reference":"Patient/6d76c342-ac9f-4c46-b224-f39b8216d30e"},"context":{"reference":"Encounter/143a396e-e4bb-4ca1-a5c3-2b78cc39b2f1"},"effectiveDateTime":"2026-12-06T08:00:00.000+00:00","note":[{"text":"Administered opioid medication as prescribed."}],"dosage":{"route":{"coding":[{"system":"http://terminology.hl7.org/CodeSystem/v3-RouteOfAdministration","code":"PO","display":"Oral"}]},"rateQuantity":{"value":1,"unit":"mg"}}},"request":{"method":"PUT","url":"MedicationAdministration/f38de01e-0e3d-4054-b656-605b0940c2fc"}},{"resource":{"resourceType":"MeasureReport","id":"58b8bb5d-c84f-4946-9494-c4affb56a883","meta":{"profile":["http://hl7.org/fhir/us/cqfmeasures/StructureDefinition/test-case-cqfm"]},"contained":[{"resourceType":"Parameters","id":"a742ed99-64b0-4107-b9cc-d2190f6e5c8d-parameters","parameter":[{"name":"subject","valueString":"b88740a3-5143-4b36-ae0d-75a6b95db7e2"}]}],"extension":[{"url":"http://hl7.org/fhir/StructureDefinition/cqf-inputParameters","valueReference":{"reference":"#a742ed99-64b0-4107-b9cc-d2190f6e5c8d-parameters"}},{"url":"http://hl7.org/fhir/us/cqfmeasures/StructureDefinition/cqfm-testCaseDescription","valueMarkdown":"Opioid antagonist outside of OR given 1 minute after encounter end date time. Must be during encounter to meet. Numerator fails."}],"modifierExtension":[{"url":"http://hl7.org/fhir/us/cqfmeasures/StructureDefinition/cqfm-isTestCase","valueBoolean":true}],"status":"complete","type":"individual","measure":"https://madie.cms.gov/Measure/CMS819FHIRHHORAE","period":{"start":"2026-01-01","end":"2026-12-31"},"group":[{"id":"Group_1","population":[{"id":"InitialPopulation_1","code":{"coding":[{"system":"http://terminology.hl7.org/CodeSystem/measure-population","code":"initial-population","display":"Initial Population"}]},"count":1},{"id":"Denominator_1","code":{"coding":[{"system":"http://terminology.hl7.org/CodeSystem/measure-population","code":"denominator","display":"Denominator"}]},"count":1},{"id":"Numerator_1","code":{"coding":[{"system":"http://terminology.hl7.org/CodeSystem/measure-population","code":"numerator","display":"Numerator"}]},"count":0}],"measureScore":{"value":0.0}}],"evaluatedResource":[{"reference":"MedicationAdministration/48817db3-aec8-4b53-a9e9-453f719ac221"},{"reference":"MedicationAdministration/673df3d8-3bc0-4a7e-bd14-97d04432f018"},{"reference":"Encounter/0c0287ba-89f4-432d-952d-b5bff2294697"},{"reference":"Patient/b88740a3-5143-4b36-ae0d-75a6b95db7e2"}]},"request":{"method":"PUT","url":"MeasureReport/58b8bb5d-c84f-4946-9494-c4affb56a883"}},{"resource":{"resourceType":"MeasureReport","id":"c297d81d-905f-455d-b1bf-8984c0d97347","meta":{"profile":["http://hl7.org/fhir/us/cqfmeasures/StructureDefinition/test-case-cqfm"]},"contained":[{"resourceType":"Parameters","id":"a7fa3533-bdbb-4553-a2d9-05444b314e53-parameters","parameter":[{"name":"subject","valueString":"cf4e9832-fad4-4041-9c6b-e7605bf0b3a0"}]}],"extension":[{"url":"http://hl7.org/fhir/StructureDefinition/cqf-inputParameters","valueReference":{"reference":"#a7fa3533-bdbb-4553-a2d9-05444b314e53-parameters"}},{"url":"http://hl7.org/fhir/us/cqfmeasures/StructureDefinition/cqfm-testCaseDescription","valueMarkdown":"Encounter with Opioid Administration Within The Operating Room"}],"modifierExtension":[{"url":"http://hl7.org/fhir/us/cqfmeasures/StructureDefinition/cqfm-isTestCase","valueBoolean":true}],"status":"complete","type":"individual","measure":"https://madie.cms.gov/Measure/CMS819FHIRHHORAE","period":{"start":"2026-01-01","end":"2026-12-31"},"group":[{"id":"Group_1","population":[{"id":"InitialPopulation_1","code":{"coding":[{"system":"http://terminology.hl7.org/CodeSystem/measure-population","code":"initial-population","display":"Initial Population"}]},"count":0},{"id":"Denominator_1","code":{"coding":[{"system":"http://terminology.hl7.org/CodeSystem/measure-population","code":"denominator","display":"Denominator"}]},"count":0},{"id":"Numerator_1","code":{"coding":[{"system":"http://terminology.hl7.org/CodeSystem/measure-population","code":"numerator","display":"Numerator"}]},"count":0}],"measureScore":{"value":0.0}}],"evaluatedResource":[{"reference":"Patient/cf4e9832-fad4-4041-9c6b-e7605bf0b3a0"},{"reference":"Encounter/135ea71a-6e25-4e11-9c12-91cd23e22b47"},{"reference":"MedicationAdministration/4d30a5ad-5750-4b2a-a87c-5476f5f6deb3"},{"reference":"MedicationAdministration/acb95ccc-b8a6-45a6-b7bb-54d31de9cb1d"},{"reference":"MedicationAdministration/b254964f-fafb-4232-8082-9902facc46b9"},{"reference":"Location/f334ae9f-85a3-4346-8ad4-ffb5b61d3598"}]},"request":{"method":"PUT","url":"MeasureReport/c297d81d-905f-455d-b1bf-8984c0d97347"}},{"resource":{"resourceType":"Patient","id":"9e1276d8-5574-424a-b093-0bd89b45019e","meta":{"profile":["http://hl7.org/fhir/us/qicore/StructureDefinition/qicore-patient"]},"extension":[{"url":"http://hl7.org/fhir/us/core/StructureDefinition/us-core-race","extension":[{"url":"ombCategory","valueCoding":{"system":"urn:oid:2.16.840.1.113883.6.238","code":"2106-3","display":"White"}},{"url":"text","valueString":"White"}]},{"url":"http://hl7.org/fhir/us/core/StructureDefinition/us-core-ethnicity","extension":[{"url":"ombCategory","valueCoding":{"system":"urn:oid:2.16.840.1.113883.6.238","code":"2135-2","display":"Hispanic or Latino"}},{"url":"text","valueString":"Hispanic or Latino"}]},{"url":"http://hl7.org/fhir/us/core/StructureDefinition/us-core-sex","valueCode":"248152002"}],"identifier":[{"system":"http://hospital.smarthealthit.org","value":"999999999"}],"name":[{"family":"Example","given":["Patient"]}],"gender":"male","birthDate":"1956-01-01"},"request":{"method":"PUT","url":"Patient/9e1276d8-5574-424a-b093-0bd89b45019e"}},{"resource":{"resourceType":"Library","id":"CMS819FHIRHHORAE","meta":{"profile":["http://hl7.org/fhir/uv/crmi/StructureDefinition/crmi-shareablelibrary","http://hl7.org/fhir/uv/crmi/StructureDefinition/crmi-computablelibrary","http://hl7.org/fhir/uv/crmi/StructureDefinition/crmi-publishablelibrary","http://hl7.org/fhir/uv/crmi/StructureDefinition/crmi-executablelibrary","http://hl7.org/fhir/uv/cql/StructureDefinition/cql-library","http://hl7.org/fhir/uv/cql/StructureDefinition/elm-json-library","http://hl7.org/fhir/uv/cql/StructureDefinition/elm-xml-library"]},"language":"en","text":{"status":"extensions","div":"<div xmlns=\"http://www.w3.org/1999/xhtml\" class=\"col-12\">\n  <table class=\"narrative-table\">\n    <tbody>\n<tr>\n\n<th colspan=\"2\" scope=\"row\" class=\"row-header\">Knowledge Artifact Metadata</th>\n\n</tr>\n\n<tr>\n\n<th scope=\"row\" class=\"row-header\">Name (machine-readable)</th>\n\n<td class=\"content-container\">CMS819FHIRHHORAE</td>\n</tr>\n\n\n<tr>\n\n<th scope=\"row\" class=\"row-header\">Title (human-readable)</th>\n\n<td class=\"content-container\">CMS819FHIRHHORAE</td>\n</tr>\n\n\n\n<tr>\n\n<th scope=\"row\" class=\"row-header\">Status</th>\n\n<td class=\"content-container\">active</td>\n</tr>\n\n\n<tr>\n\n<th scope=\"row\" class=\"row-header\">Experimental</th>\n\n<td class=\"content-container\">false</td>\n</tr>\n\n\n<tr>\n\n<th scope=\"row\" class=\"row-header\">Description</th>\n\n<td class=\"content-container\">CMS819FHIRHHORAE</td>\n</tr>\n\n\n\n\n\n\n\n\n\n\n\n\n\n\n<tr>\n\n<th scope=\"row\" class=\"row-header\">Library Steward</th>\n\n<td class=\"content-container\">Centers for Medicare &amp; Medicaid Services (CMS)</td>\n</tr>\n\n\n\n\n\n\n\n\n<tr>\n  \n  \n  \n  \n  \n<th scope=\"row\" class=\"row-header\">Dependency</th>\n\n  \n  <td class=\"content-container\">\n    \n    <em>Description</em>: Library SDE\n    \n    <br/>\n    \n    \n    \n    \n    \n    \n    <em>Resource</em>: https://madie.cms.gov/Library/SupplementalDataElements|5.1.000\n    <br/>\n    <em>Canonical URL</em>: <tt>https://madie.cms.gov/Library/SupplementalDataElements|5.1.000</tt>\n    \n  </td>\n</tr>\n\n<tr>\n  \n  \n  \n  \n  \n<th scope=\"row\" class=\"row-header\">Dependency</th>\n\n  \n  <td class=\"content-container\">\n    \n    <em>Description</em>: Library FHIRHelpers\n    \n    <br/>\n    \n    \n    \n    \n    \n    \n    <em>Resource</em>: https://madie.cms.gov/Library/FHIRHelpers|4.4.000\n    <br/>\n    <em>Canonical URL</em>: <tt>https://madie.cms.gov/Library/FHIRHelpers|4.4.000</tt>\n    \n  </td>\n</tr>\n\n<tr>\n  \n  \n  \n  \n  \n<th scope=\"row\" class=\"row-header\">Dependency</th>\n\n  \n  <td class=\"content-container\">\n    \n    <em>Description</em>: Library QICoreCommon\n    \n    <br/>\n    \n    \n    \n    \n    \n    \n    <em>Resource</em>: https://madie.cms.gov/Library/QICoreCommon|4.0.000\n    <br/>\n    <em>Canonical URL</em>: <tt>https://madie.cms.gov/Library/QICoreCommon|4.0.000</tt>\n    \n  </td>\n</tr>\n\n<tr>\n  \n  \n  \n  \n  \n<th scope=\"row\" class=\"row-header\">Dependency</th>\n\n  \n  <td class=\"content-container\">\n    \n    <em>Description</em>: Library CQMCommon\n    \n    <br/>\n    \n    \n    \n    \n    \n    \n    <em>Resource</em>: https://madie.cms.gov/Library/CQMCommon|4.1.000\n    <br/>\n    <em>Canonical URL</em>: <tt>https://madie.cms.gov/Library/CQMCommon|4.1.000</tt>\n    \n  </td>\n</tr>\n\n<tr>\n  \n  \n  \n  \n  \n<th scope=\"row\" class=\"row-header\">Dependency</th>\n\n  \n  <td class=\"content-container\">\n    \n    <em>Description</em>: Value set Opioid Antagonist\n    \n    <br/>\n    \n    \n    \n    \n    \n    \n    <em>Resource</em>: http://cts.nlm.nih.gov/fhir/ValueSet/2.16.840.1.113762.1.4.1248.119\n    <br/>\n    <em>Canonical URL</em>: <tt>http://cts.nlm.nih.gov/fhir/ValueSet/2.16.840.1.113762.1.4.1248.119</tt>\n    \n  </td>\n</tr>\n\n<tr>\n  \n  \n  \n  \n  \n<th scope=\"row\" class=\"row-header\">Dependency</th>\n\n  \n  <td class=\"content-container\">\n    \n    <em>Description</em>: Value set Opioids, All\n    \n    <br/>\n    \n    \n    \n    \n    \n    \n    <em>Resource</em>: http://cts.nlm.nih.gov/fhir/ValueSet/2.16.840.1.113762.1.4.1196.226\n    <br/>\n    <em>Canonical URL</em>: <tt>http://cts.nlm.nih.gov/fhir/ValueSet/2.16.840.1.113762.1.4.1196.226</tt>\n    \n  </td>\n</tr>\n\n<tr>\n  \n  \n  \n  \n  \n<th scope=\"row\" class=\"row-header\">Dependency</th>\n\n  \n  <td class=\"content-container\">\n    \n    <em>Description</em>: Value set Encounter Inpatient\n    \n    <br/>\n    \n    \n    \n    \n    \n    \n    <em>Resource</em>: http://cts.nlm.nih.gov/fhir/ValueSet/2.16.840.1.113883.3.666.5.307\n    <br/>\n    <em>Canonical URL</em>: <tt>http://cts.nlm.nih.gov/fhir/ValueSet/2.16.840.1.113883.3.666.5.307</tt>\n    \n  </td>\n</tr>\n\n<tr>\n  \n  \n  \n  \n  \n<th scope=\"row\" class=\"row-header\">Dependency</th>\n\n  \n  <td class=\"content-container\">\n    \n    <em>Description</em>: Value set Operating Room Suite\n    \n    <br/>\n    \n    \n    \n    \n    \n    \n    <em>Resource</em>: http://cts.nlm.nih.gov/fhir/ValueSet/2.16.840.1.113762.1.4.1248.141\n    <br/>\n    <em>Canonical URL</em>: <tt>http://cts.nlm.nih.gov/fhir/ValueSet/2.16.840.1.113762.1.4.1248.141</tt>\n    \n  </td>\n</tr>\n\n<tr>\n  \n  \n  \n  \n  \n<th scope=\"row\" class=\"row-header\">Dependency</th>\n\n  \n  <td class=\"content-container\">\n    \n    <em>Description</em>: Value set Routes of Administration for Opioid Antagonists\n    \n    <br/>\n    \n    \n    \n    \n    \n    \n    <em>Resource</em>: http://cts.nlm.nih.gov/fhir/ValueSet/2.16.840.1.113762.1.4.1248.187\n    <br/>\n    <em>Canonical URL</em>: <tt>http://cts.nlm.nih.gov/fhir/ValueSet/2.16.840.1.113762.1.4.1248.187</tt>\n    \n  </td>\n</tr>\n\n\n\n\n\n\n\n\n\n\n<tr>\n\n<th colspan=\"2\" scope=\"row\" class=\"row-header\">Library Metadata</th>\n\n</tr>\n\n<tr>\n\n<th scope=\"row\" class=\"row-header\">Identifier</th>\n\n<td class=\"content-container\">org.hl7.fhir.r5.model.Identifier@7956aa46</td>\n</tr>\n\n\n<tr>\n\n<th scope=\"row\" class=\"row-header\">Version Number</th>\n\n<td class=\"content-container\">0.4.000</td>\n</tr>\n\n\n<tr>\n\n<th scope=\"row\" class=\"row-header\">Library Type</th>\n\n<td class=\"content-container\">[http://terminology.hl7.org/CodeSystem/library-type#logic-library]</td>\n</tr>\n\n\n\n\n<tr>\n  <th scope=\"row\" class=\"row-header\">Data Requirement</th>\n  <td class=\"content-container\">\n    <em>Type</em>: MedicationAdministration\n    <br/>\n  \n    <em>Profile(s)</em>: \n  \n    http://hl7.org/fhir/us/qicore/StructureDefinition/qicore-medicationadministration\n    <br/>        \n  \n   \n   \n    <em>Must Support Elements</em>: medication\n    <br/>\n   \n  \n    <em>Code Filter(s)</em>: \n    <br/>\n  \n  \n    <span class=\"tab-one\"><em>Path</em>: medication</span>\n    <br/>\n  \n  \n  \n    <span class=\"tab-one\"><em>ValueSet</em>:</span> http://cts.nlm.nih.gov/fhir/ValueSet/2.16.840.1.113762.1.4.1248.119\n    <br/> \n  \n  \n  \n   \n  </td>\n</tr>\n\n<tr>\n  <th scope=\"row\" class=\"row-header\">Data Requirement</th>\n  <td class=\"content-container\">\n    <em>Type</em>: MedicationAdministration\n    <br/>\n  \n    <em>Profile(s)</em>: \n  \n    http://hl7.org/fhir/us/qicore/StructureDefinition/qicore-medicationadministration\n    <br/>        \n  \n   \n   \n    <em>Must Support Elements</em>: medication\n    <br/>\n   \n  \n    <em>Code Filter(s)</em>: \n    <br/>\n  \n  \n    <span class=\"tab-one\"><em>Path</em>: medication</span>\n    <br/>\n  \n  \n  \n    <span class=\"tab-one\"><em>ValueSet</em>:</span> http://cts.nlm.nih.gov/fhir/ValueSet/2.16.840.1.113762.1.4.1196.226\n    <br/> \n  \n  \n  \n   \n  </td>\n</tr>\n\n<tr>\n  <th scope=\"row\" class=\"row-header\">Data Requirement</th>\n  <td class=\"content-container\">\n    <em>Type</em>: MedicationAdministration\n    <br/>\n  \n    <em>Profile(s)</em>: \n  \n    http://hl7.org/fhir/us/qicore/StructureDefinition/qicore-medicationadministration\n    <br/>        \n  \n   \n   \n    <em>Must Support Elements</em>: medication.reference.value\n    <br/>\n   \n   \n  </td>\n</tr>\n\n<tr>\n  <th scope=\"row\" class=\"row-header\">Data Requirement</th>\n  <td class=\"content-container\">\n    <em>Type</em>: Medication\n    <br/>\n  \n    <em>Profile(s)</em>: \n  \n    http://hl7.org/fhir/us/qicore/StructureDefinition/qicore-medication\n    <br/>        \n  \n   \n   \n    <em>Must Support Elements</em>: id.value, code\n    <br/>\n   \n   \n  </td>\n</tr>\n\n\n\n  <tr>\n\n<th colspan=\"2\" scope=\"row\" class=\"row-header\">Library Content</th>\n\n</tr>\n  \n    \n    <tr>\n      <th scope=\"row\" class=\"row-header\">CQL Content</th>\n      <td>\n        <pre style=\"border: none;\" class=\"content-container highlight language-cql\"><code class=\"language-cql\">library CMS819FHIRHHORAE version '0.4.000'\r\n\r\nusing QICore version '6.0.0'\r\n\r\ninclude SupplementalDataElements version '5.1.000' called SDE\r\ninclude CQMCommon version '4.1.000' called CQMCommon\r\ninclude QICoreCommon version '4.0.000' called QICoreCommon\r\ninclude FHIRHelpers version '4.4.000' called FHIRHelpers\r\n\r\ncodesystem &quot;SNOMEDCT&quot;: 'http://snomed.info/sct'\r\n\r\nvalueset &quot;Encounter Inpatient&quot;: 'http://cts.nlm.nih.gov/fhir/ValueSet/2.16.840.1.113883.3.666.5.307'\r\nvalueset &quot;Operating Room Suite&quot;: 'http://cts.nlm.nih.gov/fhir/ValueSet/2.16.840.1.113762.1.4.1248.141'\r\nvalueset &quot;Opioid Antagonist&quot;: 'http://cts.nlm.nih.gov/fhir/ValueSet/2.16.840.1.113762.1.4.1248.119'\r\nvalueset &quot;Opioids, All&quot;: 'http://cts.nlm.nih.gov/fhir/ValueSet/2.16.840.1.113762.1.4.1196.226'\r\nvalueset &quot;Routes of Administration for Opioid Antagonists&quot;: 'http://cts.nlm.nih.gov/fhir/ValueSet/2.16.840.1.113762.1.4.1248.187'\r\n\r\nparameter &quot;Measurement Period&quot; Interval&lt;DateTime&gt;\r\n\r\ncontext Patient\r\n\r\ndefine &quot;Denominator&quot;:\r\n  &quot;Initial Population&quot;\r\n\r\ndefine &quot;Initial Population&quot;:\r\n  &quot;Encounter With Opioid Administration Outside Of Operating Room&quot;\r\n\r\ndefine &quot;Numerator&quot;:\r\n  &quot;Encounter With NonOperating Room Opioid And Antagonist Administration&quot;\r\n\r\ndefine &quot;Opioid Administration&quot;:\r\n  [&quot;MedicationAdministration&quot;: &quot;Opioids, All&quot;] Opioids\r\n    where Opioids.status = 'completed'\r\n\r\ndefine &quot;Non Enteral Opioid Antagonist Administration&quot;:\r\n  [&quot;MedicationAdministration&quot;: &quot;Opioid Antagonist&quot;] AntagonistGiven\r\n    where AntagonistGiven.status = 'completed'\r\n\r\ndefine &quot;Qualifying Encounter&quot;:\r\n  [&quot;Encounter&quot;: &quot;Encounter Inpatient&quot;] InpatientEncounter\r\n    where AgeInYearsAt(date from start of InpatientEncounter.period) &gt;= 18\r\n      and InpatientEncounter.period ends during day of &quot;Measurement Period&quot;\r\n      and InpatientEncounter.status = 'finished'\r\n\r\ndefine &quot;SDE Ethnicity&quot;:\r\n  SDE.&quot;SDE Ethnicity&quot;\r\n\r\ndefine &quot;SDE Payer&quot;:\r\n  SDE.&quot;SDE Payer&quot;\r\n\r\ndefine &quot;SDE Race&quot;:\r\n  SDE.&quot;SDE Race&quot;\r\n\r\ndefine &quot;SDE Sex&quot;:\r\n  SDE.&quot;SDE Sex&quot;\r\n\r\ndefine &quot;Encounter With Opioid Administration Outside Of Operating Room&quot;:\r\n  &quot;Qualifying Encounter&quot; InpatientEncounter\r\n    with &quot;Opioid Administration&quot; OpioidGiven\r\n      such that OpioidGiven.effective.toInterval ( ) starts during InpatientEncounter.hospitalizationWithObservation ( )\r\n        and not exists ( InpatientEncounter.location EncounterLocation\r\n            where EncounterLocation.location.getLocation ( ).type in &quot;Operating Room Suite&quot;\r\n              and OpioidGiven.effective.toInterval ( ) starts during EncounterLocation.period\r\n        )\r\n\r\ndefine &quot;Encounter With NonOperating Room Opioid And Antagonist Administration&quot;:\n  // Excludes opioid antagonist administered in operating room AND excludes opioids administered in operating room AND opioid is administered before opioid antagonist AND limits opioid antagonist to non-enteral routes//\r\n  \r\n  from\r\n    &quot;Non Enteral Opioid Antagonist Administration&quot; NonEnteralOpioidAntagonistGiven,\r\n    &quot;Opioid Administration&quot; OpioidGiven,\r\n    &quot;Denominator&quot; InpatientHospitalization\r\n    where not exists ( InpatientHospitalization.location EncounterLocation\r\n        where EncounterLocation.location.getLocation ( ).type in &quot;Operating Room Suite&quot;\r\n          and NonEnteralOpioidAntagonistGiven.effective.toInterval ( ) starts during EncounterLocation.period\r\n    )\r\n      and ( NonEnteralOpioidAntagonistGiven.effective.toInterval ( ) starts during InpatientHospitalization.hospitalizationWithObservation ( )\r\n          and OpioidGiven.effective.toInterval ( ) starts during InpatientHospitalization.hospitalizationWithObservation ( )\r\n          and OpioidGiven.effective.toInterval ( ) ends 12 hours or less before start of NonEnteralOpioidAntagonistGiven.effective.toInterval ( )\r\n          and NonEnteralOpioidAntagonistGiven.dosage.route in &quot;Routes of Administration for Opioid Antagonists&quot;\r\n      )\r\n    return InpatientHospitalization</code></pre>\n      </td>\n    </tr>\n    \n    \n    \n  \n\n<tr>\n  <th colspan=\"2\" scope=\"row\" class=\"row-header\">Generated using version 0.4.7 of the sample-content-ig Liquid templates</th>\n</tr>\n\n    </tbody>\n  </table>\n</div>"},"contained":[{"resourceType":"Parameters","id":"options","parameter":[{"name":"translatorVersion","valueString":"3.25.0"},{"name":"option","valueString":"EnableAnnotations"},{"name":"option","valueString":"EnableLocators"},{"name":"option","valueString":"DisableListDemotion"},{"name":"option","valueString":"DisableListPromotion"},{"name":"format","valueString":"XML"},{"name":"format","valueString":"JSON"},{"name":"analyzeDataRequirements","valueBoolean":false},{"name":"collapseDataRequirements","valueBoolean":false},{"name":"compatibilityLevel","valueString":"1.5"},{"name":"enableCqlOnly","valueBoolean":false},{"name":"errorLevel","valueString":"Info"},{"name":"signatureLevel","valueString":"Overloads"},{"name":"validateUnits","valueBoolean":true},{"name":"verifyOnly","valueBoolean":false}]}],"extension":[{"url":"http://hl7.org/fhir/StructureDefinition/cqf-cqlOptions","valueReference":{"reference":"#options"}}],"url":"https://madie.cms.gov/Library/CMS819FHIRHHORAE","identifier":[{"use":"official","system":"https://madie.cms.gov/login","value":"CMS819FHIRHHORAE"}],"version":"0.4.000","name":"CMS819FHIRHHORAE","title":"CMS819FHIRHHORAE","status":"active","experimental":false,"type":{"coding":[{"system":"http://terminology.hl7.org/CodeSystem/library-type","code":"logic-library"}]},"date":"2025-06-19T19:39:01+00:00","publisher":"Centers for Medicare & Medicaid Services (CMS)","description":"CMS819FHIRHHORAE","content":[{"contentType":"text/cql","data":""}]},"request":{"method":"PUT","url":"Library/CMS819FHIRHHORAE"}},{"resource":{"resourceType":"MedicationAdministration","id":"c00704c1-8ed1-435b-a7e4-547ab20e715c","meta":{"profile":["http://hl7.org/fhir/us/qicore/StructureDefinition/qicore-medicationadministration"]},"status":"completed","medicationCodeableConcept":{"coding":[{"system":"http://www.nlm.nih.gov/research/umls/rxnorm","code":"1010600"}]},"subject":{"reference":"Patient/11589117-d7b3-48d2-ac4e-b2dedd2dda37"},"effectivePeriod":{"start":"2025-04-07T08:00:00.000+00:00","end":"2025-04-07T08:15:00.000+00:00"}},"request":{"method":"PUT","url":"MedicationAdministration/c00704c1-8ed1-435b-a7e4-547ab20e715c"}},{"resource":{"resourceType":"MeasureReport","id":"7e37e5fc-48a3-4911-b27b-4d9450962aa6","meta":{"profile":["http://hl7.org/fhir/us/cqfmeasures/StructureDefinition/test-case-cqfm"]},"contained":[{"resourceType":"Parameters","id":"c7b2f1c2-94d7-4e60-9984-e1493fc94dbf-parameters","parameter":[{"name":"subject","valueString":"6127705f-6f70-4134-9c87-1129389bea42"}]}],"extension":[{"url":"http://hl7.org/fhir/StructureDefinition/cqf-inputParameters","valueReference":{"reference":"#c7b2f1c2-94d7-4e60-9984-e1493fc94dbf-parameters"}},{"url":"http://hl7.org/fhir/us/cqfmeasures/StructureDefinition/cqfm-testCaseDescription","valueMarkdown":"Inpatient encounter where patient was 17 while in ED, turns 18 on day of IP admit. Meets denominator criteria of 18 when IP. "}],"modifierExtension":[{"url":"http://hl7.org/fhir/us/cqfmeasures/StructureDefinition/cqfm-isTestCase","valueBoolean":true}],"status":"complete","type":"individual","measure":"https://madie.cms.gov/Measure/CMS819FHIRHHORAE","period":{"start":"2026-01-01","end":"2026-12-31"},"group":[{"id":"Group_1","population":[{"id":"InitialPopulation_1","code":{"coding":[{"system":"http://terminology.hl7.org/CodeSystem/measure-population","code":"initial-population","display":"Initial Population"}]},"count":1},{"id":"Denominator_1","code":{"coding":[{"system":"http://terminology.hl7.org/CodeSystem/measure-population","code":"denominator","display":"Denominator"}]},"count":1},{"id":"Numerator_1","code":{"coding":[{"system":"http://terminology.hl7.org/CodeSystem/measure-population","code":"numerator","display":"Numerator"}]},"count":0}],"measureScore":{"value":0.0}}],"evaluatedResource":[{"reference":"Patient/6127705f-6f70-4134-9c87-1129389bea42"},{"reference":"Encounter/6738c679-6915-4cfc-a995-0a1aa839848d"},{"reference":"Encounter/af3e9240-9036-496a-b2ad-818afcf07e45"},{"reference":"MedicationAdministration/33dd5e72-3e5b-4934-a9a3-eb090d2c0efc"}]},"request":{"method":"PUT","url":"MeasureReport/7e37e5fc-48a3-4911-b27b-4d9450962aa6"}},{"resource":{"resourceType":"Patient","id":"47e2c410-9c00-4f05-96b4-b925e0c158b1","meta":{"profile":["http://hl7.org/fhir/us/qicore/StructureDefinition/qicore-patient"]},"extension":[{"url":"http://hl7.org/fhir/us/core/StructureDefinition/us-core-race","extension":[{"url":"ombCategory","valueCoding":{"system":"urn:oid:2.16.840.1.113883.6.238","code":"2106-3","display":"White"}},{"url":"text","valueString":"White"}]},{"url":"http://hl7.org/fhir/us/core/StructureDefinition/us-core-ethnicity","extension":[{"url":"ombCategory","valueCoding":{"system":"urn:oid:2.16.840.1.113883.6.238","code":"2135-2","display":"Hispanic or Latino"}},{"url":"text","valueString":"Hispanic or Latino"}]},{"url":"http://hl7.org/fhir/us/core/StructureDefinition/us-core-sex","valueCode":"248153007"}],"identifier":[{"system":"http://hospital.smarthealthit.org","value":"999999999"}],"name":[{"family":"Example","given":["Patient"]}],"gender":"female","birthDate":"1956-01-01"},"request":{"method":"PUT","url":"Patient/47e2c410-9c00-4f05-96b4-b925e0c158b1"}},{"resource":{"resourceType":"MedicationAdministration","id":"4007451b-68d7-4836-a373-40daf500ff7c","meta":{"profile":["http://hl7.org/fhir/us/qicore/StructureDefinition/qicore-medicationadministration"]},"status":"completed","medicationCodeableConcept":{"coding":[{"system":"http://www.nlm.nih.gov/research/umls/rxnorm","code":"1659929","display":"Naloxone (opioid antagonist)"}]},"subject":{"reference":"Patient/bef27397-e972-46e8-8e92-b8d4fd7985dc"},"effectiveDateTime":"2025-12-31T09:00:00.000+00:00","dosage":{"route":{"coding":[{"system":"http://snomed.info/sct","code":"34206005","display":"Intravenous"}]}}},"request":{"method":"PUT","url":"MedicationAdministration/4007451b-68d7-4836-a373-40daf500ff7c"}},{"resource":{"resourceType":"Patient","id":"06d7810a-dcc6-4f6d-ab28-2a0843449475","meta":{"profile":["http://hl7.org/fhir/us/qicore/StructureDefinition/qicore-patient"]},"extension":[{"url":"http://hl7.org/fhir/us/core/StructureDefinition/us-core-race","extension":[{"url":"ombCategory","valueCoding":{"system":"urn:oid:2.16.840.1.113883.6.238","code":"1002-5","display":"American Indian or Alaska Native","userSelected":true}},{"url":"text","valueString":"American Indian or Alaska Native"},{"url":"detailed","valueCoding":{"system":"urn:oid:2.16.840.1.113883.6.238","code":"1653-5","display":"Tohono O'Odham"}}]},{"url":"http://hl7.org/fhir/us/core/StructureDefinition/us-core-ethnicity","extension":[{"url":"ombCategory","valueCoding":{"system":"urn:oid:2.16.840.1.113883.6.238","code":"2135-2","display":"Hispanic or Latino","userSelected":true}},{"url":"text","valueString":"Hispanic or Latino"}]}],"identifier":[{"type":{"coding":[{"system":"http://terminology.hl7.org/CodeSystem/v2-0203","code":"MR"}]},"system":"https://bonnie-fhir.healthit.gov/","value":"627a80a15a0d870123c7253c"}],"active":true,"name":[{"use":"usual","family":"DENOMPass","given":["Age17InEDAge18DayOfIPAdmit"]}],"gender":"other","birthDate":"2008-04-07"},"request":{"method":"PUT","url":"Patient/06d7810a-dcc6-4f6d-ab28-2a0843449475"}},{"resource":{"resourceType":"MeasureReport","id":"47cc1c6e-d78e-43fa-9b30-87c5bc4eb176","meta":{"profile":["http://hl7.org/fhir/us/cqfmeasures/StructureDefinition/test-case-cqfm"]},"contained":[{"resourceType":"Parameters","id":"dd0fd32e-d855-4ee7-98d9-dd414af62efc-parameters","parameter":[{"name":"subject","valueString":"11589117-d7b3-48d2-ac4e-b2dedd2dda37"}]}],"extension":[{"url":"http://hl7.org/fhir/StructureDefinition/cqf-inputParameters","valueReference":{"reference":"#dd0fd32e-d855-4ee7-98d9-dd414af62efc-parameters"}},{"url":"http://hl7.org/fhir/us/cqfmeasures/StructureDefinition/cqfm-testCaseDescription","valueMarkdown":"Inpatient encounter where patient is 17 at start of IP stay. Turns 18 day after. Does not meet IPP/Denom criteria. "}],"modifierExtension":[{"url":"http://hl7.org/fhir/us/cqfmeasures/StructureDefinition/cqfm-isTestCase","valueBoolean":true}],"status":"complete","type":"individual","measure":"https://madie.cms.gov/Measure/CMS819FHIRHHORAE","period":{"start":"2026-01-01","end":"2026-12-31"},"group":[{"id":"Group_1","population":[{"id":"InitialPopulation_1","code":{"coding":[{"system":"http://terminology.hl7.org/CodeSystem/measure-population","code":"initial-population","display":"Initial Population"}]},"count":0},{"id":"Denominator_1","code":{"coding":[{"system":"http://terminology.hl7.org/CodeSystem/measure-population","code":"denominator","display":"Denominator"}]},"count":0},{"id":"Numerator_1","code":{"coding":[{"system":"http://terminology.hl7.org/CodeSystem/measure-population","code":"numerator","display":"Numerator"}]},"count":0}],"measureScore":{"value":0.0}}],"evaluatedResource":[{"reference":"Patient/11589117-d7b3-48d2-ac4e-b2dedd2dda37"},{"reference":"Encounter/9ecdccee-006d-4b9a-b045-092a3f129bb7"},{"reference":"Encounter/c6bb07ef-9265-4243-977f-3377067c733c"},{"reference":"Coverage/287d93ee-1ef6-4927-9872-77ba7ebe6508"},{"reference":"MedicationAdministration/c00704c1-8ed1-435b-a7e4-547ab20e715c"}]},"request":{"method":"PUT","url":"MeasureReport/47cc1c6e-d78e-43fa-9b30-87c5bc4eb176"}},{"resource":{"resourceType":"MeasureReport","id":"2d99bfc5-07d1-4749-80c8-e18d2ed3f8bb","meta":{"profile":["http://hl7.org/fhir/us/cqfmeasures/StructureDefinition/test-case-cqfm"]},"contained":[{"resourceType":"Parameters","id":"3cecb6f8-99b4-45a4-a8c3-086e3a75bb1e-parameters","parameter":[{"name":"subject","valueString":"9e1276d8-5574-424a-b093-0bd89b45019e"}]}],"extension":[{"url":"http://hl7.org/fhir/StructureDefinition/cqf-inputParameters","valueReference":{"reference":"#3cecb6f8-99b4-45a4-a8c3-086e3a75bb1e-parameters"}},{"url":"http://hl7.org/fhir/us/cqfmeasures/StructureDefinition/cqfm-testCaseDescription","valueMarkdown":"Encounter starts before MP but ends during MP. Meets IPP/Denom."}],"modifierExtension":[{"url":"http://hl7.org/fhir/us/cqfmeasures/StructureDefinition/cqfm-isTestCase","valueBoolean":true}],"status":"complete","type":"individual","measure":"https://madie.cms.gov/Measure/CMS819FHIRHHORAE","period":{"start":"2026-01-01","end":"2026-12-31"},"group":[{"id":"Group_1","population":[{"id":"InitialPopulation_1","code":{"coding":[{"system":"http://terminology.hl7.org/CodeSystem/measure-population","code":"initial-population","display":"Initial Population"}]},"count":1},{"id":"Denominator_1","code":{"coding":[{"system":"http://terminology.hl7.org/CodeSystem/measure-population","code":"denominator","display":"Denominator"}]},"count":1},{"id":"Numerator_1","code":{"coding":[{"system":"http://terminology.hl7.org/CodeSystem/measure-population","code":"numerator","display":"Numerator"}]},"count":0}],"measureScore":{"value":0.0}}],"evaluatedResource":[{"reference":"MedicationAdministration/0fbe515c-35d5-4eae-bf3c-5daab7e1c1f4"},{"reference":"Encounter/eaab5a11-c1eb-417d-a141-a9e42c944b4c"},{"reference":"Patient/9e1276d8-5574-424a-b093-0bd89b45019e"}]},"request":{"method":"PUT","url":"MeasureReport/2d99bfc5-07d1-4749-80c8-e18d2ed3f8bb"}},{"resource":{"resourceType":"Encounter","id":"3f4d5758-6702-4ec0-a136-02c29623e716","meta":{"profile":["http://hl7.org/fhir/us/qicore/StructureDefinition/qicore-encounter"]},"status":"finished","class":{"system":"http://terminology.hl7.org/CodeSystem/v3-ActCode","code":"IMP","display":"inpatient encounter"},"type":[{"coding":[{"system":"http://snomed.info/sct","code":"183452005","display":"Inpatient encounter"}]}],"subject":{"reference":"Patient/93064568-a739-403d-853f-a3150bd8f752"},"period":{"start":"2026-08-11T08:00:00.000+00:00","end":"2026-08-14T08:15:00.000+00:00"}},"request":{"method":"PUT","url":"Encounter/3f4d5758-6702-4ec0-a136-02c29623e716"}},{"resource":{"resourceType":"MeasureReport","id":"a39a2c97-5856-4468-8c42-e42ba434d23f","meta":{"profile":["http://hl7.org/fhir/us/cqfmeasures/StructureDefinition/test-case-cqfm"]},"contained":[{"resourceType":"Parameters","id":"ab64b943-4933-4200-95a3-36d9c3354970-parameters","parameter":[{"name":"subject","valueString":"73b0c1fe-874b-4982-8cb2-3c30520441de"}]}],"extension":[{"url":"http://hl7.org/fhir/StructureDefinition/cqf-inputParameters","valueReference":{"reference":"#ab64b943-4933-4200-95a3-36d9c3354970-parameters"}},{"url":"http://hl7.org/fhir/us/cqfmeasures/StructureDefinition/cqfm-testCaseDescription","valueMarkdown":"IP encounter w/ opioid given in OR. Antag also given in OR. Does not meet numerator. But later given Opioid outside OR, followed by nonoral Antag outside OR and within 12 hrs. Meets Numerator"}],"modifierExtension":[{"url":"http://hl7.org/fhir/us/cqfmeasures/StructureDefinition/cqfm-isTestCase","valueBoolean":true}],"status":"complete","type":"individual","measure":"https://madie.cms.gov/Measure/CMS819FHIRHHORAE","period":{"start":"2026-01-01","end":"2026-12-31"},"group":[{"id":"Group_1","population":[{"id":"InitialPopulation_1","code":{"coding":[{"system":"http://terminology.hl7.org/CodeSystem/measure-population","code":"initial-population","display":"Initial Population"}]},"count":1},{"id":"Denominator_1","code":{"coding":[{"system":"http://terminology.hl7.org/CodeSystem/measure-population","code":"denominator","display":"Denominator"}]},"count":1},{"id":"Numerator_1","code":{"coding":[{"system":"http://terminology.hl7.org/CodeSystem/measure-population","code":"numerator","display":"Numerator"}]},"count":1}],"measureScore":{"value":0.0}}],"evaluatedResource":[{"reference":"Patient/73b0c1fe-874b-4982-8cb2-3c30520441de"},{"reference":"Encounter/e56e4a26-2c9b-4fb6-935f-f5f6c6dcd140"},{"reference":"MedicationAdministration/7b5cc654-1a0e-4bba-8a4b-fdfbe57381d6"},{"reference":"MedicationAdministration/d26ff555-f1da-4f59-bb85-7229f2228864"},{"reference":"MedicationAdministration/d26ff555-f1da-4f59-bb85-7229f2228864"},{"reference":"MedicationAdministration/d26ff555-f1da-4f59-bb85-7229f2228864"}]},"request":{"method":"PUT","url":"MeasureReport/a39a2c97-5856-4468-8c42-e42ba434d23f"}},{"resource":{"resourceType":"Encounter","id":"b225b0fb-e0ee-44df-97ad-02abe454e0f1","meta":{"profile":["http://hl7.org/fhir/us/qicore/StructureDefinition/qicore-encounter"]},"status":"finished","class":{"system":"http://terminology.hl7.org/CodeSystem/v3-ActCode","code":"IMP","display":"inpatient encounter"},"type":[{"coding":[{"system":"http://snomed.info/sct","code":"183452005"}]}],"subject":{"reference":"Patient/06d7810a-dcc6-4f6d-ab28-2a0843449475"},"period":{"start":"2026-04-07T09:00:00Z","end":"2026-04-10T08:15:00Z"}},"request":{"method":"PUT","url":"Encounter/b225b0fb-e0ee-44df-97ad-02abe454e0f1"}},{"resource":{"resourceType":"MeasureReport","id":"24ca1626-867e-403c-8ae4-818796faeb2c","meta":{"profile":["http://hl7.org/fhir/us/cqfmeasures/StructureDefinition/test-case-cqfm"]},"contained":[{"resourceType":"Parameters","id":"09c4a30a-ab2b-41da-bee4-9e0c7c74e59a-parameters","parameter":[{"name":"subject","valueString":"06d7810a-dcc6-4f6d-ab28-2a0843449475"}]}],"extension":[{"url":"http://hl7.org/fhir/StructureDefinition/cqf-inputParameters","valueReference":{"reference":"#09c4a30a-ab2b-41da-bee4-9e0c7c74e59a-parameters"}},{"url":"http://hl7.org/fhir/us/cqfmeasures/StructureDefinition/cqfm-testCaseDescription","valueMarkdown":"Age 17 in ED, 18 at time of admission meets denominator. Sex = \"other\". "}],"modifierExtension":[{"url":"http://hl7.org/fhir/us/cqfmeasures/StructureDefinition/cqfm-isTestCase","valueBoolean":true}],"status":"complete","type":"individual","measure":"https://madie.cms.gov/Measure/CMS819FHIRHHORAE","period":{"start":"2026-01-01","end":"2026-12-31"},"group":[{"id":"Group_1","population":[{"id":"InitialPopulation_1","code":{"coding":[{"system":"http://terminology.hl7.org/CodeSystem/measure-population","code":"initial-population","display":"Initial Population"}]},"count":1},{"id":"Denominator_1","code":{"coding":[{"system":"http://terminology.hl7.org/CodeSystem/measure-population","code":"denominator","display":"Denominator"}]},"count":1},{"id":"Numerator_1","code":{"coding":[{"system":"http://terminology.hl7.org/CodeSystem/measure-population","code":"numerator","display":"Numerator"}]},"count":0}],"measureScore":{"value":0.0}}],"evaluatedResource":[{"reference":"Patient/06d7810a-dcc6-4f6d-ab28-2a0843449475"},{"reference":"Encounter/c2d5c775-b657-4af6-a9ab-a0432eb4273e"},{"reference":"Encounter/b225b0fb-e0ee-44df-97ad-02abe454e0f1"},{"reference":"MedicationAdministration/79fa3d63-331b-4905-918d-49f40d5d214d"}]},"request":{"method":"PUT","url":"MeasureReport/24ca1626-867e-403c-8ae4-818796faeb2c"}},{"resource":{"resourceType":"Encounter","id":"858c663a-49cc-4c70-947f-2f30938a0522","meta":{"profile":["http://hl7.org/fhir/us/qicore/StructureDefinition/qicore-encounter"]},"status":"finished","class":{"system":"http://terminology.hl7.org/CodeSystem/v3-ActCode","code":"IMP","display":"inpatient encounter"},"type":[{"coding":[{"system":"http://snomed.info/sct","code":"183452005","display":"Inpatient encounter"}]}],"subject":{"reference":"Patient/bdd17c60-c755-4150-8137-fa3884903970"},"period":{"start":"2026-04-07T08:00:00.000+00:00","end":"2026-04-09T08:15:00.000+00:00"}},"request":{"method":"PUT","url":"Encounter/858c663a-49cc-4c70-947f-2f30938a0522"}},{"resource":{"resourceType":"MeasureReport","id":"7335c8db-38eb-4c2c-938a-2ac8e68a1386","meta":{"profile":["http://hl7.org/fhir/us/cqfmeasures/StructureDefinition/test-case-cqfm"]},"contained":[{"resourceType":"Parameters","id":"070b1626-01cc-4c14-96da-34e2fc40a526-parameters","parameter":[{"name":"subject","valueString":"93064568-a739-403d-853f-a3150bd8f752"}]}],"extension":[{"url":"http://hl7.org/fhir/StructureDefinition/cqf-inputParameters","valueReference":{"reference":"#070b1626-01cc-4c14-96da-34e2fc40a526-parameters"}},{"url":"http://hl7.org/fhir/us/cqfmeasures/StructureDefinition/cqfm-testCaseDescription","valueMarkdown":"Patient given opioid 8:15AM. Naloxone (nonoral) given 8:14PM,  11 hours and 59 minutes after opioid. Meets num criteria."}],"modifierExtension":[{"url":"http://hl7.org/fhir/us/cqfmeasures/StructureDefinition/cqfm-isTestCase","valueBoolean":true}],"status":"complete","type":"individual","measure":"https://madie.cms.gov/Measure/CMS819FHIRHHORAE","period":{"start":"2026-01-01","end":"2026-12-31"},"group":[{"id":"Group_1","population":[{"id":"InitialPopulation_1","code":{"coding":[{"system":"http://terminology.hl7.org/CodeSystem/measure-population","code":"initial-population","display":"Initial Population"}]},"count":1},{"id":"Denominator_1","code":{"coding":[{"system":"http://terminology.hl7.org/CodeSystem/measure-population","code":"denominator","display":"Denominator"}]},"count":1},{"id":"Numerator_1","code":{"coding":[{"system":"http://terminology.hl7.org/CodeSystem/measure-population","code":"numerator","display":"Numerator"}]},"count":1}],"measureScore":{"value":0.0}}],"evaluatedResource":[{"reference":"Patient/93064568-a739-403d-853f-a3150bd8f752"},{"reference":"Encounter/3f4d5758-6702-4ec0-a136-02c29623e716"},{"reference":"MedicationAdministration/07cf09bf-4a69-4a74-97a2-6f6875ce9a6d"},{"reference":"MedicationAdministration/7cc90972-bf8c-45e2-ab6b-12d72ebb0904"}]},"request":{"method":"PUT","url":"MeasureReport/7335c8db-38eb-4c2c-938a-2ac8e68a1386"}},{"resource":{"resourceType":"MedicationAdministration","id":"7b5cc654-1a0e-4bba-8a4b-fdfbe57381d6","meta":{"profile":["http://hl7.org/fhir/us/qicore/StructureDefinition/qicore-medicationadministration"]},"status":"completed","medicationCodeableConcept":{"coding":[{"system":"http://www.nlm.nih.gov/research/umls/rxnorm","code":"1010600","display":"Opioid"}]},"subject":{"reference":"Patient/73b0c1fe-874b-4982-8cb2-3c30520441de"},"effectivePeriod":{"start":"2026-02-01T09:00:00.000+00:00","end":"2026-02-01T09:00:00.000+00:00"}},"request":{"method":"PUT","url":"MedicationAdministration/7b5cc654-1a0e-4bba-8a4b-fdfbe57381d6"}},{"resource":{"resourceType":"Patient","id":"cf4e9832-fad4-4041-9c6b-e7605bf0b3a0","meta":{"profile":["http://hl7.org/fhir/us/qicore/StructureDefinition/qicore-patient"]},"text":{"status":"generated","div":"<div xmlns=\"http://www.w3.org/1999/xhtml\"><div class=\"hapiHeaderText\">Opioid exactly 12 hrs before Naloxone <b>NUMERPASS </b></div><table class=\"hapiPropertyTable\"><tbody><tr><td>Date of birth</td><td><span>14 November 1980</span></td></tr></tbody></table></div>"},"extension":[{"url":"http://hl7.org/fhir/us/core/StructureDefinition/us-core-race","extension":[{"url":"ombCategory","valueCoding":{"system":"urn:oid:2.16.840.1.113883.6.238","code":"1002-5","display":"American Indian or Alaska Native","userSelected":true}},{"url":"text","valueString":"American Indian or Alaska Native"}]},{"url":"http://hl7.org/fhir/us/core/StructureDefinition/us-core-ethnicity","extension":[{"url":"ombCategory","valueCoding":{"system":"urn:oid:2.16.840.1.113883.6.238","code":"2135-2","display":"Hispanic or Latino","userSelected":true}},{"url":"text","valueString":"Hispanic or Latino"}]}],"identifier":[{"type":{"coding":[{"system":"http://terminology.hl7.org/CodeSystem/v2-0203","code":"MR"}]},"system":"https://bonnie-fhir.healthit.gov/","value":"627a80a15a0d870123c7253e"}],"active":true,"name":[{"use":"usual","family":"NUMERPass","given":["OpioidExactly12hrsBeforeAntagonist"]}],"gender":"female","birthDate":"1981-11-14"},"request":{"method":"PUT","url":"Patient/cf4e9832-fad4-4041-9c6b-e7605bf0b3a0"}},{"resource":{"resourceType":"Patient","id":"8fc93696-e9a6-46a3-b8e9-7c7929e8ad36","meta":{"profile":["http://hl7.org/fhir/us/qicore/StructureDefinition/qicore-patient"]},"extension":[{"url":"http://hl7.org/fhir/us/core/StructureDefinition/us-core-race","extension":[{"url":"ombCategory","valueCoding":{"system":"urn:oid:2.16.840.1.113883.6.238","code":"2106-3","display":"White"}},{"url":"text","valueString":"White"}]},{"url":"http://hl7.org/fhir/us/core/StructureDefinition/us-core-ethnicity","extension":[{"url":"ombCategory","valueCoding":{"system":"urn:oid:2.16.840.1.113883.6.238","code":"2135-2","display":"Hispanic or Latino"}},{"url":"text","valueString":"Hispanic or Latino"}]},{"url":"http://hl7.org/fhir/us/core/StructureDefinition/us-core-sex","valueCode":"248153007"}],"identifier":[{"system":"http://hospital.smarthealthit.org","value":"999999999"}],"name":[{"family":"Example","given":["Patient"]}],"gender":"female","birthDate":"1956-01-01"},"request":{"method":"PUT","url":"Patient/8fc93696-e9a6-46a3-b8e9-7c7929e8ad36"}},{"resource":{"resourceType":"Encounter","id":"2c50a05f-c67d-47bf-8df6-28a0e39cad5a","meta":{"profile":["http://hl7.org/fhir/us/qicore/StructureDefinition/qicore-encounter"]},"status":"finished","class":{"system":"http://terminology.hl7.org/CodeSystem/v3-ActCode","code":"IMP","display":"inpatient encounter"},"type":[{"coding":[{"system":"http://snomed.info/sct","code":"183452005","display":"Inpatient encounter"}]}],"subject":{"reference":"Patient/47e2c410-9c00-4f05-96b4-b925e0c158b1"},"period":{"start":"2026-02-12T08:00:00.000+00:00","end":"2026-02-15T08:15:00.000+00:00"}},"request":{"method":"PUT","url":"Encounter/2c50a05f-c67d-47bf-8df6-28a0e39cad5a"}},{"resource":{"resourceType":"MedicationAdministration","id":"4fecde35-1fa2-4b05-8822-dc3be6212106","meta":{"profile":["http://hl7.org/fhir/us/qicore/StructureDefinition/qicore-medicationadministration"]},"status":"completed","medicationCodeableConcept":{"coding":[{"system":"http://www.nlm.nih.gov/research/umls/rxnorm","version":"2022-04","code":"1659929","display":"1 ML naloxone hydrochloride 0.4 MG/ML Injection","userSelected":true}]},"subject":{"reference":"Patient/1994e69a-472b-4e32-80c1-5c692f36acce"},"effectivePeriod":{"start":"2026-08-11T20:15:00.000+00:00"},"dosage":{"route":{"coding":[{"system":"http://snomed.info/sct","code":"34206005","display":"Subcutaneous route (qualifier value)","userSelected":true}]},"dose":{"value":0.4,"unit":"mg","system":"http://unitsofmeasure.org","code":"mg"}}},"request":{"method":"PUT","url":"MedicationAdministration/4fecde35-1fa2-4b05-8822-dc3be6212106"}},{"resource":{"resourceType":"Encounter","id":"d7d76b21-38e5-4fd0-b43c-f1899d9e9a13","meta":{"profile":["http://hl7.org/fhir/us/qicore/StructureDefinition/qicore-encounter"]},"status":"finished","class":{"system":"http://terminology.hl7.org/CodeSystem/v3-ActCode","code":"IMP","display":"inpatient encounter"},"type":[{"coding":[{"system":"http://snomed.info/sct","code":"183452005","display":"Inpatient encounter"}]}],"subject":{"reference":"Patient/31b40acc-ca5f-4d1d-bd83-4b1a14eb822e"},"period":{"start":"2026-07-11T08:00:00.000+00:00","end":"2026-07-14T08:15:00.000+00:00"}},"request":{"method":"PUT","url":"Encounter/d7d76b21-38e5-4fd0-b43c-f1899d9e9a13"}},{"resource":{"resourceType":"MedicationAdministration","id":"636b6cda-159a-46ce-8720-89fb98a0b933","meta":{"profile":["http://hl7.org/fhir/us/qicore/StructureDefinition/qicore-medicationadministration"]},"status":"completed","medicationCodeableConcept":{"coding":[{"system":"http://www.nlm.nih.gov/research/umls/rxnorm","code":"1010600","display":"Opioids"}]},"subject":{"reference":"Patient/bef27397-e972-46e8-8e92-b8d4fd7985dc"},"effectivePeriod":{"start":"2025-12-31T08:00:00.000+00:00","end":"2025-12-31T08:15:00.000+00:00"}},"request":{"method":"PUT","url":"MedicationAdministration/636b6cda-159a-46ce-8720-89fb98a0b933"}},{"resource":{"resourceType":"Patient","id":"bef27397-e972-46e8-8e92-b8d4fd7985dc","meta":{"profile":["http://hl7.org/fhir/us/qicore/StructureDefinition/qicore-patient"]},"extension":[{"url":"http://hl7.org/fhir/us/core/StructureDefinition/us-core-race","extension":[{"url":"ombCategory","valueCoding":{"system":"urn:oid:2.16.840.1.113883.6.238","code":"2106-3","display":"White"}},{"url":"text","valueString":"White"}]},{"url":"http://hl7.org/fhir/us/core/StructureDefinition/us-core-ethnicity","extension":[{"url":"ombCategory","valueCoding":{"system":"urn:oid:2.16.840.1.113883.6.238","code":"2135-2","display":"Hispanic or Latino"}},{"url":"text","valueString":"Hispanic or Latino"}]},{"url":"http://hl7.org/fhir/us/core/StructureDefinition/us-core-sex","valueCode":"248153007"}],"identifier":[{"system":"http://hospital.smarthealthit.org","value":"999999999"}],"name":[{"family":"Example","given":["Patient"]}],"gender":"female","birthDate":"1956-01-01"},"request":{"method":"PUT","url":"Patient/bef27397-e972-46e8-8e92-b8d4fd7985dc"}},{"resource":{"resourceType":"MeasureReport","id":"6fd505fd-f64d-49d8-8050-d1c4ed819cd5","meta":{"profile":["http://hl7.org/fhir/us/cqfmeasures/StructureDefinition/test-case-cqfm"]},"contained":[{"resourceType":"Parameters","id":"61491a38-5411-4fb2-8e80-4b3ad33575e5-parameters","parameter":[{"name":"subject","valueString":"2adae583-4f70-4492-add5-c56cd38f5843"}]}],"extension":[{"url":"http://hl7.org/fhir/StructureDefinition/cqf-inputParameters","valueReference":{"reference":"#61491a38-5411-4fb2-8e80-4b3ad33575e5-parameters"}},{"url":"http://hl7.org/fhir/us/cqfmeasures/StructureDefinition/cqfm-testCaseDescription","valueMarkdown":"Inpatient encounter. Opioid given during the OR. Opioid given outside of OR. Meets IPP - only needs one occurrence of opioid outside of OR to count, even if other opioid events found in OR."}],"modifierExtension":[{"url":"http://hl7.org/fhir/us/cqfmeasures/StructureDefinition/cqfm-isTestCase","valueBoolean":true}],"status":"complete","type":"individual","measure":"https://madie.cms.gov/Measure/CMS819FHIRHHORAE","period":{"start":"2026-01-01","end":"2026-12-31"},"group":[{"id":"Group_1","population":[{"id":"InitialPopulation_1","code":{"coding":[{"system":"http://terminology.hl7.org/CodeSystem/measure-population","code":"initial-population","display":"Initial Population"}]},"count":1},{"id":"Denominator_1","code":{"coding":[{"system":"http://terminology.hl7.org/CodeSystem/measure-population","code":"denominator","display":"Denominator"}]},"count":1},{"id":"Numerator_1","code":{"coding":[{"system":"http://terminology.hl7.org/CodeSystem/measure-population","code":"numerator","display":"Numerator"}]},"count":0}],"measureScore":{"value":0.0}}],"evaluatedResource":[{"reference":"Patient/2adae583-4f70-4492-add5-c56cd38f5843"},{"reference":"Encounter/4f31e106-fa0e-429e-8e3c-47936c6ac0af"},{"reference":"MedicationAdministration/bc1e125a-ac76-445c-9d09-52e763442332"},{"reference":"MedicationAdministration/337ff755-def7-4909-beeb-2c2454fb43b7"},{"reference":"Location/19582331-7cdd-4583-b84a-61c57aae54ce"}]},"request":{"method":"PUT","url":"MeasureReport/6fd505fd-f64d-49d8-8050-d1c4ed819cd5"}},{"resource":{"resourceType":"MeasureReport","id":"8a8631c4-1f58-4219-9c0f-78afb822b296","meta":{"profile":["http://hl7.org/fhir/us/cqfmeasures/StructureDefinition/test-case-cqfm"]},"contained":[{"resourceType":"Parameters","id":"97d4d437-4a82-4bbd-af22-e71bb6b354ae-parameters","parameter":[{"name":"subject","valueString":"8fc93696-e9a6-46a3-b8e9-7c7929e8ad36"}]}],"extension":[{"url":"http://hl7.org/fhir/StructureDefinition/cqf-inputParameters","valueReference":{"reference":"#97d4d437-4a82-4bbd-af22-e71bb6b354ae-parameters"}},{"url":"http://hl7.org/fhir/us/cqfmeasures/StructureDefinition/cqfm-testCaseDescription","valueMarkdown":"Patient given opioid 8:15AM. Antagonist is given 8:14PM,  11 hours and 59 minutes after opioid but no route provided. Must be IV, IM, nasal etc. (non oral) to meet num criteria."}],"modifierExtension":[{"url":"http://hl7.org/fhir/us/cqfmeasures/StructureDefinition/cqfm-isTestCase","valueBoolean":true}],"status":"complete","type":"individual","measure":"https://madie.cms.gov/Measure/CMS819FHIRHHORAE","period":{"start":"2026-01-01","end":"2026-12-31"},"group":[{"id":"Group_1","population":[{"id":"InitialPopulation_1","code":{"coding":[{"system":"http://terminology.hl7.org/CodeSystem/measure-population","code":"initial-population","display":"Initial Population"}]},"count":1},{"id":"Denominator_1","code":{"coding":[{"system":"http://terminology.hl7.org/CodeSystem/measure-population","code":"denominator","display":"Denominator"}]},"count":1},{"id":"Numerator_1","code":{"coding":[{"system":"http://terminology.hl7.org/CodeSystem/measure-population","code":"numerator","display":"Numerator"}]},"count":0}],"measureScore":{"value":0.0}}],"evaluatedResource":[{"reference":"MedicationAdministration/90a4d33b-82af-48ee-8d8f-75a59b074330"},{"reference":"MedicationAdministration/06cbacb9-f834-4ccb-afeb-a0f0de43661f"},{"reference":"Encounter/b002103e-9a20-482f-9848-aff387aba3fa"},{"reference":"Patient/8fc93696-e9a6-46a3-b8e9-7c7929e8ad36"}]},"request":{"method":"PUT","url":"MeasureReport/8a8631c4-1f58-4219-9c0f-78afb822b296"}},{"resource":{"resourceType":"Patient","id":"73b0c1fe-874b-4982-8cb2-3c30520441de","meta":{"profile":["http://hl7.org/fhir/us/qicore/StructureDefinition/qicore-patient"]},"text":{"status":"generated","div":"<div xmlns=\"http://www.w3.org/1999/xhtml\"><div class=\"hapiHeaderText\">Opioid exactly 12 hrs before Naloxone <b>NUMERPASS </b></div><table class=\"hapiPropertyTable\"><tbody><tr><td>Date of birth</td><td><span>14 November 1980</span></td></tr></tbody></table></div>"},"identifier":[{"type":{"coding":[{"system":"http://terminology.hl7.org/CodeSystem/v2-0203","code":"MR"}]},"system":"https://bonnie-fhir.healthit.gov/","value":"627a80a15a0d870123c7253e"}],"active":true,"name":[{"use":"usual","family":"NUMERPass","given":["OpioidAndAntagInOROpioidAndAntagOutsideOR"]}],"gender":"female","birthDate":"1981-11-14"},"request":{"method":"PUT","url":"Patient/73b0c1fe-874b-4982-8cb2-3c30520441de"}},{"resource":{"resourceType":"Encounter","id":"135ea71a-6e25-4e11-9c12-91cd23e22b47","meta":{"profile":["http://hl7.org/fhir/us/qicore/StructureDefinition/qicore-encounter"]},"status":"finished","class":{"system":"http://terminology.hl7.org/CodeSystem/v3-ActCode","code":"IMP","display":"inpatient encounter"},"type":[{"coding":[{"system":"http://snomed.info/sct","code":"183452005"}]}],"subject":{"reference":"Patient/cf4e9832-fad4-4041-9c6b-e7605bf0b3a0"},"period":{"start":"2026-08-11T08:00:00.000+00:00","end":"2026-08-14T08:15:00.000+00:00"},"location":[{"location":{"reference":"Location/f334ae9f-85a3-4346-8ad4-ffb5b61d3598"},"period":{"start":"2026-08-11T08:00:00.000+00:00","end":"2026-08-13T08:00:00.000+00:00"}}]},"request":{"method":"PUT","url":"Encounter/135ea71a-6e25-4e11-9c12-91cd23e22b47"}},{"resource":{"resourceType":"Patient","id":"93064568-a739-403d-853f-a3150bd8f752","meta":{"profile":["http://hl7.org/fhir/us/qicore/StructureDefinition/qicore-patient"]},"text":{"status":"generated","div":"<div xmlns=\"http://www.w3.org/1999/xhtml\"><div class=\"hapiHeaderText\">Opioid exactly 12 hrs before Naloxone <b>NUMERPASS </b></div><table class=\"hapiPropertyTable\"><tbody><tr><td>Date of birth</td><td><span>14 November 1980</span></td></tr></tbody></table></div>"},"identifier":[{"type":{"coding":[{"system":"http://terminology.hl7.org/CodeSystem/v2-0203","code":"MR"}]},"system":"https://bonnie-fhir.healthit.gov/","value":"627a80a15a0d870123c7253e"}],"active":true,"name":[{"use":"usual","family":"NUMERPass","given":["NonOralOpioidLT12hrsBeforeAntag"]}],"gender":"female","birthDate":"1981-11-14"},"request":{"method":"PUT","url":"Patient/93064568-a739-403d-853f-a3150bd8f752"}},{"resource":{"resourceType":"Patient","id":"1994e69a-472b-4e32-80c1-5c692f36acce","meta":{"profile":["http://hl7.org/fhir/us/qicore/StructureDefinition/qicore-patient"]},"text":{"status":"generated","div":"<div xmlns=\"http://www.w3.org/1999/xhtml\"><div class=\"hapiHeaderText\">Opioid exactly 12 hrs before Naloxone <b>NUMERPASS </b></div><table class=\"hapiPropertyTable\"><tbody><tr><td>Date of birth</td><td><span>14 November 1980</span></td></tr></tbody></table></div>"},"extension":[{"url":"http://hl7.org/fhir/us/core/StructureDefinition/us-core-race","extension":[{"url":"ombCategory","valueCoding":{"system":"urn:oid:2.16.840.1.113883.6.238","code":"1002-5","display":"American Indian or Alaska Native","userSelected":true}},{"url":"text","valueString":"American Indian or Alaska Native"}]},{"url":"http://hl7.org/fhir/us/core/StructureDefinition/us-core-ethnicity","extension":[{"url":"ombCategory","valueCoding":{"system":"urn:oid:2.16.840.1.113883.6.238","code":"2135-2","display":"Hispanic or Latino","userSelected":true}},{"url":"text","valueString":"Hispanic or Latino"}]}],"identifier":[{"type":{"coding":[{"system":"http://terminology.hl7.org/CodeSystem/v2-0203","code":"MR"}]},"system":"https://bonnie-fhir.healthit.gov/","value":"627a80a15a0d870123c7253e"}],"active":true,"name":[{"use":"usual","family":"NUMERPass","given":["OpioidExactly12hrsBeforeAntagonist"]}],"gender":"female","birthDate":"1981-11-14"},"request":{"method":"PUT","url":"Patient/1994e69a-472b-4e32-80c1-5c692f36acce"}},{"resource":{"resourceType":"MedicationAdministration","id":"0fbe515c-35d5-4eae-bf3c-5daab7e1c1f4","meta":{"profile":["http://hl7.org/fhir/us/qicore/StructureDefinition/qicore-medicationadministration"]},"status":"completed","medicationCodeableConcept":{"coding":[{"system":"http://www.nlm.nih.gov/research/umls/rxnorm","code":"1010600","display":"Opioids, All"}]},"subject":{"reference":"Patient/9e1276d8-5574-424a-b093-0bd89b45019e"},"context":{"reference":"Encounter/eaab5a11-c1eb-417d-a141-a9e42c944b4c"},"effectiveDateTime":"2025-12-31T08:00:00.000+00:00","note":[{"text":"Administered opioid medication as prescribed."}],"dosage":{"route":{"coding":[{"system":"http://terminology.hl7.org/CodeSystem/v3-RouteOfAdministration","code":"PO","display":"Oral"}]},"rateQuantity":{"value":1,"unit":"mg"}}},"request":{"method":"PUT","url":"MedicationAdministration/0fbe515c-35d5-4eae-bf3c-5daab7e1c1f4"}},{"resource":{"resourceType":"Encounter","id":"af3e9240-9036-496a-b2ad-818afcf07e45","meta":{"profile":["http://hl7.org/fhir/us/qicore/StructureDefinition/qicore-encounter"]},"status":"finished","class":{"system":"http://terminology.hl7.org/CodeSystem/v3-ActCode","code":"IMP","display":"inpatient encounter"},"type":[{"coding":[{"system":"http://snomed.info/sct","code":"183452005"}]}],"subject":{"reference":"Patient/6127705f-6f70-4134-9c87-1129389bea42"},"period":{"start":"2026-04-07T09:00:00Z","end":"2026-04-10T08:15:00Z"}},"request":{"method":"PUT","url":"Encounter/af3e9240-9036-496a-b2ad-818afcf07e45"}},{"resource":{"resourceType":"MeasureReport","id":"910e1221-e25c-4088-8c7e-09db436f06f2","meta":{"profile":["http://hl7.org/fhir/us/cqfmeasures/StructureDefinition/test-case-cqfm"]},"contained":[{"resourceType":"Parameters","id":"43372614-1039-4e28-899d-8ecf2d1bceef-parameters","parameter":[{"name":"subject","valueString":"47e2c410-9c00-4f05-96b4-b925e0c158b1"}]}],"extension":[{"url":"http://hl7.org/fhir/StructureDefinition/cqf-inputParameters","valueReference":{"reference":"#43372614-1039-4e28-899d-8ecf2d1bceef-parameters"}},{"url":"http://hl7.org/fhir/us/cqfmeasures/StructureDefinition/cqfm-testCaseDescription","valueMarkdown":"Encounter inpatient 3 days. Given antagonist, but no opioid administered. Fails IPP/denom"}],"modifierExtension":[{"url":"http://hl7.org/fhir/us/cqfmeasures/StructureDefinition/cqfm-isTestCase","valueBoolean":true}],"status":"complete","type":"individual","measure":"https://madie.cms.gov/Measure/CMS819FHIRHHORAE","period":{"start":"2026-01-01","end":"2026-12-31"},"group":[{"id":"Group_1","population":[{"id":"InitialPopulation_1","code":{"coding":[{"system":"http://terminology.hl7.org/CodeSystem/measure-population","code":"initial-population","display":"Initial Population"}]},"count":0},{"id":"Denominator_1","code":{"coding":[{"system":"http://terminology.hl7.org/CodeSystem/measure-population","code":"denominator","display":"Denominator"}]},"count":0},{"id":"Numerator_1","code":{"coding":[{"system":"http://terminology.hl7.org/CodeSystem/measure-population","code":"numerator","display":"Numerator"}]},"count":0}],"measureScore":{"value":0.0}}],"evaluatedResource":[{"reference":"MedicationAdministration/252ed3a0-4b52-4bc9-a2ec-48903df70464"},{"reference":"Encounter/2c50a05f-c67d-47bf-8df6-28a0e39cad5a"},{"reference":"Patient/47e2c410-9c00-4f05-96b4-b925e0c158b1"}]},"request":{"method":"PUT","url":"MeasureReport/910e1221-e25c-4088-8c7e-09db436f06f2"}},{"resource":{"resourceType":"MedicationAdministration","id":"4e5c15c5-cb27-4e65-b3c0-65aba6fbb877","meta":{"profile":["http://hl7.org/fhir/us/qicore/StructureDefinition/qicore-medicationadministration"]},"status":"completed","medicationCodeableConcept":{"coding":[{"system":"http://www.nlm.nih.gov/research/umls/rxnorm","code":"1010600"}]},"subject":{"reference":"Patient/1de546d8-e39f-4d9f-b606-d3be3a24b3be"},"effectivePeriod":{"start":"2026-04-07T08:00:00.000+00:00","end":"2026-04-07T08:15:00.000+00:00"}},"request":{"method":"PUT","url":"MedicationAdministration/4e5c15c5-cb27-4e65-b3c0-65aba6fbb877"}},{"resource":{"resourceType":"MedicationAdministration","id":"d26ff555-f1da-4f59-bb85-7229f2228864","meta":{"profile":["http://hl7.org/fhir/us/qicore/StructureDefinition/qicore-medicationadministration"]},"status":"completed","medicationCodeableConcept":{"coding":[{"system":"http://www.nlm.nih.gov/research/umls/rxnorm","code":"1870933","display":"Naloxone"}]},"subject":{"reference":"Patient/73b0c1fe-874b-4982-8cb2-3c30520441de"},"effectivePeriod":{"start":"2026-02-07T20:00:00.000+00:00"},"dosage":{"route":{"coding":[{"system":"http://snomed.info/sct","code":"34206005","display":"Subcutaneous route (qualifier value)"}]}}},"request":{"method":"PUT","url":"MedicationAdministration/d26ff555-f1da-4f59-bb85-7229f2228864"}},{"resource":{"resourceType":"MedicationAdministration","id":"90a4d33b-82af-48ee-8d8f-75a59b074330","meta":{"profile":["http://hl7.org/fhir/us/qicore/StructureDefinition/qicore-medicationadministration"]},"status":"completed","medicationCodeableConcept":{"coding":[{"system":"http://www.nlm.nih.gov/research/umls/rxnorm","code":"1191222","display":"Opioid Antagonist"},{"system":"http://www.nlm.nih.gov/research/umls/rxnorm","code":"2592953","display":"Naloxone"}]},"subject":{"reference":"Patient/8fc93696-e9a6-46a3-b8e9-7c7929e8ad36"},"context":{"reference":"Encounter/b002103e-9a20-482f-9848-aff387aba3fa"},"effectiveDateTime":"2026-08-11T20:14:00.000+00:00","note":[{"text":"Administered opioid antagonist as prescribed."}],"dosage":{"rateQuantity":{"value":1,"unit":"mg"}}},"request":{"method":"PUT","url":"MedicationAdministration/90a4d33b-82af-48ee-8d8f-75a59b074330"}},{"resource":{"resourceType":"Encounter","id":"67daed6d-f724-488c-82d0-08edc19c86c8","meta":{"profile":["http://hl7.org/fhir/us/qicore/StructureDefinition/qicore-encounter"]},"status":"finished","class":{"system":"http://terminology.hl7.org/CodeSystem/v3-ActCode","code":"IMP","display":"inpatient encounter"},"type":[{"coding":[{"system":"http://snomed.info/sct","code":"183452005"}]}],"subject":{"reference":"Patient/1994e69a-472b-4e32-80c1-5c692f36acce"},"period":{"start":"2026-08-11T08:00:00.000+00:00","end":"2026-08-14T08:15:00.000+00:00"}},"request":{"method":"PUT","url":"Encounter/67daed6d-f724-488c-82d0-08edc19c86c8"}},{"resource":{"resourceType":"MedicationAdministration","id":"42de7c1f-b92d-4c18-9d3b-9e168fee2f66","meta":{"profile":["http://hl7.org/fhir/us/qicore/StructureDefinition/qicore-medicationadministration"]},"status":"completed","medicationCodeableConcept":{"coding":[{"system":"http://www.nlm.nih.gov/research/umls/rxnorm","code":"1010600","display":"Opioids, All"}]},"subject":{"reference":"Patient/bdd17c60-c755-4150-8137-fa3884903970"},"effectiveDateTime":"2026-04-07T08:00:00.000+00:00"},"request":{"method":"PUT","url":"MedicationAdministration/42de7c1f-b92d-4c18-9d3b-9e168fee2f66"}},{"resource":{"resourceType":"Encounter","id":"1c5e5564-7ca8-478a-942c-3c5694d34b3d","meta":{"profile":["http://hl7.org/fhir/us/qicore/StructureDefinition/qicore-encounter"]},"status":"finished","class":{"system":"http://terminology.hl7.org/CodeSystem/v3-ActCode","code":"IMP","display":"inpatient encounter"},"type":[{"coding":[{"system":"http://snomed.info/sct","code":"183452005","display":"Inpatient encounter"}]}],"subject":{"reference":"Patient/67f1ba74-5f3c-4729-9085-69bc55f49225"},"period":{"start":"2026-08-11T08:00:00.000+00:00","end":"2026-08-14T08:15:00.000+00:00"}},"request":{"method":"PUT","url":"Encounter/1c5e5564-7ca8-478a-942c-3c5694d34b3d"}},{"resource":{"resourceType":"MedicationAdministration","id":"d7b7a190-701f-4e68-8b83-95dd9556259a","meta":{"profile":["http://hl7.org/fhir/us/qicore/StructureDefinition/qicore-medicationadministration"]},"status":"completed","medicationCodeableConcept":{"coding":[{"system":"http://www.nlm.nih.gov/research/umls/rxnorm","code":"1010600","display":"Opioids"}]},"subject":{"reference":"Patient/bef27397-e972-46e8-8e92-b8d4fd7985dc"},"effectivePeriod":{"start":"2026-01-04T08:00:00.000+00:00","end":"2026-01-04T08:15:00.000+00:00"}},"request":{"method":"PUT","url":"MedicationAdministration/d7b7a190-701f-4e68-8b83-95dd9556259a"}},{"resource":{"resourceType":"Patient","id":"1de546d8-e39f-4d9f-b606-d3be3a24b3be","meta":{"profile":["http://hl7.org/fhir/us/qicore/StructureDefinition/qicore-patient"]},"text":{"status":"generated","div":"<div xmlns=\"http://www.w3.org/1999/xhtml\"><div class=\"hapiHeaderText\">Naloxone 12Hrs + 1 minute After Opioid <b>NUMERFAIL </b></div><table class=\"hapiPropertyTable\"><tbody><tr><td>Date of birth</td><td><span>12 December 1960</span></td></tr></tbody></table></div>"},"extension":[{"url":"http://hl7.org/fhir/us/core/StructureDefinition/us-core-race","extension":[{"url":"ombCategory","valueCoding":{"system":"urn:oid:2.16.840.1.113883.6.238","code":"1002-5","display":"American Indian or Alaska Native","userSelected":true}},{"url":"text","valueString":"American Indian or Alaska Native"}]},{"url":"http://hl7.org/fhir/us/core/StructureDefinition/us-core-ethnicity","extension":[{"url":"ombCategory","valueCoding":{"system":"urn:oid:2.16.840.1.113883.6.238","code":"2135-2","display":"Hispanic or Latino","userSelected":true}},{"url":"text","valueString":"Hispanic or Latino"}]}],"identifier":[{"type":{"coding":[{"system":"http://terminology.hl7.org/CodeSystem/v2-0203","code":"MR"}]},"system":"https://bonnie-fhir.healthit.gov/","value":"627a80a15a0d870123c72539"}],"active":true,"name":[{"use":"usual","family":"NUMERFail","given":["Antagonist12Hrs1MinuteAfterOpioid"]}],"gender":"female","birthDate":"1961-12-12"},"request":{"method":"PUT","url":"Patient/1de546d8-e39f-4d9f-b606-d3be3a24b3be"}},{"resource":{"resourceType":"MedicationAdministration","id":"acb95ccc-b8a6-45a6-b7bb-54d31de9cb1d","meta":{"profile":["http://hl7.org/fhir/us/qicore/StructureDefinition/qicore-medicationadministration"]},"status":"completed","medicationCodeableConcept":{"coding":[{"system":"http://www.nlm.nih.gov/research/umls/rxnorm","version":"2022-04","code":"1659929","display":"1 ML naloxone hydrochloride 0.4 MG/ML Injection","userSelected":true}]},"subject":{"reference":"Patient/cf4e9832-fad4-4041-9c6b-e7605bf0b3a0"},"effectivePeriod":{"start":"2026-08-11T20:15:00.000+00:00"},"dosage":{"route":{"coding":[{"system":"http://snomed.info/sct","code":"34206005","display":"Subcutaneous route (qualifier value)","userSelected":true}]},"dose":{"value":0.4,"unit":"mg","system":"http://unitsofmeasure.org","code":"mg"}}},"request":{"method":"PUT","url":"MedicationAdministration/acb95ccc-b8a6-45a6-b7bb-54d31de9cb1d"}},{"resource":{"resourceType":"MedicationAdministration","id":"1d2f7c2e-397c-4fc9-abb3-0b459a325f82","meta":{"profile":["http://hl7.org/fhir/us/qicore/StructureDefinition/qicore-medicationadministration"]},"status":"completed","medicationCodeableConcept":{"coding":[{"system":"http://www.nlm.nih.gov/research/umls/rxnorm","code":"1010600","display":"Opioids, All"}]},"subject":{"reference":"Patient/67f1ba74-5f3c-4729-9085-69bc55f49225"},"context":{"reference":"Encounter/1c5e5564-7ca8-478a-942c-3c5694d34b3d"},"effectiveDateTime":"2026-08-11T08:00:00.000+00:00","note":[{"text":"Administered opioid medication as prescribed."}],"dosage":{"route":{"coding":[{"system":"http://terminology.hl7.org/CodeSystem/v3-RouteOfAdministration","code":"34206005","display":"Oral route"}]},"rateQuantity":{"value":1,"unit":"mg"}}},"request":{"method":"PUT","url":"MedicationAdministration/1d2f7c2e-397c-4fc9-abb3-0b459a325f82"}},{"resource":{"resourceType":"Patient","id":"6d76c342-ac9f-4c46-b224-f39b8216d30e","meta":{"profile":["http://hl7.org/fhir/us/qicore/StructureDefinition/qicore-patient"]},"extension":[{"url":"http://hl7.org/fhir/us/core/StructureDefinition/us-core-race","extension":[{"url":"ombCategory","valueCoding":{"system":"urn:oid:2.16.840.1.113883.6.238","code":"2106-3","display":"White"}},{"url":"text","valueString":"White"}]},{"url":"http://hl7.org/fhir/us/core/StructureDefinition/us-core-ethnicity","extension":[{"url":"ombCategory","valueCoding":{"system":"urn:oid:2.16.840.1.113883.6.238","code":"2135-2","display":"Hispanic or Latino"}},{"url":"text","valueString":"Hispanic or Latino"}]},{"url":"http://hl7.org/fhir/us/core/StructureDefinition/us-core-sex","valueCode":"248153007"}],"identifier":[{"system":"http://hospital.smarthealthit.org","value":"999999999"}],"name":[{"family":"Example","given":["Patient"]}],"gender":"female","birthDate":"1956-01-01"},"request":{"method":"PUT","url":"Patient/6d76c342-ac9f-4c46-b224-f39b8216d30e"}},{"resource":{"resourceType":"MedicationAdministration","id":"33dd5e72-3e5b-4934-a9a3-eb090d2c0efc","meta":{"profile":["http://hl7.org/fhir/us/qicore/StructureDefinition/qicore-medicationadministration"]},"status":"completed","medicationCodeableConcept":{"coding":[{"system":"http://www.nlm.nih.gov/research/umls/rxnorm","code":"1010600"}]},"subject":{"reference":"Patient/6127705f-6f70-4134-9c87-1129389bea42"},"effectivePeriod":{"start":"2026-04-07T08:00:00Z","end":"2026-04-07T08:15:00Z"}},"request":{"method":"PUT","url":"MedicationAdministration/33dd5e72-3e5b-4934-a9a3-eb090d2c0efc"}},{"resource":{"resourceType":"Encounter","id":"d6c1b846-1b6b-4e33-936f-5a4bc5a6a1d8","meta":{"profile":["http://hl7.org/fhir/us/qicore/StructureDefinition/qicore-encounter"]},"status":"finished","class":{"system":"http://terminology.hl7.org/CodeSystem/v3-ActCode","code":"IMP","display":"inpatient encounter"},"type":[{"coding":[{"system":"http://snomed.info/sct","code":"183452005"}]}],"subject":{"reference":"Patient/1de546d8-e39f-4d9f-b606-d3be3a24b3be"},"period":{"start":"2026-04-07T08:00:00.000+00:00","end":"2026-04-09T08:15:00.000+00:00"}},"request":{"method":"PUT","url":"Encounter/d6c1b846-1b6b-4e33-936f-5a4bc5a6a1d8"}},{"resource":{"resourceType":"Encounter","id":"c2d5c775-b657-4af6-a9ab-a0432eb4273e","meta":{"profile":["http://hl7.org/fhir/us/qicore/StructureDefinition/qicore-encounter"]},"status":"finished","class":{"system":"http://terminology.hl7.org/CodeSystem/v3-ActCode","code":"EMER","display":"emergency"},"type":[{"coding":[{"system":"http://snomed.info/sct","code":"4525004"}]}],"subject":{"reference":"Patient/06d7810a-dcc6-4f6d-ab28-2a0843449475"},"period":{"start":"2026-04-06T08:00:00Z","end":"2026-04-07T08:15:00Z"}},"request":{"method":"PUT","url":"Encounter/c2d5c775-b657-4af6-a9ab-a0432eb4273e"}},{"resource":{"resourceType":"MedicationAdministration","id":"252ed3a0-4b52-4bc9-a2ec-48903df70464","meta":{"profile":["http://hl7.org/fhir/us/qicore/StructureDefinition/qicore-medicationadministration"]},"status":"completed","medicationCodeableConcept":{"coding":[{"system":"http://www.nlm.nih.gov/research/umls/rxnorm","code":"1191222","display":"Opioid Antagonist"}]},"subject":{"reference":"Patient/47e2c410-9c00-4f05-96b4-b925e0c158b1"},"context":{"reference":"Encounter/2c50a05f-c67d-47bf-8df6-28a0e39cad5a"},"effectiveDateTime":"2026-02-13T08:00:00.000+00:00","note":[{"text":"Administered opioid antagonist as prescribed."}],"dosage":{"route":{"coding":[{"system":"http://snomed.info/sct","code":"34206005","display":"Oral"}]},"rateQuantity":{"value":1,"unit":"mg"}}},"request":{"method":"PUT","url":"MedicationAdministration/252ed3a0-4b52-4bc9-a2ec-48903df70464"}},{"resource":{"resourceType":"Encounter","id":"9ecdccee-006d-4b9a-b045-092a3f129bb7","meta":{"profile":["http://hl7.org/fhir/us/qicore/StructureDefinition/qicore-encounter"]},"status":"finished","class":{"system":"http://terminology.hl7.org/CodeSystem/v3-ActCode","code":"EMER","display":"emergency"},"type":[{"coding":[{"system":"http://snomed.info/sct","code":"4525004"}]}],"subject":{"reference":"Patient/11589117-d7b3-48d2-ac4e-b2dedd2dda37"},"period":{"start":"2025-04-07T08:00:00.000+00:00","end":"2025-04-08T08:15:00.000+00:00"}},"request":{"method":"PUT","url":"Encounter/9ecdccee-006d-4b9a-b045-092a3f129bb7"}},{"resource":{"resourceType":"MeasureReport","id":"9651f4d4-7d02-4f65-9111-b1733172f5dd","meta":{"profile":["http://hl7.org/fhir/us/cqfmeasures/StructureDefinition/test-case-cqfm"]},"contained":[{"resourceType":"Parameters","id":"bdb79ed5-93f0-4c60-a994-87f6f302f7ca-parameters","parameter":[{"name":"subject","valueString":"1de546d8-e39f-4d9f-b606-d3be3a24b3be"}]}],"extension":[{"url":"http://hl7.org/fhir/StructureDefinition/cqf-inputParameters","valueReference":{"reference":"#bdb79ed5-93f0-4c60-a994-87f6f302f7ca-parameters"}},{"url":"http://hl7.org/fhir/us/cqfmeasures/StructureDefinition/cqfm-testCaseDescription","valueMarkdown":"Inpatient encounter. Opioid given during encounter. Antagonist given exactly 12hrs + 1 minute after Opioid ends. Must be given within 12 hours or less. Numerator fails."}],"modifierExtension":[{"url":"http://hl7.org/fhir/us/cqfmeasures/StructureDefinition/cqfm-isTestCase","valueBoolean":true}],"status":"complete","type":"individual","measure":"https://madie.cms.gov/Measure/CMS819FHIRHHORAE","period":{"start":"2026-01-01","end":"2026-12-31"},"group":[{"id":"Group_1","population":[{"id":"InitialPopulation_1","code":{"coding":[{"system":"http://terminology.hl7.org/CodeSystem/measure-population","code":"initial-population","display":"Initial Population"}]},"count":1},{"id":"Denominator_1","code":{"coding":[{"system":"http://terminology.hl7.org/CodeSystem/measure-population","code":"denominator","display":"Denominator"}]},"count":1},{"id":"Numerator_1","code":{"coding":[{"system":"http://terminology.hl7.org/CodeSystem/measure-population","code":"numerator","display":"Numerator"}]},"count":0}],"measureScore":{"value":0.0}}],"evaluatedResource":[{"reference":"Patient/1de546d8-e39f-4d9f-b606-d3be3a24b3be"},{"reference":"Encounter/d6c1b846-1b6b-4e33-936f-5a4bc5a6a1d8"},{"reference":"MedicationAdministration/4e5c15c5-cb27-4e65-b3c0-65aba6fbb877"},{"reference":"MedicationAdministration/f77e1a4c-4beb-484e-9de6-7bf9929bdbb7"}]},"request":{"method":"PUT","url":"MeasureReport/9651f4d4-7d02-4f65-9111-b1733172f5dd"}},{"resource":{"resourceType":"Encounter","id":"e56e4a26-2c9b-4fb6-935f-f5f6c6dcd140","meta":{"profile":["http://hl7.org/fhir/us/qicore/StructureDefinition/qicore-encounter"]},"status":"finished","class":{"system":"http://terminology.hl7.org/CodeSystem/v3-ActCode","code":"IMP","display":"inpatient encounter"},"type":[{"coding":[{"system":"http://snomed.info/sct","code":"183452005","display":"Inpatient encounter"}]}],"subject":{"reference":"Patient/73b0c1fe-874b-4982-8cb2-3c30520441de"},"period":{"start":"2026-01-08T08:00:00.000+00:00","end":"2026-02-08T08:15:00.000+00:00"},"location":[{"location":{"reference":"Location/HSLOC-1096-7"},"period":{"start":"2026-02-01T08:00:00.000+00:00","end":"2026-02-01T10:15:00.000+00:00"}}]},"request":{"method":"PUT","url":"Encounter/e56e4a26-2c9b-4fb6-935f-f5f6c6dcd140"}},{"resource":{"resourceType":"Location","id":"19582331-7cdd-4583-b84a-61c57aae54ce","meta":{"profile":["http://hl7.org/fhir/us/qicore/StructureDefinition/qicore-location"]},"identifier":[{"use":"usual","system":"http://exampleoflocation.com","value":"B1-S.F2"}],"name":"Medical Surgical East, first floor","type":[{"coding":[{"system":"https://www.cdc.gov/nhsn/cdaportal/terminology/codesystem/hsloc.html","code":"1096-7","display":"Operating Room/Suite"}]}]},"request":{"method":"PUT","url":"Location/19582331-7cdd-4583-b84a-61c57aae54ce"}},{"resource":{"resourceType":"Coverage","id":"287d93ee-1ef6-4927-9872-77ba7ebe6508","meta":{"profile":["http://hl7.org/fhir/us/qicore/StructureDefinition/qicore-coverage"]},"identifier":[{"system":"http://benefitsinc.com/certificate","value":"12345"}],"status":"active","type":{"coding":[{"system":"https://nahdo.org/sopt","code":"59","display":"Other Private Insurance"}]},"policyHolder":{"reference":"Patient/11589117-d7b3-48d2-ac4e-b2dedd2dda37"},"subscriber":{"reference":"Patient/11589117-d7b3-48d2-ac4e-b2dedd2dda37"},"beneficiary":{"reference":"Patient/11589117-d7b3-48d2-ac4e-b2dedd2dda37"},"dependent":"0","relationship":{"coding":[{"system":"http://terminology.hl7.org/CodeSystem/subscriber-relationship","code":"self"}]},"period":{"start":"2025-01-01T06:00:00.000+00:00","end":"2025-12-31T11:06:01.000+00:00"},"payor":[{"reference":"Organization/Organization-2"}],"order":9},"request":{"method":"PUT","url":"Coverage/287d93ee-1ef6-4927-9872-77ba7ebe6508"}},{"resource":{"resourceType":"MedicationAdministration","id":"48817db3-aec8-4b53-a9e9-453f719ac221","meta":{"profile":["http://hl7.org/fhir/us/qicore/StructureDefinition/qicore-medicationadministration"]},"status":"completed","medicationCodeableConcept":{"coding":[{"system":"http://www.nlm.nih.gov/research/umls/rxnorm","code":"1191222","display":"Opioid Antagonist"}]},"subject":{"reference":"Patient/b88740a3-5143-4b36-ae0d-75a6b95db7e2"},"context":{"reference":"Encounter/0c0287ba-89f4-432d-952d-b5bff2294697"},"effectiveDateTime":"2026-10-31T08:16:00.000+00:00","note":[{"text":"Administered opioid antagonist intravenously as prescribed."}],"dosage":{"route":{"coding":[{"system":"http://terminology.hl7.org/CodeSystem/v3-RouteOfAdministration","code":"26643006","display":"Intravenous"}]},"rateQuantity":{"value":2,"unit":"mg"}}},"request":{"method":"PUT","url":"MedicationAdministration/48817db3-aec8-4b53-a9e9-453f719ac221"}},{"resource":{"resourceType":"Encounter","id":"143a396e-e4bb-4ca1-a5c3-2b78cc39b2f1","meta":{"profile":["http://hl7.org/fhir/us/qicore/StructureDefinition/qicore-encounter"]},"status":"finished","class":{"system":"http://terminology.hl7.org/CodeSystem/v3-ActCode","code":"IMP","display":"inpatient encounter"},"type":[{"coding":[{"system":"http://snomed.info/sct","code":"183452005","display":"Inpatient encounter"}]}],"subject":{"reference":"Patient/6d76c342-ac9f-4c46-b224-f39b8216d30e"},"period":{"start":"2026-12-05T08:00:00.000+00:00","end":"2027-01-01T00:00:00.000+00:00"}},"request":{"method":"PUT","url":"Encounter/143a396e-e4bb-4ca1-a5c3-2b78cc39b2f1"}},{"resource":{"resourceType":"Patient","id":"31b40acc-ca5f-4d1d-bd83-4b1a14eb822e","meta":{"profile":["http://hl7.org/fhir/us/qicore/StructureDefinition/qicore-patient"]},"extension":[{"url":"http://hl7.org/fhir/us/core/StructureDefinition/us-core-race","extension":[{"url":"ombCategory","valueCoding":{"system":"urn:oid:2.16.840.1.113883.6.238","code":"2106-3","display":"White"}},{"url":"text","valueString":"White"}]},{"url":"http://hl7.org/fhir/us/core/StructureDefinition/us-core-ethnicity","extension":[{"url":"ombCategory","valueCoding":{"system":"urn:oid:2.16.840.1.113883.6.238","code":"2135-2","display":"Hispanic or Latino"}},{"url":"text","valueString":"Hispanic or Latino"}]},{"url":"http://hl7.org/fhir/us/core/StructureDefinition/us-core-sex","valueCode":"248153007"}],"identifier":[{"system":"http://hospital.smarthealthit.org","value":"999999999"}],"name":[{"family":"Example","given":["Patient"]}],"gender":"female","birthDate":"1956-01-01"},"request":{"method":"PUT","url":"Patient/31b40acc-ca5f-4d1d-bd83-4b1a14eb822e"}},{"resource":{"resourceType":"Encounter","id":"6738c679-6915-4cfc-a995-0a1aa839848d","meta":{"profile":["http://hl7.org/fhir/us/qicore/StructureDefinition/qicore-encounter"]},"status":"finished","class":{"system":"http://terminology.hl7.org/CodeSystem/v3-ActCode","code":"EMER","display":"emergency"},"type":[{"coding":[{"system":"http://snomed.info/sct","code":"4525004"}]}],"subject":{"reference":"Patient/6127705f-6f70-4134-9c87-1129389bea42"},"period":{"start":"2026-04-06T08:00:00Z","end":"2026-04-07T08:15:00Z"}},"request":{"method":"PUT","url":"Encounter/6738c679-6915-4cfc-a995-0a1aa839848d"}},{"resource":{"resourceType":"MedicationAdministration","id":"7cc90972-bf8c-45e2-ab6b-12d72ebb0904","meta":{"profile":["http://hl7.org/fhir/us/qicore/StructureDefinition/qicore-medicationadministration"]},"status":"completed","medicationCodeableConcept":{"coding":[{"system":"http://www.nlm.nih.gov/research/umls/rxnorm","code":"2540703","display":"Opioid Antagonist"}]},"subject":{"reference":"Patient/93064568-a739-403d-853f-a3150bd8f752"},"effectivePeriod":{"start":"2026-08-11T20:14:00.000+00:00"},"dosage":{"route":{"coding":[{"system":"http://snomed.info/sct","code":"34206005","display":"Subcutaneous route (qualifier value)"}]}}},"request":{"method":"PUT","url":"MedicationAdministration/7cc90972-bf8c-45e2-ab6b-12d72ebb0904"}},{"resource":{"resourceType":"Encounter","id":"72bea60d-fc74-41c3-8697-b57c1843ed67","meta":{"profile":["http://hl7.org/fhir/us/qicore/StructureDefinition/qicore-encounter"]},"status":"finished","class":{"system":"http://terminology.hl7.org/CodeSystem/v3-ActCode","code":"IMP","display":"inpatient encounter"},"type":[{"coding":[{"system":"http://snomed.info/sct","code":"183452005","display":"Inpatient encounter"}]}],"subject":{"reference":"Patient/bef27397-e972-46e8-8e92-b8d4fd7985dc"},"period":{"start":"2025-12-30T08:00:00.000+00:00","end":"2026-01-06T00:00:00.000+00:00"}},"request":{"method":"PUT","url":"Encounter/72bea60d-fc74-41c3-8697-b57c1843ed67"}},{"resource":{"resourceType":"MedicationAdministration","id":"f77e1a4c-4beb-484e-9de6-7bf9929bdbb7","meta":{"profile":["http://hl7.org/fhir/us/qicore/StructureDefinition/qicore-medicationadministration"]},"status":"completed","medicationCodeableConcept":{"coding":[{"system":"http://www.nlm.nih.gov/research/umls/rxnorm","version":"2023-01","code":"2592953","display":"2 ML nalmefene 1 MG/ML Injection","userSelected":true}]},"subject":{"reference":"Patient/1de546d8-e39f-4d9f-b606-d3be3a24b3be"},"effectiveDateTime":"2026-04-07T20:16:00.000+00:00","dosage":{"route":{"coding":[{"system":"http://snomed.info/sct","code":"34206005","display":"Subcutaneous route (qualifier value)","userSelected":true}]},"dose":{"value":2,"unit":"mg","system":"http://unitsofmeasure.org","code":"mg"}}},"request":{"method":"PUT","url":"MedicationAdministration/f77e1a4c-4beb-484e-9de6-7bf9929bdbb7"}},{"resource":{"resourceType":"Patient","id":"6127705f-6f70-4134-9c87-1129389bea42","meta":{"profile":["http://hl7.org/fhir/us/qicore/StructureDefinition/qicore-patient"]},"extension":[{"url":"http://hl7.org/fhir/us/core/StructureDefinition/us-core-race","extension":[{"url":"ombCategory","valueCoding":{"system":"urn:oid:2.16.840.1.113883.6.238","code":"1002-5","display":"American Indian or Alaska Native","userSelected":true}},{"url":"text","valueString":"American Indian or Alaska Native"}]},{"url":"http://hl7.org/fhir/us/core/StructureDefinition/us-core-ethnicity","extension":[{"url":"ombCategory","valueCoding":{"system":"urn:oid:2.16.840.1.113883.6.238","code":"2135-2","display":"Hispanic or Latino","userSelected":true}},{"url":"text","valueString":"Hispanic or Latino"},{"url":"detailed","valueCoding":{"system":"urn:oid:2.16.840.1.113883.6.238","code":"2182-4","display":"Cuban"}}]}],"identifier":[{"type":{"coding":[{"system":"http://terminology.hl7.org/CodeSystem/v2-0203","code":"MR"}]},"system":"https://bonnie-fhir.healthit.gov/","value":"627a80a15a0d870123c7253c"}],"active":true,"name":[{"use":"usual","family":"DENOMPass","given":["Age17InEDAge18DayOfIPAdmit"]}],"gender":"male","birthDate":"2008-04-07"},"request":{"method":"PUT","url":"Patient/6127705f-6f70-4134-9c87-1129389bea42"}},{"resource":{"resourceType":"MedicationAdministration","id":"44e1a56a-d607-4304-aeb2-db9979617eb1","meta":{"profile":["http://hl7.org/fhir/us/qicore/StructureDefinition/qicore-medicationadministration"]},"status":"completed","medicationCodeableConcept":{"coding":[{"system":"http://www.nlm.nih.gov/research/umls/rxnorm","code":"2592953","display":"Nalmefene (opioid antagonist)"}]},"subject":{"reference":"Patient/bef27397-e972-46e8-8e92-b8d4fd7985dc"},"effectiveDateTime":"2026-01-04T09:00:00.000+00:00","dosage":{"route":{"coding":[{"system":"http://snomed.info/sct","code":"34206005","display":"Intravenous"}]}}},"request":{"method":"PUT","url":"MedicationAdministration/44e1a56a-d607-4304-aeb2-db9979617eb1"}},{"resource":{"resourceType":"MeasureReport","id":"c6831c58-b708-45a9-80c3-cac01299724e","meta":{"profile":["http://hl7.org/fhir/us/cqfmeasures/StructureDefinition/test-case-cqfm"]},"contained":[{"resourceType":"Parameters","id":"95fc9b47-29ea-4aca-bea3-f612c1778c23-parameters","parameter":[{"name":"subject","valueString":"6d76c342-ac9f-4c46-b224-f39b8216d30e"}]}],"extension":[{"url":"http://hl7.org/fhir/StructureDefinition/cqf-inputParameters","valueReference":{"reference":"#95fc9b47-29ea-4aca-bea3-f612c1778c23-parameters"}},{"url":"http://hl7.org/fhir/us/cqfmeasures/StructureDefinition/cqfm-testCaseDescription","valueMarkdown":"Inpatient encounter starts in MP, ends 1 day after MP ends. Opioid given during encounter but IPP fails. Encounter must end during MP."}],"modifierExtension":[{"url":"http://hl7.org/fhir/us/cqfmeasures/StructureDefinition/cqfm-isTestCase","valueBoolean":true}],"status":"complete","type":"individual","measure":"https://madie.cms.gov/Measure/CMS819FHIRHHORAE","period":{"start":"2026-01-01","end":"2026-12-31"},"group":[{"id":"Group_1","population":[{"id":"InitialPopulation_1","code":{"coding":[{"system":"http://terminology.hl7.org/CodeSystem/measure-population","code":"initial-population","display":"Initial Population"}]},"count":0},{"id":"Denominator_1","code":{"coding":[{"system":"http://terminology.hl7.org/CodeSystem/measure-population","code":"denominator","display":"Denominator"}]},"count":0},{"id":"Numerator_1","code":{"coding":[{"system":"http://terminology.hl7.org/CodeSystem/measure-population","code":"numerator","display":"Numerator"}]},"count":0}],"measureScore":{"value":0.0}}],"evaluatedResource":[{"reference":"MedicationAdministration/f38de01e-0e3d-4054-b656-605b0940c2fc"},{"reference":"Encounter/143a396e-e4bb-4ca1-a5c3-2b78cc39b2f1"},{"reference":"Patient/6d76c342-ac9f-4c46-b224-f39b8216d30e"}]},"request":{"method":"PUT","url":"MeasureReport/c6831c58-b708-45a9-80c3-cac01299724e"}},{"resource":{"resourceType":"MedicationAdministration","id":"1787b184-1def-4c9b-a40f-d7fcad3f437f","meta":{"profile":["http://hl7.org/fhir/us/qicore/StructureDefinition/qicore-medicationadministration"]},"status":"completed","medicationCodeableConcept":{"coding":[{"system":"http://www.nlm.nih.gov/research/umls/rxnorm","code":"1191222","display":"Opioid Antagonist"}]},"subject":{"reference":"Patient/67f1ba74-5f3c-4729-9085-69bc55f49225"},"context":{"reference":"Encounter/1c5e5564-7ca8-478a-942c-3c5694d34b3d"},"effectiveDateTime":"2026-08-11T20:14:00.000+00:00","note":[{"text":"Administered opioid antagonist as prescribed."}],"dosage":{"route":{"coding":[{"system":"http://terminology.hl7.org/CodeSystem/v3-RouteOfAdministration","code":"34206005","display":"Oral route"}]}}},"request":{"method":"PUT","url":"MedicationAdministration/1787b184-1def-4c9b-a40f-d7fcad3f437f"}},{"resource":{"resourceType":"MedicationAdministration","id":"65546a57-2f4e-434d-8f46-554a8b84977d","meta":{"profile":["http://hl7.org/fhir/us/qicore/StructureDefinition/qicore-medicationadministration"]},"status":"completed","medicationCodeableConcept":{"coding":[{"system":"http://www.nlm.nih.gov/research/umls/rxnorm","code":"1010600","display":"Opioids, All"}]},"subject":{"reference":"Patient/31b40acc-ca5f-4d1d-bd83-4b1a14eb822e"},"effectivePeriod":{"start":"2026-07-12T09:00:00.000+00:00","end":"2026-07-13T09:00:00.000+00:00"}},"request":{"method":"PUT","url":"MedicationAdministration/65546a57-2f4e-434d-8f46-554a8b84977d"}},{"resource":{"resourceType":"MedicationAdministration","id":"06cbacb9-f834-4ccb-afeb-a0f0de43661f","meta":{"profile":["http://hl7.org/fhir/us/qicore/StructureDefinition/qicore-medicationadministration"]},"status":"completed","medicationCodeableConcept":{"coding":[{"system":"http://www.nlm.nih.gov/research/umls/rxnorm","code":"1010600","display":"Opioids, All"}]},"subject":{"reference":"Patient/8fc93696-e9a6-46a3-b8e9-7c7929e8ad36"},"context":{"reference":"Encounter/b002103e-9a20-482f-9848-aff387aba3fa"},"effectiveDateTime":"2026-08-11T08:00:00.000+00:00","note":[{"text":"Administered opioid medication as prescribed."}],"dosage":{"rateQuantity":{"value":1,"unit":"mg"}}},"request":{"method":"PUT","url":"MedicationAdministration/06cbacb9-f834-4ccb-afeb-a0f0de43661f"}},{"resource":{"resourceType":"Encounter","id":"4f31e106-fa0e-429e-8e3c-47936c6ac0af","meta":{"profile":["http://hl7.org/fhir/us/qicore/StructureDefinition/qicore-encounter"]},"status":"finished","class":{"system":"http://terminology.hl7.org/CodeSystem/v3-ActCode","code":"IMP","display":"inpatient encounter"},"type":[{"coding":[{"system":"http://snomed.info/sct","code":"183452005","display":"Inpatient encounter"}]}],"subject":{"reference":"Patient/2adae583-4f70-4492-add5-c56cd38f5843"},"period":{"start":"2026-04-07T08:00:00.000+00:00","end":"2026-04-09T08:15:00.000+00:00"},"location":[{"location":{"reference":"Location/19582331-7cdd-4583-b84a-61c57aae54ce"},"period":{"start":"2026-04-07T06:00:00.000+00:00","end":"2026-04-07T07:59:00.000+00:00"}}]},"request":{"method":"PUT","url":"Encounter/4f31e106-fa0e-429e-8e3c-47936c6ac0af"}},{"resource":{"resourceType":"Encounter","id":"b002103e-9a20-482f-9848-aff387aba3fa","meta":{"profile":["http://hl7.org/fhir/us/qicore/StructureDefinition/qicore-encounter"]},"status":"finished","class":{"system":"http://terminology.hl7.org/CodeSystem/v3-ActCode","code":"IMP","display":"inpatient encounter"},"type":[{"coding":[{"system":"http://snomed.info/sct","code":"183452005","display":"Inpatient encounter"}]}],"subject":{"reference":"Patient/8fc93696-e9a6-46a3-b8e9-7c7929e8ad36"},"period":{"start":"2026-08-11T08:00:00.000+00:00","end":"2026-08-14T08:15:00.000+00:00"}},"request":{"method":"PUT","url":"Encounter/b002103e-9a20-482f-9848-aff387aba3fa"}},{"resource":{"resourceType":"Encounter","id":"0c0287ba-89f4-432d-952d-b5bff2294697","meta":{"profile":["http://hl7.org/fhir/us/qicore/StructureDefinition/qicore-encounter"]},"status":"finished","class":{"system":"http://terminology.hl7.org/CodeSystem/v3-ActCode","code":"IMP","display":"inpatient encounter"},"type":[{"coding":[{"system":"http://snomed.info/sct","code":"183452005","display":"Inpatient encounter"}]}],"subject":{"reference":"Patient/b88740a3-5143-4b36-ae0d-75a6b95db7e2"},"period":{"start":"2026-10-30T08:00:00.000+00:00","end":"2026-10-31T08:15:00.000+00:00"}},"request":{"method":"PUT","url":"Encounter/0c0287ba-89f4-432d-952d-b5bff2294697"}}]}