{
    "entry": [
        {
            "request": {
                "method": "PUT",
                "url": "Patient/5cf8a6bf-b0ac-4434-acd8-d785f7c9751c"
            },
            "resource": {
                "identifier": [{
                    "system": "https://bonnie-fhir.healthit.gov/",
                    "type": {"coding": [{
                        "system": "http://terminology.hl7.org/CodeSystem/v2-0203",
                        "code": "MR"
                    }]},
                    "value": "62a8a76e26b2bd13ce26d1ad"
                }],
                "extension": [
                    {
                        "extension": [
                            {
                                "valueCoding": {
                                    "system": "urn:oid:2.16.840.1.113883.6.238",
                                    "code": "2028-9",
                                    "userSelected": true,
                                    "display": "Asian"
                                },
                                "url": "ombCategory"
                            },
                            {
                                "valueString": "Asian",
                                "url": "text"
                            }
                        ],
                        "url": "http://hl7.org/fhir/us/core/StructureDefinition/us-core-race"
                    },
                    {
                        "extension": [
                            {
                                "valueCoding": {
                                    "system": "urn:oid:2.16.840.1.113883.6.238",
                                    "code": "2186-5",
                                    "userSelected": true,
                                    "display": "Not Hispanic or Latino"
                                },
                                "url": "ombCategory"
                            },
                            {
                                "valueString": "Not Hispanic or Latino",
                                "url": "text"
                            }
                        ],
                        "url": "http://hl7.org/fhir/us/core/StructureDefinition/us-core-ethnicity"
                    }
                ],
                "gender": "female",
                "meta": {"profile": ["http://hl7.org/fhir/us/qicore/StructureDefinition/qicore-patient"]},
                "name": [{
                    "given": ["NormalBP"],
                    "family": "NUMERPass"
                }],
                "id": "5cf8a6bf-b0ac-4434-acd8-d785f7c9751c",
                "text": {
                    "div": "<div xmlns=\"http://www.w3.org/1999/xhtml\">do not know<\/div>",
                    "status": "generated"
                },
                "birthDate": "2006-12-31",
                "resourceType": "Patient"
            },
            "fullUrl": "https://madie.cms.gov/Patient/5cf8a6bf-b0ac-4434-acd8-d785f7c9751c"
        },
        {
            "request": {
                "method": "PUT",
                "url": "Encounter/91ffb0a4-c526-4442-b4d4-367f07d7c0ff"
            },
            "resource": {
                "period": {
                    "start": "2026-01-01T08:00:00.000+00:00",
                    "end": "2026-01-01T08:30:00.000+00:00"
                },
                "meta": {"profile": ["http://hl7.org/fhir/us/qicore/StructureDefinition/qicore-encounter"]},
                "subject": {"reference": "Patient/5cf8a6bf-b0ac-4434-acd8-d785f7c9751c"},
                "id": "91ffb0a4-c526-4442-b4d4-367f07d7c0ff",
                "type": [{"coding": [{
                    "system": "http://snomed.info/sct",
                    "code": "103705002",
                    "userSelected": true,
                    "display": "Patient status observation (procedure)",
                    "version": "2022-03"
                }]}],
                "class": {
                    "system": "http://terminology.hl7.org/CodeSystem/v3-ActCode",
                    "code": "AMB",
                    "display": "ambulatory"
                },
                "resourceType": "Encounter",
                "status": "finished"
            },
            "fullUrl": "https://madie.cms.gov/Encounter/91ffb0a4-c526-4442-b4d4-367f07d7c0ff"
        },
        {
            "request": {
                "method": "PUT",
                "url": "Coverage/13b32eae-1660-422e-bd7a-45e5374eab9d"
            },
            "resource": {
                "payor": [{"reference": "Organization/ec4283d7-5cde-40f5-88b9-3a589b4a008f"}],
                "beneficiary": {"reference": "Patient/5cf8a6bf-b0ac-4434-acd8-d785f7c9751c"},
                "meta": {"profile": ["http://hl7.org/fhir/us/qicore/StructureDefinition/qicore-coverage"]},
                "id": "13b32eae-1660-422e-bd7a-45e5374eab9d",
                "resourceType": "Coverage",
                "status": "active"
            },
            "fullUrl": "https://madie.cms.gov/Coverage/13b32eae-1660-422e-bd7a-45e5374eab9d"
        },
        {
            "request": {
                "method": "PUT",
                "url": "Observation/ba43e86c-0e24-4d52-aedb-9121be393116"
            },
            "resource": {
                "component": [
                    {
                        "code": {"coding": [{
                            "system": "http://loinc.org",
                            "code": "8480-6",
                            "display": "Systolic blood pressure"
                        }]},
                        "valueQuantity": {
                            "unit": "mmHg",
                            "system": "http://unitsofmeasure.org",
                            "code": "mm[Hg]",
                            "value": 119
                        }
                    },
                    {
                        "code": {"coding": [{
                            "system": "http://loinc.org",
                            "code": "8462-4",
                            "display": "Diastolic blood pressure"
                        }]},
                        "valueQuantity": {
                            "unit": "mmHg",
                            "system": "http://unitsofmeasure.org",
                            "code": "mm[Hg]",
                            "value": 79
                        }
                    }
                ],
                "code": {"coding": [{
                    "system": "http://loinc.org",
                    "code": "85354-9",
                    "display": "Blood pressure panel"
                }]},
                "effectiveDateTime": "2026-01-01T08:05:00.000+00:00",
                "meta": {"profile": ["http://hl7.org/fhir/us/core/StructureDefinition/us-core-blood-pressure"]},
                "subject": {"reference": "Patient/5cf8a6bf-b0ac-4434-acd8-d785f7c9751c"},
                "id": "ba43e86c-0e24-4d52-aedb-9121be393116",
                "category": [{
                    "coding": [{
                        "system": "http://terminology.hl7.org/CodeSystem/observation-category",
                        "code": "vital-signs",
                        "display": "Vital Signs"
                    }],
                    "text": "Vital Signs"
                }],
                "resourceType": "Observation",
                "status": "final"
            },
            "fullUrl": "https://madie.cms.gov/Observation/ba43e86c-0e24-4d52-aedb-9121be393116"
        },
        {
            "request": {
                "method": "PUT",
                "url": "Organization/ec4283d7-5cde-40f5-88b9-3a589b4a008f"
            },
            "resource": {
                "identifier": [{
                    "system": "urn:oid:2.16.840.1.113883.4.4",
                    "use": "temp",
                    "value": "21-3259825"
                }],
                "address": [{
                    "country": "USA",
                    "city": "Dallas",
                    "use": "billing",
                    "line": ["P.O. Box 660044"],
                    "postalCode": "75266-0044",
                    "state": "TX",
                    "type": "postal"
                }],
                "meta": {"profile": ["http://hl7.org/fhir/us/qicore/StructureDefinition/qicore-organization"]},
                "name": "Blue Cross Blue Shield of Texas",
                "active": true,
                "telecom": [{
                    "system": "phone",
                    "value": "(+1) 972-766-6900"
                }],
                "id": "ec4283d7-5cde-40f5-88b9-3a589b4a008f",
                "type": [{"coding": [{
                    "system": "http://terminology.hl7.org/CodeSystem/organization-type",
                    "code": "pay",
                    "display": "Payer"
                }]}],
                "resourceType": "Organization"
            },
            "fullUrl": "https://madie.cms.gov/Organization/ec4283d7-5cde-40f5-88b9-3a589b4a008f"
        },
        {
            "request": {
                "method": "PUT",
                "url": "MeasureReport/921b9b93-3afa-4ba2-8009-1892cea21f04"
            },
            "resource": {
                "contained": [{
                    "parameter": [{
                        "valueString": "5cf8a6bf-b0ac-4434-acd8-d785f7c9751c",
                        "name": "subject"
                    }],
                    "id": "856a6b85-4517-4a39-921d-fb02a56c375c-parameters",
                    "resourceType": "Parameters"
                }],
                "extension": [
                    {
                        "valueReference": {"reference": "#856a6b85-4517-4a39-921d-fb02a56c375c-parameters"},
                        "url": "http://hl7.org/fhir/StructureDefinition/cqf-inputParameters"
                    },
                    {
                        "valueMarkdown": "Age 18 one day before MP, has encounter first day of MP, Observation BP 119/79 within normal limits.",
                        "url": "http://hl7.org/fhir/us/cqfmeasures/StructureDefinition/cqfm-testCaseDescription"
                    }
                ],
                "period": {
                    "start": "2026-01-01",
                    "end": "2026-12-31"
                },
                "measure": "https://madie.cms.gov/Measure/CMS22FHIRPCSBPScreeningFollowUp",
                "meta": {"profile": ["http://hl7.org/fhir/us/cqfmeasures/StructureDefinition/test-case-cqfm"]},
                "modifierExtension": [{
                    "valueBoolean": true,
                    "url": "http://hl7.org/fhir/us/cqfmeasures/StructureDefinition/cqfm-isTestCase"
                }],
                "id": "921b9b93-3afa-4ba2-8009-1892cea21f04",
                "evaluatedResource": [
                    {"reference": "Patient/5cf8a6bf-b0ac-4434-acd8-d785f7c9751c"},
                    {"reference": "Encounter/91ffb0a4-c526-4442-b4d4-367f07d7c0ff"},
                    {"reference": "Coverage/13b32eae-1660-422e-bd7a-45e5374eab9d"},
                    {"reference": "Observation/ba43e86c-0e24-4d52-aedb-9121be393116"},
                    {"reference": "Organization/ec4283d7-5cde-40f5-88b9-3a589b4a008f"}
                ],
                "type": "individual",
                "resourceType": "MeasureReport",
                "status": "complete",
                "group": [{
                    "id": "Group_1",
                    "measureScore": {"value": 0},
                    "population": [
                        {
                            "code": {"coding": [{
                                "system": "http://terminology.hl7.org/CodeSystem/measure-population",
                                "code": "initial-population",
                                "display": "Initial Population"
                            }]},
                            "count": 1,
                            "id": "InitialPopulation_1"
                        },
                        {
                            "code": {"coding": [{
                                "system": "http://terminology.hl7.org/CodeSystem/measure-population",
                                "code": "denominator",
                                "display": "Denominator"
                            }]},
                            "count": 1,
                            "id": "Denominator_1"
                        },
                        {
                            "code": {"coding": [{
                                "system": "http://terminology.hl7.org/CodeSystem/measure-population",
                                "code": "denominator-exclusion",
                                "display": "Denominator Exclusion"
                            }]},
                            "count": 0,
                            "id": "DenominatorExclusion_1"
                        },
                        {
                            "code": {"coding": [{
                                "system": "http://terminology.hl7.org/CodeSystem/measure-population",
                                "code": "numerator",
                                "display": "Numerator"
                            }]},
                            "count": 1,
                            "id": "Numerator_1"
                        },
                        {
                            "code": {"coding": [{
                                "system": "http://terminology.hl7.org/CodeSystem/measure-population",
                                "code": "denominator-exception",
                                "display": "Denominator Exception"
                            }]},
                            "count": 0,
                            "id": "DenominatorException_1"
                        }
                    ]
                }]
            },
            "fullUrl": "https://madie.cms.gov/MeasureReport/921b9b93-3afa-4ba2-8009-1892cea21f04"
        }
    ],
    "id": "62a8a76e26b2bd13ce26d1ad",
    "type": "transaction",
    "resourceType": "Bundle"
}