{
  "resourceType": "Bundle",
  "id": "612e6b1b02c62a011f2ec7e4",
  "type": "transaction",
  "entry": [ {
    "fullUrl": "https://madie.cms.gov/Patient/fa6ecbf0-8dd9-4c03-a8ed-2bd82cb8206f",
    "resource": {
      "resourceType": "Patient",
      "id": "fa6ecbf0-8dd9-4c03-a8ed-2bd82cb8206f",
      "meta": {
        "profile": [ "http://hl7.org/fhir/us/qicore/StructureDefinition/qicore-patient" ]
      },
      "text": {
        "status": "generated",
        "div": "<div xmlns=\"http://www.w3.org/1999/xhtml\"><div class=\"hapiHeaderText\">ProphylaxisDuringSameDayOf2ndObs <b>NUMERPASS </b></div><table class=\"hapiPropertyTable\"><tbody><tr><td>Identifier</td><td>4a3cf6afd879a8f9468f9b4b43b7b032</td></tr><tr><td>Date of birth</td><td><span>02 September 2003</span></td></tr></tbody></table></div>"
      },
      "extension": [ {
        "url": "http://hl7.org/fhir/us/core/StructureDefinition/us-core-race",
        "extension": [ {
          "url": "ombCategory",
          "valueCoding": {
            "system": "urn:oid:2.16.840.1.113883.6.238",
            "code": "1002-5",
            "display": "American Indian or Alaska Native",
            "userSelected": true
          }
        }, {
          "url": "text",
          "valueString": "American Indian or Alaska Native"
        } ]
      }, {
        "url": "http://hl7.org/fhir/us/core/StructureDefinition/us-core-ethnicity",
        "extension": [ {
          "url": "ombCategory",
          "valueCoding": {
            "system": "urn:oid:2.16.840.1.113883.6.238",
            "code": "2135-2",
            "display": "Hispanic or Latino",
            "userSelected": true
          }
        }, {
          "url": "text",
          "valueString": "Hispanic or Latino"
        } ]
      } ],
      "identifier": [ {
        "type": {
          "coding": [ {
            "system": "http://terminology.hl7.org/CodeSystem/v2-0203",
            "code": "MR"
          } ]
        },
        "system": "https://bonnie-fhir.healthit.gov/",
        "value": "612e6b1b02c62a011f2ec7e4"
      } ],
      "active": true,
      "name": [ {
        "use": "usual",
        "family": "NUMERPass",
        "given": [ "ProphylaxisDuringSameDayOf2ndObs" ]
      } ],
      "gender": "male",
      "birthDate": "2004-09-02"
    },
    "request": {
      "method": "PUT",
      "url": "Patient/fa6ecbf0-8dd9-4c03-a8ed-2bd82cb8206f"
    }
  }, {
    "fullUrl": "https://madie.cms.gov/Encounter/b337903c-17ec-40ab-8644-55c6e32e6ff9",
    "resource": {
      "resourceType": "Encounter",
      "id": "b337903c-17ec-40ab-8644-55c6e32e6ff9",
      "meta": {
        "profile": [ "http://hl7.org/fhir/us/qicore/StructureDefinition/qicore-encounter" ]
      },
      "status": "finished",
      "class": {
        "system": "http://terminology.hl7.org/CodeSystem/v3-ActCode",
        "code": "IMP",
        "display": "inpatient encounter"
      },
      "type": [ {
        "coding": [ {
          "system": "http://snomed.info/sct",
          "code": "183452005"
        } ]
      } ],
      "subject": {
        "reference": "Patient/fa6ecbf0-8dd9-4c03-a8ed-2bd82cb8206f"
      },
      "period": {
        "start": "2026-09-03T15:15:00.000+00:00",
        "end": "2026-10-01T12:59:00.000+00:00"
      }
    },
    "request": {
      "method": "PUT",
      "url": "Encounter/b337903c-17ec-40ab-8644-55c6e32e6ff9"
    }
  }, {
    "fullUrl": "https://madie.cms.gov/Encounter/29cfb825-a23e-4b66-a9a3-bedf110636cf",
    "resource": {
      "resourceType": "Encounter",
      "id": "29cfb825-a23e-4b66-a9a3-bedf110636cf",
      "meta": {
        "profile": [ "http://hl7.org/fhir/us/qicore/StructureDefinition/qicore-encounter" ]
      },
      "status": "finished",
      "class": {
        "system": "http://terminology.hl7.org/CodeSystem/v3-ActCode",
        "code": "EMER",
        "display": "emergency"
      },
      "type": [ {
        "coding": [ {
          "system": "http://snomed.info/sct",
          "code": "4525004"
        } ]
      } ],
      "subject": {
        "reference": "Patient/fa6ecbf0-8dd9-4c03-a8ed-2bd82cb8206f"
      },
      "period": {
        "start": "2026-09-02T14:30:00.000+00:00",
        "end": "2026-09-02T15:00:00.000+00:00"
      }
    },
    "request": {
      "method": "PUT",
      "url": "Encounter/29cfb825-a23e-4b66-a9a3-bedf110636cf"
    }
  }, {
    "fullUrl": "https://madie.cms.gov/Encounter/484ce217-6efd-4f40-b383-b309d1864f39",
    "resource": {
      "resourceType": "Encounter",
      "id": "484ce217-6efd-4f40-b383-b309d1864f39",
      "meta": {
        "profile": [ "http://hl7.org/fhir/us/qicore/StructureDefinition/qicore-encounter" ]
      },
      "status": "finished",
      "class": {
        "system": "http://terminology.hl7.org/CodeSystem/v3-ActCode",
        "code": "EMER",
        "display": "emergency"
      },
      "type": [ {
        "coding": [ {
          "system": "http://snomed.info/sct",
          "code": "4525004"
        } ]
      } ],
      "subject": {
        "reference": "Patient/fa6ecbf0-8dd9-4c03-a8ed-2bd82cb8206f"
      },
      "period": {
        "start": "2026-09-02T08:00:00.000+00:00",
        "end": "2026-09-02T13:00:00.000+00:00"
      }
    },
    "request": {
      "method": "PUT",
      "url": "Encounter/484ce217-6efd-4f40-b383-b309d1864f39"
    }
  }, {
    "fullUrl": "https://madie.cms.gov/Encounter/a140f3ad-e0d5-4291-85de-1928aad15316",
    "resource": {
      "resourceType": "Encounter",
      "id": "a140f3ad-e0d5-4291-85de-1928aad15316",
      "meta": {
        "profile": [ "http://hl7.org/fhir/us/qicore/StructureDefinition/qicore-encounter" ]
      },
      "status": "finished",
      "class": {
        "system": "http://terminology.hl7.org/CodeSystem/v3-ActCode",
        "code": "OBSENC",
        "display": "observation encounter"
      },
      "type": [ {
        "coding": [ {
          "system": "http://snomed.info/sct",
          "code": "448951000124107"
        } ]
      } ],
      "subject": {
        "reference": "Patient/fa6ecbf0-8dd9-4c03-a8ed-2bd82cb8206f"
      },
      "period": {
        "start": "2026-09-02T15:30:00.000+00:00",
        "end": "2026-09-03T15:00:00.000+00:00"
      }
    },
    "request": {
      "method": "PUT",
      "url": "Encounter/a140f3ad-e0d5-4291-85de-1928aad15316"
    }
  }, {
    "fullUrl": "https://madie.cms.gov/Encounter/62420f64-b80c-469f-a4dc-b365666f52e8",
    "resource": {
      "resourceType": "Encounter",
      "id": "62420f64-b80c-469f-a4dc-b365666f52e8",
      "meta": {
        "profile": [ "http://hl7.org/fhir/us/qicore/StructureDefinition/qicore-encounter" ]
      },
      "status": "finished",
      "class": {
        "system": "http://terminology.hl7.org/CodeSystem/v3-ActCode",
        "code": "OBSENC",
        "display": "observation encounter"
      },
      "type": [ {
        "coding": [ {
          "system": "http://snomed.info/sct",
          "code": "448951000124107"
        } ]
      } ],
      "subject": {
        "reference": "Patient/fa6ecbf0-8dd9-4c03-a8ed-2bd82cb8206f"
      },
      "period": {
        "start": "2026-09-02T13:30:00.000+00:00",
        "end": "2026-09-02T14:00:00.000+00:00"
      }
    },
    "request": {
      "method": "PUT",
      "url": "Encounter/62420f64-b80c-469f-a4dc-b365666f52e8"
    }
  }, {
    "fullUrl": "https://madie.cms.gov/Coverage/45fbc46f-7294-4d32-b4de-ee06fbff7b19",
    "resource": {
      "resourceType": "Coverage",
      "id": "45fbc46f-7294-4d32-b4de-ee06fbff7b19",
      "status": "active",
      "beneficiary": {
        "reference": "Patient/fa6ecbf0-8dd9-4c03-a8ed-2bd82cb8206f"
      },
      "period": {
        "start": "2004-09-02T09:00:00.000+00:00"
      },
      "payor": [ {
        "reference": "Organization/e05ceb01-2563-4f29-af0e-d1dba033c9ca"
      } ]
    },
    "request": {
      "method": "PUT",
      "url": "Coverage/45fbc46f-7294-4d32-b4de-ee06fbff7b19"
    }
  }, {
    "fullUrl": "https://madie.cms.gov/MedicationAdministration/ca29ae19-58af-4eb0-bb47-e138951a5723",
    "resource": {
      "resourceType": "MedicationAdministration",
      "id": "ca29ae19-58af-4eb0-bb47-e138951a5723",
      "meta": {
        "profile": [ "http://hl7.org/fhir/us/qicore/StructureDefinition/qicore-medicationadministration" ]
      },
      "status": "completed",
      "medicationCodeableConcept": {
        "coding": [ {
          "system": "http://www.nlm.nih.gov/research/umls/rxnorm",
          "code": "861356"
        } ]
      },
      "subject": {
        "reference": "Patient/fa6ecbf0-8dd9-4c03-a8ed-2bd82cb8206f"
      },
      "effectivePeriod": {
        "start": "2026-09-02T13:40:00.000+00:00",
        "end": "2026-09-02T13:50:00.000+00:00"
      }
    },
    "request": {
      "method": "PUT",
      "url": "MedicationAdministration/ca29ae19-58af-4eb0-bb47-e138951a5723"
    }
  }, {
    "fullUrl": "https://madie.cms.gov/Organization/e05ceb01-2563-4f29-af0e-d1dba033c9ca",
    "resource": {
      "resourceType": "Organization",
      "id": "e05ceb01-2563-4f29-af0e-d1dba033c9ca",
      "meta": {
        "profile": [ "http://hl7.org/fhir/us/qicore/StructureDefinition/qicore-organization" ]
      },
      "identifier": [ {
        "use": "temp",
        "system": "urn:oid:2.16.840.1.113883.4.4",
        "value": "21-3259825"
      } ],
      "active": true,
      "type": [ {
        "coding": [ {
          "system": "http://terminology.hl7.org/CodeSystem/organization-type",
          "code": "pay",
          "display": "Payer"
        } ]
      } ],
      "name": "Blue Cross Blue Shield of Texas",
      "telecom": [ {
        "system": "phone",
        "value": "(+1) 972-766-6900"
      } ],
      "address": [ {
        "use": "billing",
        "type": "postal",
        "line": [ "P.O. Box 660044" ],
        "city": "Dallas",
        "state": "TX",
        "postalCode": "75266-0044",
        "country": "USA"
      } ]
    },
    "request": {
      "method": "PUT",
      "url": "Organization/e05ceb01-2563-4f29-af0e-d1dba033c9ca"
    }
  }, {
    "fullUrl": "https://madie.cms.gov/Practitioner/5630d6a3-8748-42ab-8ecd-8025d75a28a9",
    "resource": {
      "resourceType": "Practitioner",
      "id": "5630d6a3-8748-42ab-8ecd-8025d75a28a9",
      "identifier": [ {
        "system": "http://hl7.org/fhir/sid/us-npi",
        "value": "123456"
      } ],
      "name": [ {
        "family": "Evil",
        "prefix": [ "Dr" ]
      } ]
    },
    "request": {
      "method": "PUT",
      "url": "Practitioner/5630d6a3-8748-42ab-8ecd-8025d75a28a9"
    }
  }, {
    "fullUrl": "https://madie.cms.gov/MeasureReport/d1724009-8751-4868-9e09-f9448195ced3",
    "resource": {
      "resourceType": "MeasureReport",
      "id": "d1724009-8751-4868-9e09-f9448195ced3",
      "meta": {
        "profile": [ "http://hl7.org/fhir/us/cqfmeasures/StructureDefinition/test-case-cqfm" ]
      },
      "contained": [ {
        "resourceType": "Parameters",
        "id": "ca27b807-0876-47d4-bd38-b2f6c26a4a1e-parameters",
        "parameter": [ {
          "name": "subject",
          "valueString": "fa6ecbf0-8dd9-4c03-a8ed-2bd82cb8206f"
        } ]
      } ],
      "extension": [ {
        "url": "http://hl7.org/fhir/StructureDefinition/cqf-inputParameters",
        "valueReference": {
          "reference": "#ca27b807-0876-47d4-bd38-b2f6c26a4a1e-parameters"
        }
      }, {
        "url": "http://hl7.org/fhir/us/cqfmeasures/StructureDefinition/cqfm-testCaseDescription",
        "valueMarkdown": "ED then admit to Observation, did not want to stay AWOL; symptoms worsened, back to ED and then observation, then inpt admit; VTE Prophylaxis during first observation cause test to pass. \n"
      } ],
      "modifierExtension": [ {
        "url": "http://hl7.org/fhir/us/cqfmeasures/StructureDefinition/cqfm-isTestCase",
        "valueBoolean": true
      } ],
      "status": "complete",
      "type": "individual",
      "measure": "https://madie.cms.gov/Measure/CMS108FHIRVTEProphylaxis",
      "period": {
        "start": "2026-01-01",
        "end": "2026-12-31"
      },
      "group": [ {
        "id": "Group_1",
        "population": [ {
          "id": "InitialPopulation_1",
          "code": {
            "coding": [ {
              "system": "http://terminology.hl7.org/CodeSystem/measure-population",
              "code": "initial-population",
              "display": "Initial Population"
            } ]
          },
          "count": 1
        }, {
          "id": "Denominator_1",
          "code": {
            "coding": [ {
              "system": "http://terminology.hl7.org/CodeSystem/measure-population",
              "code": "denominator",
              "display": "Denominator"
            } ]
          },
          "count": 1
        }, {
          "id": "DenominatorExclusion_1",
          "code": {
            "coding": [ {
              "system": "http://terminology.hl7.org/CodeSystem/measure-population",
              "code": "denominator-exclusion",
              "display": "Denominator Exclusion"
            } ]
          },
          "count": 0
        }, {
          "id": "Numerator_1",
          "code": {
            "coding": [ {
              "system": "http://terminology.hl7.org/CodeSystem/measure-population",
              "code": "numerator",
              "display": "Numerator"
            } ]
          },
          "count": 1
        } ],
        "measureScore": {
          "value": 0.0
        }
      } ],
      "evaluatedResource": [ {
        "reference": "Patient/fa6ecbf0-8dd9-4c03-a8ed-2bd82cb8206f"
      }, {
        "reference": "Encounter/b337903c-17ec-40ab-8644-55c6e32e6ff9"
      }, {
        "reference": "Encounter/29cfb825-a23e-4b66-a9a3-bedf110636cf"
      }, {
        "reference": "Encounter/484ce217-6efd-4f40-b383-b309d1864f39"
      }, {
        "reference": "Encounter/a140f3ad-e0d5-4291-85de-1928aad15316"
      }, {
        "reference": "Encounter/62420f64-b80c-469f-a4dc-b365666f52e8"
      }, {
        "reference": "Coverage/45fbc46f-7294-4d32-b4de-ee06fbff7b19"
      }, {
        "reference": "MedicationAdministration/ca29ae19-58af-4eb0-bb47-e138951a5723"
      }, {
        "reference": "Organization/e05ceb01-2563-4f29-af0e-d1dba033c9ca"
      }, {
        "reference": "Practitioner/5630d6a3-8748-42ab-8ecd-8025d75a28a9"
      } ]
    },
    "request": {
      "method": "PUT",
      "url": "MeasureReport/d1724009-8751-4868-9e09-f9448195ced3"
    }
  } ]
}