{
  "resourceType": "Bundle",
  "id": "SDEPass-SDECoverage",
  "type": "transaction",
  "entry": [ {
    "fullUrl": "https://madie.cms.gov/Patient/61793aba-9080-4521-9083-a23f242b8d0a",
    "resource": {
      "resourceType": "Patient",
      "id": "61793aba-9080-4521-9083-a23f242b8d0a",
      "meta": {
        "profile": [ "http://hl7.org/fhir/us/qicore/StructureDefinition/qicore-patient" ]
      },
      "extension": [ {
        "url": "http://hl7.org/fhir/us/core/StructureDefinition/us-core-race",
        "extension": [ {
          "url": "ombCategory",
          "valueCoding": {
            "system": "urn:oid:2.16.840.1.113883.6.238",
            "code": "2028-9",
            "display": "Asian"
          }
        }, {
          "url": "text",
          "valueString": "Asian"
        }, {
          "url": "detailed",
          "valueCoding": {
            "system": "urn:oid:2.16.840.1.113883.6.238",
            "code": "1653-5",
            "display": "Tohono O'Odham"
          }
        } ]
      }, {
        "url": "http://hl7.org/fhir/us/core/StructureDefinition/us-core-ethnicity",
        "extension": [ {
          "url": "ombCategory",
          "valueCoding": {
            "system": "urn:oid:2.16.840.1.113883.6.238",
            "code": "2135-2",
            "display": "Hispanic or Latino"
          }
        }, {
          "url": "text",
          "valueString": "Hispanic or Latino"
        }, {
          "url": "detailed",
          "valueCoding": {
            "system": "urn:oid:2.16.840.1.113883.6.238",
            "code": "2180-8",
            "display": "Puerto Rican"
          }
        } ]
      }, {
        "url": "http://hl7.org/fhir/us/core/StructureDefinition/us-core-sex",
        "valueCode": "248153007"
      } ],
      "identifier": [ {
        "system": "http://hospital.smarthealthit.org",
        "value": "999999995"
      } ],
      "name": [ {
        "family": "SDE",
        "given": [ "SDECoverage" ]
      } ],
      "gender": "male",
      "birthDate": "1951-01-01"
    },
    "request": {
      "method": "PUT",
      "url": "Patient/61793aba-9080-4521-9083-a23f242b8d0a"
    }
  }, {
    "fullUrl": "https://madie.cms.gov/Encounter/60906437-0172-4c8c-8909-8246d9ed2829",
    "resource": {
      "resourceType": "Encounter",
      "id": "60906437-0172-4c8c-8909-8246d9ed2829",
      "meta": {
        "profile": [ "http://hl7.org/fhir/us/qicore/StructureDefinition/qicore-encounter" ]
      },
      "status": "finished",
      "class": {
        "system": "http://terminology.hl7.org/CodeSystem/v3-ActCode",
        "code": "AMB",
        "display": "ambulatory"
      },
      "type": [ {
        "coding": [ {
          "system": "http://snomed.info/sct",
          "code": "185460008",
          "display": "Home visit request by patient (procedure)"
        } ]
      } ],
      "subject": {
        "reference": "Patient/61793aba-9080-4521-9083-a23f242b8d0a"
      },
      "period": {
        "start": "2026-01-01T00:00:00.000Z",
        "end": "2026-01-01T00:15:00.000Z"
      }
    },
    "request": {
      "method": "PUT",
      "url": "Encounter/60906437-0172-4c8c-8909-8246d9ed2829"
    }
  }, {
    "fullUrl": "https://madie.cms.gov/Coverage/37586d01-3369-4e97-b3ed-cb764b74fb33",
    "resource": {
      "resourceType": "Coverage",
      "id": "37586d01-3369-4e97-b3ed-cb764b74fb33",
      "meta": {
        "profile": [ "http://hl7.org/fhir/us/qicore/StructureDefinition/qicore-coverage" ]
      },
      "identifier": [ {
        "system": "http://benefitsinc.com/certificate",
        "value": "12345"
      } ],
      "status": "active",
      "type": {
        "coding": [ {
          "system": "https://nahdo.org/sopt",
          "code": "59",
          "display": "Other Private Insurance"
        } ]
      },
      "policyHolder": {
        "reference": "Patient/61793aba-9080-4521-9083-a23f242b8d0a"
      },
      "subscriber": {
        "reference": "Patient/61793aba-9080-4521-9083-a23f242b8d0a"
      },
      "subscriberId": "12191",
      "beneficiary": {
        "reference": "Patient/61793aba-9080-4521-9083-a23f242b8d0a"
      },
      "dependent": "0",
      "relationship": {
        "coding": [ {
          "system": "http://terminology.hl7.org/CodeSystem/subscriber-relationship",
          "code": "self"
        } ]
      },
      "period": {
        "start": "2023-01-01T06:00:00.000Z",
        "end": "2023-01-01T11:06:01.000Z"
      },
      "payor": [ {
        "reference": "Patient/61793aba-9080-4521-9083-a23f242b8d0a"
      } ],
      "order": 9
    },
    "request": {
      "method": "PUT",
      "url": "Coverage/37586d01-3369-4e97-b3ed-cb764b74fb33"
    }
  }, {
    "fullUrl": "https://madie.cms.gov/Condition/95663503-1778-4787-9709-9820eb8a396d",
    "resource": {
      "resourceType": "Condition",
      "id": "95663503-1778-4787-9709-9820eb8a396d",
      "meta": {
        "profile": [ "http://hl7.org/fhir/us/qicore/StructureDefinition/qicore-condition-encounter-diagnosis" ]
      },
      "clinicalStatus": {
        "coding": [ {
          "system": "http://terminology.hl7.org/CodeSystem/condition-clinical",
          "code": "active"
        } ]
      },
      "category": [ {
        "coding": [ {
          "system": "http://terminology.hl7.org/CodeSystem/condition-category",
          "code": "encounter-diagnosis",
          "display": "Encounter Diagnosis"
        } ]
      } ],
      "code": {
        "coding": [ {
          "system": "http://snomed.info/sct",
          "code": "102781000119107",
          "display": "Sensory neuropathy due to type 1 diabetes mellitus (disorder)"
        } ]
      },
      "subject": {
        "reference": "Patient/61793aba-9080-4521-9083-a23f242b8d0a"
      },
      "onsetDateTime": "2026-01-01T23:59:00.000Z"
    },
    "request": {
      "method": "PUT",
      "url": "Condition/95663503-1778-4787-9709-9820eb8a396d"
    }
  }, {
    "fullUrl": "https://madie.cms.gov/MeasureReport/b36d9e24-1317-48a5-ae96-f2e3af97277f",
    "resource": {
      "resourceType": "MeasureReport",
      "id": "b36d9e24-1317-48a5-ae96-f2e3af97277f",
      "meta": {
        "profile": [ "http://hl7.org/fhir/us/cqfmeasures/StructureDefinition/test-case-cqfm" ]
      },
      "contained": [ {
        "resourceType": "Parameters",
        "id": "9faaa2b9-73b2-460d-9044-fb85357e7628-parameters",
        "parameter": [ {
          "name": "subject",
          "valueString": "61793aba-9080-4521-9083-a23f242b8d0a"
        } ]
      } ],
      "extension": [ {
        "url": "http://hl7.org/fhir/StructureDefinition/cqf-inputParameters",
        "valueReference": {
          "reference": "#9faaa2b9-73b2-460d-9044-fb85357e7628-parameters"
        }
      }, {
        "url": "http://hl7.org/fhir/us/cqfmeasures/StructureDefinition/cqfm-testCaseDescription",
        "valueMarkdown": "For meeting SDE 100% coverage - patient gender male, sde payer coverage, ethnicity detailed, race detailed"
      } ],
      "modifierExtension": [ {
        "url": "http://hl7.org/fhir/us/cqfmeasures/StructureDefinition/cqfm-isTestCase",
        "valueBoolean": true
      } ],
      "status": "complete",
      "type": "individual",
      "measure": "https://madie.cms.gov/Measure/CMS122FHIRDiabetesAssessGreaterThan9Percent",
      "period": {
        "start": "2026-01-01",
        "end": "2026-12-31"
      },
      "group": [ {
        "id": "Group_1",
        "population": [ {
          "id": "InitialPopulation_1",
          "code": {
            "coding": [ {
              "system": "http://terminology.hl7.org/CodeSystem/measure-population",
              "code": "initial-population",
              "display": "Initial Population"
            } ]
          },
          "count": 1
        }, {
          "id": "Denominator_1",
          "code": {
            "coding": [ {
              "system": "http://terminology.hl7.org/CodeSystem/measure-population",
              "code": "denominator",
              "display": "Denominator"
            } ]
          },
          "count": 1
        }, {
          "id": "DenominatorExclusion_1",
          "code": {
            "coding": [ {
              "system": "http://terminology.hl7.org/CodeSystem/measure-population",
              "code": "denominator-exclusion",
              "display": "Denominator Exclusion"
            } ]
          },
          "count": 0
        }, {
          "id": "Numerator_1",
          "code": {
            "coding": [ {
              "system": "http://terminology.hl7.org/CodeSystem/measure-population",
              "code": "numerator",
              "display": "Numerator"
            } ]
          },
          "count": 1
        } ],
        "measureScore": {
          "value": 1.0
        }
      } ],
      "evaluatedResource": [ {
        "reference": "Patient/61793aba-9080-4521-9083-a23f242b8d0a"
      }, {
        "reference": "Encounter/60906437-0172-4c8c-8909-8246d9ed2829"
      }, {
        "reference": "Coverage/37586d01-3369-4e97-b3ed-cb764b74fb33"
      }, {
        "reference": "Condition/95663503-1778-4787-9709-9820eb8a396d"
      } ]
    },
    "request": {
      "method": "PUT",
      "url": "MeasureReport/b36d9e24-1317-48a5-ae96-f2e3af97277f"
    }
  } ]
}