{
    "entry": [
        {
            "request": {
                "method": "PUT",
                "url": "Patient/f3cd028d-a63e-473f-9f1b-4837ae091e65"
            },
            "resource": {
                "identifier": [{
                    "system": "https://bonnie-fhir.healthit.gov/",
                    "type": {"coding": [{
                        "system": "http://terminology.hl7.org/CodeSystem/v2-0203",
                        "code": "MR"
                    }]},
                    "value": "628d4f48786e3aa8c68d3cd3"
                }],
                "extension": [
                    {
                        "extension": [
                            {
                                "valueCoding": {
                                    "system": "urn:oid:2.16.840.1.113883.6.238",
                                    "code": "2028-9",
                                    "userSelected": true,
                                    "display": "Asian"
                                },
                                "url": "ombCategory"
                            },
                            {
                                "valueString": "Asian",
                                "url": "text"
                            }
                        ],
                        "url": "http://hl7.org/fhir/us/core/StructureDefinition/us-core-race"
                    },
                    {
                        "extension": [
                            {
                                "valueCoding": {
                                    "system": "urn:oid:2.16.840.1.113883.6.238",
                                    "code": "2186-5",
                                    "userSelected": true,
                                    "display": "Not Hispanic or Latino"
                                },
                                "url": "ombCategory"
                            },
                            {
                                "valueString": "Not Hispanic or Latino",
                                "url": "text"
                            }
                        ],
                        "url": "http://hl7.org/fhir/us/core/StructureDefinition/us-core-ethnicity"
                    }
                ],
                "gender": "female",
                "meta": {"profile": ["http://hl7.org/fhir/us/qicore/StructureDefinition/qicore-patient"]},
                "name": [{
                    "given": ["NoEncounter"],
                    "family": "IPPFail"
                }],
                "id": "f3cd028d-a63e-473f-9f1b-4837ae091e65",
                "text": {
                    "div": "<div xmlns=\"http://www.w3.org/1999/xhtml\">do not know<\/div>",
                    "status": "generated"
                },
                "birthDate": "2006-12-31",
                "resourceType": "Patient"
            },
            "fullUrl": "https://madie.cms.gov/Patient/f3cd028d-a63e-473f-9f1b-4837ae091e65"
        },
        {
            "request": {
                "method": "PUT",
                "url": "Coverage/8c0fcbf6-de07-4888-aee4-31cf2511b127"
            },
            "resource": {
                "payor": [{"reference": "Organization/45883104-0b45-45ec-86b6-94021f7b1f45"}],
                "beneficiary": {"reference": "Patient/f3cd028d-a63e-473f-9f1b-4837ae091e65"},
                "meta": {"profile": ["http://hl7.org/fhir/us/qicore/StructureDefinition/qicore-coverage"]},
                "id": "8c0fcbf6-de07-4888-aee4-31cf2511b127",
                "resourceType": "Coverage",
                "status": "active"
            },
            "fullUrl": "https://madie.cms.gov/Coverage/8c0fcbf6-de07-4888-aee4-31cf2511b127"
        },
        {
            "request": {
                "method": "PUT",
                "url": "Organization/45883104-0b45-45ec-86b6-94021f7b1f45"
            },
            "resource": {
                "identifier": [{
                    "system": "urn:oid:2.16.840.1.113883.4.4",
                    "use": "temp",
                    "value": "21-3259825"
                }],
                "address": [{
                    "country": "USA",
                    "city": "Dallas",
                    "use": "billing",
                    "line": ["P.O. Box 660044"],
                    "postalCode": "75266-0044",
                    "state": "TX",
                    "type": "postal"
                }],
                "meta": {"profile": ["http://hl7.org/fhir/us/qicore/StructureDefinition/qicore-organization"]},
                "name": "Blue Cross Blue Shield of Texas",
                "active": true,
                "telecom": [{
                    "system": "phone",
                    "value": "(+1) 972-766-6900"
                }],
                "id": "45883104-0b45-45ec-86b6-94021f7b1f45",
                "type": [{"coding": [{
                    "system": "http://terminology.hl7.org/CodeSystem/organization-type",
                    "code": "pay",
                    "display": "Payer"
                }]}],
                "resourceType": "Organization"
            },
            "fullUrl": "https://madie.cms.gov/Organization/45883104-0b45-45ec-86b6-94021f7b1f45"
        },
        {
            "request": {
                "method": "PUT",
                "url": "MeasureReport/41625866-99ae-411e-afb8-5673d8e1b46b"
            },
            "resource": {
                "contained": [{
                    "parameter": [{
                        "valueString": "f3cd028d-a63e-473f-9f1b-4837ae091e65",
                        "name": "subject"
                    }],
                    "id": "4907fe6c-f5a1-4e03-a118-1bfc6bbc0bb2-parameters",
                    "resourceType": "Parameters"
                }],
                "extension": [
                    {
                        "valueReference": {"reference": "#4907fe6c-f5a1-4e03-a118-1bfc6bbc0bb2-parameters"},
                        "url": "http://hl7.org/fhir/StructureDefinition/cqf-inputParameters"
                    },
                    {
                        "valueMarkdown": "Age 18 but no encounter. ",
                        "url": "http://hl7.org/fhir/us/cqfmeasures/StructureDefinition/cqfm-testCaseDescription"
                    }
                ],
                "period": {
                    "start": "2026-01-01",
                    "end": "2026-12-31"
                },
                "measure": "https://madie.cms.gov/Measure/CMS22FHIRPCSBPScreeningFollowUp",
                "meta": {"profile": ["http://hl7.org/fhir/us/cqfmeasures/StructureDefinition/test-case-cqfm"]},
                "modifierExtension": [{
                    "valueBoolean": true,
                    "url": "http://hl7.org/fhir/us/cqfmeasures/StructureDefinition/cqfm-isTestCase"
                }],
                "id": "41625866-99ae-411e-afb8-5673d8e1b46b",
                "evaluatedResource": [
                    {"reference": "Patient/f3cd028d-a63e-473f-9f1b-4837ae091e65"},
                    {"reference": "Coverage/8c0fcbf6-de07-4888-aee4-31cf2511b127"},
                    {"reference": "Organization/45883104-0b45-45ec-86b6-94021f7b1f45"}
                ],
                "type": "individual",
                "resourceType": "MeasureReport",
                "status": "complete",
                "group": [{
                    "id": "Group_1",
                    "measureScore": {"value": 0},
                    "population": [
                        {
                            "code": {"coding": [{
                                "system": "http://terminology.hl7.org/CodeSystem/measure-population",
                                "code": "initial-population",
                                "display": "Initial Population"
                            }]},
                            "count": 0,
                            "id": "InitialPopulation_1"
                        },
                        {
                            "code": {"coding": [{
                                "system": "http://terminology.hl7.org/CodeSystem/measure-population",
                                "code": "denominator",
                                "display": "Denominator"
                            }]},
                            "count": 0,
                            "id": "Denominator_1"
                        },
                        {
                            "code": {"coding": [{
                                "system": "http://terminology.hl7.org/CodeSystem/measure-population",
                                "code": "denominator-exclusion",
                                "display": "Denominator Exclusion"
                            }]},
                            "count": 0,
                            "id": "DenominatorExclusion_1"
                        },
                        {
                            "code": {"coding": [{
                                "system": "http://terminology.hl7.org/CodeSystem/measure-population",
                                "code": "numerator",
                                "display": "Numerator"
                            }]},
                            "count": 0,
                            "id": "Numerator_1"
                        },
                        {
                            "code": {"coding": [{
                                "system": "http://terminology.hl7.org/CodeSystem/measure-population",
                                "code": "denominator-exception",
                                "display": "Denominator Exception"
                            }]},
                            "count": 0,
                            "id": "DenominatorException_1"
                        }
                    ]
                }]
            },
            "fullUrl": "https://madie.cms.gov/MeasureReport/41625866-99ae-411e-afb8-5673d8e1b46b"
        }
    ],
    "id": "628d4f48786e3aa8c68d3cd3",
    "type": "transaction",
    "resourceType": "Bundle"
}