{
  "resourceType": "Bundle",
  "id": "64a710b8d5b5ccbc63c46847",
  "type": "transaction",
  "entry": [
    {
      "fullUrl": "https://madie.cms.gov/Patient/ea7f6cb9-0934-4cdf-b115-091a5926787c",
      "resource": {
        "resourceType": "Patient",
        "id": "ea7f6cb9-0934-4cdf-b115-091a5926787c",
        "meta": {
          "profile": [
            "http://hl7.org/fhir/us/qicore/StructureDefinition/qicore-patient"
          ]
        },
        "extension": [
          {
            "url": "http://hl7.org/fhir/us/core/StructureDefinition/us-core-race",
            "extension": [
              {
                "url": "ombCategory",
                "valueCoding": {
                  "system": "urn:oid:2.16.840.1.113883.6.238",
                  "code": "1002-5",
                  "display": "American Indian or Alaska Native",
                  "userSelected": true
                }
              },
              {
                "url": "text",
                "valueString": "American Indian or Alaska Native"
              }
            ]
          },
          {
            "url": "http://hl7.org/fhir/us/core/StructureDefinition/us-core-ethnicity",
            "extension": [
              {
                "url": "ombCategory",
                "valueCoding": {
                  "system": "urn:oid:2.16.840.1.113883.6.238",
                  "code": "2135-2",
                  "display": "Hispanic or Latino",
                  "userSelected": true
                }
              },
              {
                "url": "text",
                "valueString": "Hispanic or Latino"
              }
            ]
          }
        ],
        "identifier": [
          {
            "type": {
              "coding": [
                {
                  "system": "http://terminology.hl7.org/CodeSystem/v2-0203",
                  "code": "MR"
                }
              ]
            },
            "system": "https://bonnie-fhir.healthit.gov/",
            "value": "64a710b8d5b5ccbc63c46847"
          }
        ],
        "name": [
          {
            "family": "DENOMPass",
            "given": [
              "Age16InitialVisit"
            ]
          }
        ],
        "gender": "male",
        "birthDate": "2007-02-23"
      },
      "request": {
        "method": "PUT",
        "url": "Patient/ea7f6cb9-0934-4cdf-b115-091a5926787c"
      }
    },
    {
      "fullUrl": "https://madie.cms.gov/Encounter/5b43ef4b-03ba-4f9d-b9cd-50f0ec3083d1",
      "resource": {
        "resourceType": "Encounter",
        "id": "5b43ef4b-03ba-4f9d-b9cd-50f0ec3083d1",
        "meta": {
          "profile": [
            "http://hl7.org/fhir/us/qicore/StructureDefinition/qicore-encounter"
          ]
        },
        "status": "finished",
        "class": {
          "system": "http://terminology.hl7.org/CodeSystem/v3-ActCode",
          "code": "AMB",
          "display": "ambulatory",
          "userSelected": true
        },
        "type": [
          {
            "coding": [
              {
                "system": "http://www.ama-assn.org/go/cpt",
                "code": "99394",
                "display": "Periodic comprehensive preventive medicine reevaluation and management of an individual including an age and gender appropriate history, examination, counseling/anticipatory guidance/risk factor reduction interventions, and the ordering of laboratory/diagnostic procedures, established patient; adolescent (age 12 through 17 years)",
                "userSelected": true
              }
            ]
          }
        ],
        "subject": {
          "reference": "Patient/ea7f6cb9-0934-4cdf-b115-091a5926787c"
        },
        "period": {
          "start": "2025-07-06T08:00:00.000+00:00",
          "end": "2025-07-06T08:15:00.000+00:00"
        }
      },
      "request": {
        "method": "PUT",
        "url": "Encounter/5b43ef4b-03ba-4f9d-b9cd-50f0ec3083d1"
      }
    },
    {
      "fullUrl": "https://madie.cms.gov/MeasureReport/1464e1cf-3f34-453e-aca3-7bb5cb5eb63f",
      "resource": {
        "resourceType": "MeasureReport",
        "id": "1464e1cf-3f34-453e-aca3-7bb5cb5eb63f",
        "meta": {
          "profile": [
            "http://hl7.org/fhir/us/cqfmeasures/StructureDefinition/test-case-cqfm"
          ]
        },
        "contained": [
          {
            "resourceType": "Parameters",
            "id": "dd3b7d0a-9461-4e13-9644-f7d9300e8c0d-parameters",
            "parameter": [
              {
                "name": "subject",
                "valueString": "ea7f6cb9-0934-4cdf-b115-091a5926787c"
              }
            ]
          }
        ],
        "extension": [
          {
            "url": "http://hl7.org/fhir/us/cqfmeasures/StructureDefinition/cqfm-inputParameters",
            "valueReference": {
              "reference": "#dd3b7d0a-9461-4e13-9644-f7d9300e8c0d-parameters"
            }
          },
          {
            "url": "http://hl7.org/fhir/us/cqfmeasures/StructureDefinition/cqfm-testCaseDescription",
            "valueMarkdown": "Patient is 16 and has a qualifying encounter during the measurement period. This tests the denominator criteria."
          }
        ],
        "modifierExtension": [
          {
            "url": "http://hl7.org/fhir/us/cqfmeasures/StructureDefinition/cqfm-isTestCase",
            "valueBoolean": true
          }
        ],
        "status": "complete",
        "type": "individual",
        "measure": "https://madie.cms.gov/Measure/HIVScreeningFHIR",
        "period": {
          "start": "2025-01-01",
          "end": "2025-12-31"
        },
        "group": [
          {
            "population": [
              {
                "code": {
                  "coding": [
                    {
                      "system": "http://terminology.hl7.org/CodeSystem/measure-population",
                      "code": "initial-population",
                      "display": "Initial Population"
                    }
                  ]
                },
                "count": 1
              },
              {
                "code": {
                  "coding": [
                    {
                      "system": "http://terminology.hl7.org/CodeSystem/measure-population",
                      "code": "denominator",
                      "display": "Denominator"
                    }
                  ]
                },
                "count": 1
              },
              {
                "code": {
                  "coding": [
                    {
                      "system": "http://terminology.hl7.org/CodeSystem/measure-population",
                      "code": "denominator-exclusion",
                      "display": "Denominator Exclusion"
                    }
                  ]
                },
                "count": 0
              },
              {
                "code": {
                  "coding": [
                    {
                      "system": "http://terminology.hl7.org/CodeSystem/measure-population",
                      "code": "numerator",
                      "display": "Numerator"
                    }
                  ]
                },
                "count": 0
              }
            ]
          }
        ],
        "evaluatedResource": [
          {
            "reference": "Patient/ea7f6cb9-0934-4cdf-b115-091a5926787c"
          },
          {
            "reference": "Encounter/5b43ef4b-03ba-4f9d-b9cd-50f0ec3083d1"
          }
        ]
      },
      "request": {
        "method": "PUT",
        "url": "MeasureReport/1464e1cf-3f34-453e-aca3-7bb5cb5eb63f"
      }
    }
  ]
}