{
  "resourceType": "Bundle",
  "id": "tests-NUMERFail-LabTest2Equals81Exactly5MinBasedOnRelDateTime-bundle",
  "type": "transaction",
  "entry": [ {
    "fullUrl": "https://madie.cms.gov/Encounter/3399f6e8-5c14-421d-9d8e-7d37af6e7d93",
    "resource": {
      "resourceType": "Encounter",
      "id": "3399f6e8-5c14-421d-9d8e-7d37af6e7d93",
      "meta": {
        "profile": [ "http://hl7.org/fhir/us/qicore/StructureDefinition/qicore-encounter" ]
      },
      "status": "finished",
      "class": {
        "system": "http://terminology.hl7.org/CodeSystem/v3-ActCode",
        "code": "IMP",
        "display": "Inpatient encounter"
      },
      "type": [ {
        "coding": [ {
          "system": "http://snomed.info/sct",
          "code": "183452005",
          "display": "Inpatient encounter"
        } ]
      } ],
      "period": {
        "start": "2026-07-11T08:00:00Z",
        "end": "2026-07-16T21:00:00Z"
      }
    },
    "request": {
      "method": "PUT",
      "url": "Encounter/3399f6e8-5c14-421d-9d8e-7d37af6e7d93"
    }
  }, {
    "fullUrl": "https://madie.cms.gov/MedicationAdministration/fbf2ef79-07ed-4fa4-b0ee-cde9b964638b",
    "resource": {
      "resourceType": "MedicationAdministration",
      "id": "fbf2ef79-07ed-4fa4-b0ee-cde9b964638b",
      "meta": {
        "profile": [ "http://hl7.org/fhir/us/qicore/StructureDefinition/qicore-medicationadministration" ]
      },
      "status": "completed",
      "medicationCodeableConcept": {
        "coding": [ {
          "system": "http://www.nlm.nih.gov/research/umls/rxnorm",
          "code": "1653202",
          "display": "Hypoglycemics Severe Hypoglycemia"
        } ]
      },
      "subject": {
        "reference": "Patient/6bc18290-1925-4239-81d7-0118bd062225"
      },
      "effectivePeriod": {
        "start": "2026-07-11T08:00:00Z",
        "end": "2026-07-11T09:00:00Z"
      }
    },
    "request": {
      "method": "PUT",
      "url": "MedicationAdministration/fbf2ef79-07ed-4fa4-b0ee-cde9b964638b"
    }
  }, {
    "fullUrl": "https://madie.cms.gov/Observation/aedd1001-e3e7-459c-9ffe-99ef7f2ae1be",
    "resource": {
      "resourceType": "Observation",
      "id": "aedd1001-e3e7-459c-9ffe-99ef7f2ae1be",
      "meta": {
        "profile": [ "http://hl7.org/fhir/us/qicore/StructureDefinition/qicore-observation-lab" ]
      },
      "status": "final",
      "code": {
        "coding": [ {
          "system": "http://loinc.org",
          "code": "1556-0",
          "display": "Glucose Lab Test Mass Per Volume"
        } ]
      },
      "subject": {
        "reference": "Patient/6bc18290-1925-4239-81d7-0118bd062225"
      },
      "effectivePeriod": {
        "start": "2026-07-11T08:00:00Z",
        "end": "2026-07-11T08:00:00Z"
      },
      "issued": "2026-07-11T08:00:00Z",
      "valueQuantity": {
        "value": 35,
        "unit": "mg/dL"
      }
    },
    "request": {
      "method": "PUT",
      "url": "Observation/aedd1001-e3e7-459c-9ffe-99ef7f2ae1be"
    }
  }, {
    "fullUrl": "https://madie.cms.gov/Observation/5d0557b7-cc5a-4c02-9b66-26e6e59911ea",
    "resource": {
      "resourceType": "Observation",
      "id": "5d0557b7-cc5a-4c02-9b66-26e6e59911ea",
      "meta": {
        "profile": [ "http://hl7.org/fhir/us/qicore/StructureDefinition/qicore-observation-lab" ]
      },
      "status": "final",
      "code": {
        "coding": [ {
          "system": "http://loinc.org",
          "code": "1556-0",
          "display": "Glucose Lab Test Mass Per Volume"
        } ]
      },
      "subject": {
        "reference": "Patient/6bc18290-1925-4239-81d7-0118bd062225"
      },
      "effectivePeriod": {
        "start": "2026-07-11T08:05:00Z",
        "end": "2026-07-11T08:05:00Z"
      },
      "issued": "2026-07-11T08:05:00Z",
      "valueQuantity": {
        "value": 81,
        "unit": "mg/dL"
      }
    },
    "request": {
      "method": "PUT",
      "url": "Observation/5d0557b7-cc5a-4c02-9b66-26e6e59911ea"
    }
  }, {
    "fullUrl": "https://madie.cms.gov/Patient/6bc18290-1925-4239-81d7-0118bd062225",
    "resource": {
      "resourceType": "Patient",
      "id": "6bc18290-1925-4239-81d7-0118bd062225",
      "meta": {
        "profile": [ "http://hl7.org/fhir/us/qicore/StructureDefinition/qicore-patient" ]
      },
      "extension": [ {
        "url": "http://hl7.org/fhir/us/core/StructureDefinition/us-core-race",
        "extension": [ {
          "url": "ombCategory",
          "valueCoding": {
            "system": "urn:oid:2.16.840.1.113883.6.238",
            "code": "2106-3",
            "display": "White"
          }
        }, {
          "url": "text",
          "valueString": "White"
        } ]
      }, {
        "url": "http://hl7.org/fhir/us/core/StructureDefinition/us-core-ethnicity",
        "extension": [ {
          "url": "ombCategory",
          "valueCoding": {
            "system": "urn:oid:2.16.840.1.113883.6.238",
            "code": "2135-2",
            "display": "Hispanic or Latino"
          }
        }, {
          "url": "text",
          "valueString": "Hispanic or Latino"
        } ]
      }, {
        "url": "http://hl7.org/fhir/us/core/StructureDefinition/us-core-sex",
        "valueCode": "248153007"
      } ],
      "identifier": [ {
        "system": "http://hospital.smarthealthit.org",
        "value": "999999999"
      } ],
      "name": [ {
        "family": "Example",
        "given": [ "Patient" ]
      } ],
      "gender": "female",
      "birthDate": "2000-07-11"
    },
    "request": {
      "method": "PUT",
      "url": "Patient/6bc18290-1925-4239-81d7-0118bd062225"
    }
  }, {
    "fullUrl": "https://madie.cms.gov/MeasureReport/066ca04b-ca16-4bda-b76b-74b9cbd7b69f",
    "resource": {
      "resourceType": "MeasureReport",
      "id": "066ca04b-ca16-4bda-b76b-74b9cbd7b69f",
      "meta": {
        "profile": [ "http://hl7.org/fhir/us/cqfmeasures/StructureDefinition/test-case-cqfm" ]
      },
      "contained": [ {
        "resourceType": "Parameters",
        "id": "2d4a8313-c2bb-4df3-b1b8-8face84c1c5d-parameters",
        "parameter": [ {
          "name": "subject",
          "valueString": "6bc18290-1925-4239-81d7-0118bd062225"
        } ]
      } ],
      "extension": [ {
        "url": "http://hl7.org/fhir/StructureDefinition/cqf-inputParameters",
        "valueReference": {
          "reference": "#2d4a8313-c2bb-4df3-b1b8-8face84c1c5d-parameters"
        }
      }, {
        "url": "http://hl7.org/fhir/us/cqfmeasures/StructureDefinition/cqfm-testCaseDescription",
        "valueMarkdown": "Encounter, meds administered, lab test 1 = 35, lab 2  exactly 5 minutes after with result = 81 so does not meet Numerator. Timing is based on rel datetime of first test to second test."
      } ],
      "modifierExtension": [ {
        "url": "http://hl7.org/fhir/us/cqfmeasures/StructureDefinition/cqfm-isTestCase",
        "valueBoolean": true
      } ],
      "status": "complete",
      "type": "individual",
      "measure": "https://madie.cms.gov/Measure/CMS816FHIRHHHypo",
      "period": {
        "start": "2026-01-01",
        "end": "2026-12-31"
      },
      "group": [ {
        "id": "Group_1",
        "population": [ {
          "id": "InitialPopulation_1",
          "code": {
            "coding": [ {
              "system": "http://terminology.hl7.org/CodeSystem/measure-population",
              "code": "initial-population",
              "display": "Initial Population"
            } ]
          },
          "count": 1
        }, {
          "id": "Denominator_1",
          "code": {
            "coding": [ {
              "system": "http://terminology.hl7.org/CodeSystem/measure-population",
              "code": "denominator",
              "display": "Denominator"
            } ]
          },
          "count": 1
        }, {
          "id": "Numerator_1",
          "code": {
            "coding": [ {
              "system": "http://terminology.hl7.org/CodeSystem/measure-population",
              "code": "numerator",
              "display": "Numerator"
            } ]
          },
          "count": 0
        } ],
        "measureScore": {
          "value": 0.0
        }
      } ],
      "evaluatedResource": [ {
        "reference": "Encounter/3399f6e8-5c14-421d-9d8e-7d37af6e7d93"
      }, {
        "reference": "MedicationAdministration/fbf2ef79-07ed-4fa4-b0ee-cde9b964638b"
      }, {
        "reference": "Observation/aedd1001-e3e7-459c-9ffe-99ef7f2ae1be"
      }, {
        "reference": "Observation/5d0557b7-cc5a-4c02-9b66-26e6e59911ea"
      }, {
        "reference": "Patient/6bc18290-1925-4239-81d7-0118bd062225"
      } ]
    },
    "request": {
      "method": "PUT",
      "url": "MeasureReport/066ca04b-ca16-4bda-b76b-74b9cbd7b69f"
    }
  } ]
}