{
  "resourceType": "Bundle",
  "id": "Patient-52-DENEXFail-AdvIllnessDxWithin2YrsNoFrailty",
  "type": "transaction",
  "entry": [ {
    "fullUrl": "https://madie.cms.gov/Patient/511548fc-b5c3-4f90-83c6-e04f8e1c98cc",
    "resource": {
      "resourceType": "Patient",
      "id": "511548fc-b5c3-4f90-83c6-e04f8e1c98cc",
      "meta": {
        "profile": [ "http://hl7.org/fhir/us/qicore/StructureDefinition/qicore-patient" ]
      },
      "extension": [ {
        "url": "http://hl7.org/fhir/us/core/StructureDefinition/us-core-race",
        "extension": [ {
          "url": "ombCategory",
          "valueCoding": {
            "system": "urn:oid:2.16.840.1.113883.6.238",
            "code": "2028-9",
            "display": "Asian"
          }
        }, {
          "url": "text",
          "valueString": "Asian"
        } ]
      }, {
        "url": "http://hl7.org/fhir/us/core/StructureDefinition/us-core-ethnicity",
        "extension": [ {
          "url": "ombCategory",
          "valueCoding": {
            "system": "urn:oid:2.16.840.1.113883.6.238",
            "code": "2135-2",
            "display": "Hispanic or Latino"
          }
        }, {
          "url": "text",
          "valueString": "Hispanic or Latino"
        } ]
      } ],
      "identifier": [ {
        "system": "http://hospital.smarthealthit.org",
        "value": "999999995"
      } ],
      "name": [ {
        "family": "Bertha",
        "given": [ "Betty" ]
      } ],
      "gender": "female",
      "birthDate": "1952-12-31"
    },
    "request": {
      "method": "PUT",
      "url": "Patient/511548fc-b5c3-4f90-83c6-e04f8e1c98cc"
    }
  }, {
    "fullUrl": "https://madie.cms.gov/Condition/5c82c42a-b9c9-46c8-8c66-b3c2763e3530",
    "resource": {
      "resourceType": "Condition",
      "id": "5c82c42a-b9c9-46c8-8c66-b3c2763e3530",
      "meta": {
        "profile": [ "http://hl7.org/fhir/us/qicore/StructureDefinition/qicore-condition-problems-health-concerns" ]
      },
      "clinicalStatus": {
        "coding": [ {
          "system": "http://terminology.hl7.org/CodeSystem/condition-clinical",
          "code": "active"
        } ]
      },
      "category": [ {
        "coding": [ {
          "system": "http://terminology.hl7.org/CodeSystem/condition-category",
          "code": "problem-list-item",
          "display": "Problem List Item"
        } ]
      } ],
      "code": {
        "coding": [ {
          "system": "http://snomed.info/sct",
          "code": "101421000119107",
          "display": "Dementia due to Parkinson's disease (disorder)"
        } ]
      },
      "subject": {
        "reference": "Patient/511548fc-b5c3-4f90-83c6-e04f8e1c98cc"
      },
      "onsetDateTime": "2025-01-01T00:00:00Z"
    },
    "request": {
      "method": "PUT",
      "url": "Condition/5c82c42a-b9c9-46c8-8c66-b3c2763e3530"
    }
  }, {
    "fullUrl": "https://madie.cms.gov/Encounter/ed405591-937c-49f8-8c4a-5583063b6150",
    "resource": {
      "resourceType": "Encounter",
      "id": "ed405591-937c-49f8-8c4a-5583063b6150",
      "meta": {
        "profile": [ "http://hl7.org/fhir/us/qicore/StructureDefinition/qicore-encounter" ]
      },
      "status": "finished",
      "class": {
        "system": "http://terminology.hl7.org/CodeSystem/v3-ActCode",
        "code": "AMB",
        "display": "ambulatory"
      },
      "type": [ {
        "coding": [ {
          "system": "http://snomed.info/sct",
          "code": "185463005",
          "display": "Visit out of hours (procedure)"
        } ]
      } ],
      "subject": {
        "reference": "Patient/511548fc-b5c3-4f90-83c6-e04f8e1c98cc"
      },
      "period": {
        "start": "2026-01-01T00:00:00Z",
        "end": "2026-01-01T00:15:00Z"
      }
    },
    "request": {
      "method": "PUT",
      "url": "Encounter/ed405591-937c-49f8-8c4a-5583063b6150"
    }
  }, {
    "fullUrl": "https://madie.cms.gov/Condition/fe63471c-9bae-4719-831b-44d0341a0b55",
    "resource": {
      "resourceType": "Condition",
      "id": "fe63471c-9bae-4719-831b-44d0341a0b55",
      "meta": {
        "profile": [ "http://hl7.org/fhir/us/qicore/StructureDefinition/qicore-condition-encounter-diagnosis" ]
      },
      "clinicalStatus": {
        "coding": [ {
          "system": "http://terminology.hl7.org/CodeSystem/condition-clinical",
          "code": "active"
        } ]
      },
      "category": [ {
        "coding": [ {
          "system": "http://terminology.hl7.org/CodeSystem/condition-category",
          "code": "encounter-diagnosis",
          "display": "Encounter Diagnosis"
        } ]
      } ],
      "code": {
        "coding": [ {
          "system": "http://snomed.info/sct",
          "code": "102781000119107",
          "display": "Sensory neuropathy due to type 1 diabetes mellitus (disorder)"
        } ]
      },
      "subject": {
        "reference": "Patient/511548fc-b5c3-4f90-83c6-e04f8e1c98cc"
      },
      "onsetDateTime": "2026-01-01T23:59:00Z"
    },
    "request": {
      "method": "PUT",
      "url": "Condition/fe63471c-9bae-4719-831b-44d0341a0b55"
    }
  }, {
    "fullUrl": "https://madie.cms.gov/MeasureReport/5920e454-6d6c-429e-a7f4-dd8e6408abe1",
    "resource": {
      "resourceType": "MeasureReport",
      "id": "5920e454-6d6c-429e-a7f4-dd8e6408abe1",
      "meta": {
        "profile": [ "http://hl7.org/fhir/us/cqfmeasures/StructureDefinition/test-case-cqfm" ]
      },
      "contained": [ {
        "resourceType": "Parameters",
        "id": "2a90b4fd-7ed8-4aef-9bd4-0f88e0a89237-parameters",
        "parameter": [ {
          "name": "subject",
          "valueString": "511548fc-b5c3-4f90-83c6-e04f8e1c98cc"
        } ]
      } ],
      "extension": [ {
        "url": "http://hl7.org/fhir/StructureDefinition/cqf-inputParameters",
        "valueReference": {
          "reference": "#2a90b4fd-7ed8-4aef-9bd4-0f88e0a89237-parameters"
        }
      }, {
        "url": "http://hl7.org/fhir/us/cqfmeasures/StructureDefinition/cqfm-testCaseDescription",
        "valueMarkdown": "Missing indication of frailty"
      } ],
      "modifierExtension": [ {
        "url": "http://hl7.org/fhir/us/cqfmeasures/StructureDefinition/cqfm-isTestCase",
        "valueBoolean": true
      } ],
      "status": "complete",
      "type": "individual",
      "measure": "https://madie.cms.gov/Measure/CMS122FHIRDiabetesAssessGreaterThan9Percent",
      "period": {
        "start": "2026-01-01",
        "end": "2026-12-31"
      },
      "group": [ {
        "id": "Group_1",
        "population": [ {
          "id": "InitialPopulation_1",
          "code": {
            "coding": [ {
              "system": "http://terminology.hl7.org/CodeSystem/measure-population",
              "code": "initial-population",
              "display": "Initial Population"
            } ]
          },
          "count": 1
        }, {
          "id": "Denominator_1",
          "code": {
            "coding": [ {
              "system": "http://terminology.hl7.org/CodeSystem/measure-population",
              "code": "denominator",
              "display": "Denominator"
            } ]
          },
          "count": 1
        }, {
          "id": "DenominatorExclusion_1",
          "code": {
            "coding": [ {
              "system": "http://terminology.hl7.org/CodeSystem/measure-population",
              "code": "denominator-exclusion",
              "display": "Denominator Exclusion"
            } ]
          },
          "count": 0
        }, {
          "id": "Numerator_1",
          "code": {
            "coding": [ {
              "system": "http://terminology.hl7.org/CodeSystem/measure-population",
              "code": "numerator",
              "display": "Numerator"
            } ]
          },
          "count": 1
        } ],
        "measureScore": {
          "value": 1.0
        }
      } ],
      "evaluatedResource": [ {
        "reference": "Patient/511548fc-b5c3-4f90-83c6-e04f8e1c98cc"
      }, {
        "reference": "Condition/5c82c42a-b9c9-46c8-8c66-b3c2763e3530"
      }, {
        "reference": "Encounter/ed405591-937c-49f8-8c4a-5583063b6150"
      }, {
        "reference": "Condition/fe63471c-9bae-4719-831b-44d0341a0b55"
      } ]
    },
    "request": {
      "method": "PUT",
      "url": "MeasureReport/5920e454-6d6c-429e-a7f4-dd8e6408abe1"
    }
  } ]
}