{
  "resourceType": "Bundle",
  "id": "63487c2e0968f8012254018b",
  "type": "transaction",
  "entry": [ {
    "fullUrl": "https://madie.cms.gov/Patient/82f21ead-f571-4c37-9f50-805db63f44c6",
    "resource": {
      "resourceType": "Patient",
      "id": "82f21ead-f571-4c37-9f50-805db63f44c6",
      "meta": {
        "profile": [ "http://hl7.org/fhir/us/qicore/StructureDefinition/qicore-patient" ]
      },
      "text": {
        "status": "generated",
        "div": "<div xmlns=\"http://www.w3.org/1999/xhtml\"><div class=\"hapiHeaderText\">DxCodeOf37Weeks<b>DENOMPASS</b></div><table class=\"hapiPropertyTable\"><tbody><tr><td>Identifier</td><td>26ae2095ae359d33c45002ef417f38a5e4f6a61da3ea75d0332f68a4cb93137e</td></tr><tr><td>Date of birth</td><td><span>14 February 1985</span></td></tr></tbody></table></div>"
      },
      "extension": [ {
        "url": "http://hl7.org/fhir/us/core/StructureDefinition/us-core-race",
        "extension": [ {
          "url": "ombCategory",
          "valueCoding": {
            "system": "urn:oid:2.16.840.1.113883.6.238",
            "code": "1002-5",
            "display": "American Indian or Alaska Native",
            "userSelected": true
          }
        }, {
          "url": "text",
          "valueString": "American Indian or Alaska Native"
        } ]
      }, {
        "url": "http://hl7.org/fhir/us/core/StructureDefinition/us-core-ethnicity",
        "extension": [ {
          "url": "ombCategory",
          "valueCoding": {
            "system": "urn:oid:2.16.840.1.113883.6.238",
            "code": "2135-2",
            "display": "Hispanic or Latino",
            "userSelected": true
          }
        }, {
          "url": "text",
          "valueString": "Hispanic or Latino"
        } ]
      } ],
      "identifier": [ {
        "type": {
          "coding": [ {
            "system": "http://terminology.hl7.org/CodeSystem/v2-0203",
            "code": "MR"
          } ]
        },
        "system": "https://bonnie-fhir.healthit.gov/",
        "value": "63487c2e0968f8012254018b"
      } ],
      "active": true,
      "name": [ {
        "use": "usual",
        "family": "DENOMPass",
        "given": [ "DxCodeOf37Weeks" ]
      } ],
      "gender": "female",
      "birthDate": "1998-02-14"
    },
    "request": {
      "method": "PUT",
      "url": "Patient/82f21ead-f571-4c37-9f50-805db63f44c6"
    }
  }, {
    "fullUrl": "https://madie.cms.gov/Observation/ee31cec6-4272-4bf5-a4a2-a3501b306792",
    "resource": {
      "resourceType": "Observation",
      "id": "ee31cec6-4272-4bf5-a4a2-a3501b306792",
      "meta": {
        "profile": [ "http://hl7.org/fhir/us/qicore/StructureDefinition/qicore-simple-observation" ]
      },
      "status": "final",
      "category": [ {
        "coding": [ {
          "system": "http://terminology.hl7.org/CodeSystem/observation-category",
          "code": "exam",
          "display": "exam",
          "userSelected": true
        } ]
      } ],
      "code": {
        "coding": [ {
          "system": "http://loinc.org",
          "code": "11996-6",
          "display": "Pregnancies"
        } ]
      },
      "subject": {
        "reference": "Patient/82f21ead-f571-4c37-9f50-805db63f44c6"
      },
      "effectiveDateTime": "2026-06-08T08:00:00.000+00:00",
      "performer": [ {
        "reference": "Organization/example1",
        "display": "Hendricks Country Hospital"
      } ],
      "valueInteger": 1
    },
    "request": {
      "method": "PUT",
      "url": "Observation/ee31cec6-4272-4bf5-a4a2-a3501b306792"
    }
  }, {
    "fullUrl": "https://madie.cms.gov/Observation/895d44d7-3915-4d6a-ae82-8f9fcc996b0f",
    "resource": {
      "resourceType": "Observation",
      "id": "895d44d7-3915-4d6a-ae82-8f9fcc996b0f",
      "meta": {
        "profile": [ "http://hl7.org/fhir/us/qicore/StructureDefinition/qicore-simple-observation" ]
      },
      "status": "final",
      "category": [ {
        "coding": [ {
          "system": "http://terminology.hl7.org/CodeSystem/observation-category",
          "code": "exam",
          "display": "exam",
          "userSelected": true
        } ]
      } ],
      "code": {
        "coding": [ {
          "system": "http://loinc.org",
          "code": "93857-1",
          "display": "Date and time of obstetric delivery"
        } ]
      },
      "subject": {
        "reference": "Patient/82f21ead-f571-4c37-9f50-805db63f44c6"
      },
      "effectiveDateTime": "2026-06-08T20:00:00.000+00:00",
      "performer": [ {
        "reference": "Organization/example1",
        "display": "Hendricks Country Hospital"
      } ],
      "valueDateTime": "2026-06-08T20:00:00.000+00:00"
    },
    "request": {
      "method": "PUT",
      "url": "Observation/895d44d7-3915-4d6a-ae82-8f9fcc996b0f"
    }
  }, {
    "fullUrl": "https://madie.cms.gov/Encounter/c5c0535b-8786-46e2-9996-fc3c6236b63e",
    "resource": {
      "resourceType": "Encounter",
      "id": "c5c0535b-8786-46e2-9996-fc3c6236b63e",
      "meta": {
        "profile": [ "http://hl7.org/fhir/us/qicore/StructureDefinition/qicore-encounter" ]
      },
      "status": "finished",
      "class": {
        "system": "http://terminology.hl7.org/CodeSystem/v3-ActCode",
        "code": "IMP",
        "display": "inpatient encounter"
      },
      "type": [ {
        "coding": [ {
          "system": "http://snomed.info/sct",
          "code": "8715000"
        } ]
      } ],
      "subject": {
        "reference": "Patient/82f21ead-f571-4c37-9f50-805db63f44c6"
      },
      "period": {
        "start": "2026-06-08T08:00:00.000+00:00",
        "end": "2026-06-10T08:15:00.000+00:00"
      },
      "reasonCode": [ {
        "coding": [ {
          "system": "http://snomed.info/sct",
          "code": "169826009",
          "display": "Single live birth from singleton pregnancy (finding)"
        } ]
      } ],
      "reasonReference": [ {
        "reference": "Condition/c24e3a32-5d34-4069-9045-3fafdf77dff9"
      } ]
    },
    "request": {
      "method": "PUT",
      "url": "Encounter/c5c0535b-8786-46e2-9996-fc3c6236b63e"
    }
  }, {
    "fullUrl": "https://madie.cms.gov/Procedure/57c3c337-dc3f-47b6-b8a7-ae084dac8e70",
    "resource": {
      "resourceType": "Procedure",
      "id": "57c3c337-dc3f-47b6-b8a7-ae084dac8e70",
      "meta": {
        "profile": [ "http://hl7.org/fhir/us/qicore/StructureDefinition/qicore-procedure" ]
      },
      "extension": [ {
        "url": "http://hl7.org/fhir/us/qicore/StructureDefinition/qicore-recorded",
        "valueDateTime": "2014-04-05T13:35:00.000+00:00"
      } ],
      "status": "completed",
      "code": {
        "coding": [ {
          "system": "http://snomed.info/sct",
          "version": "2022-09",
          "code": "10745001",
          "display": "Delivery of transverse presentation (procedure)",
          "userSelected": true
        } ]
      },
      "subject": {
        "reference": "Patient/82f21ead-f571-4c37-9f50-805db63f44c6"
      },
      "performedPeriod": {
        "start": "2026-06-08T20:00:00.000+00:00",
        "end": "2026-06-10T20:00:00.000+00:00"
      }
    },
    "request": {
      "method": "PUT",
      "url": "Procedure/57c3c337-dc3f-47b6-b8a7-ae084dac8e70"
    }
  }, {
    "fullUrl": "https://madie.cms.gov/Condition/7db6ebb8-bfa3-430e-8838-58a8940f5bc8",
    "resource": {
      "resourceType": "Condition",
      "id": "7db6ebb8-bfa3-430e-8838-58a8940f5bc8",
      "meta": {
        "profile": [ "http://hl7.org/fhir/us/qicore/StructureDefinition/qicore-condition-encounter-diagnosis" ]
      },
      "category": [ {
        "coding": [ {
          "system": "http://terminology.hl7.org/CodeSystem/condition-category",
          "code": "encounter-diagnosis",
          "display": "Encounter Diagnosis"
        } ]
      } ],
      "code": {
        "coding": [ {
          "system": "http://snomed.info/sct",
          "version": "2022-09",
          "code": "169826009",
          "display": "Single live birth from singleton pregnancy (finding)",
          "userSelected": true
        } ]
      },
      "subject": {
        "reference": "Patient/82f21ead-f571-4c37-9f50-805db63f44c6"
      },
      "encounter": {
        "reference": "Encounter/c5c0535b-8786-46e2-9996-fc3c6236b63e"
      },
      "recordedDate": "2026-10-17T08:00:00.000+00:00"
    },
    "request": {
      "method": "PUT",
      "url": "Condition/7db6ebb8-bfa3-430e-8838-58a8940f5bc8"
    }
  }, {
    "fullUrl": "https://madie.cms.gov/Condition/c24e3a32-5d34-4069-9045-3fafdf77dff9",
    "resource": {
      "resourceType": "Condition",
      "id": "c24e3a32-5d34-4069-9045-3fafdf77dff9",
      "meta": {
        "profile": [ "http://hl7.org/fhir/us/qicore/StructureDefinition/qicore-condition-encounter-diagnosis" ]
      },
      "category": [ {
        "coding": [ {
          "system": "http://terminology.hl7.org/CodeSystem/condition-category",
          "code": "encounter-diagnosis",
          "display": "Encounter Diagnosis"
        } ]
      } ],
      "code": {
        "coding": [ {
          "system": "http://snomed.info/sct",
          "version": "2022-09",
          "code": "43697006",
          "display": "Gestation period, 37 weeks (finding)",
          "userSelected": true
        } ]
      },
      "subject": {
        "reference": "Patient/82f21ead-f571-4c37-9f50-805db63f44c6"
      },
      "encounter": {
        "reference": "Encounter/5ca6295db8484628b8de1d45"
      },
      "recordedDate": "2026-10-17T08:00:00.000+00:00"
    },
    "request": {
      "method": "PUT",
      "url": "Condition/c24e3a32-5d34-4069-9045-3fafdf77dff9"
    }
  }, {
    "fullUrl": "https://madie.cms.gov/Coverage/4233fd4b-3074-4ace-935b-6c6bc4323718",
    "resource": {
      "resourceType": "Coverage",
      "id": "4233fd4b-3074-4ace-935b-6c6bc4323718",
      "meta": {
        "profile": [ "http://hl7.org/fhir/us/qicore/StructureDefinition/qicore-coverage" ]
      },
      "status": "active",
      "subscriberId": "523435",
      "beneficiary": {
        "reference": "Patient/82f21ead-f571-4c37-9f50-805db63f44c6"
      },
      "relationship": {
        "coding": [ {
          "system": "http://terminology.hl7.org/CodeSystem/subscriber-relationship",
          "code": "self"
        } ]
      },
      "payor": [ {
        "reference": "Organization/5b66d6d7-51d4-44aa-a654-1931267ebdbd"
      } ]
    },
    "request": {
      "method": "PUT",
      "url": "Coverage/4233fd4b-3074-4ace-935b-6c6bc4323718"
    }
  }, {
    "fullUrl": "https://madie.cms.gov/Organization/5b66d6d7-51d4-44aa-a654-1931267ebdbd",
    "resource": {
      "resourceType": "Organization",
      "id": "5b66d6d7-51d4-44aa-a654-1931267ebdbd",
      "meta": {
        "profile": [ "http://hl7.org/fhir/us/qicore/StructureDefinition/qicore-organization" ]
      },
      "identifier": [ {
        "use": "temp",
        "system": "urn:oid:2.16.840.1.113883.4.4",
        "value": "21-3259825"
      } ],
      "active": true,
      "type": [ {
        "coding": [ {
          "system": "http://terminology.hl7.org/CodeSystem/organization-type",
          "code": "pay",
          "display": "Payer"
        } ]
      } ],
      "name": "Blue Cross Blue Shield of Texas",
      "telecom": [ {
        "system": "phone",
        "value": "(+1) 972-766-6900"
      } ],
      "address": [ {
        "use": "billing",
        "type": "postal",
        "line": [ "P.O. Box 660044" ],
        "city": "Dallas",
        "state": "TX",
        "postalCode": "75266-0044",
        "country": "USA"
      } ]
    },
    "request": {
      "method": "PUT",
      "url": "Organization/5b66d6d7-51d4-44aa-a654-1931267ebdbd"
    }
  }, {
    "fullUrl": "https://madie.cms.gov/Practitioner/9897de61-ce05-4eaa-93be-3185d364c883",
    "resource": {
      "resourceType": "Practitioner",
      "id": "9897de61-ce05-4eaa-93be-3185d364c883",
      "meta": {
        "profile": [ "http://hl7.org/fhir/us/qicore/StructureDefinition/qicore-practitioner" ]
      },
      "identifier": [ {
        "system": "http://hl7.org/fhir/sid/us-npi",
        "value": "1234567890"
      } ],
      "name": [ {
        "family": "Evil",
        "prefix": [ "Dr" ]
      } ]
    },
    "request": {
      "method": "PUT",
      "url": "Practitioner/9897de61-ce05-4eaa-93be-3185d364c883"
    }
  }, {
    "fullUrl": "https://madie.cms.gov/MeasureReport/e49f847c-fee3-4fe9-a5d7-f4ca82978b65",
    "resource": {
      "resourceType": "MeasureReport",
      "id": "e49f847c-fee3-4fe9-a5d7-f4ca82978b65",
      "meta": {
        "profile": [ "http://hl7.org/fhir/us/cqfmeasures/StructureDefinition/test-case-cqfm" ]
      },
      "contained": [ {
        "resourceType": "Parameters",
        "id": "38d5b29c-ff16-46a9-8ec8-1eff3f949908-parameters",
        "parameter": [ {
          "name": "subject",
          "valueString": "82f21ead-f571-4c37-9f50-805db63f44c6"
        } ]
      } ],
      "extension": [ {
        "url": "http://hl7.org/fhir/StructureDefinition/cqf-inputParameters",
        "valueReference": {
          "reference": "#38d5b29c-ff16-46a9-8ec8-1eff3f949908-parameters"
        }
      }, {
        "url": "http://hl7.org/fhir/us/cqfmeasures/StructureDefinition/cqfm-testCaseDescription",
        "valueMarkdown": "CGA and EGA are not present.  Diagnosis code of 37 weeks will pass Denom."
      } ],
      "modifierExtension": [ {
        "url": "http://hl7.org/fhir/us/cqfmeasures/StructureDefinition/cqfm-isTestCase",
        "valueBoolean": true
      } ],
      "status": "complete",
      "type": "individual",
      "measure": "https://madie.cms.gov/Measure/CMS0334FHIRPCCesareanBirth",
      "period": {
        "start": "2026-01-01",
        "end": "2026-12-31"
      },
      "group": [ {
        "id": "Group_1",
        "population": [ {
          "id": "InitialPopulation_1",
          "code": {
            "coding": [ {
              "system": "http://terminology.hl7.org/CodeSystem/measure-population",
              "code": "initial-population",
              "display": "Initial Population"
            } ]
          },
          "count": 1
        }, {
          "id": "Denominator_1",
          "code": {
            "coding": [ {
              "system": "http://terminology.hl7.org/CodeSystem/measure-population",
              "code": "denominator",
              "display": "Denominator"
            } ]
          },
          "count": 1
        }, {
          "id": "DenominatorExclusion_1",
          "code": {
            "coding": [ {
              "system": "http://terminology.hl7.org/CodeSystem/measure-population",
              "code": "denominator-exclusion",
              "display": "Denominator Exclusion"
            } ]
          },
          "count": 0
        }, {
          "id": "Numerator_1",
          "code": {
            "coding": [ {
              "system": "http://terminology.hl7.org/CodeSystem/measure-population",
              "code": "numerator",
              "display": "Numerator"
            } ]
          },
          "count": 0
        } ],
        "measureScore": {
          "value": 0.0
        }
      } ],
      "evaluatedResource": [ {
        "reference": "Patient/82f21ead-f571-4c37-9f50-805db63f44c6"
      }, {
        "reference": "Observation/ee31cec6-4272-4bf5-a4a2-a3501b306792"
      }, {
        "reference": "Observation/895d44d7-3915-4d6a-ae82-8f9fcc996b0f"
      }, {
        "reference": "Encounter/c5c0535b-8786-46e2-9996-fc3c6236b63e"
      }, {
        "reference": "Procedure/57c3c337-dc3f-47b6-b8a7-ae084dac8e70"
      }, {
        "reference": "Condition/7db6ebb8-bfa3-430e-8838-58a8940f5bc8"
      }, {
        "reference": "Condition/c24e3a32-5d34-4069-9045-3fafdf77dff9"
      }, {
        "reference": "Coverage/4233fd4b-3074-4ace-935b-6c6bc4323718"
      }, {
        "reference": "Organization/5b66d6d7-51d4-44aa-a654-1931267ebdbd"
      }, {
        "reference": "Practitioner/9897de61-ce05-4eaa-93be-3185d364c883"
      } ]
    },
    "request": {
      "method": "PUT",
      "url": "MeasureReport/e49f847c-fee3-4fe9-a5d7-f4ca82978b65"
    }
  } ]
}