{
  "resourceType": "Bundle",
  "id": "60f82c2f98086b570510e29a",
  "type": "transaction",
  "entry": [ {
    "fullUrl": "https://madie.cms.gov/Patient/b86e54d1-f8ca-44b6-99a5-d455c5649104",
    "resource": {
      "resourceType": "Patient",
      "id": "b86e54d1-f8ca-44b6-99a5-d455c5649104",
      "meta": {
        "profile": [ "http://hl7.org/fhir/us/qicore/StructureDefinition/qicore-patient" ]
      },
      "text": {
        "status": "generated",
        "div": "<div xmlns=\"http://www.w3.org/1999/xhtml\"><div class=\"hapiHeaderText\">PriorTPANegativeTest <b>DENEXFAIL </b></div><table class=\"hapiPropertyTable\"><tbody><tr><td>Identifier</td><td>565104711a5f65734f311e1bcaee8e27aafbba4f5261e5e5779c11e36e48777e</td></tr><tr><td>Date of birth</td><td><span>26 September 1975</span></td></tr></tbody></table></div>"
      },
      "extension": [ {
        "url": "http://hl7.org/fhir/us/core/StructureDefinition/us-core-race",
        "extension": [ {
          "url": "ombCategory",
          "valueCoding": {
            "system": "urn:oid:2.16.840.1.113883.6.238",
            "code": "2054-5",
            "display": "Black or African American",
            "userSelected": true
          }
        }, {
          "url": "text",
          "valueString": "Black or African American"
        } ]
      }, {
        "url": "http://hl7.org/fhir/us/core/StructureDefinition/us-core-ethnicity",
        "extension": [ {
          "url": "ombCategory",
          "valueCoding": {
            "system": "urn:oid:2.16.840.1.113883.6.238",
            "code": "2186-5",
            "display": "Not Hispanic or Latino",
            "userSelected": true
          }
        }, {
          "url": "text",
          "valueString": "Not Hispanic or Latino"
        } ]
      } ],
      "identifier": [ {
        "type": {
          "coding": [ {
            "system": "http://terminology.hl7.org/CodeSystem/v2-0203",
            "code": "MR"
          } ]
        },
        "system": "https://bonnie-fhir.healthit.gov/",
        "value": "60f82c2f98086b570510e29a"
      } ],
      "active": true,
      "name": [ {
        "use": "usual",
        "family": "DENEXFail",
        "given": [ "PriorTPANegativeTest" ]
      } ],
      "gender": "female",
      "birthDate": "1976-09-26"
    },
    "request": {
      "method": "PUT",
      "url": "Patient/b86e54d1-f8ca-44b6-99a5-d455c5649104"
    }
  }, {
    "fullUrl": "https://madie.cms.gov/Encounter/031dabb7-05cc-42da-b57e-aed577c8d0bd",
    "resource": {
      "resourceType": "Encounter",
      "id": "031dabb7-05cc-42da-b57e-aed577c8d0bd",
      "meta": {
        "profile": [ "http://hl7.org/fhir/us/qicore/StructureDefinition/qicore-encounter" ]
      },
      "status": "finished",
      "class": {
        "system": "http://terminology.hl7.org/CodeSystem/v3-ActCode",
        "code": "IMP",
        "display": "inpatient encounter",
        "userSelected": true
      },
      "type": [ {
        "coding": [ {
          "system": "http://snomed.info/sct",
          "code": "32485007"
        } ]
      } ],
      "subject": {
        "reference": "Patient/b86e54d1-f8ca-44b6-99a5-d455c5649104"
      },
      "period": {
        "start": "2026-10-10T06:15:00Z",
        "end": "2026-10-24T11:30:00.000+00:00"
      },
      "length": {
        "value": 14,
        "unit": "days"
      },
      "reasonReference": [ {
        "reference": "Condition/6dfb391f-cd8c-4901-a3f6-2d0aa4968c3d"
      } ]
    },
    "request": {
      "method": "PUT",
      "url": "Encounter/031dabb7-05cc-42da-b57e-aed577c8d0bd"
    }
  }, {
    "fullUrl": "https://madie.cms.gov/Condition/6dfb391f-cd8c-4901-a3f6-2d0aa4968c3d",
    "resource": {
      "resourceType": "Condition",
      "id": "6dfb391f-cd8c-4901-a3f6-2d0aa4968c3d",
      "meta": {
        "profile": [ "http://hl7.org/fhir/us/qicore/StructureDefinition/qicore-condition-encounter-diagnosis" ]
      },
      "clinicalStatus": {
        "coding": [ {
          "system": "http://terminology.hl7.org/CodeSystem/condition-clinical",
          "code": "active"
        } ]
      },
      "verificationStatus": {
        "coding": [ {
          "system": "http://terminology.hl7.org/CodeSystem/condition-ver-status",
          "code": "confirmed"
        } ]
      },
      "category": [ {
        "coding": [ {
          "system": "http://terminology.hl7.org/CodeSystem/condition-category",
          "code": "encounter-diagnosis",
          "display": "Encounter Diagnosis"
        } ]
      } ],
      "code": {
        "coding": [ {
          "system": "http://snomed.info/sct",
          "version": "2020-09",
          "code": "111297002",
          "display": "Nonparalytic stroke (disorder)",
          "userSelected": true
        } ]
      },
      "subject": {
        "reference": "Patient/b86e54d1-f8ca-44b6-99a5-d455c5649104"
      },
      "encounter": {
        "reference": "Encounter/031dabb7-05cc-42da-b57e-aed577c8d0bd"
      },
      "recordedDate": "2026-08-12T08:00:00Z"
    },
    "request": {
      "method": "PUT",
      "url": "Condition/6dfb391f-cd8c-4901-a3f6-2d0aa4968c3d"
    }
  }, {
    "fullUrl": "https://madie.cms.gov/claim/5ca62962b8484628b8de1ec5",
    "resource": {
      "resourceType": "Claim",
      "id": "5ca62962b8484628b8de1ec5",
      "meta": {
        "profile": [ "http://hl7.org/fhir/us/qicore/StructureDefinition/qicore-claim" ]
      },
      "status": "active",
      "type": {
        "coding": [ {
          "system": "http://terminology.hl7.org/CodeSystem/claim-type",
          "code": "institutional"
        } ]
      },
      "use": "claim",
      "patient": {
        "reference": "Patient/5450abfd-a667-4eb9-9b59-e85feed4865c"
      },
      "created": "2026-12-01",
      "provider": {
        "reference": "Practitioner/practitioner-123456"
      },
      "priority": {
        "coding": [ {
          "system": "http://terminology.hl7.org/CodeSystem/processpriority",
          "code": "normal"
        } ]
      },
      "diagnosis": [ {
        "sequence": 1,
        "diagnosisCodeableConcept": {
          "coding": [ {
            "system": "http://hl7.org/fhir/sid/icd-10-cm",
            "code": "I63.00"
          } ]
        },
        "type": [ {
          "coding": [ {
            "system": "http://terminology.hl7.org/CodeSystem/ex-diagnosistype",
            "code": "principal"
          } ]
        } ]
      } ],
      "insurance": [ {
        "sequence": 1,
        "focal": true,
        "coverage": {
          "reference": "Coverage/5fa041661c76ba66d9959367"
        }
      } ],
      "item": [ {
        "sequence": 1,
        "diagnosisSequence": [ 1 ],
        "productOrService": {
          "coding": [ {
            "system": "http://terminology.hl7.org/CodeSystem/ex-USCLS",
            "code": "99555"
          } ]
        },
        "encounter": [ {
          "reference": "Encounter/031dabb7-05cc-42da-b57e-aed577c8d0bd"
        } ]
      } ]
    },
    "request": {
      "method": "PUT",
      "url": "Claim/5ca62962b8484628b8de1ec5"
    }
  }, {
    "fullUrl": "https://madie.cms.gov/Coverage/cee7359f-5a3d-4cb9-a453-1b1a787c2803",
    "resource": {
      "resourceType": "Coverage",
      "id": "cee7359f-5a3d-4cb9-a453-1b1a787c2803",
      "meta": {
        "profile": [ "http://hl7.org/fhir/us/qicore/StructureDefinition/qicore-coverage" ]
      },
      "status": "active",
      "beneficiary": {
        "reference": "Patient/b86e54d1-f8ca-44b6-99a5-d455c5649104"
      },
      "payor": [ {
        "reference": "Organization/48441ade-0951-474f-9386-71c81e6b03b8"
      } ]
    },
    "request": {
      "method": "PUT",
      "url": "Coverage/cee7359f-5a3d-4cb9-a453-1b1a787c2803"
    }
  }, {
    "fullUrl": "https://madie.cms.gov/Organization/48441ade-0951-474f-9386-71c81e6b03b8",
    "resource": {
      "resourceType": "Organization",
      "id": "48441ade-0951-474f-9386-71c81e6b03b8",
      "meta": {
        "profile": [ "http://hl7.org/fhir/us/qicore/StructureDefinition/qicore-organization" ]
      },
      "identifier": [ {
        "use": "temp",
        "system": "urn:oid:2.16.840.1.113883.4.4",
        "value": "21-3259825"
      } ],
      "active": true,
      "type": [ {
        "coding": [ {
          "system": "http://terminology.hl7.org/CodeSystem/organization-type",
          "code": "pay",
          "display": "Payer"
        } ]
      } ],
      "name": "Blue Cross Blue Shield of Texas",
      "telecom": [ {
        "system": "phone",
        "value": "(+1) 972-766-6900"
      } ],
      "address": [ {
        "use": "billing",
        "type": "postal",
        "line": [ "P.O. Box 660044" ],
        "city": "Dallas",
        "state": "TX",
        "postalCode": "75266-0044",
        "country": "USA"
      } ]
    },
    "request": {
      "method": "PUT",
      "url": "Organization/48441ade-0951-474f-9386-71c81e6b03b8"
    }
  }, {
    "fullUrl": "https://madie.cms.gov/MeasureReport/af97f967-8421-46b0-a0da-427c33addfed",
    "resource": {
      "resourceType": "MeasureReport",
      "id": "af97f967-8421-46b0-a0da-427c33addfed",
      "meta": {
        "profile": [ "http://hl7.org/fhir/us/cqfmeasures/StructureDefinition/test-case-cqfm" ]
      },
      "contained": [ {
        "resourceType": "Parameters",
        "id": "c8015c0d-54fb-4934-9ea4-69fd9dec3105-parameters",
        "parameter": [ {
          "name": "subject",
          "valueString": "b86e54d1-f8ca-44b6-99a5-d455c5649104"
        } ]
      } ],
      "extension": [ {
        "url": "http://hl7.org/fhir/StructureDefinition/cqf-inputParameters",
        "valueReference": {
          "reference": "#c8015c0d-54fb-4934-9ea4-69fd9dec3105-parameters"
        }
      }, {
        "url": "http://hl7.org/fhir/us/cqfmeasures/StructureDefinition/cqfm-testCaseDescription",
        "valueMarkdown": "Patient receives thrombolytic therapy prior to arrival as an encounter diagnosis. Negative testing using different encounter diagnosis.\n"
      } ],
      "modifierExtension": [ {
        "url": "http://hl7.org/fhir/us/cqfmeasures/StructureDefinition/cqfm-isTestCase",
        "valueBoolean": true
      } ],
      "status": "complete",
      "type": "individual",
      "measure": "https://madie.cms.gov/Measure/CMS72FHIRSTKAntithromboticDay2",
      "period": {
        "start": "2026-01-01",
        "end": "2026-12-31"
      },
      "group": [ {
        "id": "Group_1",
        "population": [ {
          "id": "InitialPopulation_1",
          "code": {
            "coding": [ {
              "system": "http://terminology.hl7.org/CodeSystem/measure-population",
              "code": "initial-population",
              "display": "Initial Population"
            } ]
          },
          "count": 1
        }, {
          "id": "Denominator_1",
          "code": {
            "coding": [ {
              "system": "http://terminology.hl7.org/CodeSystem/measure-population",
              "code": "denominator",
              "display": "Denominator"
            } ]
          },
          "count": 1
        }, {
          "id": "DenominatorExclusion_1",
          "code": {
            "coding": [ {
              "system": "http://terminology.hl7.org/CodeSystem/measure-population",
              "code": "denominator-exclusion",
              "display": "Denominator Exclusion"
            } ]
          },
          "count": 0
        }, {
          "id": "Numerator_1",
          "code": {
            "coding": [ {
              "system": "http://terminology.hl7.org/CodeSystem/measure-population",
              "code": "numerator",
              "display": "Numerator"
            } ]
          },
          "count": 0
        }, {
          "id": "DenominatorException_1",
          "code": {
            "coding": [ {
              "system": "http://terminology.hl7.org/CodeSystem/measure-population",
              "code": "denominator-exception",
              "display": "Denominator Exception"
            } ]
          },
          "count": 0
        } ],
        "measureScore": {
          "value": 0.0
        }
      } ],
      "evaluatedResource": [ {
        "reference": "Patient/b86e54d1-f8ca-44b6-99a5-d455c5649104"
      }, {
        "reference": "Encounter/031dabb7-05cc-42da-b57e-aed577c8d0bd"
      }, {
        "reference": "Condition/6dfb391f-cd8c-4901-a3f6-2d0aa4968c3d"
      }, {
        "reference": "Claim/5ca62962b8484628b8de1ec5"
      }, {
        "reference": "Coverage/cee7359f-5a3d-4cb9-a453-1b1a787c2803"
      }, {
        "reference": "Organization/48441ade-0951-474f-9386-71c81e6b03b8"
      } ]
    },
    "request": {
      "method": "PUT",
      "url": "MeasureReport/af97f967-8421-46b0-a0da-427c33addfed"
    }
  } ]
}