{
  "resourceType": "Bundle",
  "id": "62f6847dbc6a474306a95b42",
  "type": "transaction",
  "entry": [ {
    "fullUrl": "https://madie.cms.gov/Patient/328248a7-33d6-4923-a99a-a56ec88c515e",
    "resource": {
      "resourceType": "Patient",
      "id": "328248a7-33d6-4923-a99a-a56ec88c515e",
      "meta": {
        "profile": [ "http://hl7.org/fhir/us/qicore/StructureDefinition/qicore-patient" ]
      },
      "extension": [ {
        "url": "http://hl7.org/fhir/us/core/StructureDefinition/us-core-race",
        "extension": [ {
          "url": "ombCategory",
          "valueCoding": {
            "system": "urn:oid:2.16.840.1.113883.6.238",
            "code": "1002-5",
            "display": "American Indian or Alaska Native",
            "userSelected": true
          }
        }, {
          "url": "text",
          "valueString": "American Indian or Alaska Native"
        }, {
          "url": "detailed",
          "valueCoding": {
            "system": "http://terminology.hl7.org/CodeSystem/v3-NullFlavor",
            "code": "OTH",
            "display": "other"
          }
        } ]
      }, {
        "url": "http://hl7.org/fhir/us/core/StructureDefinition/us-core-ethnicity",
        "extension": [ {
          "url": "ombCategory",
          "valueCoding": {
            "system": "urn:oid:2.16.840.1.113883.6.238",
            "code": "2135-2",
            "display": "Hispanic or Latino",
            "userSelected": true
          }
        }, {
          "url": "text",
          "valueString": "Hispanic or Latino"
        }, {
          "url": "detailed",
          "valueCoding": {
            "system": "http://terminology.hl7.org/CodeSystem/v3-NullFlavor",
            "code": "OTH",
            "display": "other"
          }
        } ]
      } ],
      "identifier": [ {
        "type": {
          "coding": [ {
            "system": "http://terminology.hl7.org/CodeSystem/v2-0203",
            "code": "MR"
          } ]
        },
        "system": "https://bonnie-fhir.healthit.gov/",
        "value": "62f6847dbc6a474306a95b42"
      } ],
      "name": [ {
        "family": "NUMERPass",
        "given": [ "12yoPosAdolDepScreenandFUPrescripWI2DAfterEndOfEnc" ]
      } ],
      "gender": "male",
      "birthDate": "2014-01-01"
    },
    "request": {
      "method": "PUT",
      "url": "Patient/328248a7-33d6-4923-a99a-a56ec88c515e"
    }
  }, {
    "fullUrl": "https://madie.cms.gov/Encounter/bd8e0983-29a7-40f6-a207-c1b2c3a4cc0f",
    "resource": {
      "resourceType": "Encounter",
      "id": "bd8e0983-29a7-40f6-a207-c1b2c3a4cc0f",
      "meta": {
        "profile": [ "http://hl7.org/fhir/us/qicore/StructureDefinition/qicore-encounter" ]
      },
      "status": "finished",
      "class": {
        "system": "http://terminology.hl7.org/CodeSystem/v3-ActCode",
        "code": "AMB",
        "display": "ambulatory"
      },
      "type": [ {
        "coding": [ {
          "system": "http://snomed.info/sct",
          "code": "10197000",
          "display": "Psychiatric interview and evaluation (procedure)",
          "userSelected": true
        } ]
      } ],
      "subject": {
        "reference": "Patient/328248a7-33d6-4923-a99a-a56ec88c515e"
      },
      "period": {
        "start": "2026-06-21T08:00:00Z",
        "end": "2026-06-21T08:15:00Z"
      }
    },
    "request": {
      "method": "PUT",
      "url": "Encounter/bd8e0983-29a7-40f6-a207-c1b2c3a4cc0f"
    }
  }, {
    "fullUrl": "https://madie.cms.gov/Observation/5926a2b6-984c-4831-b8aa-45ed9015e57f",
    "resource": {
      "resourceType": "Observation",
      "id": "5926a2b6-984c-4831-b8aa-45ed9015e57f",
      "meta": {
        "profile": [ "http://hl7.org/fhir/us/qicore/StructureDefinition/qicore-observation-screening-assessment" ]
      },
      "status": "final",
      "category": [ {
        "coding": [ {
          "system": "http://terminology.hl7.org/CodeSystem/observation-category",
          "code": "procedure",
          "display": "Procedure"
        } ]
      }, {
        "coding": [ {
          "system": "http://terminology.hl7.org/CodeSystem/observation-category",
          "code": "survey",
          "display": "Survey"
        } ]
      } ],
      "code": {
        "coding": [ {
          "system": "http://loinc.org",
          "code": "73831-0",
          "display": "Adolescent depression screening assessment",
          "userSelected": true
        } ]
      },
      "subject": {
        "reference": "Patient/328248a7-33d6-4923-a99a-a56ec88c515e"
      },
      "effectiveDateTime": "2026-06-15T08:00:00Z",
      "valueCodeableConcept": {
        "coding": [ {
          "system": "http://snomed.info/sct",
          "code": "428181000124104",
          "display": "Depression screening positive (finding)",
          "userSelected": true
        } ]
      }
    },
    "request": {
      "method": "PUT",
      "url": "Observation/5926a2b6-984c-4831-b8aa-45ed9015e57f"
    }
  }, {
    "fullUrl": "https://madie.cms.gov/MedicationRequest/1cda5cf0-78ee-4924-878f-2c4b16032846",
    "resource": {
      "resourceType": "MedicationRequest",
      "id": "1cda5cf0-78ee-4924-878f-2c4b16032846",
      "meta": {
        "profile": [ "http://hl7.org/fhir/us/qicore/StructureDefinition/qicore-medicationrequest" ]
      },
      "status": "active",
      "intent": "order",
      "doNotPerform": false,
      "medicationCodeableConcept": {
        "coding": [ {
          "system": "http://www.nlm.nih.gov/research/umls/rxnorm",
          "code": "1190110",
          "display": "fluoxetine 60 MG Oral Tablet",
          "userSelected": true
        } ]
      },
      "subject": {
        "reference": "Patient/328248a7-33d6-4923-a99a-a56ec88c515e"
      },
      "authoredOn": "2026-06-21T08:00:00Z",
      "requester": {
        "reference": "Practitioner/123456"
      },
      "dispenseRequest": {
        "expectedSupplyDuration": {
          "value": 30,
          "system": "http://unitsofmeasure.org",
          "code": "days"
        }
      }
    },
    "request": {
      "method": "PUT",
      "url": "MedicationRequest/1cda5cf0-78ee-4924-878f-2c4b16032846"
    }
  }, {
    "fullUrl": "https://madie.cms.gov/Coverage/fc3bc239-137d-42ff-8365-b963b0641b7b",
    "resource": {
      "resourceType": "Coverage",
      "id": "fc3bc239-137d-42ff-8365-b963b0641b7b",
      "meta": {
        "profile": [ "http://hl7.org/fhir/us/qicore/StructureDefinition/qicore-coverage" ]
      },
      "status": "active",
      "type": {
        "coding": [ {
          "system": "https://nahdo.org/sopt",
          "code": "1",
          "display": "MEDICARE"
        } ]
      },
      "subscriberId": "123456789",
      "beneficiary": {
        "reference": "Patient/328248a7-33d6-4923-a99a-a56ec88c515e"
      },
      "relationship": {
        "coding": [ {
          "system": "http://terminology.hl7.org/CodeSystem/subscriber-relationship",
          "code": "self",
          "display": "Self",
          "userSelected": true
        } ]
      },
      "period": {
        "start": "2024-12-01T00:00:00Z"
      },
      "payor": [ {
        "reference": "Organization/c42bc814-fb8c-4e55-aec2-512d256738e7"
      } ]
    },
    "request": {
      "method": "PUT",
      "url": "Coverage/fc3bc239-137d-42ff-8365-b963b0641b7b"
    }
  }, {
    "fullUrl": "https://madie.cms.gov/Organization/c42bc814-fb8c-4e55-aec2-512d256738e7",
    "resource": {
      "resourceType": "Organization",
      "id": "c42bc814-fb8c-4e55-aec2-512d256738e7",
      "meta": {
        "profile": [ "http://hl7.org/fhir/us/qicore/StructureDefinition/qicore-organization" ]
      },
      "identifier": [ {
        "use": "temp",
        "system": "urn:oid:2.16.840.1.113883.4.4",
        "value": "21-3259825"
      } ],
      "active": true,
      "type": [ {
        "coding": [ {
          "system": "http://terminology.hl7.org/CodeSystem/organization-type",
          "code": "pay",
          "display": "Payer"
        } ]
      } ],
      "name": "Blue Cross Blue Shield of Texas",
      "telecom": [ {
        "system": "phone",
        "value": "(+1) 972-766-6900"
      } ],
      "address": [ {
        "use": "billing",
        "type": "postal",
        "line": [ "P.O. Box 660044" ],
        "city": "Dallas",
        "state": "TX",
        "postalCode": "75266-0044",
        "country": "USA"
      } ]
    },
    "request": {
      "method": "PUT",
      "url": "Organization/c42bc814-fb8c-4e55-aec2-512d256738e7"
    }
  }, {
    "fullUrl": "https://madie.cms.gov/Practitioner/f3388bc4-7b02-4291-ae62-34fe3ef1cd69",
    "resource": {
      "resourceType": "Practitioner",
      "id": "f3388bc4-7b02-4291-ae62-34fe3ef1cd69",
      "meta": {
        "profile": [ "http://hl7.org/fhir/us/qicore/StructureDefinition/qicore-practitioner" ]
      },
      "identifier": [ {
        "system": "http://hl7.org/fhir/sid/us-npi",
        "value": "1234567893"
      } ],
      "name": [ {
        "family": "Evil",
        "prefix": [ "Dr" ]
      } ]
    },
    "request": {
      "method": "PUT",
      "url": "Practitioner/f3388bc4-7b02-4291-ae62-34fe3ef1cd69"
    }
  }, {
    "fullUrl": "https://madie.cms.gov/MeasureReport/25b9578f-f0f3-4d03-888e-ba3eeb444d97",
    "resource": {
      "resourceType": "MeasureReport",
      "id": "25b9578f-f0f3-4d03-888e-ba3eeb444d97",
      "meta": {
        "profile": [ "http://hl7.org/fhir/us/cqfmeasures/StructureDefinition/test-case-cqfm" ]
      },
      "contained": [ {
        "resourceType": "Parameters",
        "id": "79a5e80d-1959-4e71-a556-1439f0f2a27c-parameters",
        "parameter": [ {
          "name": "subject",
          "valueString": "328248a7-33d6-4923-a99a-a56ec88c515e"
        } ]
      } ],
      "extension": [ {
        "url": "http://hl7.org/fhir/StructureDefinition/cqf-inputParameters",
        "valueReference": {
          "reference": "#79a5e80d-1959-4e71-a556-1439f0f2a27c-parameters"
        }
      }, {
        "url": "http://hl7.org/fhir/us/cqfmeasures/StructureDefinition/cqfm-testCaseDescription",
        "valueMarkdown": "12yo with previous positive adolescent depression screening and medication request follow up within 2 days after end of encounter. SDE details added."
      } ],
      "modifierExtension": [ {
        "url": "http://hl7.org/fhir/us/cqfmeasures/StructureDefinition/cqfm-isTestCase",
        "valueBoolean": true
      } ],
      "status": "complete",
      "type": "individual",
      "measure": "https://madie.cms.gov/Measure/CMS2FHIRPCSDepressionScreenAndFollowUp",
      "period": {
        "start": "2026-01-01",
        "end": "2026-12-31"
      },
      "group": [ {
        "id": "Group_1",
        "population": [ {
          "id": "InitialPopulation_1",
          "code": {
            "coding": [ {
              "system": "http://terminology.hl7.org/CodeSystem/measure-population",
              "code": "initial-population",
              "display": "Initial Population"
            } ]
          },
          "count": 1
        }, {
          "id": "Denominator_1",
          "code": {
            "coding": [ {
              "system": "http://terminology.hl7.org/CodeSystem/measure-population",
              "code": "denominator",
              "display": "Denominator"
            } ]
          },
          "count": 1
        }, {
          "id": "DenominatorExclusion_1",
          "code": {
            "coding": [ {
              "system": "http://terminology.hl7.org/CodeSystem/measure-population",
              "code": "denominator-exclusion",
              "display": "Denominator Exclusion"
            } ]
          },
          "count": 0
        }, {
          "id": "Numerator_1",
          "code": {
            "coding": [ {
              "system": "http://terminology.hl7.org/CodeSystem/measure-population",
              "code": "numerator",
              "display": "Numerator"
            } ]
          },
          "count": 1
        }, {
          "id": "DenominatorException_1",
          "code": {
            "coding": [ {
              "system": "http://terminology.hl7.org/CodeSystem/measure-population",
              "code": "denominator-exception",
              "display": "Denominator Exception"
            } ]
          },
          "count": 0
        } ],
        "measureScore": {
          "value": 1.0
        }
      } ],
      "evaluatedResource": [ {
        "reference": "Patient/328248a7-33d6-4923-a99a-a56ec88c515e"
      }, {
        "reference": "Encounter/bd8e0983-29a7-40f6-a207-c1b2c3a4cc0f"
      }, {
        "reference": "Observation/5926a2b6-984c-4831-b8aa-45ed9015e57f"
      }, {
        "reference": "MedicationRequest/1cda5cf0-78ee-4924-878f-2c4b16032846"
      }, {
        "reference": "Coverage/fc3bc239-137d-42ff-8365-b963b0641b7b"
      }, {
        "reference": "Organization/c42bc814-fb8c-4e55-aec2-512d256738e7"
      }, {
        "reference": "Practitioner/f3388bc4-7b02-4291-ae62-34fe3ef1cd69"
      } ]
    },
    "request": {
      "method": "PUT",
      "url": "MeasureReport/25b9578f-f0f3-4d03-888e-ba3eeb444d97"
    }
  } ]
}