{
  "resourceType": "Bundle",
  "id": "63487c2f0968f80122540193",
  "type": "transaction",
  "entry": [ {
    "fullUrl": "https://madie.cms.gov/Patient/55667be7-f623-43bd-889f-9ca7f28252d1",
    "resource": {
      "resourceType": "Patient",
      "id": "55667be7-f623-43bd-889f-9ca7f28252d1",
      "meta": {
        "profile": [ "http://hl7.org/fhir/us/qicore/StructureDefinition/qicore-patient" ]
      },
      "text": {
        "status": "generated",
        "div": "<div xmlns=\"http://www.w3.org/1999/xhtml\"><div class=\"hapiHeaderText\">AssessPreTerm0RelDateTime42wksand1minB4DelivDateTime<b>DENOMFail</b></div><table class=\"hapiPropertyTable\"><tbody><tr><td>Identifier</td><td>422c2dba3b85e09cc57593562310cdd8d8e31fe2380a4241b6ce60d5e444f4c4</td></tr><tr><td>Date of birth</td><td><span>14 February 1985</span></td></tr></tbody></table></div>"
      },
      "extension": [ {
        "url": "http://hl7.org/fhir/us/core/StructureDefinition/us-core-race",
        "extension": [ {
          "url": "ombCategory",
          "valueCoding": {
            "system": "urn:oid:2.16.840.1.113883.6.238",
            "code": "1002-5",
            "display": "American Indian or Alaska Native",
            "userSelected": true
          }
        }, {
          "url": "text",
          "valueString": "American Indian or Alaska Native"
        } ]
      }, {
        "url": "http://hl7.org/fhir/us/core/StructureDefinition/us-core-ethnicity",
        "extension": [ {
          "url": "ombCategory",
          "valueCoding": {
            "system": "urn:oid:2.16.840.1.113883.6.238",
            "code": "2135-2",
            "display": "Hispanic or Latino",
            "userSelected": true
          }
        }, {
          "url": "text",
          "valueString": "Hispanic or Latino"
        } ]
      } ],
      "identifier": [ {
        "type": {
          "coding": [ {
            "system": "http://terminology.hl7.org/CodeSystem/v2-0203",
            "code": "MR"
          } ]
        },
        "system": "https://bonnie-fhir.healthit.gov/",
        "value": "63487c2f0968f80122540193"
      } ],
      "active": true,
      "name": [ {
        "use": "usual",
        "family": "DENOMFail",
        "given": [ "AssessPreTerm0RelDateTime42wksand1minB4DelivDateTime" ]
      } ],
      "gender": "female",
      "birthDate": "1998-02-14"
    },
    "request": {
      "method": "PUT",
      "url": "Patient/55667be7-f623-43bd-889f-9ca7f28252d1"
    }
  }, {
    "fullUrl": "https://madie.cms.gov/Observation/dceb4b66-451d-4aa0-a148-a7aadff28675",
    "resource": {
      "resourceType": "Observation",
      "id": "dceb4b66-451d-4aa0-a148-a7aadff28675",
      "meta": {
        "profile": [ "http://hl7.org/fhir/us/qicore/StructureDefinition/qicore-simple-observation" ]
      },
      "status": "final",
      "category": [ {
        "coding": [ {
          "system": "http://terminology.hl7.org/CodeSystem/observation-category",
          "code": "exam",
          "display": "exam",
          "userSelected": true
        } ]
      } ],
      "code": {
        "coding": [ {
          "system": "http://loinc.org",
          "code": "11637-6"
        } ]
      },
      "subject": {
        "reference": "Patient/55667be7-f623-43bd-889f-9ca7f28252d1"
      },
      "effectiveDateTime": "2025-08-11T19:59:00.000+00:00",
      "valueInteger": 0
    },
    "request": {
      "method": "PUT",
      "url": "Observation/dceb4b66-451d-4aa0-a148-a7aadff28675"
    }
  }, {
    "fullUrl": "https://madie.cms.gov/Observation/d94ce9c7-6de1-4d33-a086-89b494e47898",
    "resource": {
      "resourceType": "Observation",
      "id": "d94ce9c7-6de1-4d33-a086-89b494e47898",
      "meta": {
        "profile": [ "http://hl7.org/fhir/us/qicore/StructureDefinition/qicore-simple-observation" ]
      },
      "status": "final",
      "category": [ {
        "coding": [ {
          "system": "http://terminology.hl7.org/CodeSystem/observation-category",
          "code": "exam",
          "display": "exam",
          "userSelected": true
        } ]
      } ],
      "code": {
        "coding": [ {
          "system": "http://loinc.org",
          "code": "11639-2"
        } ]
      },
      "subject": {
        "reference": "Patient/55667be7-f623-43bd-889f-9ca7f28252d1"
      },
      "effectiveDateTime": "2025-09-19T09:00:00.000+00:00",
      "valueInteger": 0
    },
    "request": {
      "method": "PUT",
      "url": "Observation/d94ce9c7-6de1-4d33-a086-89b494e47898"
    }
  }, {
    "fullUrl": "https://madie.cms.gov/Observation/916411e7-1b1d-4156-a6fe-33d4100b37bc",
    "resource": {
      "resourceType": "Observation",
      "id": "916411e7-1b1d-4156-a6fe-33d4100b37bc",
      "meta": {
        "profile": [ "http://hl7.org/fhir/us/qicore/StructureDefinition/qicore-simple-observation" ]
      },
      "status": "final",
      "category": [ {
        "coding": [ {
          "system": "http://terminology.hl7.org/CodeSystem/observation-category",
          "code": "exam",
          "display": "exam",
          "userSelected": true
        } ]
      } ],
      "code": {
        "coding": [ {
          "system": "http://loinc.org",
          "code": "11884-4"
        } ]
      },
      "subject": {
        "reference": "Patient/55667be7-f623-43bd-889f-9ca7f28252d1"
      },
      "effectiveDateTime": "2026-06-08T20:00:00.000+00:00",
      "valueQuantity": {
        "value": 37,
        "system": "http://unitsofmeasure.org",
        "code": "wk"
      }
    },
    "request": {
      "method": "PUT",
      "url": "Observation/916411e7-1b1d-4156-a6fe-33d4100b37bc"
    }
  }, {
    "fullUrl": "https://madie.cms.gov/Observation/138e1e86-bfb4-4d9a-b4e5-4c45e6b72173",
    "resource": {
      "resourceType": "Observation",
      "id": "138e1e86-bfb4-4d9a-b4e5-4c45e6b72173",
      "meta": {
        "profile": [ "http://hl7.org/fhir/us/qicore/StructureDefinition/qicore-simple-observation" ]
      },
      "status": "final",
      "category": [ {
        "coding": [ {
          "system": "http://terminology.hl7.org/CodeSystem/observation-category",
          "code": "exam",
          "display": "exam",
          "userSelected": true
        } ]
      } ],
      "code": {
        "coding": [ {
          "system": "http://loinc.org",
          "code": "93857-1"
        } ]
      },
      "subject": {
        "reference": "Patient/55667be7-f623-43bd-889f-9ca7f28252d1"
      },
      "effectiveDateTime": "2026-06-08T20:00:00.000+00:00",
      "valueDateTime": "2026-06-08T20:00:00.000+00:00"
    },
    "request": {
      "method": "PUT",
      "url": "Observation/138e1e86-bfb4-4d9a-b4e5-4c45e6b72173"
    }
  }, {
    "fullUrl": "https://madie.cms.gov/Encounter/9af7a0f9-cec8-4da3-9cf2-2049abc6cee5",
    "resource": {
      "resourceType": "Encounter",
      "id": "9af7a0f9-cec8-4da3-9cf2-2049abc6cee5",
      "meta": {
        "profile": [ "http://hl7.org/fhir/us/qicore/StructureDefinition/qicore-encounter" ]
      },
      "status": "finished",
      "class": {
        "system": "http://terminology.hl7.org/CodeSystem/v3-ActCode",
        "code": "IMP",
        "display": "inpatient encounter"
      },
      "type": [ {
        "coding": [ {
          "system": "http://snomed.info/sct",
          "code": "8715000"
        } ]
      } ],
      "subject": {
        "reference": "Patient/55667be7-f623-43bd-889f-9ca7f28252d1"
      },
      "period": {
        "start": "2026-06-08T08:00:00.000+00:00",
        "end": "2026-06-10T08:15:00.000+00:00"
      },
      "length": {
        "value": 2,
        "unit": "days"
      },
      "reasonReference": [ {
        "reference": "Condition/6b703bb2-57d3-4157-a386-d5de2438c893"
      } ]
    },
    "request": {
      "method": "PUT",
      "url": "Encounter/9af7a0f9-cec8-4da3-9cf2-2049abc6cee5"
    }
  }, {
    "fullUrl": "https://madie.cms.gov/Procedure/83165044-2d13-452c-919e-10dff318cf1e",
    "resource": {
      "resourceType": "Procedure",
      "id": "83165044-2d13-452c-919e-10dff318cf1e",
      "meta": {
        "profile": [ "http://hl7.org/fhir/us/qicore/StructureDefinition/qicore-procedure" ]
      },
      "extension": [ {
        "url": "http://hl7.org/fhir/us/qicore/StructureDefinition/qicore-recorded",
        "valueDateTime": "2014-04-05T13:35:00.000+00:00"
      } ],
      "status": "completed",
      "code": {
        "coding": [ {
          "system": "http://www.cms.gov/Medicare/Coding/ICD10",
          "code": "10D00Z0"
        }, {
          "system": "http://snomed.info/sct",
          "code": "4504004"
        }, {
          "system": "http://www.icd10data.com/icd10pcs",
          "code": "10D00Z0",
          "userSelected": true
        } ]
      },
      "subject": {
        "reference": "Patient/55667be7-f623-43bd-889f-9ca7f28252d1"
      },
      "performedPeriod": {
        "start": "2026-06-08T20:00:00.000+00:00",
        "end": "2026-06-08T20:15:00.000+00:00"
      }
    },
    "request": {
      "method": "PUT",
      "url": "Procedure/83165044-2d13-452c-919e-10dff318cf1e"
    }
  }, {
    "fullUrl": "https://madie.cms.gov/Condition/6b703bb2-57d3-4157-a386-d5de2438c893",
    "resource": {
      "resourceType": "Condition",
      "id": "6b703bb2-57d3-4157-a386-d5de2438c893",
      "meta": {
        "profile": [ "http://hl7.org/fhir/us/qicore/StructureDefinition/qicore-condition-encounter-diagnosis" ]
      },
      "category": [ {
        "coding": [ {
          "system": "http://terminology.hl7.org/CodeSystem/condition-category",
          "code": "encounter-diagnosis",
          "display": "Encounter Diagnosis"
        } ]
      } ],
      "code": {
        "coding": [ {
          "system": "http://snomed.info/sct",
          "version": "2022-09",
          "code": "169826009",
          "display": "Single live birth from singleton pregnancy (finding)",
          "userSelected": true
        } ]
      },
      "subject": {
        "reference": "Patient/55667be7-f623-43bd-889f-9ca7f28252d1"
      },
      "encounter": {
        "reference": "Encounter/9af7a0f9-cec8-4da3-9cf2-2049abc6cee5"
      },
      "recordedDate": "2026-10-21T08:00:00.000+00:00"
    },
    "request": {
      "method": "PUT",
      "url": "Condition/6b703bb2-57d3-4157-a386-d5de2438c893"
    }
  }, {
    "fullUrl": "https://madie.cms.gov/Coverage/0898f151-a240-4eb9-8cb7-458081f7e44e",
    "resource": {
      "resourceType": "Coverage",
      "id": "0898f151-a240-4eb9-8cb7-458081f7e44e",
      "meta": {
        "profile": [ "http://hl7.org/fhir/us/qicore/StructureDefinition/qicore-coverage" ]
      },
      "status": "active",
      "subscriberId": "523435",
      "beneficiary": {
        "reference": "Patient/55667be7-f623-43bd-889f-9ca7f28252d1"
      },
      "relationship": {
        "coding": [ {
          "system": "http://terminology.hl7.org/CodeSystem/subscriber-relationship",
          "code": "self"
        } ]
      },
      "payor": [ {
        "reference": "Organization/7527e71d-c895-4f19-8976-390647c23f20"
      } ]
    },
    "request": {
      "method": "PUT",
      "url": "Coverage/0898f151-a240-4eb9-8cb7-458081f7e44e"
    }
  }, {
    "fullUrl": "https://madie.cms.gov/Organization/7527e71d-c895-4f19-8976-390647c23f20",
    "resource": {
      "resourceType": "Organization",
      "id": "7527e71d-c895-4f19-8976-390647c23f20",
      "meta": {
        "profile": [ "http://hl7.org/fhir/us/qicore/StructureDefinition/qicore-organization" ]
      },
      "identifier": [ {
        "use": "temp",
        "system": "urn:oid:2.16.840.1.113883.4.4",
        "value": "21-3259825"
      } ],
      "active": true,
      "type": [ {
        "coding": [ {
          "system": "http://terminology.hl7.org/CodeSystem/organization-type",
          "code": "pay",
          "display": "Payer"
        } ]
      } ],
      "name": "Blue Cross Blue Shield of Texas",
      "telecom": [ {
        "system": "phone",
        "value": "(+1) 972-766-6900"
      } ],
      "address": [ {
        "use": "billing",
        "type": "postal",
        "line": [ "P.O. Box 660044" ],
        "city": "Dallas",
        "state": "TX",
        "postalCode": "75266-0044",
        "country": "USA"
      } ]
    },
    "request": {
      "method": "PUT",
      "url": "Organization/7527e71d-c895-4f19-8976-390647c23f20"
    }
  }, {
    "fullUrl": "https://madie.cms.gov/Practitioner/44d9c3be-3230-4641-bf2b-08fe955b1bd6",
    "resource": {
      "resourceType": "Practitioner",
      "id": "44d9c3be-3230-4641-bf2b-08fe955b1bd6",
      "meta": {
        "profile": [ "http://hl7.org/fhir/us/qicore/StructureDefinition/qicore-practitioner" ]
      },
      "identifier": [ {
        "system": "http://hl7.org/fhir/sid/us-npi",
        "value": "1234567890"
      } ],
      "name": [ {
        "family": "Evil",
        "prefix": [ "Dr" ]
      } ]
    },
    "request": {
      "method": "PUT",
      "url": "Practitioner/44d9c3be-3230-4641-bf2b-08fe955b1bd6"
    }
  }, {
    "fullUrl": "https://madie.cms.gov/MeasureReport/0a16c3c2-b3d1-4b37-a867-3ec3b0580f2e",
    "resource": {
      "resourceType": "MeasureReport",
      "id": "0a16c3c2-b3d1-4b37-a867-3ec3b0580f2e",
      "meta": {
        "profile": [ "http://hl7.org/fhir/us/cqfmeasures/StructureDefinition/test-case-cqfm" ]
      },
      "contained": [ {
        "resourceType": "Parameters",
        "id": "281c7181-7c9e-4f70-bc8d-b608c2279334-parameters",
        "parameter": [ {
          "name": "subject",
          "valueString": "55667be7-f623-43bd-889f-9ca7f28252d1"
        } ]
      } ],
      "extension": [ {
        "url": "http://hl7.org/fhir/StructureDefinition/cqf-inputParameters",
        "valueReference": {
          "reference": "#281c7181-7c9e-4f70-bc8d-b608c2279334-parameters"
        }
      }, {
        "url": "http://hl7.org/fhir/us/cqfmeasures/StructureDefinition/cqfm-testCaseDescription",
        "valueMarkdown": "Preterm Births=0, relevant date  42weeks  and 1 min before Asse delivery date/time\n"
      } ],
      "modifierExtension": [ {
        "url": "http://hl7.org/fhir/us/cqfmeasures/StructureDefinition/cqfm-isTestCase",
        "valueBoolean": true
      } ],
      "status": "complete",
      "type": "individual",
      "measure": "https://madie.cms.gov/Measure/CMS0334FHIRPCCesareanBirth",
      "period": {
        "start": "2026-01-01",
        "end": "2026-12-31"
      },
      "group": [ {
        "id": "Group_1",
        "population": [ {
          "id": "InitialPopulation_1",
          "code": {
            "coding": [ {
              "system": "http://terminology.hl7.org/CodeSystem/measure-population",
              "code": "initial-population",
              "display": "Initial Population"
            } ]
          },
          "count": 1
        }, {
          "id": "Denominator_1",
          "code": {
            "coding": [ {
              "system": "http://terminology.hl7.org/CodeSystem/measure-population",
              "code": "denominator",
              "display": "Denominator"
            } ]
          },
          "count": 0
        }, {
          "id": "DenominatorExclusion_1",
          "code": {
            "coding": [ {
              "system": "http://terminology.hl7.org/CodeSystem/measure-population",
              "code": "denominator-exclusion",
              "display": "Denominator Exclusion"
            } ]
          },
          "count": 0
        }, {
          "id": "Numerator_1",
          "code": {
            "coding": [ {
              "system": "http://terminology.hl7.org/CodeSystem/measure-population",
              "code": "numerator",
              "display": "Numerator"
            } ]
          },
          "count": 0
        } ],
        "measureScore": {
          "value": 0.0
        }
      } ],
      "evaluatedResource": [ {
        "reference": "Patient/55667be7-f623-43bd-889f-9ca7f28252d1"
      }, {
        "reference": "Observation/dceb4b66-451d-4aa0-a148-a7aadff28675"
      }, {
        "reference": "Observation/d94ce9c7-6de1-4d33-a086-89b494e47898"
      }, {
        "reference": "Observation/916411e7-1b1d-4156-a6fe-33d4100b37bc"
      }, {
        "reference": "Observation/138e1e86-bfb4-4d9a-b4e5-4c45e6b72173"
      }, {
        "reference": "Encounter/9af7a0f9-cec8-4da3-9cf2-2049abc6cee5"
      }, {
        "reference": "Procedure/83165044-2d13-452c-919e-10dff318cf1e"
      }, {
        "reference": "Condition/6b703bb2-57d3-4157-a386-d5de2438c893"
      }, {
        "reference": "Coverage/0898f151-a240-4eb9-8cb7-458081f7e44e"
      }, {
        "reference": "Organization/7527e71d-c895-4f19-8976-390647c23f20"
      }, {
        "reference": "Practitioner/44d9c3be-3230-4641-bf2b-08fe955b1bd6"
      } ]
    },
    "request": {
      "method": "PUT",
      "url": "MeasureReport/0a16c3c2-b3d1-4b37-a867-3ec3b0580f2e"
    }
  } ]
}