{
  "resourceType": "Bundle",
  "id": "627a80a15a0d870123c7253e",
  "type": "transaction",
  "entry": [ {
    "fullUrl": "https://madie.cms.gov/Patient/93064568-a739-403d-853f-a3150bd8f752",
    "resource": {
      "resourceType": "Patient",
      "id": "93064568-a739-403d-853f-a3150bd8f752",
      "meta": {
        "profile": [ "http://hl7.org/fhir/us/qicore/StructureDefinition/qicore-patient" ]
      },
      "text": {
        "status": "generated",
        "div": "<div xmlns=\"http://www.w3.org/1999/xhtml\"><div class=\"hapiHeaderText\">Opioid exactly 12 hrs before Naloxone <b>NUMERPASS </b></div><table class=\"hapiPropertyTable\"><tbody><tr><td>Date of birth</td><td><span>14 November 1980</span></td></tr></tbody></table></div>"
      },
      "identifier": [ {
        "type": {
          "coding": [ {
            "system": "http://terminology.hl7.org/CodeSystem/v2-0203",
            "code": "MR"
          } ]
        },
        "system": "https://bonnie-fhir.healthit.gov/",
        "value": "627a80a15a0d870123c7253e"
      } ],
      "active": true,
      "name": [ {
        "use": "usual",
        "family": "NUMERPass",
        "given": [ "NonOralOpioidLT12hrsBeforeAntag" ]
      } ],
      "gender": "female",
      "birthDate": "1981-11-14"
    },
    "request": {
      "method": "PUT",
      "url": "Patient/93064568-a739-403d-853f-a3150bd8f752"
    }
  }, {
    "fullUrl": "https://madie.cms.gov/Encounter/3f4d5758-6702-4ec0-a136-02c29623e716",
    "resource": {
      "resourceType": "Encounter",
      "id": "3f4d5758-6702-4ec0-a136-02c29623e716",
      "meta": {
        "profile": [ "http://hl7.org/fhir/us/qicore/StructureDefinition/qicore-encounter" ]
      },
      "status": "finished",
      "class": {
        "system": "http://terminology.hl7.org/CodeSystem/v3-ActCode",
        "code": "IMP",
        "display": "inpatient encounter"
      },
      "type": [ {
        "coding": [ {
          "system": "http://snomed.info/sct",
          "code": "183452005",
          "display": "Inpatient encounter"
        } ]
      } ],
      "subject": {
        "reference": "Patient/93064568-a739-403d-853f-a3150bd8f752"
      },
      "period": {
        "start": "2026-08-11T08:00:00.000+00:00",
        "end": "2026-08-14T08:15:00.000+00:00"
      }
    },
    "request": {
      "method": "PUT",
      "url": "Encounter/3f4d5758-6702-4ec0-a136-02c29623e716"
    }
  }, {
    "fullUrl": "https://madie.cms.gov/MedicationAdministration/07cf09bf-4a69-4a74-97a2-6f6875ce9a6d",
    "resource": {
      "resourceType": "MedicationAdministration",
      "id": "07cf09bf-4a69-4a74-97a2-6f6875ce9a6d",
      "meta": {
        "profile": [ "http://hl7.org/fhir/us/qicore/StructureDefinition/qicore-medicationadministration" ]
      },
      "status": "completed",
      "medicationCodeableConcept": {
        "coding": [ {
          "system": "http://www.nlm.nih.gov/research/umls/rxnorm",
          "code": "1010600",
          "display": "Opioid"
        } ]
      },
      "subject": {
        "reference": "Patient/93064568-a739-403d-853f-a3150bd8f752"
      },
      "effectivePeriod": {
        "start": "2026-08-11T08:00:00.000+00:00",
        "end": "2026-08-11T08:15:00.000+00:00"
      },
      "dosage": {
        "route": {
          "coding": [ {
            "system": "http://snomed.info/sct",
            "code": "34206005",
            "display": "Subcutaneous route (qualifier value)"
          } ]
        }
      }
    },
    "request": {
      "method": "PUT",
      "url": "MedicationAdministration/07cf09bf-4a69-4a74-97a2-6f6875ce9a6d"
    }
  }, {
    "fullUrl": "https://madie.cms.gov/MedicationAdministration/7cc90972-bf8c-45e2-ab6b-12d72ebb0904",
    "resource": {
      "resourceType": "MedicationAdministration",
      "id": "7cc90972-bf8c-45e2-ab6b-12d72ebb0904",
      "meta": {
        "profile": [ "http://hl7.org/fhir/us/qicore/StructureDefinition/qicore-medicationadministration" ]
      },
      "status": "completed",
      "medicationCodeableConcept": {
        "coding": [ {
          "system": "http://www.nlm.nih.gov/research/umls/rxnorm",
          "code": "2540703",
          "display": "Opioid Antagonist"
        } ]
      },
      "subject": {
        "reference": "Patient/93064568-a739-403d-853f-a3150bd8f752"
      },
      "effectivePeriod": {
        "start": "2026-08-11T20:14:00.000+00:00"
      },
      "dosage": {
        "route": {
          "coding": [ {
            "system": "http://snomed.info/sct",
            "code": "34206005",
            "display": "Subcutaneous route (qualifier value)"
          } ]
        }
      }
    },
    "request": {
      "method": "PUT",
      "url": "MedicationAdministration/7cc90972-bf8c-45e2-ab6b-12d72ebb0904"
    }
  }, {
    "fullUrl": "https://madie.cms.gov/MeasureReport/7335c8db-38eb-4c2c-938a-2ac8e68a1386",
    "resource": {
      "resourceType": "MeasureReport",
      "id": "7335c8db-38eb-4c2c-938a-2ac8e68a1386",
      "meta": {
        "profile": [ "http://hl7.org/fhir/us/cqfmeasures/StructureDefinition/test-case-cqfm" ]
      },
      "contained": [ {
        "resourceType": "Parameters",
        "id": "070b1626-01cc-4c14-96da-34e2fc40a526-parameters",
        "parameter": [ {
          "name": "subject",
          "valueString": "93064568-a739-403d-853f-a3150bd8f752"
        } ]
      } ],
      "extension": [ {
        "url": "http://hl7.org/fhir/StructureDefinition/cqf-inputParameters",
        "valueReference": {
          "reference": "#070b1626-01cc-4c14-96da-34e2fc40a526-parameters"
        }
      }, {
        "url": "http://hl7.org/fhir/us/cqfmeasures/StructureDefinition/cqfm-testCaseDescription",
        "valueMarkdown": "Patient given opioid 8:15AM. Naloxone (nonoral) given 8:14PM,  11 hours and 59 minutes after opioid. Meets num criteria."
      } ],
      "modifierExtension": [ {
        "url": "http://hl7.org/fhir/us/cqfmeasures/StructureDefinition/cqfm-isTestCase",
        "valueBoolean": true
      } ],
      "status": "complete",
      "type": "individual",
      "measure": "https://madie.cms.gov/Measure/CMS819FHIRHHORAE",
      "period": {
        "start": "2026-01-01",
        "end": "2026-12-31"
      },
      "group": [ {
        "id": "Group_1",
        "population": [ {
          "id": "InitialPopulation_1",
          "code": {
            "coding": [ {
              "system": "http://terminology.hl7.org/CodeSystem/measure-population",
              "code": "initial-population",
              "display": "Initial Population"
            } ]
          },
          "count": 1
        }, {
          "id": "Denominator_1",
          "code": {
            "coding": [ {
              "system": "http://terminology.hl7.org/CodeSystem/measure-population",
              "code": "denominator",
              "display": "Denominator"
            } ]
          },
          "count": 1
        }, {
          "id": "Numerator_1",
          "code": {
            "coding": [ {
              "system": "http://terminology.hl7.org/CodeSystem/measure-population",
              "code": "numerator",
              "display": "Numerator"
            } ]
          },
          "count": 1
        } ],
        "measureScore": {
          "value": 0.0
        }
      } ],
      "evaluatedResource": [ {
        "reference": "Patient/93064568-a739-403d-853f-a3150bd8f752"
      }, {
        "reference": "Encounter/3f4d5758-6702-4ec0-a136-02c29623e716"
      }, {
        "reference": "MedicationAdministration/07cf09bf-4a69-4a74-97a2-6f6875ce9a6d"
      }, {
        "reference": "MedicationAdministration/7cc90972-bf8c-45e2-ab6b-12d72ebb0904"
      } ]
    },
    "request": {
      "method": "PUT",
      "url": "MeasureReport/7335c8db-38eb-4c2c-938a-2ac8e68a1386"
    }
  } ]
}