{
  "resourceType": "Bundle",
  "id": "tests-NumerPass-RVwithAnticoagulantOrderAtAdmission-bundle",
  "type": "transaction",
  "entry": [ {
    "fullUrl": "https://madie.cms.gov/Encounter/5c09aafa-35e2-4179-a4e9-3d866e0b96d5",
    "resource": {
      "resourceType": "Encounter",
      "id": "5c09aafa-35e2-4179-a4e9-3d866e0b96d5",
      "meta": {
        "profile": [ "http://hl7.org/fhir/us/qicore/StructureDefinition/qicore-encounter" ]
      },
      "status": "finished",
      "class": {
        "system": "http://terminology.hl7.org/CodeSystem/v3-ActCode",
        "code": "IMP",
        "display": "inpatient encounter"
      },
      "type": [ {
        "coding": [ {
          "system": "http://snomed.info/sct",
          "code": "183452005",
          "display": "Inpatient encounter"
        } ]
      } ],
      "subject": {
        "reference": "Patient/fbbd3f4a-3e8e-40b9-ac83-0e80b2c129ec"
      },
      "period": {
        "start": "2026-10-19T08:30:00.000+00:00",
        "end": "2026-10-31T08:15:00.000+00:00"
      },
      "reasonCode": [ {
        "coding": [ {
          "system": "http://snomed.info/sct",
          "code": "14047009"
        } ]
      }, {
        "coding": [ {
          "system": "http://snomed.info/sct",
          "code": "64859006"
        } ]
      } ]
    },
    "request": {
      "method": "PUT",
      "url": "Encounter/5c09aafa-35e2-4179-a4e9-3d866e0b96d5"
    }
  }, {
    "fullUrl": "https://madie.cms.gov/Encounter/6cd28fbb-bbf0-42fc-ab26-dc0771984381",
    "resource": {
      "resourceType": "Encounter",
      "id": "6cd28fbb-bbf0-42fc-ab26-dc0771984381",
      "meta": {
        "profile": [ "http://hl7.org/fhir/us/qicore/StructureDefinition/qicore-encounter" ]
      },
      "status": "finished",
      "class": {
        "system": "http://terminology.hl7.org/CodeSystem/v3-ActCode",
        "code": "EMER",
        "display": "emergency encounter"
      },
      "type": [ {
        "coding": [ {
          "system": "http://snomed.info/sct",
          "code": "4525004",
          "display": "Emergency Department Visit"
        } ]
      } ],
      "subject": {
        "reference": "Patient/fbbd3f4a-3e8e-40b9-ac83-0e80b2c129ec"
      },
      "period": {
        "start": "2026-10-18T09:15:00.000+00:00",
        "end": "2026-10-19T08:15:00.000+00:00"
      }
    },
    "request": {
      "method": "PUT",
      "url": "Encounter/6cd28fbb-bbf0-42fc-ab26-dc0771984381"
    }
  }, {
    "fullUrl": "https://madie.cms.gov/Patient/fbbd3f4a-3e8e-40b9-ac83-0e80b2c129ec",
    "resource": {
      "resourceType": "Patient",
      "id": "fbbd3f4a-3e8e-40b9-ac83-0e80b2c129ec",
      "meta": {
        "profile": [ "http://hl7.org/fhir/us/qicore/StructureDefinition/qicore-patient" ]
      },
      "extension": [ {
        "url": "http://hl7.org/fhir/us/core/StructureDefinition/us-core-race",
        "extension": [ {
          "url": "ombCategory",
          "valueCoding": {
            "system": "urn:oid:2.16.840.1.113883.6.238",
            "code": "2106-3",
            "display": "White"
          }
        }, {
          "url": "text",
          "valueString": "White"
        } ]
      }, {
        "url": "http://hl7.org/fhir/us/core/StructureDefinition/us-core-ethnicity",
        "extension": [ {
          "url": "ombCategory",
          "valueCoding": {
            "system": "urn:oid:2.16.840.1.113883.6.238",
            "code": "2135-2",
            "display": "Hispanic or Latino"
          }
        }, {
          "url": "text",
          "valueString": "Hispanic or Latino"
        } ]
      }, {
        "url": "http://hl7.org/fhir/us/core/StructureDefinition/us-core-sex",
        "valueCode": "248153007"
      } ],
      "identifier": [ {
        "system": "http://hospital.smarthealthit.org",
        "value": "999999999"
      } ],
      "name": [ {
        "family": "Example",
        "given": [ "Patient" ]
      } ],
      "gender": "female",
      "birthDate": "1956-01-01"
    },
    "request": {
      "method": "PUT",
      "url": "Patient/fbbd3f4a-3e8e-40b9-ac83-0e80b2c129ec"
    }
  }, {
    "fullUrl": "https://madie.cms.gov/Claim/e722fbb2-a798-47bf-95ef-b61cee0cea22",
    "resource": {
      "resourceType": "Claim",
      "id": "e722fbb2-a798-47bf-95ef-b61cee0cea22",
      "meta": {
        "profile": [ "http://hl7.org/fhir/us/qicore/StructureDefinition/qicore-claim" ]
      },
      "status": "active",
      "type": {
        "coding": [ {
          "system": "http://terminology.hl7.org/CodeSystem/claim-type",
          "code": "institutional",
          "display": "Institutional"
        } ]
      },
      "use": "claim",
      "patient": {
        "reference": "Patient/fbbd3f4a-3e8e-40b9-ac83-0e80b2c129ec"
      },
      "created": "2026-10-22",
      "priority": {
        "coding": [ {
          "system": "http://terminology.hl7.org/CodeSystem/processpriority",
          "code": "normal"
        } ]
      },
      "diagnosis": [ {
        "sequence": 1,
        "diagnosisCodeableConcept": {
          "coding": [ {
            "system": "http://snomed.info/sct",
            "code": "14047009"
          } ]
        }
      } ],
      "item": [ {
        "sequence": 1,
        "diagnosisSequence": [ 1, 2 ],
        "encounter": [ {
          "reference": "Encounter/5c09aafa-35e2-4179-a4e9-3d866e0b96d5"
        } ]
      } ]
    },
    "request": {
      "method": "PUT",
      "url": "Claim/e722fbb2-a798-47bf-95ef-b61cee0cea22"
    }
  }, {
    "fullUrl": "https://madie.cms.gov/Claim/2b36b1d2-f960-49e7-8d23-8c1efc85c517",
    "resource": {
      "resourceType": "Claim",
      "id": "2b36b1d2-f960-49e7-8d23-8c1efc85c517",
      "meta": {
        "profile": [ "http://hl7.org/fhir/us/qicore/StructureDefinition/qicore-claim" ]
      },
      "status": "active",
      "type": {
        "coding": [ {
          "system": "http://terminology.hl7.org/CodeSystem/claim-type",
          "code": "institutional",
          "display": "Institutional"
        } ]
      },
      "use": "claim",
      "patient": {
        "reference": "Patient/fbbd3f4a-3e8e-40b9-ac83-0e80b2c129ec"
      },
      "created": "2026-11-01",
      "provider": {
        "reference": "Organization/Organization-1"
      },
      "priority": {
        "coding": [ {
          "system": "http://terminology.hl7.org/CodeSystem/processpriority",
          "code": "normal"
        } ]
      },
      "diagnosis": [ {
        "sequence": 1,
        "diagnosisCodeableConcept": {
          "coding": [ {
            "system": "http://hl7.org/fhir/sid/icd-10-cm",
            "code": "M80.00XA",
            "display": "Age-related osteoporosis with current pathological fracture, unspecified site, initial encounter for fracture"
          } ]
        }
      } ],
      "item": [ {
        "sequence": 1,
        "diagnosisSequence": [ 1, 2 ],
        "encounter": [ {
          "reference": "Encounter/5c09aafa-35e2-4179-a4e9-3d866e0b96d5"
        } ]
      } ]
    },
    "request": {
      "method": "PUT",
      "url": "Claim/2b36b1d2-f960-49e7-8d23-8c1efc85c517"
    }
  }, {
    "fullUrl": "https://madie.cms.gov/MedicationRequest/f9b439c4-8e99-4f64-9daf-0b3b36461a2e",
    "resource": {
      "resourceType": "MedicationRequest",
      "id": "f9b439c4-8e99-4f64-9daf-0b3b36461a2e",
      "meta": {
        "profile": [ "http://hl7.org/fhir/us/qicore/StructureDefinition/qicore-medicationrequest" ]
      },
      "status": "active",
      "intent": "order",
      "category": [ {
        "coding": [ {
          "system": "http://terminology.hl7.org/CodeSystem/medicationrequest-category",
          "code": "community",
          "display": "Community"
        } ]
      } ],
      "medicationCodeableConcept": {
        "coding": [ {
          "system": "http://www.nlm.nih.gov/research/umls/rxnorm",
          "code": "1364435",
          "display": "apixaban 2.5 mg oral tablet"
        } ]
      },
      "subject": {
        "reference": "Patient/fbbd3f4a-3e8e-40b9-ac83-0e80b2c129ec"
      },
      "authoredOn": "2026-10-15",
      "dispenseRequest": {
        "quantity": {
          "value": 14,
          "unit": "tablet",
          "system": "http://unitsofmeasure.org",
          "code": "{tablet}"
        },
        "expectedSupplyDuration": {
          "value": 14,
          "unit": "days",
          "system": "http://unitsofmeasure.org",
          "code": "d"
        }
      }
    },
    "request": {
      "method": "PUT",
      "url": "MedicationRequest/f9b439c4-8e99-4f64-9daf-0b3b36461a2e"
    }
  }, {
    "fullUrl": "https://madie.cms.gov/Observation/cb4f40d6-9029-4c0a-99c0-ce0adf20416f",
    "resource": {
      "resourceType": "Observation",
      "id": "cb4f40d6-9029-4c0a-99c0-ce0adf20416f",
      "meta": {
        "profile": [ "http://hl7.org/fhir/us/core/StructureDefinition/us-core-bmi" ]
      },
      "status": "final",
      "category": [ {
        "coding": [ {
          "system": "http://terminology.hl7.org/CodeSystem/observation-category",
          "code": "vital-signs",
          "display": "Vital Signs"
        } ]
      } ],
      "code": {
        "coding": [ {
          "system": "http://loinc.org",
          "code": "39156-5",
          "display": "Body mass index (BMI) [Ratio]"
        } ],
        "text": "BMI"
      },
      "subject": {
        "reference": "Patient/fbbd3f4a-3e8e-40b9-ac83-0e80b2c129ec"
      },
      "effectiveDateTime": "2026-10-20T08:00:00.000+00:00",
      "valueQuantity": {
        "value": 28.3,
        "unit": "kg/m2",
        "system": "http://unitsofmeasure.org",
        "code": "kg/m2"
      }
    },
    "request": {
      "method": "PUT",
      "url": "Observation/cb4f40d6-9029-4c0a-99c0-ce0adf20416f"
    }
  }, {
    "fullUrl": "https://madie.cms.gov/MeasureReport/eeb486d8-215d-4f64-8196-6a0ed44572f1",
    "resource": {
      "resourceType": "MeasureReport",
      "id": "eeb486d8-215d-4f64-8196-6a0ed44572f1",
      "meta": {
        "profile": [ "http://hl7.org/fhir/us/cqfmeasures/StructureDefinition/test-case-cqfm" ]
      },
      "contained": [ {
        "resourceType": "Parameters",
        "id": "7114e747-b9c2-4612-b3b3-19066014a3df-parameters",
        "parameter": [ {
          "name": "subject",
          "valueString": "fbbd3f4a-3e8e-40b9-ac83-0e80b2c129ec"
        } ]
      } ],
      "extension": [ {
        "url": "http://hl7.org/fhir/StructureDefinition/cqf-inputParameters",
        "valueReference": {
          "reference": "#7114e747-b9c2-4612-b3b3-19066014a3df-parameters"
        }
      }, {
        "url": "http://hl7.org/fhir/us/cqfmeasures/StructureDefinition/cqfm-testCaseDescription",
        "valueMarkdown": "RVariable Encounter With Anticoagulant Order At Admission"
      } ],
      "modifierExtension": [ {
        "url": "http://hl7.org/fhir/us/cqfmeasures/StructureDefinition/cqfm-isTestCase",
        "valueBoolean": true
      } ],
      "status": "complete",
      "type": "individual",
      "measure": "https://madie.cms.gov/Measure/CMS1017FHIRHHFI",
      "period": {
        "start": "2026-01-01",
        "end": "2026-12-31"
      },
      "group": [ {
        "id": "Group_1",
        "population": [ {
          "id": "InitialPopulation_1",
          "code": {
            "coding": [ {
              "system": "http://terminology.hl7.org/CodeSystem/measure-population",
              "code": "initial-population",
              "display": "Initial Population"
            } ]
          },
          "count": 1
        }, {
          "id": "Denominator_1",
          "code": {
            "coding": [ {
              "system": "http://terminology.hl7.org/CodeSystem/measure-population",
              "code": "denominator",
              "display": "Denominator"
            } ]
          },
          "count": 1
        }, {
          "id": "DenominatorExclusion_1",
          "code": {
            "coding": [ {
              "system": "http://terminology.hl7.org/CodeSystem/measure-population",
              "code": "denominator-exclusion",
              "display": "Denominator Exclusion"
            } ]
          },
          "count": 0
        }, {
          "id": "Numerator_1",
          "code": {
            "coding": [ {
              "system": "http://terminology.hl7.org/CodeSystem/measure-population",
              "code": "numerator",
              "display": "Numerator"
            } ]
          },
          "count": 1
        }, {
          "id": "NumeratorExclusion_1",
          "code": {
            "coding": [ {
              "system": "http://terminology.hl7.org/CodeSystem/measure-population",
              "code": "numerator-exclusion",
              "display": "Numerator Exclusion"
            } ]
          },
          "count": 0
        }, {
          "id": "MeasureObservation_1_1_1",
          "code": {
            "coding": [ {
              "system": "http://terminology.hl7.org/CodeSystem/measure-population",
              "code": "measure-observation",
              "display": "Measure Observation"
            } ]
          },
          "count": 12
        }, {
          "id": "MeasureObservation_1_2_1",
          "code": {
            "coding": [ {
              "system": "http://terminology.hl7.org/CodeSystem/measure-population",
              "code": "measure-observation",
              "display": "Measure Observation"
            } ]
          },
          "count": 1
        } ],
        "measureScore": {
          "value": 0.0
        }
      } ],
      "evaluatedResource": [ {
        "reference": "Encounter/5c09aafa-35e2-4179-a4e9-3d866e0b96d5"
      }, {
        "reference": "Encounter/6cd28fbb-bbf0-42fc-ab26-dc0771984381"
      }, {
        "reference": "Patient/fbbd3f4a-3e8e-40b9-ac83-0e80b2c129ec"
      }, {
        "reference": "Claim/e722fbb2-a798-47bf-95ef-b61cee0cea22"
      }, {
        "reference": "Claim/2b36b1d2-f960-49e7-8d23-8c1efc85c517"
      }, {
        "reference": "MedicationRequest/f9b439c4-8e99-4f64-9daf-0b3b36461a2e"
      }, {
        "reference": "Observation/cb4f40d6-9029-4c0a-99c0-ce0adf20416f"
      } ]
    },
    "request": {
      "method": "PUT",
      "url": "MeasureReport/eeb486d8-215d-4f64-8196-6a0ed44572f1"
    }
  } ]
}