{
  "resourceType": "Bundle",
  "id": "612e6aab02c62a011f2ead9b",
  "type": "transaction",
  "entry": [ {
    "fullUrl": "https://madie.cms.gov/Patient/068814f1-4270-4e10-b470-9a5433bceb3e",
    "resource": {
      "resourceType": "Patient",
      "id": "068814f1-4270-4e10-b470-9a5433bceb3e",
      "meta": {
        "profile": [ "http://hl7.org/fhir/us/qicore/StructureDefinition/qicore-patient" ]
      },
      "text": {
        "status": "generated",
        "div": "<div xmlns=\"http://www.w3.org/1999/xhtml\"><div class=\"hapiHeaderText\">MedReason_MA_LDUHep_DA_GCS_DuringED <b>NUMERPASS </b></div><table class=\"hapiPropertyTable\"><tbody><tr><td>Identifier</td><td>020df11163b665120eb01e83e644f1da</td></tr><tr><td>Date of birth</td><td><span>02 January 1974</span></td></tr></tbody></table></div>"
      },
      "extension": [ {
        "url": "http://hl7.org/fhir/us/core/StructureDefinition/us-core-race",
        "extension": [ {
          "url": "ombCategory",
          "valueCoding": {
            "system": "urn:oid:2.16.840.1.113883.6.238",
            "code": "1002-5",
            "display": "American Indian or Alaska Native",
            "userSelected": true
          }
        }, {
          "url": "text",
          "valueString": "American Indian or Alaska Native"
        } ]
      }, {
        "url": "http://hl7.org/fhir/us/core/StructureDefinition/us-core-ethnicity",
        "extension": [ {
          "url": "ombCategory",
          "valueCoding": {
            "system": "urn:oid:2.16.840.1.113883.6.238",
            "code": "2135-2",
            "display": "Hispanic or Latino",
            "userSelected": true
          }
        }, {
          "url": "text",
          "valueString": "Hispanic or Latino"
        } ]
      } ],
      "identifier": [ {
        "type": {
          "coding": [ {
            "system": "http://terminology.hl7.org/CodeSystem/v2-0203",
            "code": "MR"
          } ]
        },
        "system": "https://bonnie-fhir.healthit.gov/",
        "value": "612e6aab02c62a011f2ead9b"
      } ],
      "active": true,
      "name": [ {
        "use": "usual",
        "family": "NUMERPass",
        "given": [ "MedReasonMALDUHepDAGCSDuringED" ]
      } ],
      "gender": "male",
      "birthDate": "1975-01-02"
    },
    "request": {
      "method": "PUT",
      "url": "Patient/068814f1-4270-4e10-b470-9a5433bceb3e"
    }
  }, {
    "fullUrl": "https://madie.cms.gov/Encounter/c290239f-7321-4b4f-91c5-f48d359c71fa",
    "resource": {
      "resourceType": "Encounter",
      "id": "c290239f-7321-4b4f-91c5-f48d359c71fa",
      "meta": {
        "profile": [ "http://hl7.org/fhir/us/qicore/StructureDefinition/qicore-encounter" ]
      },
      "status": "finished",
      "class": {
        "system": "http://terminology.hl7.org/CodeSystem/v3-ActCode",
        "code": "EMER",
        "display": "emergency"
      },
      "type": [ {
        "coding": [ {
          "system": "http://snomed.info/sct",
          "code": "4525004"
        } ]
      } ],
      "subject": {
        "reference": "Patient/068814f1-4270-4e10-b470-9a5433bceb3e"
      },
      "period": {
        "start": "2026-10-31T05:00:00.000+00:00",
        "end": "2026-11-01T07:15:00.000+00:00"
      },
      "length": {
        "value": 1,
        "unit": "days"
      }
    },
    "request": {
      "method": "PUT",
      "url": "Encounter/c290239f-7321-4b4f-91c5-f48d359c71fa"
    }
  }, {
    "fullUrl": "https://madie.cms.gov/Encounter/f0baf3c0-8642-418f-9205-bbc6010c6241",
    "resource": {
      "resourceType": "Encounter",
      "id": "f0baf3c0-8642-418f-9205-bbc6010c6241",
      "meta": {
        "profile": [ "http://hl7.org/fhir/us/qicore/StructureDefinition/qicore-encounter" ]
      },
      "status": "finished",
      "class": {
        "system": "http://terminology.hl7.org/CodeSystem/v3-ActCode",
        "code": "IMP",
        "display": "inpatient encounter"
      },
      "type": [ {
        "coding": [ {
          "system": "http://snomed.info/sct",
          "code": "8715000"
        } ]
      } ],
      "subject": {
        "reference": "Patient/068814f1-4270-4e10-b470-9a5433bceb3e"
      },
      "period": {
        "start": "2026-11-01T08:00:00.000+00:00",
        "end": "2026-11-26T08:15:00.000+00:00"
      },
      "length": {
        "value": 25,
        "unit": "days"
      }
    },
    "request": {
      "method": "PUT",
      "url": "Encounter/f0baf3c0-8642-418f-9205-bbc6010c6241"
    }
  }, {
    "fullUrl": "https://madie.cms.gov/Coverage/ea494b71-700b-4ee8-901c-152c8fcf3f1f",
    "resource": {
      "resourceType": "Coverage",
      "id": "ea494b71-700b-4ee8-901c-152c8fcf3f1f",
      "status": "active",
      "beneficiary": {
        "reference": "Patient/068814f1-4270-4e10-b470-9a5433bceb3e"
      },
      "period": {
        "start": "1975-01-02T08:00:00.000+00:00"
      },
      "payor": [ {
        "reference": "Organization/5458e4e0-614d-4870-89c3-5cf6ed117895"
      } ]
    },
    "request": {
      "method": "PUT",
      "url": "Coverage/ea494b71-700b-4ee8-901c-152c8fcf3f1f"
    }
  }, {
    "fullUrl": "https://madie.cms.gov/MedicationAdministration/82b28bc5-b83b-474e-a86d-9e2cac943f4e",
    "resource": {
      "resourceType": "MedicationAdministration",
      "id": "82b28bc5-b83b-474e-a86d-9e2cac943f4e",
      "meta": {
        "profile": [ "http://hl7.org/fhir/us/qicore/StructureDefinition/qicore-medicationadministrationnotdone" ]
      },
      "extension": [ {
        "url": "http://hl7.org/fhir/us/qicore/StructureDefinition/qicore-recorded",
        "valueDateTime": "2026-11-02T11:00:00.000+00:00"
      } ],
      "status": "not-done",
      "statusReason": [ {
        "coding": [ {
          "system": "http://snomed.info/sct",
          "code": "183932001"
        } ]
      } ],
      "medicationCodeableConcept": {
        "coding": [ {
          "system": "http://www.nlm.nih.gov/research/umls/rxnorm",
          "code": "1361574"
        } ]
      },
      "subject": {
        "reference": "Patient/068814f1-4270-4e10-b470-9a5433bceb3"
      },
      "effectivePeriod": {
        "start": "2026-11-02T11:00:00.000+00:00"
      }
    },
    "request": {
      "method": "PUT",
      "url": "MedicationAdministration/82b28bc5-b83b-474e-a86d-9e2cac943f4e"
    }
  }, {
    "fullUrl": "https://madie.cms.gov/Procedure/6cbd56f3-d06c-44d5-83f7-2c61dfefcdd9",
    "resource": {
      "resourceType": "Procedure",
      "id": "6cbd56f3-d06c-44d5-83f7-2c61dfefcdd9",
      "meta": {
        "profile": [ "http://hl7.org/fhir/us/qicore/StructureDefinition/qicore-procedurenotdone" ]
      },
      "extension": [ {
        "url": "http://hl7.org/fhir/us/qicore/StructureDefinition/qicore-recorded",
        "valueDateTime": "2026-11-01T07:00:00.000+00:00"
      } ],
      "status": "not-done",
      "statusReason": {
        "coding": [ {
          "system": "http://snomed.info/sct",
          "code": "183932001",
          "display": "Procedure contraindicated (situation)",
          "userSelected": true
        } ]
      },
      "code": {
        "coding": [ {
          "system": "http://snomed.info/sct",
          "code": "229511001",
          "display": "Application of graduated compression garment (procedure)",
          "userSelected": true
        } ]
      },
      "subject": {
        "reference": "Patient/068814f1-4270-4e10-b470-9a5433bceb3e"
      },
      "_performedDateTime": {
        "extension": [ {
          "url": "http://hl7.org/fhir/StructureDefinition/data-absent-reason",
          "valueCode": "not-performed"
        } ]
      }
    },
    "request": {
      "method": "PUT",
      "url": "Procedure/6cbd56f3-d06c-44d5-83f7-2c61dfefcdd9"
    }
  }, {
    "fullUrl": "https://madie.cms.gov/Organization/5458e4e0-614d-4870-89c3-5cf6ed117895",
    "resource": {
      "resourceType": "Organization",
      "id": "5458e4e0-614d-4870-89c3-5cf6ed117895",
      "meta": {
        "profile": [ "http://hl7.org/fhir/us/qicore/StructureDefinition/qicore-organization" ]
      },
      "identifier": [ {
        "use": "temp",
        "system": "urn:oid:2.16.840.1.113883.4.4",
        "value": "21-3259825"
      } ],
      "active": true,
      "type": [ {
        "coding": [ {
          "system": "http://terminology.hl7.org/CodeSystem/organization-type",
          "code": "pay",
          "display": "Payer"
        } ]
      } ],
      "name": "Blue Cross Blue Shield of Texas",
      "telecom": [ {
        "system": "phone",
        "value": "(+1) 972-766-6900"
      } ],
      "address": [ {
        "use": "billing",
        "type": "postal",
        "line": [ "P.O. Box 660044" ],
        "city": "Dallas",
        "state": "TX",
        "postalCode": "75266-0044",
        "country": "USA"
      } ]
    },
    "request": {
      "method": "PUT",
      "url": "Organization/5458e4e0-614d-4870-89c3-5cf6ed117895"
    }
  }, {
    "fullUrl": "https://madie.cms.gov/Practitioner/a2866203-ca5d-4bd8-a402-53ef38aa40bb",
    "resource": {
      "resourceType": "Practitioner",
      "id": "a2866203-ca5d-4bd8-a402-53ef38aa40bb",
      "identifier": [ {
        "system": "http://hl7.org/fhir/sid/us-npi",
        "value": "123456"
      } ],
      "name": [ {
        "family": "Evil",
        "prefix": [ "Dr" ]
      } ]
    },
    "request": {
      "method": "PUT",
      "url": "Practitioner/a2866203-ca5d-4bd8-a402-53ef38aa40bb"
    }
  }, {
    "fullUrl": "https://madie.cms.gov/MeasureReport/1ab51dcd-ded8-4088-b8df-a951e70a3aba",
    "resource": {
      "resourceType": "MeasureReport",
      "id": "1ab51dcd-ded8-4088-b8df-a951e70a3aba",
      "meta": {
        "profile": [ "http://hl7.org/fhir/us/cqfmeasures/StructureDefinition/test-case-cqfm" ]
      },
      "contained": [ {
        "resourceType": "Parameters",
        "id": "c7636859-f426-47e7-86b7-e86ca951777d-parameters",
        "parameter": [ {
          "name": "subject",
          "valueString": "068814f1-4270-4e10-b470-9a5433bceb3e"
        } ]
      } ],
      "extension": [ {
        "url": "http://hl7.org/fhir/StructureDefinition/cqf-inputParameters",
        "valueReference": {
          "reference": "#c7636859-f426-47e7-86b7-e86ca951777d-parameters"
        }
      }, {
        "url": "http://hl7.org/fhir/us/cqfmeasures/StructureDefinition/cqfm-testCaseDescription",
        "valueMarkdown": "medical reasons to not receive no GCS and no low dose heparin during ED\n"
      } ],
      "modifierExtension": [ {
        "url": "http://hl7.org/fhir/us/cqfmeasures/StructureDefinition/cqfm-isTestCase",
        "valueBoolean": true
      } ],
      "status": "complete",
      "type": "individual",
      "measure": "https://madie.cms.gov/Measure/CMS108FHIRVTEProphylaxis",
      "period": {
        "start": "2026-01-01",
        "end": "2026-12-31"
      },
      "group": [ {
        "id": "Group_1",
        "population": [ {
          "id": "InitialPopulation_1",
          "code": {
            "coding": [ {
              "system": "http://terminology.hl7.org/CodeSystem/measure-population",
              "code": "initial-population",
              "display": "Initial Population"
            } ]
          },
          "count": 1
        }, {
          "id": "Denominator_1",
          "code": {
            "coding": [ {
              "system": "http://terminology.hl7.org/CodeSystem/measure-population",
              "code": "denominator",
              "display": "Denominator"
            } ]
          },
          "count": 1
        }, {
          "id": "DenominatorExclusion_1",
          "code": {
            "coding": [ {
              "system": "http://terminology.hl7.org/CodeSystem/measure-population",
              "code": "denominator-exclusion",
              "display": "Denominator Exclusion"
            } ]
          },
          "count": 0
        }, {
          "id": "Numerator_1",
          "code": {
            "coding": [ {
              "system": "http://terminology.hl7.org/CodeSystem/measure-population",
              "code": "numerator",
              "display": "Numerator"
            } ]
          },
          "count": 1
        } ],
        "measureScore": {
          "value": 0.0
        }
      } ],
      "evaluatedResource": [ {
        "reference": "Patient/068814f1-4270-4e10-b470-9a5433bceb3e"
      }, {
        "reference": "Encounter/c290239f-7321-4b4f-91c5-f48d359c71fa"
      }, {
        "reference": "Encounter/f0baf3c0-8642-418f-9205-bbc6010c6241"
      }, {
        "reference": "Coverage/ea494b71-700b-4ee8-901c-152c8fcf3f1f"
      }, {
        "reference": "MedicationAdministration/82b28bc5-b83b-474e-a86d-9e2cac943f4e"
      }, {
        "reference": "Procedure/6cbd56f3-d06c-44d5-83f7-2c61dfefcdd9"
      }, {
        "reference": "Organization/5458e4e0-614d-4870-89c3-5cf6ed117895"
      }, {
        "reference": "Practitioner/a2866203-ca5d-4bd8-a402-53ef38aa40bb"
      } ]
    },
    "request": {
      "method": "PUT",
      "url": "MeasureReport/1ab51dcd-ded8-4088-b8df-a951e70a3aba"
    }
  } ]
}