{
  "resourceType": "Bundle",
  "id": "Patient-46-DENEXPass-HospiceDiagnosisOverlapsMP",
  "type": "transaction",
  "entry": [ {
    "fullUrl": "https://madie.cms.gov/Patient/64ba4a87-8cf6-4cfb-b0e7-506dd08c8bbe",
    "resource": {
      "resourceType": "Patient",
      "id": "64ba4a87-8cf6-4cfb-b0e7-506dd08c8bbe",
      "meta": {
        "profile": [ "http://hl7.org/fhir/us/qicore/StructureDefinition/qicore-patient" ]
      },
      "extension": [ {
        "url": "http://hl7.org/fhir/us/core/StructureDefinition/us-core-race",
        "extension": [ {
          "url": "ombCategory",
          "valueCoding": {
            "system": "urn:oid:2.16.840.1.113883.6.238",
            "code": "2028-9",
            "display": "Asian"
          }
        }, {
          "url": "text",
          "valueString": "Asian"
        } ]
      }, {
        "url": "http://hl7.org/fhir/us/core/StructureDefinition/us-core-ethnicity",
        "extension": [ {
          "url": "ombCategory",
          "valueCoding": {
            "system": "urn:oid:2.16.840.1.113883.6.238",
            "code": "2135-2",
            "display": "Hispanic or Latino"
          }
        }, {
          "url": "text",
          "valueString": "Hispanic or Latino"
        } ]
      } ],
      "identifier": [ {
        "system": "http://hospital.smarthealthit.org",
        "value": "999999995"
      } ],
      "name": [ {
        "family": "Bertha",
        "given": [ "Betty" ]
      } ],
      "gender": "female",
      "birthDate": "2007-01-01"
    },
    "request": {
      "method": "PUT",
      "url": "Patient/64ba4a87-8cf6-4cfb-b0e7-506dd08c8bbe"
    }
  }, {
    "fullUrl": "https://madie.cms.gov/Encounter/cc92899a-a040-4947-822c-d24dd443555a",
    "resource": {
      "resourceType": "Encounter",
      "id": "cc92899a-a040-4947-822c-d24dd443555a",
      "meta": {
        "profile": [ "http://hl7.org/fhir/us/qicore/StructureDefinition/qicore-encounter" ]
      },
      "status": "finished",
      "class": {
        "system": "http://terminology.hl7.org/CodeSystem/v3-ActCode",
        "code": "AMB",
        "display": "ambulatory"
      },
      "type": [ {
        "coding": [ {
          "system": "http://snomed.info/sct",
          "code": "185460008",
          "display": "Home visit request by patient (procedure)"
        } ]
      } ],
      "subject": {
        "reference": "Patient/64ba4a87-8cf6-4cfb-b0e7-506dd08c8bbe"
      },
      "period": {
        "start": "2026-01-01T00:00:00Z",
        "end": "2026-01-01T00:15:00Z"
      }
    },
    "request": {
      "method": "PUT",
      "url": "Encounter/cc92899a-a040-4947-822c-d24dd443555a"
    }
  }, {
    "fullUrl": "https://madie.cms.gov/Condition/e7dd3095-fde0-4534-9eb5-f2352d8ec33b",
    "resource": {
      "resourceType": "Condition",
      "id": "e7dd3095-fde0-4534-9eb5-f2352d8ec33b",
      "meta": {
        "profile": [ "http://hl7.org/fhir/us/qicore/StructureDefinition/qicore-condition-encounter-diagnosis" ]
      },
      "clinicalStatus": {
        "coding": [ {
          "system": "http://terminology.hl7.org/CodeSystem/condition-clinical",
          "code": "active"
        } ]
      },
      "category": [ {
        "coding": [ {
          "system": "http://terminology.hl7.org/CodeSystem/condition-category",
          "code": "encounter-diagnosis",
          "display": "Encounter Diagnosis"
        } ]
      } ],
      "code": {
        "coding": [ {
          "system": "http://snomed.info/sct",
          "code": "102781000119107",
          "display": "Sensory neuropathy due to type 1 diabetes mellitus (disorder)"
        } ]
      },
      "subject": {
        "reference": "Patient/64ba4a87-8cf6-4cfb-b0e7-506dd08c8bbe"
      },
      "onsetDateTime": "2026-01-01T23:59:00Z"
    },
    "request": {
      "method": "PUT",
      "url": "Condition/e7dd3095-fde0-4534-9eb5-f2352d8ec33b"
    }
  }, {
    "fullUrl": "https://madie.cms.gov/Condition/b7f70995-c2f4-479b-8c3f-b07fd60c8c00",
    "resource": {
      "resourceType": "Condition",
      "id": "b7f70995-c2f4-479b-8c3f-b07fd60c8c00",
      "meta": {
        "profile": [ "http://hl7.org/fhir/us/qicore/StructureDefinition/qicore-condition-problems-health-concerns" ]
      },
      "clinicalStatus": {
        "coding": [ {
          "system": "http://terminology.hl7.org/CodeSystem/condition-clinical",
          "code": "active"
        } ]
      },
      "category": [ {
        "coding": [ {
          "system": "http://terminology.hl7.org/CodeSystem/condition-category",
          "code": "problem-list-item",
          "display": "Problem List Item"
        } ]
      } ],
      "code": {
        "coding": [ {
          "system": "http://snomed.info/sct",
          "code": "170935008",
          "display": "Full care by hospice (finding)"
        } ]
      },
      "subject": {
        "reference": "Patient/64ba4a87-8cf6-4cfb-b0e7-506dd08c8bbe"
      },
      "onsetDateTime": "2026-12-31T23:59:59Z"
    },
    "request": {
      "method": "PUT",
      "url": "Condition/b7f70995-c2f4-479b-8c3f-b07fd60c8c00"
    }
  }, {
    "fullUrl": "https://madie.cms.gov/MeasureReport/c03be387-6957-4b32-8781-0ca9793daeaa",
    "resource": {
      "resourceType": "MeasureReport",
      "id": "c03be387-6957-4b32-8781-0ca9793daeaa",
      "meta": {
        "profile": [ "http://hl7.org/fhir/us/cqfmeasures/StructureDefinition/test-case-cqfm" ]
      },
      "contained": [ {
        "resourceType": "Parameters",
        "id": "197ca8bf-0448-483a-86d0-a5245a1ce273-parameters",
        "parameter": [ {
          "name": "subject",
          "valueString": "64ba4a87-8cf6-4cfb-b0e7-506dd08c8bbe"
        } ]
      } ],
      "extension": [ {
        "url": "http://hl7.org/fhir/StructureDefinition/cqf-inputParameters",
        "valueReference": {
          "reference": "#197ca8bf-0448-483a-86d0-a5245a1ce273-parameters"
        }
      }, {
        "url": "http://hl7.org/fhir/us/cqfmeasures/StructureDefinition/cqfm-testCaseDescription",
        "valueMarkdown": "Hospice diagnosis overlaps MP"
      } ],
      "modifierExtension": [ {
        "url": "http://hl7.org/fhir/us/cqfmeasures/StructureDefinition/cqfm-isTestCase",
        "valueBoolean": true
      } ],
      "status": "complete",
      "type": "individual",
      "measure": "https://madie.cms.gov/Measure/CMS122FHIRDiabetesAssessGreaterThan9Percent",
      "period": {
        "start": "2026-01-01",
        "end": "2026-12-31"
      },
      "group": [ {
        "id": "Group_1",
        "population": [ {
          "id": "InitialPopulation_1",
          "code": {
            "coding": [ {
              "system": "http://terminology.hl7.org/CodeSystem/measure-population",
              "code": "initial-population",
              "display": "Initial Population"
            } ]
          },
          "count": 1
        }, {
          "id": "Denominator_1",
          "code": {
            "coding": [ {
              "system": "http://terminology.hl7.org/CodeSystem/measure-population",
              "code": "denominator",
              "display": "Denominator"
            } ]
          },
          "count": 1
        }, {
          "id": "DenominatorExclusion_1",
          "code": {
            "coding": [ {
              "system": "http://terminology.hl7.org/CodeSystem/measure-population",
              "code": "denominator-exclusion",
              "display": "Denominator Exclusion"
            } ]
          },
          "count": 1
        }, {
          "id": "Numerator_1",
          "code": {
            "coding": [ {
              "system": "http://terminology.hl7.org/CodeSystem/measure-population",
              "code": "numerator",
              "display": "Numerator"
            } ]
          },
          "count": 0
        } ],
        "measureScore": {
          "value": 1.0
        }
      } ],
      "evaluatedResource": [ {
        "reference": "Patient/64ba4a87-8cf6-4cfb-b0e7-506dd08c8bbe"
      }, {
        "reference": "Encounter/cc92899a-a040-4947-822c-d24dd443555a"
      }, {
        "reference": "Condition/e7dd3095-fde0-4534-9eb5-f2352d8ec33b"
      }, {
        "reference": "Condition/b7f70995-c2f4-479b-8c3f-b07fd60c8c00"
      } ]
    },
    "request": {
      "method": "PUT",
      "url": "MeasureReport/c03be387-6957-4b32-8781-0ca9793daeaa"
    }
  } ]
}