{
  "resourceType": "Bundle",
  "id": "60f82c2f98086b570510e29c",
  "type": "transaction",
  "entry": [ {
    "fullUrl": "https://madie.cms.gov/Patient/9f4bc5cc-b5a4-4d67-a11f-9f171b62fd9f",
    "resource": {
      "resourceType": "Patient",
      "id": "9f4bc5cc-b5a4-4d67-a11f-9f171b62fd9f",
      "meta": {
        "profile": [ "http://hl7.org/fhir/us/qicore/StructureDefinition/qicore-patient" ]
      },
      "text": {
        "status": "generated",
        "div": "<div xmlns=\"http://www.w3.org/1999/xhtml\"><div class=\"hapiHeaderText\">TPADocumentB4EncStart <b>DENEXFAIL </b></div><table class=\"hapiPropertyTable\"><tbody><tr><td>Identifier</td><td>664428f9fe85f1e578781fb1b380e14d63faa1477ab453cbf0bdc52993a87621</td></tr><tr><td>Date of birth</td><td><span>26 September 1975</span></td></tr></tbody></table></div>"
      },
      "extension": [ {
        "url": "http://hl7.org/fhir/us/core/StructureDefinition/us-core-race",
        "extension": [ {
          "url": "ombCategory",
          "valueCoding": {
            "system": "urn:oid:2.16.840.1.113883.6.238",
            "code": "2054-5",
            "display": "Black or African American",
            "userSelected": true
          }
        }, {
          "url": "text",
          "valueString": "Black or African American"
        } ]
      }, {
        "url": "http://hl7.org/fhir/us/core/StructureDefinition/us-core-ethnicity",
        "extension": [ {
          "url": "ombCategory",
          "valueCoding": {
            "system": "urn:oid:2.16.840.1.113883.6.238",
            "code": "2186-5",
            "display": "Not Hispanic or Latino",
            "userSelected": true
          }
        }, {
          "url": "text",
          "valueString": "Not Hispanic or Latino"
        } ]
      } ],
      "identifier": [ {
        "type": {
          "coding": [ {
            "system": "http://terminology.hl7.org/CodeSystem/v2-0203",
            "code": "MR"
          } ]
        },
        "system": "https://bonnie-fhir.healthit.gov/",
        "value": "60f82c2f98086b570510e29c"
      } ],
      "active": true,
      "name": [ {
        "use": "usual",
        "family": "DENEXFAIL",
        "given": [ "TPADocumentB4EncStart" ]
      } ],
      "gender": "female",
      "birthDate": "1976-09-26"
    },
    "request": {
      "method": "PUT",
      "url": "Patient/9f4bc5cc-b5a4-4d67-a11f-9f171b62fd9f"
    }
  }, {
    "fullUrl": "https://madie.cms.gov/Condition/2c496d05-f438-46bb-8472-97b902b96ea5",
    "resource": {
      "resourceType": "Condition",
      "id": "2c496d05-f438-46bb-8472-97b902b96ea5",
      "meta": {
        "profile": [ "http://hl7.org/fhir/us/qicore/StructureDefinition/qicore-condition-encounter-diagnosis" ]
      },
      "category": [ {
        "coding": [ {
          "system": "http://terminology.hl7.org/CodeSystem/condition-category",
          "code": "encounter-diagnosis",
          "display": "Encounter Diagnosis"
        } ]
      } ],
      "code": {
        "coding": [ {
          "system": "http://hl7.org/fhir/sid/icd-10-cm",
          "code": "Z92.82"
        } ]
      },
      "subject": {
        "reference": "Patient/9f4bc5cc-b5a4-4d67-a11f-9f171b62fd9f"
      },
      "encounter": {
        "reference": "Encounter/c7243a27-90cd-4f23-b430-73735121e665"
      },
      "onsetDateTime": "2026-10-10T06:14:00Z",
      "recordedDate": "2026-10-10T06:14:00.000+00:00"
    },
    "request": {
      "method": "PUT",
      "url": "Condition/2c496d05-f438-46bb-8472-97b902b96ea5"
    }
  }, {
    "fullUrl": "https://madie.cms.gov/Encounter/c7243a27-90cd-4f23-b430-73735121e665",
    "resource": {
      "resourceType": "Encounter",
      "id": "c7243a27-90cd-4f23-b430-73735121e665",
      "meta": {
        "profile": [ "http://hl7.org/fhir/us/qicore/StructureDefinition/qicore-encounter" ]
      },
      "status": "finished",
      "class": {
        "system": "http://terminology.hl7.org/CodeSystem/v3-ActCode",
        "code": "IMP",
        "display": "inpatient encounter",
        "userSelected": true
      },
      "type": [ {
        "coding": [ {
          "system": "http://snomed.info/sct",
          "code": "32485007"
        } ]
      } ],
      "subject": {
        "reference": "Patient/9f4bc5cc-b5a4-4d67-a11f-9f171b62fd9f"
      },
      "period": {
        "start": "2026-10-10T06:15:00Z",
        "end": "2026-10-24T11:30:00.000+00:00"
      },
      "length": {
        "value": 14,
        "unit": "days"
      },
      "reasonReference": [ {
        "reference": "Condition/07ff8fc5-3c60-407c-83ff-aee00a9b06d8"
      } ]
    },
    "request": {
      "method": "PUT",
      "url": "Encounter/c7243a27-90cd-4f23-b430-73735121e665"
    }
  }, {
    "fullUrl": "https://madie.cms.gov/Coverage/d00e563b-6632-41c8-8e8c-e1774b83de5a",
    "resource": {
      "resourceType": "Coverage",
      "id": "d00e563b-6632-41c8-8e8c-e1774b83de5a",
      "status": "active",
      "beneficiary": {
        "reference": "Patient/9f4bc5cc-b5a4-4d67-a11f-9f171b62fd9f"
      },
      "period": {
        "start": "1976-09-26T08:00:00Z"
      },
      "payor": [ {
        "reference": "Organization/3e142f6e-8f7d-4b6a-8eb4-5d119ed53521"
      } ]
    },
    "request": {
      "method": "PUT",
      "url": "Coverage/d00e563b-6632-41c8-8e8c-e1774b83de5a"
    }
  }, {
    "fullUrl": "https://madie.cms.gov/Condition/07ff8fc5-3c60-407c-83ff-aee00a9b06d8",
    "resource": {
      "resourceType": "Condition",
      "id": "07ff8fc5-3c60-407c-83ff-aee00a9b06d8",
      "meta": {
        "profile": [ "http://hl7.org/fhir/us/qicore/StructureDefinition/qicore-condition-encounter-diagnosis" ]
      },
      "clinicalStatus": {
        "coding": [ {
          "system": "http://terminology.hl7.org/CodeSystem/condition-clinical",
          "code": "active"
        } ]
      },
      "verificationStatus": {
        "coding": [ {
          "system": "http://terminology.hl7.org/CodeSystem/condition-ver-status",
          "code": "confirmed"
        } ]
      },
      "category": [ {
        "coding": [ {
          "system": "http://terminology.hl7.org/CodeSystem/condition-category",
          "code": "encounter-diagnosis",
          "display": "Encounter Diagnosis"
        } ]
      } ],
      "code": {
        "coding": [ {
          "system": "http://snomed.info/sct",
          "version": "2020-09",
          "code": "111297002",
          "display": "Nonparalytic stroke (disorder)",
          "userSelected": true
        } ]
      },
      "subject": {
        "reference": "Patient/9f4bc5cc-b5a4-4d67-a11f-9f171b62fd9f"
      },
      "encounter": {
        "reference": "Encounter/c7243a27-90cd-4f23-b430-73735121e665"
      },
      "recordedDate": "2026-08-10T08:00:00Z"
    },
    "request": {
      "method": "PUT",
      "url": "Condition/07ff8fc5-3c60-407c-83ff-aee00a9b06d8"
    }
  }, {
    "fullUrl": "https://madie.cms.gov/claim/5ca62962b8484628b8de1ec5",
    "resource": {
      "resourceType": "Claim",
      "id": "5ca62962b8484628b8de1ec5",
      "meta": {
        "profile": [ "http://hl7.org/fhir/us/qicore/StructureDefinition/qicore-claim" ]
      },
      "status": "active",
      "type": {
        "coding": [ {
          "system": "http://terminology.hl7.org/CodeSystem/claim-type",
          "code": "institutional"
        } ]
      },
      "use": "claim",
      "patient": {
        "reference": "Patient/5450abfd-a667-4eb9-9b59-e85feed4865c"
      },
      "created": "2026-12-01",
      "provider": {
        "reference": "Practitioner/practitioner-123456"
      },
      "priority": {
        "coding": [ {
          "system": "http://terminology.hl7.org/CodeSystem/processpriority",
          "code": "normal"
        } ]
      },
      "diagnosis": [ {
        "sequence": 1,
        "diagnosisCodeableConcept": {
          "coding": [ {
            "system": "http://hl7.org/fhir/sid/icd-10-cm",
            "code": "I63.00"
          } ]
        },
        "type": [ {
          "coding": [ {
            "system": "http://terminology.hl7.org/CodeSystem/ex-diagnosistype",
            "code": "principal"
          } ]
        } ]
      } ],
      "insurance": [ {
        "sequence": 1,
        "focal": true,
        "coverage": {
          "reference": "Coverage/5fa041661c76ba66d9959367"
        }
      } ],
      "item": [ {
        "sequence": 1,
        "diagnosisSequence": [ 1 ],
        "productOrService": {
          "coding": [ {
            "system": "http://terminology.hl7.org/CodeSystem/ex-USCLS",
            "code": "99555"
          } ]
        },
        "encounter": [ {
          "reference": "Encounter/c7243a27-90cd-4f23-b430-73735121e665"
        } ]
      } ]
    },
    "request": {
      "method": "PUT",
      "url": "Claim/5ca62962b8484628b8de1ec5"
    }
  }, {
    "fullUrl": "https://madie.cms.gov/Organization/3e142f6e-8f7d-4b6a-8eb4-5d119ed53521",
    "resource": {
      "resourceType": "Organization",
      "id": "3e142f6e-8f7d-4b6a-8eb4-5d119ed53521",
      "meta": {
        "profile": [ "http://hl7.org/fhir/us/qicore/StructureDefinition/qicore-organization" ]
      },
      "identifier": [ {
        "use": "temp",
        "system": "urn:oid:2.16.840.1.113883.4.4",
        "value": "21-3259825"
      } ],
      "active": true,
      "type": [ {
        "coding": [ {
          "system": "http://terminology.hl7.org/CodeSystem/organization-type",
          "code": "pay",
          "display": "Payer"
        } ]
      } ],
      "name": "Blue Cross Blue Shield of Texas",
      "telecom": [ {
        "system": "phone",
        "value": "(+1) 972-766-6900"
      } ],
      "address": [ {
        "use": "billing",
        "type": "postal",
        "line": [ "P.O. Box 660044" ],
        "city": "Dallas",
        "state": "TX",
        "postalCode": "75266-0044",
        "country": "USA"
      } ]
    },
    "request": {
      "method": "PUT",
      "url": "Organization/3e142f6e-8f7d-4b6a-8eb4-5d119ed53521"
    }
  }, {
    "fullUrl": "https://madie.cms.gov/MeasureReport/d6fa2d8e-efe1-45bf-b2d9-3cf3fce3c5c4",
    "resource": {
      "resourceType": "MeasureReport",
      "id": "d6fa2d8e-efe1-45bf-b2d9-3cf3fce3c5c4",
      "meta": {
        "profile": [ "http://hl7.org/fhir/us/cqfmeasures/StructureDefinition/test-case-cqfm" ]
      },
      "contained": [ {
        "resourceType": "Parameters",
        "id": "a6f9cac7-5050-4483-8b2e-013e83fd0e4a-parameters",
        "parameter": [ {
          "name": "subject",
          "valueString": "9f4bc5cc-b5a4-4d67-a11f-9f171b62fd9f"
        } ]
      } ],
      "extension": [ {
        "url": "http://hl7.org/fhir/StructureDefinition/cqf-inputParameters",
        "valueReference": {
          "reference": "#a6f9cac7-5050-4483-8b2e-013e83fd0e4a-parameters"
        }
      }, {
        "url": "http://hl7.org/fhir/us/cqfmeasures/StructureDefinition/cqfm-testCaseDescription",
        "valueMarkdown": "Thrombolytic therapy diagnosis documented as given before IP start.\n"
      } ],
      "modifierExtension": [ {
        "url": "http://hl7.org/fhir/us/cqfmeasures/StructureDefinition/cqfm-isTestCase",
        "valueBoolean": true
      } ],
      "status": "complete",
      "type": "individual",
      "measure": "https://madie.cms.gov/Measure/CMS72FHIRSTKAntithromboticDay2",
      "period": {
        "start": "2026-01-01",
        "end": "2026-12-31"
      },
      "group": [ {
        "id": "Group_1",
        "population": [ {
          "id": "InitialPopulation_1",
          "code": {
            "coding": [ {
              "system": "http://terminology.hl7.org/CodeSystem/measure-population",
              "code": "initial-population",
              "display": "Initial Population"
            } ]
          },
          "count": 1
        }, {
          "id": "Denominator_1",
          "code": {
            "coding": [ {
              "system": "http://terminology.hl7.org/CodeSystem/measure-population",
              "code": "denominator",
              "display": "Denominator"
            } ]
          },
          "count": 1
        }, {
          "id": "DenominatorExclusion_1",
          "code": {
            "coding": [ {
              "system": "http://terminology.hl7.org/CodeSystem/measure-population",
              "code": "denominator-exclusion",
              "display": "Denominator Exclusion"
            } ]
          },
          "count": 0
        }, {
          "id": "Numerator_1",
          "code": {
            "coding": [ {
              "system": "http://terminology.hl7.org/CodeSystem/measure-population",
              "code": "numerator",
              "display": "Numerator"
            } ]
          },
          "count": 0
        }, {
          "id": "DenominatorException_1",
          "code": {
            "coding": [ {
              "system": "http://terminology.hl7.org/CodeSystem/measure-population",
              "code": "denominator-exception",
              "display": "Denominator Exception"
            } ]
          },
          "count": 0
        } ],
        "measureScore": {
          "value": 0.0
        }
      } ],
      "evaluatedResource": [ {
        "reference": "Patient/9f4bc5cc-b5a4-4d67-a11f-9f171b62fd9f"
      }, {
        "reference": "Condition/2c496d05-f438-46bb-8472-97b902b96ea5"
      }, {
        "reference": "Encounter/c7243a27-90cd-4f23-b430-73735121e665"
      }, {
        "reference": "Coverage/d00e563b-6632-41c8-8e8c-e1774b83de5a"
      }, {
        "reference": "Condition/07ff8fc5-3c60-407c-83ff-aee00a9b06d8"
      }, {
        "reference": "Claim/5ca62962b8484628b8de1ec5"
      }, {
        "reference": "Organization/3e142f6e-8f7d-4b6a-8eb4-5d119ed53521"
      } ]
    },
    "request": {
      "method": "PUT",
      "url": "MeasureReport/d6fa2d8e-efe1-45bf-b2d9-3cf3fce3c5c4"
    }
  } ]
}