{
  "resourceType": "Bundle",
  "id": "6359776b6aee9629c8298235",
  "type": "transaction",
  "entry": [ {
    "fullUrl": "https://madie.cms.gov/Patient/e53da87f-22c3-4c04-919c-31d136a49e83",
    "resource": {
      "resourceType": "Patient",
      "id": "e53da87f-22c3-4c04-919c-31d136a49e83",
      "meta": {
        "profile": [ "http://hl7.org/fhir/us/qicore/StructureDefinition/qicore-patient" ]
      },
      "text": {
        "status": "generated",
        "div": "<div xmlns=\"http://www.w3.org/1999/xhtml\"><div class=\"hapiHeaderText\">RISKWBCRsltDtTimeEQDelStart <b>RISKFail </b></div><table class=\"hapiPropertyTable\"><tbody><tr><td>Date of birth</td><td><span>01 February 2004</span></td></tr></tbody></table></div>"
      },
      "extension": [ {
        "url": "http://hl7.org/fhir/us/core/StructureDefinition/us-core-race",
        "extension": [ {
          "url": "ombCategory",
          "valueCoding": {
            "system": "urn:oid:2.16.840.1.113883.6.238",
            "code": "1002-5",
            "display": "American Indian or Alaska Native",
            "userSelected": true
          }
        }, {
          "url": "text",
          "valueString": "American Indian or Alaska Native"
        } ]
      }, {
        "url": "http://hl7.org/fhir/us/core/StructureDefinition/us-core-ethnicity",
        "extension": [ {
          "url": "ombCategory",
          "valueCoding": {
            "system": "urn:oid:2.16.840.1.113883.6.238",
            "code": "2135-2",
            "display": "Hispanic or Latino",
            "userSelected": true
          }
        }, {
          "url": "text",
          "valueString": "Hispanic or Latino"
        } ]
      } ],
      "identifier": [ {
        "type": {
          "coding": [ {
            "system": "http://terminology.hl7.org/CodeSystem/v2-0203",
            "code": "MR"
          } ]
        },
        "system": "https://bonnie-fhir.healthit.gov/",
        "value": "6359776b6aee9629c8298235"
      } ],
      "active": true,
      "name": [ {
        "use": "usual",
        "family": "RiskFail",
        "given": [ "RISKWBCRsltDtTimeEQDelStart" ]
      } ],
      "gender": "female",
      "birthDate": "2005-02-01"
    },
    "request": {
      "method": "PUT",
      "url": "Patient/e53da87f-22c3-4c04-919c-31d136a49e83"
    }
  }, {
    "fullUrl": "https://madie.cms.gov/Observation/649c5a8e-752b-44eb-92cd-42accfbb84f2",
    "resource": {
      "resourceType": "Observation",
      "id": "649c5a8e-752b-44eb-92cd-42accfbb84f2",
      "meta": {
        "profile": [ "http://hl7.org/fhir/us/qicore/StructureDefinition/qicore-simple-observation" ]
      },
      "status": "final",
      "category": [ {
        "coding": [ {
          "system": "http://terminology.hl7.org/CodeSystem/observation-category",
          "code": "exam",
          "display": "exam",
          "userSelected": true
        } ]
      } ],
      "code": {
        "coding": [ {
          "system": "http://loinc.org",
          "code": "93857-1"
        } ]
      },
      "subject": {
        "reference": "Patient/e53da87f-22c3-4c04-919c-31d136a49e83"
      },
      "effectiveDateTime": "2026-02-01T08:00:00Z",
      "valueDateTime": "2026-02-01T08:00:00Z"
    },
    "request": {
      "method": "PUT",
      "url": "Observation/649c5a8e-752b-44eb-92cd-42accfbb84f2"
    }
  }, {
    "fullUrl": "https://madie.cms.gov/Observation/915dd695-34e3-4663-bab7-254fc87728c8",
    "resource": {
      "resourceType": "Observation",
      "id": "915dd695-34e3-4663-bab7-254fc87728c8",
      "meta": {
        "profile": [ "http://hl7.org/fhir/us/qicore/StructureDefinition/qicore-simple-observation" ]
      },
      "status": "final",
      "category": [ {
        "coding": [ {
          "system": "http://terminology.hl7.org/CodeSystem/observation-category",
          "code": "exam",
          "display": "exam",
          "userSelected": true
        } ]
      } ],
      "code": {
        "coding": [ {
          "system": "http://loinc.org",
          "code": "11884-4"
        } ]
      },
      "subject": {
        "reference": "Patient/e53da87f-22c3-4c04-919c-31d136a49e83"
      },
      "effectiveDateTime": "2026-02-01T08:00:00Z",
      "valueQuantity": {
        "value": 21,
        "system": "http://unitsofmeasure.org",
        "code": "wk"
      }
    },
    "request": {
      "method": "PUT",
      "url": "Observation/915dd695-34e3-4663-bab7-254fc87728c8"
    }
  }, {
    "fullUrl": "https://madie.cms.gov/Encounter/8ea30db5-ad2d-4553-a320-a0bedf6fed42",
    "resource": {
      "resourceType": "Encounter",
      "id": "8ea30db5-ad2d-4553-a320-a0bedf6fed42",
      "meta": {
        "profile": [ "http://hl7.org/fhir/us/qicore/StructureDefinition/qicore-encounter" ]
      },
      "status": "finished",
      "class": {
        "system": "http://terminology.hl7.org/CodeSystem/v3-ActCode",
        "code": "IMP",
        "display": "inpatient encounter"
      },
      "type": [ {
        "coding": [ {
          "system": "http://snomed.info/sct",
          "code": "183452005"
        } ]
      } ],
      "subject": {
        "reference": "Patient/e53da87f-22c3-4c04-919c-31d136a49e83"
      },
      "period": {
        "start": "2026-02-01T08:00:00Z",
        "end": "2026-02-05T08:15:00Z"
      }
    },
    "request": {
      "method": "PUT",
      "url": "Encounter/8ea30db5-ad2d-4553-a320-a0bedf6fed42"
    }
  }, {
    "fullUrl": "https://madie.cms.gov/Encounter/144f0a0c-0f34-4b3a-8494-e4edce04ebb7",
    "resource": {
      "resourceType": "Encounter",
      "id": "144f0a0c-0f34-4b3a-8494-e4edce04ebb7",
      "meta": {
        "profile": [ "http://hl7.org/fhir/us/qicore/StructureDefinition/qicore-encounter" ]
      },
      "status": "finished",
      "class": {
        "system": "http://terminology.hl7.org/CodeSystem/v3-ActCode",
        "code": "EMER",
        "display": "emergency"
      },
      "type": [ {
        "coding": [ {
          "system": "http://snomed.info/sct",
          "code": "4525004"
        } ]
      } ],
      "subject": {
        "reference": "Patient/e53da87f-22c3-4c04-919c-31d136a49e83"
      },
      "period": {
        "start": "2026-02-01T07:00:00Z",
        "end": "2026-02-01T07:59:00Z"
      }
    },
    "request": {
      "method": "PUT",
      "url": "Encounter/144f0a0c-0f34-4b3a-8494-e4edce04ebb7"
    }
  }, {
    "fullUrl": "https://madie.cms.gov/Procedure/a8e98ff9-dd0a-49ea-b5f8-2022d0a67591",
    "resource": {
      "resourceType": "Procedure",
      "id": "a8e98ff9-dd0a-49ea-b5f8-2022d0a67591",
      "meta": {
        "profile": [ "http://hl7.org/fhir/us/qicore/StructureDefinition/qicore-procedure" ]
      },
      "extension": [ {
        "url": "http://hl7.org/fhir/us/qicore/StructureDefinition/qicore-recorded",
        "valueDateTime": "2026-02-04T13:35:00Z"
      } ],
      "status": "completed",
      "code": {
        "coding": [ {
          "system": "http://snomed.info/sct",
          "code": "10745001"
        } ]
      },
      "subject": {
        "reference": "Patient/e53da87f-22c3-4c04-919c-31d136a49e83"
      },
      "performedPeriod": {
        "start": "2026-02-01T08:00:00Z",
        "end": "2026-02-05T08:15:00Z"
      }
    },
    "request": {
      "method": "PUT",
      "url": "Procedure/a8e98ff9-dd0a-49ea-b5f8-2022d0a67591"
    }
  }, {
    "fullUrl": "https://madie.cms.gov/Observation/eb59d1b9-bd77-4538-9868-496c1ab66b55",
    "resource": {
      "resourceType": "Observation",
      "id": "eb59d1b9-bd77-4538-9868-496c1ab66b55",
      "meta": {
        "profile": [ "http://hl7.org/fhir/us/qicore/StructureDefinition/qicore-observation-lab" ]
      },
      "status": "final",
      "category": [ {
        "coding": [ {
          "system": "http://terminology.hl7.org/CodeSystem/observation-category",
          "code": "laboratory",
          "display": "laboratory",
          "userSelected": true
        } ]
      } ],
      "code": {
        "coding": [ {
          "system": "http://loinc.org",
          "version": "2.73",
          "code": "26464-8",
          "display": "Leukocytes [#/volume] in Blood",
          "userSelected": true
        } ]
      },
      "subject": {
        "reference": "Patient/e53da87f-22c3-4c04-919c-31d136a49e83"
      },
      "effectiveDateTime": "2026-02-01T08:00:00Z",
      "issued": "2026-02-01T08:00:00Z",
      "valueQuantity": {
        "value": 20,
        "unit": "10*3/u"
      }
    },
    "request": {
      "method": "PUT",
      "url": "Observation/eb59d1b9-bd77-4538-9868-496c1ab66b55"
    }
  }, {
    "fullUrl": "https://madie.cms.gov/MeasureReport/74bea5de-0299-4be1-ae7d-a47b3b53cb48",
    "resource": {
      "resourceType": "MeasureReport",
      "id": "74bea5de-0299-4be1-ae7d-a47b3b53cb48",
      "meta": {
        "profile": [ "http://hl7.org/fhir/us/cqfmeasures/StructureDefinition/test-case-cqfm" ]
      },
      "contained": [ {
        "resourceType": "Parameters",
        "id": "e4a3c6be-77b8-4509-8a0e-82240a518d2a-parameters",
        "parameter": [ {
          "name": "subject",
          "valueString": "e53da87f-22c3-4c04-919c-31d136a49e83"
        } ]
      } ],
      "extension": [ {
        "url": "http://hl7.org/fhir/StructureDefinition/cqf-inputParameters",
        "valueReference": {
          "reference": "#e4a3c6be-77b8-4509-8a0e-82240a518d2a-parameters"
        }
      }, {
        "url": "http://hl7.org/fhir/us/cqfmeasures/StructureDefinition/cqfm-testCaseDescription",
        "valueMarkdown": "Patient with WBC result date/time = delivery date/time \n"
      } ],
      "modifierExtension": [ {
        "url": "http://hl7.org/fhir/us/cqfmeasures/StructureDefinition/cqfm-isTestCase",
        "valueBoolean": true
      } ],
      "status": "complete",
      "type": "individual",
      "measure": "https://madie.cms.gov/Measure/CMS1028FHIRPCSevereOBComps",
      "period": {
        "start": "2026-01-01",
        "end": "2026-12-31"
      },
      "group": [ {
        "id": "Group_1",
        "population": [ {
          "id": "InitialPopulation_1",
          "code": {
            "coding": [ {
              "system": "http://terminology.hl7.org/CodeSystem/measure-population",
              "code": "initial-population",
              "display": "Initial Population"
            } ]
          },
          "count": 1
        }, {
          "id": "Denominator_1",
          "code": {
            "coding": [ {
              "system": "http://terminology.hl7.org/CodeSystem/measure-population",
              "code": "denominator",
              "display": "Denominator"
            } ]
          },
          "count": 1
        }, {
          "id": "Numerator_1",
          "code": {
            "coding": [ {
              "system": "http://terminology.hl7.org/CodeSystem/measure-population",
              "code": "numerator",
              "display": "Numerator"
            } ]
          },
          "count": 0
        }, {
          "id": "NumeratorExclusion_1",
          "code": {
            "coding": [ {
              "system": "http://terminology.hl7.org/CodeSystem/measure-population",
              "code": "numerator-exclusion",
              "display": "Numerator Exclusion"
            } ]
          },
          "count": 0
        } ],
        "measureScore": {
          "value": 0.0
        }
      }, {
        "id": "Group_2",
        "population": [ {
          "id": "InitialPopulation_2",
          "code": {
            "coding": [ {
              "system": "http://terminology.hl7.org/CodeSystem/measure-population",
              "code": "initial-population",
              "display": "Initial Population"
            } ]
          },
          "count": 1
        }, {
          "id": "Denominator_2",
          "code": {
            "coding": [ {
              "system": "http://terminology.hl7.org/CodeSystem/measure-population",
              "code": "denominator",
              "display": "Denominator"
            } ]
          },
          "count": 1
        }, {
          "id": "Numerator_2",
          "code": {
            "coding": [ {
              "system": "http://terminology.hl7.org/CodeSystem/measure-population",
              "code": "numerator",
              "display": "Numerator"
            } ]
          },
          "count": 0
        }, {
          "id": "NumeratorExclusion_2",
          "code": {
            "coding": [ {
              "system": "http://terminology.hl7.org/CodeSystem/measure-population",
              "code": "numerator-exclusion",
              "display": "Numerator Exclusion"
            } ]
          },
          "count": 0
        } ],
        "measureScore": {
          "value": 0.0
        }
      } ],
      "evaluatedResource": [ {
        "reference": "Patient/e53da87f-22c3-4c04-919c-31d136a49e83"
      }, {
        "reference": "Observation/649c5a8e-752b-44eb-92cd-42accfbb84f2"
      }, {
        "reference": "Observation/915dd695-34e3-4663-bab7-254fc87728c8"
      }, {
        "reference": "Encounter/8ea30db5-ad2d-4553-a320-a0bedf6fed42"
      }, {
        "reference": "Encounter/144f0a0c-0f34-4b3a-8494-e4edce04ebb7"
      }, {
        "reference": "Procedure/a8e98ff9-dd0a-49ea-b5f8-2022d0a67591"
      }, {
        "reference": "Observation/eb59d1b9-bd77-4538-9868-496c1ab66b55"
      } ]
    },
    "request": {
      "method": "PUT",
      "url": "MeasureReport/74bea5de-0299-4be1-ae7d-a47b3b53cb48"
    }
  } ]
}