{"resourceType":"Bundle","id":"tests-09c1988f-cdf0-4598-9731-ab87484c767b-bundle","type":"transaction","entry":[{"fullUrl":"https://madie.cms.gov/Patient/09c1988f-cdf0-4598-9731-ab87484c767b","resource":{"resourceType":"Patient","id":"09c1988f-cdf0-4598-9731-ab87484c767b","meta":{"profile":["http://hl7.org/fhir/us/qicore/StructureDefinition/qicore-patient"]},"text":{"status":"generated","div":"<div xmlns=\"http://www.w3.org/1999/xhtml\"><div class=\"hapiHeaderText\">LabTestTooYoung <b>NUMERFAIL </b></div><table class=\"hapiPropertyTable\"><tbody><tr><td>Identifier</td><td>3a3b648e0cc14e200f2d48b72852219e3b95e5787df1549ba35aedfebdf90868</td></tr><tr><td>Date of birth</td><td><span>31 July 1994</span></td></tr></tbody></table></div>"},"extension":[{"url":"http://hl7.org/fhir/us/core/StructureDefinition/us-core-race","extension":[{"url":"ombCategory","valueCoding":{"system":"urn:oid:2.16.840.1.113883.6.238","code":"2106-3","display":"White","userSelected":true}},{"url":"text","valueString":"White"}]},{"url":"http://hl7.org/fhir/us/core/StructureDefinition/us-core-ethnicity","extension":[{"url":"ombCategory","valueCoding":{"system":"urn:oid:2.16.840.1.113883.6.238","code":"2186-5","display":"Not Hispanic or Latino","userSelected":true}},{"url":"text","valueString":"Not Hispanic or Latino"}]}],"identifier":[{"type":{"coding":[{"system":"http://terminology.hl7.org/CodeSystem/v2-0203","code":"MR"}]},"system":"https://bonnie-fhir.healthit.gov/","value":"610965b998086b538055c156"}],"active":true,"name":[{"use":"usual","family":"NUMERFail","given":["LabTestTooYoung"]}],"gender":"female","birthDate":"2003-07-31"},"request":{"method":"PUT","url":"Patient/09c1988f-cdf0-4598-9731-ab87484c767b"}},{"fullUrl":"https://madie.cms.gov/Encounter/9eae771f-756c-4258-98c9-7d0c7ff7360c","resource":{"resourceType":"Encounter","id":"9eae771f-756c-4258-98c9-7d0c7ff7360c","meta":{"profile":["http://hl7.org/fhir/us/qicore/StructureDefinition/qicore-encounter"]},"status":"finished","class":{"system":"http://terminology.hl7.org/CodeSystem/v3-ActCode","code":"AMB","display":"ambulatory","userSelected":true},"type":[{"coding":[{"system":"http://www.ama-assn.org/go/cpt","code":"99391"}]}],"subject":{"reference":"Patient/09c1988f-cdf0-4598-9731-ab87484c767b"},"period":{"start":"2025-02-06T08:00:00.000+00:00","end":"2025-02-06T08:15:00.000+00:00"}},"request":{"method":"PUT","url":"Encounter/9eae771f-756c-4258-98c9-7d0c7ff7360c"}},{"fullUrl":"https://madie.cms.gov/Observation/11063e1e-f6df-4df5-b7f3-e7a5a07cc879","resource":{"resourceType":"Observation","id":"11063e1e-f6df-4df5-b7f3-e7a5a07cc879","meta":{"profile":["http://hl7.org/fhir/us/qicore/StructureDefinition/qicore-observation"]},"status":"final","category":[{"coding":[{"system":"http://terminology.hl7.org/CodeSystem/observation-category","code":"laboratory","display":"Laboratory","userSelected":true}]}],"code":{"coding":[{"system":"http://loinc.org","code":"10901-7"}]},"subject":{"reference":"Patient/09c1988f-cdf0-4598-9731-ab87484c767b"},"effectiveDateTime":"2010-07-30T23:59:00.000+00:00","valueBoolean":true},"request":{"method":"PUT","url":"Observation/11063e1e-f6df-4df5-b7f3-e7a5a07cc879"}},{"fullUrl":"https://madie.cms.gov/MeasureReport/e29bde81-34ed-463f-92ce-aa5fec1d0b88","resource":{"resourceType":"MeasureReport","id":"e29bde81-34ed-463f-92ce-aa5fec1d0b88","meta":{"profile":["http://hl7.org/fhir/us/cqfmeasures/StructureDefinition/test-case-cqfm"]},"contained":[{"resourceType":"Parameters","id":"feace900-6c0f-4932-a337-f45af2be1039-parameters","parameter":[{"name":"subject","valueString":"09c1988f-cdf0-4598-9731-ab87484c767b"}]}],"extension":[{"url":"http://hl7.org/fhir/us/cqfmeasures/StructureDefinition/cqfm-inputParameters","valueReference":{"reference":"#feace900-6c0f-4932-a337-f45af2be1039-parameters"}},{"url":"http://hl7.org/fhir/us/cqfmeasures/StructureDefinition/cqfm-testCaseDescription","valueMarkdown":"Patient 20 at start of MP, qual encounter during MP, lab test under 15"}],"modifierExtension":[{"url":"http://hl7.org/fhir/us/cqfmeasures/StructureDefinition/cqfm-isTestCase","valueBoolean":true}],"status":"complete","type":"individual","measure":"https://madie.cms.gov/Measure/HIVScreeningFHIR","period":{"start":"2025-01-01","end":"2025-12-31"},"group":[{"population":[{"code":{"coding":[{"system":"http://terminology.hl7.org/CodeSystem/measure-population","code":"initial-population","display":"Initial Population"}]},"count":1},{"code":{"coding":[{"system":"http://terminology.hl7.org/CodeSystem/measure-population","code":"denominator","display":"Denominator"}]},"count":1},{"code":{"coding":[{"system":"http://terminology.hl7.org/CodeSystem/measure-population","code":"denominator-exclusion","display":"Denominator Exclusion"}]},"count":0},{"code":{"coding":[{"system":"http://terminology.hl7.org/CodeSystem/measure-population","code":"numerator","display":"Numerator"}]},"count":0}]}],"evaluatedResource":[{"reference":"Patient/09c1988f-cdf0-4598-9731-ab87484c767b"},{"reference":"Encounter/9eae771f-756c-4258-98c9-7d0c7ff7360c"},{"reference":"Observation/11063e1e-f6df-4df5-b7f3-e7a5a07cc879"}]},"request":{"method":"PUT","url":"MeasureReport/e29bde81-34ed-463f-92ce-aa5fec1d0b88"}}]}