{
  "resourceType": "Bundle",
  "id": "2ScreNotatriAtriRefAsseModNodxNoCp",
  "type": "transaction",
  "entry": [ {
    "fullUrl": "https://madie.cms.gov/Patient/4e1967c5-7fe0-4920-97aa-28d02e117c31",
    "resource": {
      "resourceType": "Patient",
      "id": "4e1967c5-7fe0-4920-97aa-28d02e117c31",
      "meta": {
        "profile": [ "http://hl7.org/fhir/us/qicore/StructureDefinition/qicore-patient" ]
      },
      "extension": [ {
        "url": "http://hl7.org/fhir/us/core/StructureDefinition/us-core-race",
        "extension": [ {
          "url": "ombCategory",
          "valueCoding": {
            "system": "urn:oid:2.16.840.1.113883.6.238",
            "code": "2076-8",
            "display": "Native Hawaiian or Other Pacific Islander",
            "userSelected": true
          }
        }, {
          "url": "text",
          "valueString": "Native Hawaiian or Other Pacific Islander"
        } ]
      }, {
        "url": "http://hl7.org/fhir/us/core/StructureDefinition/us-core-ethnicity",
        "extension": [ {
          "url": "ombCategory",
          "valueCoding": {
            "system": "urn:oid:2.16.840.1.113883.6.238",
            "code": "2186-5",
            "display": "Not Hispanic or Latino",
            "userSelected": true
          }
        }, {
          "url": "text",
          "valueString": "Not Hispanic or Latino"
        } ]
      }, {
        "url": "http://hl7.org/fhir/us/core/StructureDefinition/us-core-sex",
        "valueCode": "248153007"
      } ],
      "identifier": [ {
        "type": {
          "coding": [ {
            "system": "http://terminology.hl7.org/CodeSystem/v2-0203",
            "code": "MR"
          } ]
        },
        "system": "https://madie.cms.gov/",
        "value": "2ScreNotatriAtriRefAsseModNodxNoCp"
      } ],
      "active": true,
      "name": [ {
        "use": "usual",
        "text": "2ScreNotatriAtriRefAsseModNodxNoCp",
        "family": "MSROBSPass4",
        "given": [ "2ScreNotatriAtriRefAsseModNodxNoCp" ]
      } ],
      "gender": "male",
      "birthDate": "1953-01-01",
      "address": [ {
        "text": "2ScreNotatriAtriRefAsseModNodxNoCp, Screened Not at risk Assessed Severely Malnourished Diagnosed Care Plan, ID=2ScreNotatriAtriRefAsseModNodxNoCp, DOB: 01 Jan 1953"
      } ]
    },
    "request": {
      "method": "PUT",
      "url": "Patient/4e1967c5-7fe0-4920-97aa-28d02e117c31"
    }
  }, {
    "fullUrl": "https://madie.cms.gov/Encounter/1df7b491-f659-43dc-8de5-bc1b077d8fb1",
    "resource": {
      "resourceType": "Encounter",
      "id": "1df7b491-f659-43dc-8de5-bc1b077d8fb1",
      "meta": {
        "profile": [ "http://hl7.org/fhir/us/qicore/StructureDefinition/qicore-encounter" ]
      },
      "status": "finished",
      "class": {
        "system": "http://terminology.hl7.org/CodeSystem/v3-ActCode",
        "code": "IMP",
        "display": "inpatient encounter"
      },
      "type": [ {
        "coding": [ {
          "system": "http://snomed.info/sct",
          "code": "8715000"
        } ]
      } ],
      "subject": {
        "reference": "Patient/4e1967c5-7fe0-4920-97aa-28d02e117c31"
      },
      "period": {
        "start": "2026-06-01T08:00:00.000+00:00",
        "end": "2026-06-11T08:15:00.000+00:00"
      }
    },
    "request": {
      "method": "PUT",
      "url": "Encounter/1df7b491-f659-43dc-8de5-bc1b077d8fb1"
    }
  }, {
    "fullUrl": "https://madie.cms.gov/Observation/e6c9e5ee-6ea1-455f-8711-7c0e944cc194",
    "resource": {
      "resourceType": "Observation",
      "id": "e6c9e5ee-6ea1-455f-8711-7c0e944cc194",
      "meta": {
        "profile": [ "http://hl7.org/fhir/us/qicore/StructureDefinition/qicore-observation-screening-assessment" ]
      },
      "status": "final",
      "category": [ {
        "coding": [ {
          "system": "http://terminology.hl7.org/CodeSystem/observation-category",
          "code": "survey",
          "display": "Survey"
        } ]
      } ],
      "code": {
        "coding": [ {
          "system": "http://loinc.org",
          "code": "98968-1",
          "display": "Initial screening NRS_2002",
          "userSelected": true
        } ]
      },
      "subject": {
        "reference": "Patient/4e1967c5-7fe0-4920-97aa-28d02e117c31"
      },
      "effectiveDateTime": "2026-06-06T09:00:00.000+00:00",
      "valueCodeableConcept": {
        "coding": [ {
          "system": "http://loinc.org",
          "code": "LA33699-2",
          "display": "Not at risk for malnutrition",
          "userSelected": true
        } ]
      }
    },
    "request": {
      "method": "PUT",
      "url": "Observation/e6c9e5ee-6ea1-455f-8711-7c0e944cc194"
    }
  }, {
    "fullUrl": "https://madie.cms.gov/Observation/d150db53-07af-40ba-8c40-c10c9e07f46a",
    "resource": {
      "resourceType": "Observation",
      "id": "d150db53-07af-40ba-8c40-c10c9e07f46a",
      "meta": {
        "profile": [ "http://hl7.org/fhir/us/qicore/StructureDefinition/qicore-observation-screening-assessment" ]
      },
      "status": "final",
      "category": [ {
        "coding": [ {
          "system": "http://terminology.hl7.org/CodeSystem/observation-category",
          "code": "survey",
          "display": "Survey"
        } ]
      } ],
      "code": {
        "coding": [ {
          "system": "http://loinc.org",
          "code": "98968-1",
          "display": "Initial screening NRS_2002",
          "userSelected": true
        } ]
      },
      "subject": {
        "reference": "Patient/4e1967c5-7fe0-4920-97aa-28d02e117c31"
      },
      "effectiveDateTime": "2026-06-05T09:00:00.000+00:00",
      "valueCodeableConcept": {
        "coding": [ {
          "system": "http://snomed.info/sct",
          "code": "129689002",
          "display": "At increased risk for nutritional problem (finding)",
          "userSelected": true
        } ]
      }
    },
    "request": {
      "method": "PUT",
      "url": "Observation/d150db53-07af-40ba-8c40-c10c9e07f46a"
    }
  }, {
    "fullUrl": "https://madie.cms.gov/Observation/729f3a05-c5bc-460b-aea1-a3024a6fa7c3",
    "resource": {
      "resourceType": "Observation",
      "id": "729f3a05-c5bc-460b-aea1-a3024a6fa7c3",
      "meta": {
        "profile": [ "http://hl7.org/fhir/us/qicore/StructureDefinition/qicore-observation-screening-assessment" ]
      },
      "status": "final",
      "category": [ {
        "coding": [ {
          "system": "http://terminology.hl7.org/CodeSystem/observation-category",
          "code": "survey",
          "display": "Survey"
        } ]
      } ],
      "code": {
        "coding": [ {
          "system": "http://loinc.org",
          "code": "75282-4",
          "display": "Nutrition assessment panel",
          "userSelected": true
        } ]
      },
      "subject": {
        "reference": "Patient/4e1967c5-7fe0-4920-97aa-28d02e117c31"
      },
      "effectiveDateTime": "2026-06-01T10:00:00.000+00:00",
      "valueCodeableConcept": {
        "coding": [ {
          "system": "http://snomed.info/sct",
          "code": "70241007",
          "display": "Nutritional deficiency disorder (disorder)",
          "userSelected": true
        } ]
      }
    },
    "request": {
      "method": "PUT",
      "url": "Observation/729f3a05-c5bc-460b-aea1-a3024a6fa7c3"
    }
  }, {
    "fullUrl": "https://madie.cms.gov/Procedure/bd2c0586-1ea8-4f6a-9636-24362d533cb2",
    "resource": {
      "resourceType": "Procedure",
      "id": "bd2c0586-1ea8-4f6a-9636-24362d533cb2",
      "meta": {
        "profile": [ "http://hl7.org/fhir/us/qicore/StructureDefinition/qicore-procedure" ]
      },
      "extension": [ {
        "url": "http://hl7.org/fhir/us/qicore/StructureDefinition/qicore-recorded",
        "valueDateTime": "2026-06-01T11:30:00.000+00:00"
      } ],
      "status": "completed",
      "code": {
        "coding": [ {
          "system": "http://snomed.info/sct",
          "code": "306165000",
          "display": "Referral to hospital-based dietetics service (procedure)"
        } ],
        "text": "Referral to hospital-based dietetics service (procedure)"
      },
      "subject": {
        "reference": "Patient/4e1967c5-7fe0-4920-97aa-28d02e117c31"
      },
      "encounter": {
        "reference": "Encounter/2ScreNotatriAtriRefAsseModNodxNoCpMSROBSPass4"
      },
      "performedPeriod": {
        "start": "2026-06-01T11:30:00.000+00:00",
        "end": "2026-06-07T08:15:00.000+00:00"
      }
    },
    "request": {
      "method": "PUT",
      "url": "Procedure/bd2c0586-1ea8-4f6a-9636-24362d533cb2"
    }
  }, {
    "fullUrl": "https://madie.cms.gov/Coverage/77862f6a-b1d2-46ca-b7e6-7d1b09e48ba1",
    "resource": {
      "resourceType": "Coverage",
      "id": "77862f6a-b1d2-46ca-b7e6-7d1b09e48ba1",
      "meta": {
        "profile": [ "http://hl7.org/fhir/us/qicore/StructureDefinition/qicore-coverage" ]
      },
      "status": "active",
      "type": {
        "coding": [ {
          "system": "https://nahdo.org/sopt",
          "version": "9.2",
          "code": "11",
          "display": "Medicare Managed Care (Includes Medicare Advantage Plans)"
        } ]
      },
      "subscriberId": "97531",
      "beneficiary": {
        "reference": "Patient/4e1967c5-7fe0-4920-97aa-28d02e117c31"
      },
      "dependent": "0",
      "relationship": {
        "coding": [ {
          "system": "http://terminology.hl7.org/CodeSystem/subscriber-relationship",
          "code": "self"
        } ]
      },
      "period": {
        "start": "2025-10-01T00:00:00.000+00:00"
      },
      "payor": [ {
        "reference": "Organization/63c56c21-0e65-433c-b29f-f53b5fa5b86a"
      } ]
    },
    "request": {
      "method": "PUT",
      "url": "Coverage/77862f6a-b1d2-46ca-b7e6-7d1b09e48ba1"
    }
  }, {
    "fullUrl": "https://madie.cms.gov/Organization/63c56c21-0e65-433c-b29f-f53b5fa5b86a",
    "resource": {
      "resourceType": "Organization",
      "id": "63c56c21-0e65-433c-b29f-f53b5fa5b86a",
      "meta": {
        "profile": [ "http://hl7.org/fhir/us/qicore/StructureDefinition/qicore-organization" ]
      },
      "identifier": [ {
        "use": "temp",
        "system": "urn:oid:2.16.840.1.113883.4.4",
        "value": "21-3259825"
      } ],
      "active": true,
      "type": [ {
        "coding": [ {
          "system": "http://terminology.hl7.org/CodeSystem/organization-type",
          "code": "pay",
          "display": "Payer"
        } ]
      } ],
      "name": "Blue Cross Blue Shield of Texas",
      "telecom": [ {
        "system": "phone",
        "value": "(+1) 972-766-6900"
      } ],
      "address": [ {
        "use": "billing",
        "type": "postal",
        "line": [ "P.O. Box 660044" ],
        "city": "Dallas",
        "state": "TX",
        "postalCode": "75266-0044",
        "country": "USA"
      } ]
    },
    "request": {
      "method": "PUT",
      "url": "Organization/63c56c21-0e65-433c-b29f-f53b5fa5b86a"
    }
  }, {
    "fullUrl": "https://madie.cms.gov/MeasureReport/b5ea8480-4fd1-4fa5-8289-8de6ac4f4a64",
    "resource": {
      "resourceType": "MeasureReport",
      "id": "b5ea8480-4fd1-4fa5-8289-8de6ac4f4a64",
      "meta": {
        "profile": [ "http://hl7.org/fhir/us/cqfmeasures/StructureDefinition/test-case-cqfm" ]
      },
      "contained": [ {
        "resourceType": "Parameters",
        "id": "a6bfac40-9c61-4949-b930-55f256cff042-parameters",
        "parameter": [ {
          "name": "subject",
          "valueString": "4e1967c5-7fe0-4920-97aa-28d02e117c31"
        } ]
      } ],
      "extension": [ {
        "url": "http://hl7.org/fhir/StructureDefinition/cqf-inputParameters",
        "valueReference": {
          "reference": "#a6bfac40-9c61-4949-b930-55f256cff042-parameters"
        }
      }, {
        "url": "http://hl7.org/fhir/us/cqfmeasures/StructureDefinition/cqfm-testCaseDescription",
        "valueMarkdown": "Screened, At Risk, then Not at Risk,Referral, Assessed, Moderately Malnourished, No Diagnosis, No Nutrition Care Plan  all in same encounter"
      } ],
      "modifierExtension": [ {
        "url": "http://hl7.org/fhir/us/cqfmeasures/StructureDefinition/cqfm-isTestCase",
        "valueBoolean": true
      } ],
      "status": "complete",
      "type": "individual",
      "measure": "https://madie.cms.gov/Measure/CMS986FHIRMalnutritionScore",
      "period": {
        "start": "2026-01-01",
        "end": "2026-12-31"
      },
      "group": [ {
        "id": "Group_1",
        "population": [ {
          "id": "InitialPopulation_1",
          "code": {
            "coding": [ {
              "system": "http://terminology.hl7.org/CodeSystem/measure-population",
              "code": "initial-population",
              "display": "Initial Population"
            } ]
          },
          "count": 1
        }, {
          "id": "MeasurePopulation_1",
          "code": {
            "coding": [ {
              "system": "http://terminology.hl7.org/CodeSystem/measure-population",
              "code": "measure-population",
              "display": "Measure Population"
            } ]
          },
          "count": 1
        }, {
          "id": "MeasurePopulationExclusion_1",
          "code": {
            "coding": [ {
              "system": "http://terminology.hl7.org/CodeSystem/measure-population",
              "code": "measure-population-exclusion",
              "display": "Measure Population Exclusion"
            } ]
          },
          "count": 0
        }, {
          "id": "MeasureObservation_1_1",
          "code": {
            "coding": [ {
              "system": "http://terminology.hl7.org/CodeSystem/measure-population",
              "code": "measure-population-observation",
              "display": "Measure Population Observation"
            } ]
          },
          "count": 1
        } ],
        "measureScore": {
          "value": 0.0
        }
      }, {
        "id": "Group_2",
        "population": [ {
          "id": "InitialPopulation_2",
          "code": {
            "coding": [ {
              "system": "http://terminology.hl7.org/CodeSystem/measure-population",
              "code": "initial-population",
              "display": "Initial Population"
            } ]
          },
          "count": 1
        }, {
          "id": "MeasurePopulation_2",
          "code": {
            "coding": [ {
              "system": "http://terminology.hl7.org/CodeSystem/measure-population",
              "code": "measure-population",
              "display": "Measure Population"
            } ]
          },
          "count": 1
        }, {
          "id": "MeasurePopulationExclusion_2",
          "code": {
            "coding": [ {
              "system": "http://terminology.hl7.org/CodeSystem/measure-population",
              "code": "measure-population-exclusion",
              "display": "Measure Population Exclusion"
            } ]
          },
          "count": 0
        }, {
          "id": "MeasureObservation_2_1",
          "code": {
            "coding": [ {
              "system": "http://terminology.hl7.org/CodeSystem/measure-population",
              "code": "measure-population-observation",
              "display": "Measure Population Observation"
            } ]
          },
          "count": 1
        } ],
        "measureScore": {
          "value": 0.0
        }
      }, {
        "id": "Group_3",
        "population": [ {
          "id": "InitialPopulation_3",
          "code": {
            "coding": [ {
              "system": "http://terminology.hl7.org/CodeSystem/measure-population",
              "code": "initial-population",
              "display": "Initial Population"
            } ]
          },
          "count": 1
        }, {
          "id": "MeasurePopulation_3",
          "code": {
            "coding": [ {
              "system": "http://terminology.hl7.org/CodeSystem/measure-population",
              "code": "measure-population",
              "display": "Measure Population"
            } ]
          },
          "count": 1
        }, {
          "id": "MeasurePopulationExclusion_3",
          "code": {
            "coding": [ {
              "system": "http://terminology.hl7.org/CodeSystem/measure-population",
              "code": "measure-population-exclusion",
              "display": "Measure Population Exclusion"
            } ]
          },
          "count": 0
        }, {
          "id": "MeasureObservation_3_1",
          "code": {
            "coding": [ {
              "system": "http://terminology.hl7.org/CodeSystem/measure-population",
              "code": "measure-population-observation",
              "display": "Measure Population Observation"
            } ]
          },
          "count": 0
        } ],
        "measureScore": {
          "value": 0.0
        }
      }, {
        "id": "Group_4",
        "population": [ {
          "id": "InitialPopulation_4",
          "code": {
            "coding": [ {
              "system": "http://terminology.hl7.org/CodeSystem/measure-population",
              "code": "initial-population",
              "display": "Initial Population"
            } ]
          },
          "count": 1
        }, {
          "id": "MeasurePopulation_4",
          "code": {
            "coding": [ {
              "system": "http://terminology.hl7.org/CodeSystem/measure-population",
              "code": "measure-population",
              "display": "Measure Population"
            } ]
          },
          "count": 1
        }, {
          "id": "MeasurePopulationExclusion_4",
          "code": {
            "coding": [ {
              "system": "http://terminology.hl7.org/CodeSystem/measure-population",
              "code": "measure-population-exclusion",
              "display": "Measure Population Exclusion"
            } ]
          },
          "count": 0
        }, {
          "id": "MeasureObservation_4_1",
          "code": {
            "coding": [ {
              "system": "http://terminology.hl7.org/CodeSystem/measure-population",
              "code": "measure-population-observation",
              "display": "Measure Population Observation"
            } ]
          },
          "count": 0
        } ],
        "measureScore": {
          "value": 0.0
        }
      }, {
        "id": "Group_5",
        "population": [ {
          "id": "InitialPopulation_5",
          "code": {
            "coding": [ {
              "system": "http://terminology.hl7.org/CodeSystem/measure-population",
              "code": "initial-population",
              "display": "Initial Population"
            } ]
          },
          "count": 1
        }, {
          "id": "MeasurePopulation_5",
          "code": {
            "coding": [ {
              "system": "http://terminology.hl7.org/CodeSystem/measure-population",
              "code": "measure-population",
              "display": "Measure Population"
            } ]
          },
          "count": 1
        }, {
          "id": "MeasurePopulationExclusion_5",
          "code": {
            "coding": [ {
              "system": "http://terminology.hl7.org/CodeSystem/measure-population",
              "code": "measure-population-exclusion",
              "display": "Measure Population Exclusion"
            } ]
          },
          "count": 0
        }, {
          "id": "MeasureObservation_5_1",
          "code": {
            "coding": [ {
              "system": "http://terminology.hl7.org/CodeSystem/measure-population",
              "code": "measure-population-observation",
              "display": "Measure Population Observation"
            } ]
          },
          "count": 2
        } ],
        "measureScore": {
          "value": 0.0
        }
      }, {
        "id": "Group_6",
        "population": [ {
          "id": "InitialPopulation_6",
          "code": {
            "coding": [ {
              "system": "http://terminology.hl7.org/CodeSystem/measure-population",
              "code": "initial-population",
              "display": "Initial Population"
            } ]
          },
          "count": 1
        }, {
          "id": "MeasurePopulation_6",
          "code": {
            "coding": [ {
              "system": "http://terminology.hl7.org/CodeSystem/measure-population",
              "code": "measure-population",
              "display": "Measure Population"
            } ]
          },
          "count": 1
        }, {
          "id": "MeasurePopulationExclusion_6",
          "code": {
            "coding": [ {
              "system": "http://terminology.hl7.org/CodeSystem/measure-population",
              "code": "measure-population-exclusion",
              "display": "Measure Population Exclusion"
            } ]
          },
          "count": 0
        }, {
          "id": "MeasureObservation_6_1",
          "code": {
            "coding": [ {
              "system": "http://terminology.hl7.org/CodeSystem/measure-population",
              "code": "measure-population-observation",
              "display": "Measure Population Observation"
            } ]
          },
          "count": 50
        } ],
        "measureScore": {
          "value": 0.0
        }
      } ],
      "evaluatedResource": [ {
        "reference": "Patient/4e1967c5-7fe0-4920-97aa-28d02e117c31"
      }, {
        "reference": "Encounter/1df7b491-f659-43dc-8de5-bc1b077d8fb1"
      }, {
        "reference": "Observation/e6c9e5ee-6ea1-455f-8711-7c0e944cc194"
      }, {
        "reference": "Observation/d150db53-07af-40ba-8c40-c10c9e07f46a"
      }, {
        "reference": "Observation/729f3a05-c5bc-460b-aea1-a3024a6fa7c3"
      }, {
        "reference": "Procedure/bd2c0586-1ea8-4f6a-9636-24362d533cb2"
      }, {
        "reference": "Coverage/77862f6a-b1d2-46ca-b7e6-7d1b09e48ba1"
      }, {
        "reference": "Organization/63c56c21-0e65-433c-b29f-f53b5fa5b86a"
      } ]
    },
    "request": {
      "method": "PUT",
      "url": "MeasureReport/b5ea8480-4fd1-4fa5-8289-8de6ac4f4a64"
    }
  } ]
}