{
  "resourceType": "Bundle",
  "id": "ScreAtriRefAsseNotmNodxCp",
  "type": "transaction",
  "entry": [ {
    "fullUrl": "https://madie.cms.gov/Patient/cf475a5c-e979-46c8-a596-8671d8a7acc5",
    "resource": {
      "resourceType": "Patient",
      "id": "cf475a5c-e979-46c8-a596-8671d8a7acc5",
      "meta": {
        "profile": [ "http://hl7.org/fhir/us/qicore/StructureDefinition/qicore-patient" ]
      },
      "extension": [ {
        "url": "http://hl7.org/fhir/us/core/StructureDefinition/us-core-race",
        "extension": [ {
          "url": "ombCategory",
          "valueCoding": {
            "system": "urn:oid:2.16.840.1.113883.6.238",
            "code": "2028-9",
            "display": "Asian",
            "userSelected": true
          }
        }, {
          "url": "text",
          "valueString": "Asian"
        } ]
      }, {
        "url": "http://hl7.org/fhir/us/core/StructureDefinition/us-core-ethnicity",
        "extension": [ {
          "url": "ombCategory",
          "valueCoding": {
            "system": "urn:oid:2.16.840.1.113883.6.238",
            "code": "2186-5",
            "display": "Not Hispanic or Latino",
            "userSelected": true
          }
        }, {
          "url": "text",
          "valueString": "Not Hispanic or Latino"
        } ]
      }, {
        "url": "http://hl7.org/fhir/us/core/StructureDefinition/us-core-sex",
        "valueCode": "248152002"
      } ],
      "identifier": [ {
        "type": {
          "coding": [ {
            "system": "http://terminology.hl7.org/CodeSystem/v2-0203",
            "code": "MR"
          } ]
        },
        "system": "https://madie.cms.gov/",
        "value": "ScreAtriRefAsseNotmNodxCp"
      } ],
      "active": true,
      "name": [ {
        "use": "usual",
        "text": "ScreAtriRefAsseNotmNodxCp",
        "family": "MSROBSPass2",
        "given": [ "ScreAtriRefAsseNotmNodxCp" ]
      } ],
      "gender": "female",
      "birthDate": "1955-01-01",
      "address": [ {
        "text": "ScreAtriRefAsseNotmNodxCp, Screened Not at risk Assessed Severely Malnourished Diagnosed Care Plan, ID=ScreAtriRefAsseNotmNodxCp, DOB: 01 Jan 1955"
      } ]
    },
    "request": {
      "method": "PUT",
      "url": "Patient/cf475a5c-e979-46c8-a596-8671d8a7acc5"
    }
  }, {
    "fullUrl": "https://madie.cms.gov/Encounter/80fd433a-fff3-4751-a40e-903e2a1a0109",
    "resource": {
      "resourceType": "Encounter",
      "id": "80fd433a-fff3-4751-a40e-903e2a1a0109",
      "meta": {
        "profile": [ "http://hl7.org/fhir/us/qicore/StructureDefinition/qicore-encounter" ]
      },
      "status": "finished",
      "class": {
        "system": "http://terminology.hl7.org/CodeSystem/v3-ActCode",
        "code": "IMP",
        "display": "inpatient encounter"
      },
      "type": [ {
        "coding": [ {
          "system": "http://snomed.info/sct",
          "code": "32485007"
        } ]
      } ],
      "subject": {
        "reference": "Patient/cf475a5c-e979-46c8-a596-8671d8a7acc5"
      },
      "period": {
        "start": "2026-07-01T08:00:00.000+00:00",
        "end": "2026-07-11T08:15:00.000+00:00"
      }
    },
    "request": {
      "method": "PUT",
      "url": "Encounter/80fd433a-fff3-4751-a40e-903e2a1a0109"
    }
  }, {
    "fullUrl": "https://madie.cms.gov/Condition/7f202e19-e284-40c2-9b5e-d4a67963ff50",
    "resource": {
      "resourceType": "Condition",
      "id": "7f202e19-e284-40c2-9b5e-d4a67963ff50",
      "meta": {
        "profile": [ "http://hl7.org/fhir/us/qicore/StructureDefinition/qicore-condition-encounter-diagnosis" ]
      },
      "clinicalStatus": {
        "coding": [ {
          "system": "http://terminology.hl7.org/CodeSystem/condition-clinical",
          "code": "active",
          "display": "Active",
          "userSelected": true
        } ]
      },
      "verificationStatus": {
        "coding": [ {
          "system": "http://terminology.hl7.org/CodeSystem/condition-ver-status",
          "code": "confirmed",
          "display": "Confirmed",
          "userSelected": true
        } ]
      },
      "category": [ {
        "coding": [ {
          "system": "http://terminology.hl7.org/CodeSystem/condition-category",
          "code": "encounter-diagnosis",
          "display": "Encounter Diagnosis",
          "userSelected": true
        } ]
      } ],
      "code": {
        "coding": [ {
          "system": "http://hl7.org/fhir/sid/icd-10-cm",
          "code": "M62.84",
          "display": "Sarcopenia",
          "userSelected": true
        } ]
      },
      "subject": {
        "reference": "Patient/cf475a5c-e979-46c8-a596-8671d8a7acc5"
      },
      "onsetPeriod": {
        "start": "2026-07-01T08:00:00.000+00:00"
      },
      "recordedDate": "2026-07-01T11:00:00.000+00:00"
    },
    "request": {
      "method": "PUT",
      "url": "Condition/7f202e19-e284-40c2-9b5e-d4a67963ff50"
    }
  }, {
    "fullUrl": "https://madie.cms.gov/Observation/98a31191-286a-4280-a3f7-c27d72d82c4d",
    "resource": {
      "resourceType": "Observation",
      "id": "98a31191-286a-4280-a3f7-c27d72d82c4d",
      "meta": {
        "profile": [ "http://hl7.org/fhir/us/qicore/StructureDefinition/qicore-observation-screening-assessment" ]
      },
      "status": "final",
      "category": [ {
        "coding": [ {
          "system": "http://terminology.hl7.org/CodeSystem/observation-category",
          "code": "survey",
          "display": "Survey"
        } ]
      } ],
      "code": {
        "coding": [ {
          "system": "http://loinc.org",
          "code": "101807-6",
          "display": "Malnutrition risk screen results indicator",
          "userSelected": true
        } ]
      },
      "subject": {
        "reference": "Patient/cf475a5c-e979-46c8-a596-8671d8a7acc5"
      },
      "effectiveDateTime": "2026-07-02T09:00:00.000+00:00",
      "valueCodeableConcept": {
        "coding": [ {
          "system": "http://loinc.org",
          "code": "LA27538-0",
          "display": "At risk for malnutrition",
          "userSelected": true
        } ]
      }
    },
    "request": {
      "method": "PUT",
      "url": "Observation/98a31191-286a-4280-a3f7-c27d72d82c4d"
    }
  }, {
    "fullUrl": "https://madie.cms.gov/Observation/e94321ea-f706-46d2-b748-1d631229f6d6",
    "resource": {
      "resourceType": "Observation",
      "id": "e94321ea-f706-46d2-b748-1d631229f6d6",
      "meta": {
        "profile": [ "http://hl7.org/fhir/us/qicore/StructureDefinition/qicore-observation-screening-assessment" ]
      },
      "status": "final",
      "category": [ {
        "coding": [ {
          "system": "http://terminology.hl7.org/CodeSystem/observation-category",
          "code": "survey",
          "display": "Survey"
        } ]
      } ],
      "code": {
        "coding": [ {
          "system": "http://loinc.org",
          "code": "101819-1",
          "display": "Nutritional assessment for malnutrition status",
          "userSelected": true
        } ]
      },
      "subject": {
        "reference": "Patient/cf475a5c-e979-46c8-a596-8671d8a7acc5"
      },
      "effectiveDateTime": "2026-07-02T10:00:00.000+00:00",
      "valueCodeableConcept": {
        "coding": [ {
          "system": "http://loinc.org",
          "code": "LA33701-6",
          "display": "Well nourished",
          "userSelected": true
        } ]
      }
    },
    "request": {
      "method": "PUT",
      "url": "Observation/e94321ea-f706-46d2-b748-1d631229f6d6"
    }
  }, {
    "fullUrl": "https://madie.cms.gov/Procedure/1fa12a8c-95d0-4fad-a95d-5ae5de1740f7",
    "resource": {
      "resourceType": "Procedure",
      "id": "1fa12a8c-95d0-4fad-a95d-5ae5de1740f7",
      "meta": {
        "profile": [ "http://hl7.org/fhir/us/qicore/StructureDefinition/qicore-procedure" ]
      },
      "extension": [ {
        "url": "http://hl7.org/fhir/us/qicore/StructureDefinition/qicore-recorded",
        "valueDateTime": "2025-07-01T11:30:00.000+00:00"
      } ],
      "status": "completed",
      "code": {
        "coding": [ {
          "system": "http://snomed.info/sct",
          "code": "306354000",
          "display": "Referral to hospital-based dietitian (procedure)"
        } ],
        "text": "Referral to hospital-based dietitian (procedure)"
      },
      "subject": {
        "reference": "Patient/cf475a5c-e979-46c8-a596-8671d8a7acc5"
      },
      "encounter": {
        "reference": "Encounter/ScreAtriRefAsseNotmNodxCpMSROBSPass2"
      },
      "performedPeriod": {
        "start": "2026-07-01T11:30:00.000+00:00",
        "end": "2026-07-07T08:15:00.000+00:00"
      }
    },
    "request": {
      "method": "PUT",
      "url": "Procedure/1fa12a8c-95d0-4fad-a95d-5ae5de1740f7"
    }
  }, {
    "fullUrl": "https://madie.cms.gov/Coverage/526695ef-9833-4db9-b9bf-c5313f7cf5d3",
    "resource": {
      "resourceType": "Coverage",
      "id": "526695ef-9833-4db9-b9bf-c5313f7cf5d3",
      "meta": {
        "profile": [ "http://hl7.org/fhir/us/qicore/StructureDefinition/qicore-coverage" ]
      },
      "status": "active",
      "type": {
        "coding": [ {
          "system": "https://nahdo.org/sopt",
          "version": "9.2",
          "code": "11",
          "display": "Medicare Managed Care (Includes Medicare Advantage Plans)"
        } ]
      },
      "subscriberId": "97531",
      "beneficiary": {
        "reference": "Patient/cf475a5c-e979-46c8-a596-8671d8a7acc5"
      },
      "dependent": "0",
      "relationship": {
        "coding": [ {
          "system": "http://terminology.hl7.org/CodeSystem/subscriber-relationship",
          "code": "self"
        } ]
      },
      "period": {
        "start": "2025-10-01T00:00:00.000+00:00"
      },
      "payor": [ {
        "reference": "Organization/66129940-5db5-4567-8638-7aed5165947e"
      } ]
    },
    "request": {
      "method": "PUT",
      "url": "Coverage/526695ef-9833-4db9-b9bf-c5313f7cf5d3"
    }
  }, {
    "fullUrl": "https://madie.cms.gov/Organization/66129940-5db5-4567-8638-7aed5165947e",
    "resource": {
      "resourceType": "Organization",
      "id": "66129940-5db5-4567-8638-7aed5165947e",
      "meta": {
        "profile": [ "http://hl7.org/fhir/us/qicore/StructureDefinition/qicore-organization" ]
      },
      "identifier": [ {
        "use": "temp",
        "system": "urn:oid:2.16.840.1.113883.4.4",
        "value": "21-3259825"
      } ],
      "active": true,
      "type": [ {
        "coding": [ {
          "system": "http://terminology.hl7.org/CodeSystem/organization-type",
          "code": "pay",
          "display": "Payer"
        } ]
      } ],
      "name": "Blue Cross Blue Shield of Texas",
      "telecom": [ {
        "system": "phone",
        "value": "(+1) 972-766-6900"
      } ],
      "address": [ {
        "use": "billing",
        "type": "postal",
        "line": [ "P.O. Box 660044" ],
        "city": "Dallas",
        "state": "TX",
        "postalCode": "75266-0044",
        "country": "USA"
      } ]
    },
    "request": {
      "method": "PUT",
      "url": "Organization/66129940-5db5-4567-8638-7aed5165947e"
    }
  }, {
    "fullUrl": "https://madie.cms.gov/MeasureReport/494c1ab9-01ae-4c02-96e4-82741a67b23e",
    "resource": {
      "resourceType": "MeasureReport",
      "id": "494c1ab9-01ae-4c02-96e4-82741a67b23e",
      "meta": {
        "profile": [ "http://hl7.org/fhir/us/cqfmeasures/StructureDefinition/test-case-cqfm" ]
      },
      "contained": [ {
        "resourceType": "Parameters",
        "id": "9de42569-0a21-4898-9199-c289aae2a004-parameters",
        "parameter": [ {
          "name": "subject",
          "valueString": "cf475a5c-e979-46c8-a596-8671d8a7acc5"
        } ]
      } ],
      "extension": [ {
        "url": "http://hl7.org/fhir/StructureDefinition/cqf-inputParameters",
        "valueReference": {
          "reference": "#9de42569-0a21-4898-9199-c289aae2a004-parameters"
        }
      }, {
        "url": "http://hl7.org/fhir/us/cqfmeasures/StructureDefinition/cqfm-testCaseDescription",
        "valueMarkdown": "Screened, At Risk, Referral, Assessed, Not/Mildly Malnourished, Diagnosis, No Nutrition Care Plan"
      } ],
      "modifierExtension": [ {
        "url": "http://hl7.org/fhir/us/cqfmeasures/StructureDefinition/cqfm-isTestCase",
        "valueBoolean": true
      } ],
      "status": "complete",
      "type": "individual",
      "measure": "https://madie.cms.gov/Measure/CMS986FHIRMalnutritionScore",
      "period": {
        "start": "2026-01-01",
        "end": "2026-12-31"
      },
      "group": [ {
        "id": "Group_1",
        "population": [ {
          "id": "InitialPopulation_1",
          "code": {
            "coding": [ {
              "system": "http://terminology.hl7.org/CodeSystem/measure-population",
              "code": "initial-population",
              "display": "Initial Population"
            } ]
          },
          "count": 1
        }, {
          "id": "MeasurePopulation_1",
          "code": {
            "coding": [ {
              "system": "http://terminology.hl7.org/CodeSystem/measure-population",
              "code": "measure-population",
              "display": "Measure Population"
            } ]
          },
          "count": 1
        }, {
          "id": "MeasurePopulationExclusion_1",
          "code": {
            "coding": [ {
              "system": "http://terminology.hl7.org/CodeSystem/measure-population",
              "code": "measure-population-exclusion",
              "display": "Measure Population Exclusion"
            } ]
          },
          "count": 0
        }, {
          "id": "MeasureObservation_1_1",
          "code": {
            "coding": [ {
              "system": "http://terminology.hl7.org/CodeSystem/measure-population",
              "code": "measure-population-observation",
              "display": "Measure Population Observation"
            } ]
          },
          "count": 1
        } ],
        "measureScore": {
          "value": 0.0
        }
      }, {
        "id": "Group_2",
        "population": [ {
          "id": "InitialPopulation_2",
          "code": {
            "coding": [ {
              "system": "http://terminology.hl7.org/CodeSystem/measure-population",
              "code": "initial-population",
              "display": "Initial Population"
            } ]
          },
          "count": 1
        }, {
          "id": "MeasurePopulation_2",
          "code": {
            "coding": [ {
              "system": "http://terminology.hl7.org/CodeSystem/measure-population",
              "code": "measure-population",
              "display": "Measure Population"
            } ]
          },
          "count": 1
        }, {
          "id": "MeasurePopulationExclusion_2",
          "code": {
            "coding": [ {
              "system": "http://terminology.hl7.org/CodeSystem/measure-population",
              "code": "measure-population-exclusion",
              "display": "Measure Population Exclusion"
            } ]
          },
          "count": 0
        }, {
          "id": "MeasureObservation_2_1",
          "code": {
            "coding": [ {
              "system": "http://terminology.hl7.org/CodeSystem/measure-population",
              "code": "measure-population-observation",
              "display": "Measure Population Observation"
            } ]
          },
          "count": 1
        } ],
        "measureScore": {
          "value": 0.0
        }
      }, {
        "id": "Group_3",
        "population": [ {
          "id": "InitialPopulation_3",
          "code": {
            "coding": [ {
              "system": "http://terminology.hl7.org/CodeSystem/measure-population",
              "code": "initial-population",
              "display": "Initial Population"
            } ]
          },
          "count": 1
        }, {
          "id": "MeasurePopulation_3",
          "code": {
            "coding": [ {
              "system": "http://terminology.hl7.org/CodeSystem/measure-population",
              "code": "measure-population",
              "display": "Measure Population"
            } ]
          },
          "count": 1
        }, {
          "id": "MeasurePopulationExclusion_3",
          "code": {
            "coding": [ {
              "system": "http://terminology.hl7.org/CodeSystem/measure-population",
              "code": "measure-population-exclusion",
              "display": "Measure Population Exclusion"
            } ]
          },
          "count": 0
        }, {
          "id": "MeasureObservation_3_1",
          "code": {
            "coding": [ {
              "system": "http://terminology.hl7.org/CodeSystem/measure-population",
              "code": "measure-population-observation",
              "display": "Measure Population Observation"
            } ]
          },
          "count": 0
        } ],
        "measureScore": {
          "value": 0.0
        }
      }, {
        "id": "Group_4",
        "population": [ {
          "id": "InitialPopulation_4",
          "code": {
            "coding": [ {
              "system": "http://terminology.hl7.org/CodeSystem/measure-population",
              "code": "initial-population",
              "display": "Initial Population"
            } ]
          },
          "count": 1
        }, {
          "id": "MeasurePopulation_4",
          "code": {
            "coding": [ {
              "system": "http://terminology.hl7.org/CodeSystem/measure-population",
              "code": "measure-population",
              "display": "Measure Population"
            } ]
          },
          "count": 1
        }, {
          "id": "MeasurePopulationExclusion_4",
          "code": {
            "coding": [ {
              "system": "http://terminology.hl7.org/CodeSystem/measure-population",
              "code": "measure-population-exclusion",
              "display": "Measure Population Exclusion"
            } ]
          },
          "count": 0
        }, {
          "id": "MeasureObservation_4_1",
          "code": {
            "coding": [ {
              "system": "http://terminology.hl7.org/CodeSystem/measure-population",
              "code": "measure-population-observation",
              "display": "Measure Population Observation"
            } ]
          },
          "count": 0
        } ],
        "measureScore": {
          "value": 0.0
        }
      }, {
        "id": "Group_5",
        "population": [ {
          "id": "InitialPopulation_5",
          "code": {
            "coding": [ {
              "system": "http://terminology.hl7.org/CodeSystem/measure-population",
              "code": "initial-population",
              "display": "Initial Population"
            } ]
          },
          "count": 1
        }, {
          "id": "MeasurePopulation_5",
          "code": {
            "coding": [ {
              "system": "http://terminology.hl7.org/CodeSystem/measure-population",
              "code": "measure-population",
              "display": "Measure Population"
            } ]
          },
          "count": 1
        }, {
          "id": "MeasurePopulationExclusion_5",
          "code": {
            "coding": [ {
              "system": "http://terminology.hl7.org/CodeSystem/measure-population",
              "code": "measure-population-exclusion",
              "display": "Measure Population Exclusion"
            } ]
          },
          "count": 0
        }, {
          "id": "MeasureObservation_5_1",
          "code": {
            "coding": [ {
              "system": "http://terminology.hl7.org/CodeSystem/measure-population",
              "code": "measure-population-observation",
              "display": "Measure Population Observation"
            } ]
          },
          "count": 2
        } ],
        "measureScore": {
          "value": 0.0
        }
      }, {
        "id": "Group_6",
        "population": [ {
          "id": "InitialPopulation_6",
          "code": {
            "coding": [ {
              "system": "http://terminology.hl7.org/CodeSystem/measure-population",
              "code": "initial-population",
              "display": "Initial Population"
            } ]
          },
          "count": 1
        }, {
          "id": "MeasurePopulation_6",
          "code": {
            "coding": [ {
              "system": "http://terminology.hl7.org/CodeSystem/measure-population",
              "code": "measure-population",
              "display": "Measure Population"
            } ]
          },
          "count": 1
        }, {
          "id": "MeasurePopulationExclusion_6",
          "code": {
            "coding": [ {
              "system": "http://terminology.hl7.org/CodeSystem/measure-population",
              "code": "measure-population-exclusion",
              "display": "Measure Population Exclusion"
            } ]
          },
          "count": 0
        }, {
          "id": "MeasureObservation_6_1",
          "code": {
            "coding": [ {
              "system": "http://terminology.hl7.org/CodeSystem/measure-population",
              "code": "measure-population-observation",
              "display": "Measure Population Observation"
            } ]
          },
          "count": 100
        } ],
        "measureScore": {
          "value": 0.0
        }
      } ],
      "evaluatedResource": [ {
        "reference": "Patient/cf475a5c-e979-46c8-a596-8671d8a7acc5"
      }, {
        "reference": "Encounter/80fd433a-fff3-4751-a40e-903e2a1a0109"
      }, {
        "reference": "Condition/7f202e19-e284-40c2-9b5e-d4a67963ff50"
      }, {
        "reference": "Observation/98a31191-286a-4280-a3f7-c27d72d82c4d"
      }, {
        "reference": "Observation/e94321ea-f706-46d2-b748-1d631229f6d6"
      }, {
        "reference": "Procedure/1fa12a8c-95d0-4fad-a95d-5ae5de1740f7"
      }, {
        "reference": "Coverage/526695ef-9833-4db9-b9bf-c5313f7cf5d3"
      }, {
        "reference": "Organization/66129940-5db5-4567-8638-7aed5165947e"
      } ]
    },
    "request": {
      "method": "PUT",
      "url": "MeasureReport/494c1ab9-01ae-4c02-96e4-82741a67b23e"
    }
  } ]
}