{
  "resourceType": "Bundle",
  "id": "NoscreRefAsseModDxNocp",
  "type": "transaction",
  "entry": [ {
    "fullUrl": "https://madie.cms.gov/Patient/bded9082-97bf-42d0-8c35-cbf18df5938f",
    "resource": {
      "resourceType": "Patient",
      "id": "bded9082-97bf-42d0-8c35-cbf18df5938f",
      "meta": {
        "profile": [ "http://hl7.org/fhir/us/qicore/StructureDefinition/qicore-patient" ]
      },
      "extension": [ {
        "url": "http://hl7.org/fhir/us/core/StructureDefinition/us-core-race",
        "extension": [ {
          "url": "ombCategory",
          "valueCoding": {
            "system": "urn:oid:2.16.840.1.113883.6.238",
            "code": "2106-3",
            "display": "White",
            "userSelected": true
          }
        }, {
          "url": "text",
          "valueString": "White"
        } ]
      }, {
        "url": "http://hl7.org/fhir/us/core/StructureDefinition/us-core-ethnicity",
        "extension": [ {
          "url": "ombCategory",
          "valueCoding": {
            "system": "urn:oid:2.16.840.1.113883.6.238",
            "code": "2186-5",
            "display": "Not Hispanic or Latino",
            "userSelected": true
          }
        }, {
          "url": "text",
          "valueString": "Not Hispanic or Latino"
        } ]
      }, {
        "url": "http://hl7.org/fhir/us/core/StructureDefinition/us-core-sex",
        "valueCode": "248153007"
      } ],
      "identifier": [ {
        "type": {
          "coding": [ {
            "system": "http://terminology.hl7.org/CodeSystem/v2-0203",
            "code": "MR"
          } ]
        },
        "system": "https://madie.cms.gov/",
        "value": "NoscreRefAsseModDxNocp"
      } ],
      "active": true,
      "name": [ {
        "use": "usual",
        "text": "NoscreRefAsseModDxNocp",
        "family": "MSROBSPass4",
        "given": [ "NoscreRefAsseModDxNocp" ]
      } ],
      "gender": "male",
      "birthDate": "1953-01-01",
      "address": [ {
        "text": "NoscreRefAsseModDxNocp, Screened Not at risk Assessed Severely Malnourished Diagnosed Care Plan, ID=NoscreRefAsseModDxNocp, DOB: 01 Jan 1953"
      } ]
    },
    "request": {
      "method": "PUT",
      "url": "Patient/bded9082-97bf-42d0-8c35-cbf18df5938f"
    }
  }, {
    "fullUrl": "https://madie.cms.gov/Encounter/46b3c000-d8f9-4e11-b1fd-df9b5b1246c0",
    "resource": {
      "resourceType": "Encounter",
      "id": "46b3c000-d8f9-4e11-b1fd-df9b5b1246c0",
      "meta": {
        "profile": [ "http://hl7.org/fhir/us/qicore/StructureDefinition/qicore-encounter" ]
      },
      "status": "finished",
      "class": {
        "system": "http://terminology.hl7.org/CodeSystem/v3-ActCode",
        "code": "IMP",
        "display": "inpatient encounter"
      },
      "type": [ {
        "coding": [ {
          "system": "http://snomed.info/sct",
          "code": "32485007"
        } ]
      } ],
      "subject": {
        "reference": "Patient/bded9082-97bf-42d0-8c35-cbf18df5938f"
      },
      "period": {
        "start": "2026-07-01T08:00:00.000+00:00",
        "end": "2026-07-11T08:15:00.000+00:00"
      },
      "reasonReference": [ {
        "reference": "Condition/2646d546-df59-4949-979a-3ac5a3dd5451"
      } ]
    },
    "request": {
      "method": "PUT",
      "url": "Encounter/46b3c000-d8f9-4e11-b1fd-df9b5b1246c0"
    }
  }, {
    "fullUrl": "https://madie.cms.gov/Condition/2646d546-df59-4949-979a-3ac5a3dd5451",
    "resource": {
      "resourceType": "Condition",
      "id": "2646d546-df59-4949-979a-3ac5a3dd5451",
      "meta": {
        "profile": [ "http://hl7.org/fhir/us/qicore/StructureDefinition/qicore-condition-encounter-diagnosis" ]
      },
      "clinicalStatus": {
        "coding": [ {
          "system": "http://terminology.hl7.org/CodeSystem/condition-clinical",
          "code": "active",
          "display": "Active",
          "userSelected": true
        } ]
      },
      "verificationStatus": {
        "coding": [ {
          "system": "http://terminology.hl7.org/CodeSystem/condition-ver-status",
          "code": "confirmed",
          "display": "Confirmed",
          "userSelected": true
        } ]
      },
      "category": [ {
        "coding": [ {
          "system": "http://terminology.hl7.org/CodeSystem/condition-category",
          "code": "encounter-diagnosis",
          "display": "Encounter Diagnosis",
          "userSelected": true
        } ]
      } ],
      "code": {
        "coding": [ {
          "system": "http://hl7.org/fhir/sid/icd-10-cm",
          "code": "O25.10",
          "display": "Malnutrition in pregnancy, unspecified trimester",
          "userSelected": true
        } ]
      },
      "subject": {
        "reference": "Patient/bded9082-97bf-42d0-8c35-cbf18df5938f"
      },
      "onsetPeriod": {
        "start": "2026-07-01T08:00:00.000+00:00"
      },
      "recordedDate": "2026-07-01T11:00:00.000+00:00"
    },
    "request": {
      "method": "PUT",
      "url": "Condition/2646d546-df59-4949-979a-3ac5a3dd5451"
    }
  }, {
    "fullUrl": "https://madie.cms.gov/Observation/b5e196f4-78bc-418a-9727-baa9a3d0f16f",
    "resource": {
      "resourceType": "Observation",
      "id": "b5e196f4-78bc-418a-9727-baa9a3d0f16f",
      "meta": {
        "profile": [ "http://hl7.org/fhir/us/qicore/StructureDefinition/qicore-observation-screening-assessment" ]
      },
      "status": "final",
      "category": [ {
        "coding": [ {
          "system": "http://terminology.hl7.org/CodeSystem/observation-category",
          "code": "survey",
          "display": "Survey"
        } ]
      } ],
      "code": {
        "coding": [ {
          "system": "http://loinc.org",
          "code": "75304-6",
          "display": "Nutrition status observation panel",
          "userSelected": true
        } ]
      },
      "subject": {
        "reference": "Patient/bded9082-97bf-42d0-8c35-cbf18df5938f"
      },
      "effectiveDateTime": "2026-07-01T10:00:00.000+00:00",
      "valueCodeableConcept": {
        "coding": [ {
          "system": "http://snomed.info/sct",
          "code": "190606006",
          "display": "Moderate protein energy malnutrition (disorder)",
          "userSelected": true
        } ]
      }
    },
    "request": {
      "method": "PUT",
      "url": "Observation/b5e196f4-78bc-418a-9727-baa9a3d0f16f"
    }
  }, {
    "fullUrl": "https://madie.cms.gov/Procedure/da08f69e-0e81-4ad2-88ee-d2b026265fcb",
    "resource": {
      "resourceType": "Procedure",
      "id": "da08f69e-0e81-4ad2-88ee-d2b026265fcb",
      "meta": {
        "profile": [ "http://hl7.org/fhir/us/qicore/StructureDefinition/qicore-procedure" ]
      },
      "extension": [ {
        "url": "http://hl7.org/fhir/us/qicore/StructureDefinition/qicore-recorded",
        "valueDateTime": "2026-07-01T11:30:00.000+00:00"
      } ],
      "status": "completed",
      "code": {
        "coding": [ {
          "system": "http://snomed.info/sct",
          "code": "408285001",
          "display": "Referral to pediatric dietitian (procedure)"
        } ],
        "text": "Referral to hospital-based dietitian (procedure)"
      },
      "subject": {
        "reference": "Patient/bded9082-97bf-42d0-8c35-cbf18df5938f"
      },
      "encounter": {
        "reference": "Encounter/NoscreRefAsseModDxNocpMSROBSPass4"
      },
      "performedPeriod": {
        "start": "2026-07-01T11:30:00.000+00:00",
        "end": "2026-07-05T08:15:00.000+00:00"
      }
    },
    "request": {
      "method": "PUT",
      "url": "Procedure/da08f69e-0e81-4ad2-88ee-d2b026265fcb"
    }
  }, {
    "fullUrl": "https://madie.cms.gov/Coverage/c60cffd0-5cf1-4a76-9c43-6447ab1533c9",
    "resource": {
      "resourceType": "Coverage",
      "id": "c60cffd0-5cf1-4a76-9c43-6447ab1533c9",
      "meta": {
        "profile": [ "http://hl7.org/fhir/us/qicore/StructureDefinition/qicore-coverage" ]
      },
      "status": "active",
      "type": {
        "coding": [ {
          "system": "https://nahdo.org/sopt",
          "version": "9.2",
          "code": "11",
          "display": "Medicare Managed Care (Includes Medicare Advantage Plans)"
        } ]
      },
      "subscriberId": "97531",
      "beneficiary": {
        "reference": "Patient/bded9082-97bf-42d0-8c35-cbf18df5938f"
      },
      "dependent": "0",
      "relationship": {
        "coding": [ {
          "system": "http://terminology.hl7.org/CodeSystem/subscriber-relationship",
          "code": "self"
        } ]
      },
      "period": {
        "start": "2020-10-01T00:00:00.000+00:00"
      },
      "payor": [ {
        "reference": "Organization/13c738ba-2aed-409f-9bb2-e881b6e07bdd"
      } ]
    },
    "request": {
      "method": "PUT",
      "url": "Coverage/c60cffd0-5cf1-4a76-9c43-6447ab1533c9"
    }
  }, {
    "fullUrl": "https://madie.cms.gov/Organization/13c738ba-2aed-409f-9bb2-e881b6e07bdd",
    "resource": {
      "resourceType": "Organization",
      "id": "13c738ba-2aed-409f-9bb2-e881b6e07bdd",
      "meta": {
        "profile": [ "http://hl7.org/fhir/us/qicore/StructureDefinition/qicore-organization" ]
      },
      "identifier": [ {
        "use": "temp",
        "system": "urn:oid:2.16.840.1.113883.4.4",
        "value": "21-3259825"
      } ],
      "active": true,
      "type": [ {
        "coding": [ {
          "system": "http://terminology.hl7.org/CodeSystem/organization-type",
          "code": "pay",
          "display": "Payer"
        } ]
      } ],
      "name": "Blue Cross Blue Shield of Texas",
      "telecom": [ {
        "system": "phone",
        "value": "(+1) 972-766-6900"
      } ],
      "address": [ {
        "use": "billing",
        "type": "postal",
        "line": [ "P.O. Box 660044" ],
        "city": "Dallas",
        "state": "TX",
        "postalCode": "75266-0044",
        "country": "USA"
      } ]
    },
    "request": {
      "method": "PUT",
      "url": "Organization/13c738ba-2aed-409f-9bb2-e881b6e07bdd"
    }
  }, {
    "fullUrl": "https://madie.cms.gov/MeasureReport/d3b5838b-c099-430d-bb8a-b0c56b0396ca",
    "resource": {
      "resourceType": "MeasureReport",
      "id": "d3b5838b-c099-430d-bb8a-b0c56b0396ca",
      "meta": {
        "profile": [ "http://hl7.org/fhir/us/cqfmeasures/StructureDefinition/test-case-cqfm" ]
      },
      "contained": [ {
        "resourceType": "Parameters",
        "id": "67929f1b-d106-4908-a793-beb700b42e08-parameters",
        "parameter": [ {
          "name": "subject",
          "valueString": "bded9082-97bf-42d0-8c35-cbf18df5938f"
        } ]
      } ],
      "extension": [ {
        "url": "http://hl7.org/fhir/StructureDefinition/cqf-inputParameters",
        "valueReference": {
          "reference": "#67929f1b-d106-4908-a793-beb700b42e08-parameters"
        }
      }, {
        "url": "http://hl7.org/fhir/us/cqfmeasures/StructureDefinition/cqfm-testCaseDescription",
        "valueMarkdown": "Not screened, Referral, Assessed, Moderately Malnourished, Diagnosis, No Nutrition Care Plan"
      } ],
      "modifierExtension": [ {
        "url": "http://hl7.org/fhir/us/cqfmeasures/StructureDefinition/cqfm-isTestCase",
        "valueBoolean": true
      } ],
      "status": "complete",
      "type": "individual",
      "measure": "https://madie.cms.gov/Measure/CMS986FHIRMalnutritionScore",
      "period": {
        "start": "2026-01-01",
        "end": "2026-12-31"
      },
      "group": [ {
        "id": "Group_1",
        "population": [ {
          "id": "InitialPopulation_1",
          "code": {
            "coding": [ {
              "system": "http://terminology.hl7.org/CodeSystem/measure-population",
              "code": "initial-population",
              "display": "Initial Population"
            } ]
          },
          "count": 1
        }, {
          "id": "MeasurePopulation_1",
          "code": {
            "coding": [ {
              "system": "http://terminology.hl7.org/CodeSystem/measure-population",
              "code": "measure-population",
              "display": "Measure Population"
            } ]
          },
          "count": 1
        }, {
          "id": "MeasurePopulationExclusion_1",
          "code": {
            "coding": [ {
              "system": "http://terminology.hl7.org/CodeSystem/measure-population",
              "code": "measure-population-exclusion",
              "display": "Measure Population Exclusion"
            } ]
          },
          "count": 0
        }, {
          "id": "MeasureObservation_1_1",
          "code": {
            "coding": [ {
              "system": "http://terminology.hl7.org/CodeSystem/measure-population",
              "code": "measure-population-observation",
              "display": "Measure Population Observation"
            } ]
          },
          "count": 1
        } ],
        "measureScore": {
          "value": 0.0
        }
      }, {
        "id": "Group_2",
        "population": [ {
          "id": "InitialPopulation_2",
          "code": {
            "coding": [ {
              "system": "http://terminology.hl7.org/CodeSystem/measure-population",
              "code": "initial-population",
              "display": "Initial Population"
            } ]
          },
          "count": 1
        }, {
          "id": "MeasurePopulation_2",
          "code": {
            "coding": [ {
              "system": "http://terminology.hl7.org/CodeSystem/measure-population",
              "code": "measure-population",
              "display": "Measure Population"
            } ]
          },
          "count": 1
        }, {
          "id": "MeasurePopulationExclusion_2",
          "code": {
            "coding": [ {
              "system": "http://terminology.hl7.org/CodeSystem/measure-population",
              "code": "measure-population-exclusion",
              "display": "Measure Population Exclusion"
            } ]
          },
          "count": 0
        }, {
          "id": "MeasureObservation_2_1",
          "code": {
            "coding": [ {
              "system": "http://terminology.hl7.org/CodeSystem/measure-population",
              "code": "measure-population-observation",
              "display": "Measure Population Observation"
            } ]
          },
          "count": 1
        } ],
        "measureScore": {
          "value": 0.0
        }
      }, {
        "id": "Group_3",
        "population": [ {
          "id": "InitialPopulation_3",
          "code": {
            "coding": [ {
              "system": "http://terminology.hl7.org/CodeSystem/measure-population",
              "code": "initial-population",
              "display": "Initial Population"
            } ]
          },
          "count": 1
        }, {
          "id": "MeasurePopulation_3",
          "code": {
            "coding": [ {
              "system": "http://terminology.hl7.org/CodeSystem/measure-population",
              "code": "measure-population",
              "display": "Measure Population"
            } ]
          },
          "count": 1
        }, {
          "id": "MeasurePopulationExclusion_3",
          "code": {
            "coding": [ {
              "system": "http://terminology.hl7.org/CodeSystem/measure-population",
              "code": "measure-population-exclusion",
              "display": "Measure Population Exclusion"
            } ]
          },
          "count": 0
        }, {
          "id": "MeasureObservation_3_1",
          "code": {
            "coding": [ {
              "system": "http://terminology.hl7.org/CodeSystem/measure-population",
              "code": "measure-population-observation",
              "display": "Measure Population Observation"
            } ]
          },
          "count": 1
        } ],
        "measureScore": {
          "value": 0.0
        }
      }, {
        "id": "Group_4",
        "population": [ {
          "id": "InitialPopulation_4",
          "code": {
            "coding": [ {
              "system": "http://terminology.hl7.org/CodeSystem/measure-population",
              "code": "initial-population",
              "display": "Initial Population"
            } ]
          },
          "count": 1
        }, {
          "id": "MeasurePopulation_4",
          "code": {
            "coding": [ {
              "system": "http://terminology.hl7.org/CodeSystem/measure-population",
              "code": "measure-population",
              "display": "Measure Population"
            } ]
          },
          "count": 1
        }, {
          "id": "MeasurePopulationExclusion_4",
          "code": {
            "coding": [ {
              "system": "http://terminology.hl7.org/CodeSystem/measure-population",
              "code": "measure-population-exclusion",
              "display": "Measure Population Exclusion"
            } ]
          },
          "count": 0
        }, {
          "id": "MeasureObservation_4_1",
          "code": {
            "coding": [ {
              "system": "http://terminology.hl7.org/CodeSystem/measure-population",
              "code": "measure-population-observation",
              "display": "Measure Population Observation"
            } ]
          },
          "count": 0
        } ],
        "measureScore": {
          "value": 0.0
        }
      }, {
        "id": "Group_5",
        "population": [ {
          "id": "InitialPopulation_5",
          "code": {
            "coding": [ {
              "system": "http://terminology.hl7.org/CodeSystem/measure-population",
              "code": "initial-population",
              "display": "Initial Population"
            } ]
          },
          "count": 1
        }, {
          "id": "MeasurePopulation_5",
          "code": {
            "coding": [ {
              "system": "http://terminology.hl7.org/CodeSystem/measure-population",
              "code": "measure-population",
              "display": "Measure Population"
            } ]
          },
          "count": 1
        }, {
          "id": "MeasurePopulationExclusion_5",
          "code": {
            "coding": [ {
              "system": "http://terminology.hl7.org/CodeSystem/measure-population",
              "code": "measure-population-exclusion",
              "display": "Measure Population Exclusion"
            } ]
          },
          "count": 0
        }, {
          "id": "MeasureObservation_5_1",
          "code": {
            "coding": [ {
              "system": "http://terminology.hl7.org/CodeSystem/measure-population",
              "code": "measure-population-observation",
              "display": "Measure Population Observation"
            } ]
          },
          "count": 3
        } ],
        "measureScore": {
          "value": 0.0
        }
      }, {
        "id": "Group_6",
        "population": [ {
          "id": "InitialPopulation_6",
          "code": {
            "coding": [ {
              "system": "http://terminology.hl7.org/CodeSystem/measure-population",
              "code": "initial-population",
              "display": "Initial Population"
            } ]
          },
          "count": 1
        }, {
          "id": "MeasurePopulation_6",
          "code": {
            "coding": [ {
              "system": "http://terminology.hl7.org/CodeSystem/measure-population",
              "code": "measure-population",
              "display": "Measure Population"
            } ]
          },
          "count": 1
        }, {
          "id": "MeasurePopulationExclusion_6",
          "code": {
            "coding": [ {
              "system": "http://terminology.hl7.org/CodeSystem/measure-population",
              "code": "measure-population-exclusion",
              "display": "Measure Population Exclusion"
            } ]
          },
          "count": 0
        }, {
          "id": "MeasureObservation_6_1",
          "code": {
            "coding": [ {
              "system": "http://terminology.hl7.org/CodeSystem/measure-population",
              "code": "measure-population-observation",
              "display": "Measure Population Observation"
            } ]
          },
          "count": 75
        } ],
        "measureScore": {
          "value": 0.0
        }
      } ],
      "evaluatedResource": [ {
        "reference": "Patient/bded9082-97bf-42d0-8c35-cbf18df5938f"
      }, {
        "reference": "Encounter/46b3c000-d8f9-4e11-b1fd-df9b5b1246c0"
      }, {
        "reference": "Condition/2646d546-df59-4949-979a-3ac5a3dd5451"
      }, {
        "reference": "Observation/b5e196f4-78bc-418a-9727-baa9a3d0f16f"
      }, {
        "reference": "Procedure/da08f69e-0e81-4ad2-88ee-d2b026265fcb"
      }, {
        "reference": "Coverage/c60cffd0-5cf1-4a76-9c43-6447ab1533c9"
      }, {
        "reference": "Organization/13c738ba-2aed-409f-9bb2-e881b6e07bdd"
      } ]
    },
    "request": {
      "method": "PUT",
      "url": "MeasureReport/d3b5838b-c099-430d-bb8a-b0c56b0396ca"
    }
  } ]
}