{
  "resourceType": "Bundle",
  "id": "NoscreNorefNoAsseNodxCp",
  "type": "transaction",
  "entry": [ {
    "fullUrl": "https://madie.cms.gov/Patient/5bb2f9ca-ea78-4c1f-8b7b-9a43a3c45445",
    "resource": {
      "resourceType": "Patient",
      "id": "5bb2f9ca-ea78-4c1f-8b7b-9a43a3c45445",
      "meta": {
        "profile": [ "http://hl7.org/fhir/us/qicore/StructureDefinition/qicore-patient" ]
      },
      "extension": [ {
        "url": "http://hl7.org/fhir/us/core/StructureDefinition/us-core-race",
        "extension": [ {
          "url": "ombCategory",
          "valueCoding": {
            "system": "urn:oid:2.16.840.1.113883.6.238",
            "code": "2106-3",
            "display": "White",
            "userSelected": true
          }
        }, {
          "url": "text",
          "valueString": "White"
        } ]
      }, {
        "url": "http://hl7.org/fhir/us/core/StructureDefinition/us-core-ethnicity",
        "extension": [ {
          "url": "ombCategory",
          "valueCoding": {
            "system": "urn:oid:2.16.840.1.113883.6.238",
            "code": "2186-5",
            "display": "Not Hispanic or Latino",
            "userSelected": true
          }
        }, {
          "url": "text",
          "valueString": "Not Hispanic or Latino"
        } ]
      }, {
        "url": "http://hl7.org/fhir/us/core/StructureDefinition/us-core-sex",
        "valueCode": "248153007"
      } ],
      "identifier": [ {
        "type": {
          "coding": [ {
            "system": "http://terminology.hl7.org/CodeSystem/v2-0203",
            "code": "MR"
          } ]
        },
        "system": "https://madie.cms.gov/",
        "value": "NoscreNorefNoAsseNodxCp"
      } ],
      "active": true,
      "name": [ {
        "use": "usual",
        "text": "NoscreNorefNoAsseNodxCp",
        "family": "OCCURPass1",
        "given": [ "NoscreNorefNoAsseNodxCp" ]
      } ],
      "gender": "male",
      "birthDate": "1941-01-01",
      "address": [ {
        "text": "NoscreNorefNoAsseNodxCp, Screened Not at risk Assessed Severely Malnourished Diagnosed Care Plan, ID=NoscreNorefNoAsseNodxCp, DOB: 14 May 1950"
      } ]
    },
    "request": {
      "method": "PUT",
      "url": "Patient/5bb2f9ca-ea78-4c1f-8b7b-9a43a3c45445"
    }
  }, {
    "fullUrl": "https://madie.cms.gov/Encounter/ed1be588-6f4b-4d70-8a5d-f3c7d80fdcc3",
    "resource": {
      "resourceType": "Encounter",
      "id": "ed1be588-6f4b-4d70-8a5d-f3c7d80fdcc3",
      "meta": {
        "profile": [ "http://hl7.org/fhir/us/qicore/StructureDefinition/qicore-encounter" ]
      },
      "status": "finished",
      "class": {
        "system": "http://terminology.hl7.org/CodeSystem/v3-ActCode",
        "code": "IMP",
        "display": "inpatient encounter"
      },
      "type": [ {
        "coding": [ {
          "system": "http://snomed.info/sct",
          "code": "183452005"
        } ]
      } ],
      "subject": {
        "reference": "Patient/5bb2f9ca-ea78-4c1f-8b7b-9a43a3c45445"
      },
      "period": {
        "start": "2026-11-22T08:00:00.000+00:00",
        "end": "2026-11-23T08:15:00.000+00:00"
      }
    },
    "request": {
      "method": "PUT",
      "url": "Encounter/ed1be588-6f4b-4d70-8a5d-f3c7d80fdcc3"
    }
  }, {
    "fullUrl": "https://madie.cms.gov/Procedure/a57b2719-c06c-40c7-a39c-4127c4f55b58",
    "resource": {
      "resourceType": "Procedure",
      "id": "a57b2719-c06c-40c7-a39c-4127c4f55b58",
      "meta": {
        "profile": [ "http://hl7.org/fhir/us/qicore/StructureDefinition/qicore-procedure" ]
      },
      "extension": [ {
        "url": "http://hl7.org/fhir/us/qicore/StructureDefinition/qicore-recorded",
        "valueDateTime": "2025-02-02T11:30:00.000+00:00"
      } ],
      "status": "completed",
      "code": {
        "coding": [ {
          "system": "http://snomed.info/sct",
          "code": "1279742004",
          "display": "Development of nutrition care plan (procedure)"
        } ],
        "text": "Development of a nutrition care plan (procedure)"
      },
      "subject": {
        "reference": "Patient/5bb2f9ca-ea78-4c1f-8b7b-9a43a3c45445"
      },
      "encounter": {
        "reference": "Encounter/NoscreNorefNoAsseNodxCpOCCURPass1"
      },
      "performedPeriod": {
        "start": "2026-02-01T11:30:00.000+00:00",
        "end": "2026-02-07T08:15:00.000+00:00"
      }
    },
    "request": {
      "method": "PUT",
      "url": "Procedure/a57b2719-c06c-40c7-a39c-4127c4f55b58"
    }
  }, {
    "fullUrl": "https://madie.cms.gov/Coverage/bcd61170-06f0-4c8d-bf5f-39f29c2af356",
    "resource": {
      "resourceType": "Coverage",
      "id": "bcd61170-06f0-4c8d-bf5f-39f29c2af356",
      "meta": {
        "profile": [ "http://hl7.org/fhir/us/qicore/StructureDefinition/qicore-coverage" ]
      },
      "status": "active",
      "type": {
        "coding": [ {
          "system": "https://nahdo.org/sopt",
          "version": "9.2",
          "code": "11",
          "display": "Medicare Managed Care (Includes Medicare Advantage Plans)"
        } ]
      },
      "subscriberId": "97531",
      "beneficiary": {
        "reference": "Patient/5bb2f9ca-ea78-4c1f-8b7b-9a43a3c45445"
      },
      "dependent": "0",
      "relationship": {
        "coding": [ {
          "system": "http://terminology.hl7.org/CodeSystem/subscriber-relationship",
          "code": "self"
        } ]
      },
      "period": {
        "start": "2025-10-01T00:00:00.000+00:00"
      },
      "payor": [ {
        "reference": "Organization/67e5045b-7d7c-44d7-a0ed-3c8d4ad76d44"
      } ]
    },
    "request": {
      "method": "PUT",
      "url": "Coverage/bcd61170-06f0-4c8d-bf5f-39f29c2af356"
    }
  }, {
    "fullUrl": "https://madie.cms.gov/Organization/67e5045b-7d7c-44d7-a0ed-3c8d4ad76d44",
    "resource": {
      "resourceType": "Organization",
      "id": "67e5045b-7d7c-44d7-a0ed-3c8d4ad76d44",
      "meta": {
        "profile": [ "http://hl7.org/fhir/us/qicore/StructureDefinition/qicore-organization" ]
      },
      "identifier": [ {
        "use": "temp",
        "system": "urn:oid:2.16.840.1.113883.4.4",
        "value": "21-3259825"
      } ],
      "active": true,
      "type": [ {
        "coding": [ {
          "system": "http://terminology.hl7.org/CodeSystem/organization-type",
          "code": "pay",
          "display": "Payer"
        } ]
      } ],
      "name": "Blue Cross Blue Shield of Texas",
      "telecom": [ {
        "system": "phone",
        "value": "(+1) 972-766-6900"
      } ],
      "address": [ {
        "use": "billing",
        "type": "postal",
        "line": [ "P.O. Box 660044" ],
        "city": "Dallas",
        "state": "TX",
        "postalCode": "75266-0044",
        "country": "USA"
      } ]
    },
    "request": {
      "method": "PUT",
      "url": "Organization/67e5045b-7d7c-44d7-a0ed-3c8d4ad76d44"
    }
  }, {
    "fullUrl": "https://madie.cms.gov/MeasureReport/c8fa1206-a02d-4f38-bad2-dcf0ffa2468d",
    "resource": {
      "resourceType": "MeasureReport",
      "id": "c8fa1206-a02d-4f38-bad2-dcf0ffa2468d",
      "meta": {
        "profile": [ "http://hl7.org/fhir/us/cqfmeasures/StructureDefinition/test-case-cqfm" ]
      },
      "contained": [ {
        "resourceType": "Parameters",
        "id": "e9dc6268-a369-49ab-b133-852822e5cbe7-parameters",
        "parameter": [ {
          "name": "subject",
          "valueString": "5bb2f9ca-ea78-4c1f-8b7b-9a43a3c45445"
        } ]
      } ],
      "extension": [ {
        "url": "http://hl7.org/fhir/StructureDefinition/cqf-inputParameters",
        "valueReference": {
          "reference": "#e9dc6268-a369-49ab-b133-852822e5cbe7-parameters"
        }
      }, {
        "url": "http://hl7.org/fhir/us/cqfmeasures/StructureDefinition/cqfm-testCaseDescription",
        "valueMarkdown": "Not Screened, No Referral, Not Assessed, No Diagnosis, Nutrition Care Plan"
      } ],
      "modifierExtension": [ {
        "url": "http://hl7.org/fhir/us/cqfmeasures/StructureDefinition/cqfm-isTestCase",
        "valueBoolean": true
      } ],
      "status": "complete",
      "type": "individual",
      "measure": "https://madie.cms.gov/Measure/CMS986FHIRMalnutritionScore",
      "period": {
        "start": "2026-01-01",
        "end": "2026-12-31"
      },
      "group": [ {
        "id": "Group_1",
        "population": [ {
          "id": "InitialPopulation_1",
          "code": {
            "coding": [ {
              "system": "http://terminology.hl7.org/CodeSystem/measure-population",
              "code": "initial-population",
              "display": "Initial Population"
            } ]
          },
          "count": 1
        }, {
          "id": "MeasurePopulation_1",
          "code": {
            "coding": [ {
              "system": "http://terminology.hl7.org/CodeSystem/measure-population",
              "code": "measure-population",
              "display": "Measure Population"
            } ]
          },
          "count": 1
        }, {
          "id": "MeasurePopulationExclusion_1",
          "code": {
            "coding": [ {
              "system": "http://terminology.hl7.org/CodeSystem/measure-population",
              "code": "measure-population-exclusion",
              "display": "Measure Population Exclusion"
            } ]
          },
          "count": 0
        }, {
          "id": "MeasureObservation_1_1",
          "code": {
            "coding": [ {
              "system": "http://terminology.hl7.org/CodeSystem/measure-population",
              "code": "measure-population-observation",
              "display": "Measure Population Observation"
            } ]
          },
          "count": 0
        } ],
        "measureScore": {
          "value": 0.0
        }
      }, {
        "id": "Group_2",
        "population": [ {
          "id": "InitialPopulation_2",
          "code": {
            "coding": [ {
              "system": "http://terminology.hl7.org/CodeSystem/measure-population",
              "code": "initial-population",
              "display": "Initial Population"
            } ]
          },
          "count": 1
        }, {
          "id": "MeasurePopulation_2",
          "code": {
            "coding": [ {
              "system": "http://terminology.hl7.org/CodeSystem/measure-population",
              "code": "measure-population",
              "display": "Measure Population"
            } ]
          },
          "count": 1
        }, {
          "id": "MeasurePopulationExclusion_2",
          "code": {
            "coding": [ {
              "system": "http://terminology.hl7.org/CodeSystem/measure-population",
              "code": "measure-population-exclusion",
              "display": "Measure Population Exclusion"
            } ]
          },
          "count": 0
        }, {
          "id": "MeasureObservation_2_1",
          "code": {
            "coding": [ {
              "system": "http://terminology.hl7.org/CodeSystem/measure-population",
              "code": "measure-population-observation",
              "display": "Measure Population Observation"
            } ]
          },
          "count": 0
        } ],
        "measureScore": {
          "value": 0.0
        }
      }, {
        "id": "Group_3",
        "population": [ {
          "id": "InitialPopulation_3",
          "code": {
            "coding": [ {
              "system": "http://terminology.hl7.org/CodeSystem/measure-population",
              "code": "initial-population",
              "display": "Initial Population"
            } ]
          },
          "count": 1
        }, {
          "id": "MeasurePopulation_3",
          "code": {
            "coding": [ {
              "system": "http://terminology.hl7.org/CodeSystem/measure-population",
              "code": "measure-population",
              "display": "Measure Population"
            } ]
          },
          "count": 1
        }, {
          "id": "MeasurePopulationExclusion_3",
          "code": {
            "coding": [ {
              "system": "http://terminology.hl7.org/CodeSystem/measure-population",
              "code": "measure-population-exclusion",
              "display": "Measure Population Exclusion"
            } ]
          },
          "count": 0
        }, {
          "id": "MeasureObservation_3_1",
          "code": {
            "coding": [ {
              "system": "http://terminology.hl7.org/CodeSystem/measure-population",
              "code": "measure-population-observation",
              "display": "Measure Population Observation"
            } ]
          },
          "count": 0
        } ],
        "measureScore": {
          "value": 0.0
        }
      }, {
        "id": "Group_4",
        "population": [ {
          "id": "InitialPopulation_4",
          "code": {
            "coding": [ {
              "system": "http://terminology.hl7.org/CodeSystem/measure-population",
              "code": "initial-population",
              "display": "Initial Population"
            } ]
          },
          "count": 1
        }, {
          "id": "MeasurePopulation_4",
          "code": {
            "coding": [ {
              "system": "http://terminology.hl7.org/CodeSystem/measure-population",
              "code": "measure-population",
              "display": "Measure Population"
            } ]
          },
          "count": 1
        }, {
          "id": "MeasurePopulationExclusion_4",
          "code": {
            "coding": [ {
              "system": "http://terminology.hl7.org/CodeSystem/measure-population",
              "code": "measure-population-exclusion",
              "display": "Measure Population Exclusion"
            } ]
          },
          "count": 0
        }, {
          "id": "MeasureObservation_4_1",
          "code": {
            "coding": [ {
              "system": "http://terminology.hl7.org/CodeSystem/measure-population",
              "code": "measure-population-observation",
              "display": "Measure Population Observation"
            } ]
          },
          "count": 0
        } ],
        "measureScore": {
          "value": 0.0
        }
      }, {
        "id": "Group_5",
        "population": [ {
          "id": "InitialPopulation_5",
          "code": {
            "coding": [ {
              "system": "http://terminology.hl7.org/CodeSystem/measure-population",
              "code": "initial-population",
              "display": "Initial Population"
            } ]
          },
          "count": 1
        }, {
          "id": "MeasurePopulation_5",
          "code": {
            "coding": [ {
              "system": "http://terminology.hl7.org/CodeSystem/measure-population",
              "code": "measure-population",
              "display": "Measure Population"
            } ]
          },
          "count": 1
        }, {
          "id": "MeasurePopulationExclusion_5",
          "code": {
            "coding": [ {
              "system": "http://terminology.hl7.org/CodeSystem/measure-population",
              "code": "measure-population-exclusion",
              "display": "Measure Population Exclusion"
            } ]
          },
          "count": 0
        }, {
          "id": "MeasureObservation_5_1",
          "code": {
            "coding": [ {
              "system": "http://terminology.hl7.org/CodeSystem/measure-population",
              "code": "measure-population-observation",
              "display": "Measure Population Observation"
            } ]
          },
          "count": 0
        } ],
        "measureScore": {
          "value": 0.0
        }
      }, {
        "id": "Group_6",
        "population": [ {
          "id": "InitialPopulation_6",
          "code": {
            "coding": [ {
              "system": "http://terminology.hl7.org/CodeSystem/measure-population",
              "code": "initial-population",
              "display": "Initial Population"
            } ]
          },
          "count": 1
        }, {
          "id": "MeasurePopulation_6",
          "code": {
            "coding": [ {
              "system": "http://terminology.hl7.org/CodeSystem/measure-population",
              "code": "measure-population",
              "display": "Measure Population"
            } ]
          },
          "count": 1
        }, {
          "id": "MeasurePopulationExclusion_6",
          "code": {
            "coding": [ {
              "system": "http://terminology.hl7.org/CodeSystem/measure-population",
              "code": "measure-population-exclusion",
              "display": "Measure Population Exclusion"
            } ]
          },
          "count": 0
        }, {
          "id": "MeasureObservation_6_1",
          "code": {
            "coding": [ {
              "system": "http://terminology.hl7.org/CodeSystem/measure-population",
              "code": "measure-population-observation",
              "display": "Measure Population Observation"
            } ]
          },
          "count": 0
        } ],
        "measureScore": {
          "value": 0.0
        }
      } ],
      "evaluatedResource": [ {
        "reference": "Patient/5bb2f9ca-ea78-4c1f-8b7b-9a43a3c45445"
      }, {
        "reference": "Encounter/ed1be588-6f4b-4d70-8a5d-f3c7d80fdcc3"
      }, {
        "reference": "Procedure/a57b2719-c06c-40c7-a39c-4127c4f55b58"
      }, {
        "reference": "Coverage/bcd61170-06f0-4c8d-bf5f-39f29c2af356"
      }, {
        "reference": "Organization/67e5045b-7d7c-44d7-a0ed-3c8d4ad76d44"
      } ]
    },
    "request": {
      "method": "PUT",
      "url": "MeasureReport/c8fa1206-a02d-4f38-bad2-dcf0ffa2468d"
    }
  } ]
}