{
  "resourceType": "Bundle",
  "id": "NoscreRefAsseModDxCp",
  "type": "transaction",
  "entry": [ {
    "fullUrl": "https://madie.cms.gov/Patient/c44bb375-9561-47d1-a48d-179750f8a676",
    "resource": {
      "resourceType": "Patient",
      "id": "c44bb375-9561-47d1-a48d-179750f8a676",
      "meta": {
        "profile": [ "http://hl7.org/fhir/us/qicore/StructureDefinition/qicore-patient" ]
      },
      "extension": [ {
        "url": "http://hl7.org/fhir/us/core/StructureDefinition/us-core-race",
        "extension": [ {
          "url": "ombCategory",
          "valueCoding": {
            "system": "urn:oid:2.16.840.1.113883.6.238",
            "code": "2106-3",
            "display": "White",
            "userSelected": true
          }
        }, {
          "url": "text",
          "valueString": "White"
        } ]
      }, {
        "url": "http://hl7.org/fhir/us/core/StructureDefinition/us-core-ethnicity",
        "extension": [ {
          "url": "ombCategory",
          "valueCoding": {
            "system": "urn:oid:2.16.840.1.113883.6.238",
            "code": "2186-5",
            "display": "Not Hispanic or Latino",
            "userSelected": true
          }
        }, {
          "url": "text",
          "valueString": "Not Hispanic or Latino"
        } ]
      }, {
        "url": "http://hl7.org/fhir/us/core/StructureDefinition/us-core-sex",
        "valueCode": "248153007"
      } ],
      "identifier": [ {
        "type": {
          "coding": [ {
            "system": "http://terminology.hl7.org/CodeSystem/v2-0203",
            "code": "MR"
          } ]
        },
        "system": "https://madie.cms.gov/",
        "value": "NoscreRefAsseModDxCp"
      } ],
      "active": true,
      "name": [ {
        "use": "usual",
        "text": "NoscreRefAsseModDxCp",
        "family": "MSROBSPass4",
        "given": [ "NoscreRefAsseModDxCp" ]
      } ],
      "gender": "male",
      "birthDate": "1955-05-14",
      "address": [ {
        "text": "NoscreRefAsseModDxCp, Screened Not at risk Assessed Severely Malnourished Diagnosed Care Plan, ID=NoscreRefAsseModDxCp, DOB: 14 May 1955"
      } ]
    },
    "request": {
      "method": "PUT",
      "url": "Patient/c44bb375-9561-47d1-a48d-179750f8a676"
    }
  }, {
    "fullUrl": "https://madie.cms.gov/Encounter/1c955939-cef6-428a-a6e4-69060653b8e1",
    "resource": {
      "resourceType": "Encounter",
      "id": "1c955939-cef6-428a-a6e4-69060653b8e1",
      "meta": {
        "profile": [ "http://hl7.org/fhir/us/qicore/StructureDefinition/qicore-encounter" ]
      },
      "status": "finished",
      "class": {
        "system": "http://terminology.hl7.org/CodeSystem/v3-ActCode",
        "code": "IMP",
        "display": "inpatient encounter"
      },
      "type": [ {
        "coding": [ {
          "system": "http://snomed.info/sct",
          "code": "183452005"
        } ]
      } ],
      "subject": {
        "reference": "Patient/c44bb375-9561-47d1-a48d-179750f8a676"
      },
      "period": {
        "start": "2026-02-01T08:00:00.000+00:00",
        "end": "2026-02-07T08:15:00.000+00:00"
      },
      "reasonReference": [ {
        "reference": "Condition/479428e1-edb6-4ea6-915a-1395777a46e9"
      } ]
    },
    "request": {
      "method": "PUT",
      "url": "Encounter/1c955939-cef6-428a-a6e4-69060653b8e1"
    }
  }, {
    "fullUrl": "https://madie.cms.gov/Condition/479428e1-edb6-4ea6-915a-1395777a46e9",
    "resource": {
      "resourceType": "Condition",
      "id": "479428e1-edb6-4ea6-915a-1395777a46e9",
      "meta": {
        "profile": [ "http://hl7.org/fhir/us/qicore/StructureDefinition/qicore-condition-encounter-diagnosis" ]
      },
      "clinicalStatus": {
        "coding": [ {
          "system": "http://terminology.hl7.org/CodeSystem/condition-clinical",
          "code": "active",
          "display": "Active",
          "userSelected": true
        } ]
      },
      "verificationStatus": {
        "coding": [ {
          "system": "http://terminology.hl7.org/CodeSystem/condition-ver-status",
          "code": "confirmed",
          "display": "Confirmed",
          "userSelected": true
        } ]
      },
      "category": [ {
        "coding": [ {
          "system": "http://terminology.hl7.org/CodeSystem/condition-category",
          "code": "encounter-diagnosis",
          "display": "Encounter Diagnosis",
          "userSelected": true
        } ]
      } ],
      "code": {
        "coding": [ {
          "system": "http://snomed.info/sct",
          "code": "70241007",
          "display": "Nutritional deficiency disorder (disorder)",
          "userSelected": true
        } ]
      },
      "subject": {
        "reference": "Patient/c44bb375-9561-47d1-a48d-179750f8a676"
      },
      "onsetPeriod": {
        "start": "2026-02-01T08:00:00.000+00:00"
      },
      "recordedDate": "2026-02-01T11:00:00.000+00:00"
    },
    "request": {
      "method": "PUT",
      "url": "Condition/479428e1-edb6-4ea6-915a-1395777a46e9"
    }
  }, {
    "fullUrl": "https://madie.cms.gov/Observation/d3c105fd-8086-4c23-bd61-6bcc6faf0a36",
    "resource": {
      "resourceType": "Observation",
      "id": "d3c105fd-8086-4c23-bd61-6bcc6faf0a36",
      "meta": {
        "profile": [ "http://hl7.org/fhir/us/qicore/StructureDefinition/qicore-observation-screening-assessment" ]
      },
      "status": "final",
      "category": [ {
        "coding": [ {
          "system": "http://terminology.hl7.org/CodeSystem/observation-category",
          "code": "survey",
          "display": "Survey"
        } ]
      } ],
      "code": {
        "coding": [ {
          "system": "http://loinc.org",
          "code": "75303-8",
          "display": "Nutrition assessment narrative",
          "userSelected": true
        } ]
      },
      "subject": {
        "reference": "Patient/c44bb375-9561-47d1-a48d-179750f8a676"
      },
      "effectiveDateTime": "2026-02-01T10:00:00.000+00:00",
      "valueCodeableConcept": {
        "coding": [ {
          "system": "http://snomed.info/sct",
          "code": "102636009",
          "display": "Chronic nutritional deficiency (finding)",
          "userSelected": true
        } ]
      }
    },
    "request": {
      "method": "PUT",
      "url": "Observation/d3c105fd-8086-4c23-bd61-6bcc6faf0a36"
    }
  }, {
    "fullUrl": "https://madie.cms.gov/Procedure/b03c5dc0-c2db-46ec-8f37-4684e3e04f95",
    "resource": {
      "resourceType": "Procedure",
      "id": "b03c5dc0-c2db-46ec-8f37-4684e3e04f95",
      "meta": {
        "profile": [ "http://hl7.org/fhir/us/qicore/StructureDefinition/qicore-procedure" ]
      },
      "extension": [ {
        "url": "http://hl7.org/fhir/us/qicore/StructureDefinition/qicore-recorded",
        "valueDateTime": "2026-02-01T11:30:00.000+00:00"
      } ],
      "status": "completed",
      "code": {
        "coding": [ {
          "system": "http://snomed.info/sct",
          "code": "306165000",
          "display": "Referral to hospital-based dietetics service (procedure)"
        } ],
        "text": "Referral to hospital-based dietetics service (procedure)"
      },
      "subject": {
        "reference": "Patient/c44bb375-9561-47d1-a48d-179750f8a676"
      },
      "encounter": {
        "reference": "Encounter/NoscreRefAsseModDxCpMSROBSPass4"
      },
      "performedPeriod": {
        "start": "2026-02-01T11:30:00.000+00:00",
        "end": "2026-02-07T08:15:00.000+00:00"
      }
    },
    "request": {
      "method": "PUT",
      "url": "Procedure/b03c5dc0-c2db-46ec-8f37-4684e3e04f95"
    }
  }, {
    "fullUrl": "https://madie.cms.gov/Procedure/0896929c-8ed6-46e2-bc85-a96d3439c2c6",
    "resource": {
      "resourceType": "Procedure",
      "id": "0896929c-8ed6-46e2-bc85-a96d3439c2c6",
      "meta": {
        "profile": [ "http://hl7.org/fhir/us/qicore/StructureDefinition/qicore-procedure" ]
      },
      "extension": [ {
        "url": "http://hl7.org/fhir/us/qicore/StructureDefinition/qicore-recorded",
        "valueDateTime": "2026-02-02T11:30:00.000+00:00"
      } ],
      "status": "completed",
      "code": {
        "coding": [ {
          "system": "http://snomed.info/sct",
          "code": "410172000",
          "display": "Nutrition care management (procedure)"
        } ],
        "text": "Nutrition care management (procedure)"
      },
      "subject": {
        "reference": "Patient/c44bb375-9561-47d1-a48d-179750f8a676"
      },
      "encounter": {
        "reference": "Encounter/NoscreRefAsseModDxCpMSROBSPass4"
      },
      "performedPeriod": {
        "start": "2026-02-01T11:30:00.000+00:00",
        "end": "2026-02-07T08:15:00.000+00:00"
      }
    },
    "request": {
      "method": "PUT",
      "url": "Procedure/0896929c-8ed6-46e2-bc85-a96d3439c2c6"
    }
  }, {
    "fullUrl": "https://madie.cms.gov/Coverage/3f9e4406-4a94-4716-a71c-d01028357e1d",
    "resource": {
      "resourceType": "Coverage",
      "id": "3f9e4406-4a94-4716-a71c-d01028357e1d",
      "meta": {
        "profile": [ "http://hl7.org/fhir/us/qicore/StructureDefinition/qicore-coverage" ]
      },
      "status": "active",
      "type": {
        "coding": [ {
          "system": "https://nahdo.org/sopt",
          "version": "9.2",
          "code": "11",
          "display": "Medicare Managed Care (Includes Medicare Advantage Plans)"
        } ]
      },
      "subscriberId": "97531",
      "beneficiary": {
        "reference": "Patient/c44bb375-9561-47d1-a48d-179750f8a676"
      },
      "dependent": "0",
      "relationship": {
        "coding": [ {
          "system": "http://terminology.hl7.org/CodeSystem/subscriber-relationship",
          "code": "self"
        } ]
      },
      "period": {
        "start": "2024-10-01T00:00:00.000+00:00"
      },
      "payor": [ {
        "reference": "Organization/26cabd76-4a24-4311-b5fb-591f6ccb3da1"
      } ]
    },
    "request": {
      "method": "PUT",
      "url": "Coverage/3f9e4406-4a94-4716-a71c-d01028357e1d"
    }
  }, {
    "fullUrl": "https://madie.cms.gov/Organization/26cabd76-4a24-4311-b5fb-591f6ccb3da1",
    "resource": {
      "resourceType": "Organization",
      "id": "26cabd76-4a24-4311-b5fb-591f6ccb3da1",
      "meta": {
        "profile": [ "http://hl7.org/fhir/us/qicore/StructureDefinition/qicore-organization" ]
      },
      "identifier": [ {
        "use": "temp",
        "system": "urn:oid:2.16.840.1.113883.4.4",
        "value": "21-3259825"
      } ],
      "active": true,
      "type": [ {
        "coding": [ {
          "system": "http://terminology.hl7.org/CodeSystem/organization-type",
          "code": "pay",
          "display": "Payer"
        } ]
      } ],
      "name": "Blue Cross Blue Shield of Texas",
      "telecom": [ {
        "system": "phone",
        "value": "(+1) 972-766-6900"
      } ],
      "address": [ {
        "use": "billing",
        "type": "postal",
        "line": [ "P.O. Box 660044" ],
        "city": "Dallas",
        "state": "TX",
        "postalCode": "75266-0044",
        "country": "USA"
      } ]
    },
    "request": {
      "method": "PUT",
      "url": "Organization/26cabd76-4a24-4311-b5fb-591f6ccb3da1"
    }
  }, {
    "fullUrl": "https://madie.cms.gov/MeasureReport/1d900c43-9bc0-4e77-8760-14b0a01bc5bf",
    "resource": {
      "resourceType": "MeasureReport",
      "id": "1d900c43-9bc0-4e77-8760-14b0a01bc5bf",
      "meta": {
        "profile": [ "http://hl7.org/fhir/us/cqfmeasures/StructureDefinition/test-case-cqfm" ]
      },
      "contained": [ {
        "resourceType": "Parameters",
        "id": "9a056911-6922-4ae5-806e-220dcd47fe33-parameters",
        "parameter": [ {
          "name": "subject",
          "valueString": "c44bb375-9561-47d1-a48d-179750f8a676"
        } ]
      } ],
      "extension": [ {
        "url": "http://hl7.org/fhir/StructureDefinition/cqf-inputParameters",
        "valueReference": {
          "reference": "#9a056911-6922-4ae5-806e-220dcd47fe33-parameters"
        }
      }, {
        "url": "http://hl7.org/fhir/us/cqfmeasures/StructureDefinition/cqfm-testCaseDescription",
        "valueMarkdown": "Not Screened, Referral, Assessed, Moderate Malnutrition, Diagnosis, Nutrition Care Plan"
      } ],
      "modifierExtension": [ {
        "url": "http://hl7.org/fhir/us/cqfmeasures/StructureDefinition/cqfm-isTestCase",
        "valueBoolean": true
      } ],
      "status": "complete",
      "type": "individual",
      "measure": "https://madie.cms.gov/Measure/CMS986FHIRMalnutritionScore",
      "period": {
        "start": "2026-01-01",
        "end": "2026-12-31"
      },
      "group": [ {
        "id": "Group_1",
        "population": [ {
          "id": "InitialPopulation_1",
          "code": {
            "coding": [ {
              "system": "http://terminology.hl7.org/CodeSystem/measure-population",
              "code": "initial-population",
              "display": "Initial Population"
            } ]
          },
          "count": 1
        }, {
          "id": "MeasurePopulation_1",
          "code": {
            "coding": [ {
              "system": "http://terminology.hl7.org/CodeSystem/measure-population",
              "code": "measure-population",
              "display": "Measure Population"
            } ]
          },
          "count": 1
        }, {
          "id": "MeasurePopulationExclusion_1",
          "code": {
            "coding": [ {
              "system": "http://terminology.hl7.org/CodeSystem/measure-population",
              "code": "measure-population-exclusion",
              "display": "Measure Population Exclusion"
            } ]
          },
          "count": 0
        }, {
          "id": "MeasureObservation_1_1",
          "code": {
            "coding": [ {
              "system": "http://terminology.hl7.org/CodeSystem/measure-population",
              "code": "measure-population-observation",
              "display": "Measure Population Observation"
            } ]
          },
          "count": 1
        } ],
        "measureScore": {
          "value": 0.0
        }
      }, {
        "id": "Group_2",
        "population": [ {
          "id": "InitialPopulation_2",
          "code": {
            "coding": [ {
              "system": "http://terminology.hl7.org/CodeSystem/measure-population",
              "code": "initial-population",
              "display": "Initial Population"
            } ]
          },
          "count": 1
        }, {
          "id": "MeasurePopulation_2",
          "code": {
            "coding": [ {
              "system": "http://terminology.hl7.org/CodeSystem/measure-population",
              "code": "measure-population",
              "display": "Measure Population"
            } ]
          },
          "count": 1
        }, {
          "id": "MeasurePopulationExclusion_2",
          "code": {
            "coding": [ {
              "system": "http://terminology.hl7.org/CodeSystem/measure-population",
              "code": "measure-population-exclusion",
              "display": "Measure Population Exclusion"
            } ]
          },
          "count": 0
        }, {
          "id": "MeasureObservation_2_1",
          "code": {
            "coding": [ {
              "system": "http://terminology.hl7.org/CodeSystem/measure-population",
              "code": "measure-population-observation",
              "display": "Measure Population Observation"
            } ]
          },
          "count": 1
        } ],
        "measureScore": {
          "value": 0.0
        }
      }, {
        "id": "Group_3",
        "population": [ {
          "id": "InitialPopulation_3",
          "code": {
            "coding": [ {
              "system": "http://terminology.hl7.org/CodeSystem/measure-population",
              "code": "initial-population",
              "display": "Initial Population"
            } ]
          },
          "count": 1
        }, {
          "id": "MeasurePopulation_3",
          "code": {
            "coding": [ {
              "system": "http://terminology.hl7.org/CodeSystem/measure-population",
              "code": "measure-population",
              "display": "Measure Population"
            } ]
          },
          "count": 1
        }, {
          "id": "MeasurePopulationExclusion_3",
          "code": {
            "coding": [ {
              "system": "http://terminology.hl7.org/CodeSystem/measure-population",
              "code": "measure-population-exclusion",
              "display": "Measure Population Exclusion"
            } ]
          },
          "count": 0
        }, {
          "id": "MeasureObservation_3_1",
          "code": {
            "coding": [ {
              "system": "http://terminology.hl7.org/CodeSystem/measure-population",
              "code": "measure-population-observation",
              "display": "Measure Population Observation"
            } ]
          },
          "count": 1
        } ],
        "measureScore": {
          "value": 0.0
        }
      }, {
        "id": "Group_4",
        "population": [ {
          "id": "InitialPopulation_4",
          "code": {
            "coding": [ {
              "system": "http://terminology.hl7.org/CodeSystem/measure-population",
              "code": "initial-population",
              "display": "Initial Population"
            } ]
          },
          "count": 1
        }, {
          "id": "MeasurePopulation_4",
          "code": {
            "coding": [ {
              "system": "http://terminology.hl7.org/CodeSystem/measure-population",
              "code": "measure-population",
              "display": "Measure Population"
            } ]
          },
          "count": 1
        }, {
          "id": "MeasurePopulationExclusion_4",
          "code": {
            "coding": [ {
              "system": "http://terminology.hl7.org/CodeSystem/measure-population",
              "code": "measure-population-exclusion",
              "display": "Measure Population Exclusion"
            } ]
          },
          "count": 0
        }, {
          "id": "MeasureObservation_4_1",
          "code": {
            "coding": [ {
              "system": "http://terminology.hl7.org/CodeSystem/measure-population",
              "code": "measure-population-observation",
              "display": "Measure Population Observation"
            } ]
          },
          "count": 1
        } ],
        "measureScore": {
          "value": 0.0
        }
      }, {
        "id": "Group_5",
        "population": [ {
          "id": "InitialPopulation_5",
          "code": {
            "coding": [ {
              "system": "http://terminology.hl7.org/CodeSystem/measure-population",
              "code": "initial-population",
              "display": "Initial Population"
            } ]
          },
          "count": 1
        }, {
          "id": "MeasurePopulation_5",
          "code": {
            "coding": [ {
              "system": "http://terminology.hl7.org/CodeSystem/measure-population",
              "code": "measure-population",
              "display": "Measure Population"
            } ]
          },
          "count": 1
        }, {
          "id": "MeasurePopulationExclusion_5",
          "code": {
            "coding": [ {
              "system": "http://terminology.hl7.org/CodeSystem/measure-population",
              "code": "measure-population-exclusion",
              "display": "Measure Population Exclusion"
            } ]
          },
          "count": 0
        }, {
          "id": "MeasureObservation_5_1",
          "code": {
            "coding": [ {
              "system": "http://terminology.hl7.org/CodeSystem/measure-population",
              "code": "measure-population-observation",
              "display": "Measure Population Observation"
            } ]
          },
          "count": 4
        } ],
        "measureScore": {
          "value": 0.0
        }
      }, {
        "id": "Group_6",
        "population": [ {
          "id": "InitialPopulation_6",
          "code": {
            "coding": [ {
              "system": "http://terminology.hl7.org/CodeSystem/measure-population",
              "code": "initial-population",
              "display": "Initial Population"
            } ]
          },
          "count": 1
        }, {
          "id": "MeasurePopulation_6",
          "code": {
            "coding": [ {
              "system": "http://terminology.hl7.org/CodeSystem/measure-population",
              "code": "measure-population",
              "display": "Measure Population"
            } ]
          },
          "count": 1
        }, {
          "id": "MeasurePopulationExclusion_6",
          "code": {
            "coding": [ {
              "system": "http://terminology.hl7.org/CodeSystem/measure-population",
              "code": "measure-population-exclusion",
              "display": "Measure Population Exclusion"
            } ]
          },
          "count": 0
        }, {
          "id": "MeasureObservation_6_1",
          "code": {
            "coding": [ {
              "system": "http://terminology.hl7.org/CodeSystem/measure-population",
              "code": "measure-population-observation",
              "display": "Measure Population Observation"
            } ]
          },
          "count": 100
        } ],
        "measureScore": {
          "value": 0.0
        }
      } ],
      "evaluatedResource": [ {
        "reference": "Patient/c44bb375-9561-47d1-a48d-179750f8a676"
      }, {
        "reference": "Encounter/1c955939-cef6-428a-a6e4-69060653b8e1"
      }, {
        "reference": "Condition/479428e1-edb6-4ea6-915a-1395777a46e9"
      }, {
        "reference": "Observation/d3c105fd-8086-4c23-bd61-6bcc6faf0a36"
      }, {
        "reference": "Procedure/b03c5dc0-c2db-46ec-8f37-4684e3e04f95"
      }, {
        "reference": "Procedure/0896929c-8ed6-46e2-bc85-a96d3439c2c6"
      }, {
        "reference": "Coverage/3f9e4406-4a94-4716-a71c-d01028357e1d"
      }, {
        "reference": "Organization/26cabd76-4a24-4311-b5fb-591f6ccb3da1"
      } ]
    },
    "request": {
      "method": "PUT",
      "url": "MeasureReport/1d900c43-9bc0-4e77-8760-14b0a01bc5bf"
    }
  } ]
}