{
  "resourceType": "Bundle",
  "id": "2Encountersat100752",
  "type": "transaction",
  "entry": [ {
    "fullUrl": "https://madie.cms.gov/Patient/95c5116d-15f0-4367-b467-dca152f6b43c",
    "resource": {
      "resourceType": "Patient",
      "id": "95c5116d-15f0-4367-b467-dca152f6b43c",
      "meta": {
        "profile": [ "http://hl7.org/fhir/us/qicore/StructureDefinition/qicore-patient" ]
      },
      "extension": [ {
        "url": "http://hl7.org/fhir/us/core/StructureDefinition/us-core-race",
        "extension": [ {
          "url": "ombCategory",
          "valueCoding": {
            "system": "urn:oid:2.16.840.1.113883.6.238",
            "code": "2106-3",
            "display": "White",
            "userSelected": true
          }
        }, {
          "url": "text",
          "valueString": "White"
        } ]
      }, {
        "url": "http://hl7.org/fhir/us/core/StructureDefinition/us-core-ethnicity",
        "extension": [ {
          "url": "ombCategory",
          "valueCoding": {
            "system": "urn:oid:2.16.840.1.113883.6.238",
            "code": "2186-5",
            "display": "Not Hispanic or Latino",
            "userSelected": true
          }
        }, {
          "url": "text",
          "valueString": "Not Hispanic or Latino"
        } ]
      }, {
        "url": "http://hl7.org/fhir/us/core/StructureDefinition/us-core-sex",
        "valueCode": "248152002"
      } ],
      "identifier": [ {
        "type": {
          "coding": [ {
            "system": "http://terminology.hl7.org/CodeSystem/v2-0203",
            "code": "MR"
          } ]
        },
        "system": "https://madie.cms.gov/",
        "value": "2Encountersat100752"
      } ],
      "active": true,
      "name": [ {
        "use": "usual",
        "text": "2Encountersat100752",
        "family": "MSROBSPass4",
        "given": [ "2Encountersat100752" ]
      } ],
      "gender": "female",
      "birthDate": "1953-01-01",
      "address": [ {
        "text": "2Encountersat100752, Screened Not at risk Assessed Severely Malnourished Diagnosed Care Plan, ID=2Encountersat100752, DOB: 01 Jan 1953"
      } ]
    },
    "request": {
      "method": "PUT",
      "url": "Patient/95c5116d-15f0-4367-b467-dca152f6b43c"
    }
  }, {
    "fullUrl": "https://madie.cms.gov/Encounter/88fbd84b-6402-4b1e-9b61-33efe6e1ee45",
    "resource": {
      "resourceType": "Encounter",
      "id": "88fbd84b-6402-4b1e-9b61-33efe6e1ee45",
      "meta": {
        "profile": [ "http://hl7.org/fhir/us/qicore/StructureDefinition/qicore-encounter" ]
      },
      "status": "finished",
      "class": {
        "system": "http://terminology.hl7.org/CodeSystem/v3-ActCode",
        "code": "IMP",
        "display": "inpatient encounter"
      },
      "type": [ {
        "coding": [ {
          "system": "http://snomed.info/sct",
          "code": "32485007"
        } ]
      } ],
      "subject": {
        "reference": "Patient/95c5116d-15f0-4367-b467-dca152f6b43c"
      },
      "period": {
        "start": "2026-05-01T08:00:00.000+00:00",
        "end": "2026-05-10T08:15:00.000+00:00"
      },
      "reasonReference": [ {
        "reference": "Condition/bbebc84e-d875-4ddf-a370-0693f1385950"
      } ]
    },
    "request": {
      "method": "PUT",
      "url": "Encounter/88fbd84b-6402-4b1e-9b61-33efe6e1ee45"
    }
  }, {
    "fullUrl": "https://madie.cms.gov/Condition/bbebc84e-d875-4ddf-a370-0693f1385950",
    "resource": {
      "resourceType": "Condition",
      "id": "bbebc84e-d875-4ddf-a370-0693f1385950",
      "meta": {
        "profile": [ "http://hl7.org/fhir/us/qicore/StructureDefinition/qicore-condition-encounter-diagnosis" ]
      },
      "clinicalStatus": {
        "coding": [ {
          "system": "http://terminology.hl7.org/CodeSystem/condition-clinical",
          "code": "active",
          "display": "Active",
          "userSelected": true
        } ]
      },
      "verificationStatus": {
        "coding": [ {
          "system": "http://terminology.hl7.org/CodeSystem/condition-ver-status",
          "code": "confirmed",
          "display": "Confirmed",
          "userSelected": true
        } ]
      },
      "category": [ {
        "coding": [ {
          "system": "http://terminology.hl7.org/CodeSystem/condition-category",
          "code": "encounter-diagnosis",
          "display": "Encounter Diagnosis",
          "userSelected": true
        } ]
      } ],
      "code": {
        "coding": [ {
          "system": "http://hl7.org/fhir/sid/icd-10-cm",
          "code": "E46",
          "display": "Unspecified protein-calorie malnutrition",
          "userSelected": true
        } ]
      },
      "subject": {
        "reference": "Patient/95c5116d-15f0-4367-b467-dca152f6b43c"
      },
      "onsetPeriod": {
        "start": "2026-05-01T08:00:00.000+00:00",
        "end": "2026-05-06T08:00:00.000+00:00"
      },
      "recordedDate": "2026-05-01T11:00:00.000+00:00"
    },
    "request": {
      "method": "PUT",
      "url": "Condition/bbebc84e-d875-4ddf-a370-0693f1385950"
    }
  }, {
    "fullUrl": "https://madie.cms.gov/Observation/e52443c4-b331-4e2a-8b75-d04d770acf6a",
    "resource": {
      "resourceType": "Observation",
      "id": "e52443c4-b331-4e2a-8b75-d04d770acf6a",
      "meta": {
        "profile": [ "http://hl7.org/fhir/us/qicore/StructureDefinition/qicore-observation-screening-assessment" ]
      },
      "status": "final",
      "category": [ {
        "coding": [ {
          "system": "http://terminology.hl7.org/CodeSystem/observation-category",
          "code": "survey",
          "display": "Survey"
        } ]
      } ],
      "code": {
        "coding": [ {
          "system": "http://loinc.org",
          "code": "75282-4",
          "display": "nutrition assessment panel",
          "userSelected": true
        } ]
      },
      "subject": {
        "reference": "Patient/95c5116d-15f0-4367-b467-dca152f6b43c"
      },
      "effectiveDateTime": "2026-05-01T10:00:00.000+00:00",
      "valueCodeableConcept": {
        "coding": [ {
          "system": "http://snomed.info/sct",
          "code": "102636009",
          "display": "Chronic nutritional deficiency (finding)",
          "userSelected": true
        } ]
      }
    },
    "request": {
      "method": "PUT",
      "url": "Observation/e52443c4-b331-4e2a-8b75-d04d770acf6a"
    }
  }, {
    "fullUrl": "https://madie.cms.gov/Procedure/5cce33a4-d08a-47c9-9af5-4d545aaa5cae",
    "resource": {
      "resourceType": "Procedure",
      "id": "5cce33a4-d08a-47c9-9af5-4d545aaa5cae",
      "meta": {
        "profile": [ "http://hl7.org/fhir/us/qicore/StructureDefinition/qicore-procedure" ]
      },
      "extension": [ {
        "url": "http://hl7.org/fhir/us/qicore/StructureDefinition/qicore-recorded",
        "valueDateTime": "2026-05-01T11:30:00.000+00:00"
      } ],
      "status": "completed",
      "code": {
        "coding": [ {
          "system": "http://snomed.info/sct",
          "code": "306165000",
          "display": "Referral to hospital-based dietetics service (procedure)"
        } ],
        "text": "Referral to hospital-based dietetics service (procedure)"
      },
      "subject": {
        "reference": "Patient/95c5116d-15f0-4367-b467-dca152f6b43c"
      },
      "encounter": {
        "reference": "Encounter/2Encountersat100752MSROBSPass4"
      },
      "performedPeriod": {
        "start": "2026-05-01T11:30:00.000+00:00",
        "end": "2026-05-07T08:15:00.000+00:00"
      }
    },
    "request": {
      "method": "PUT",
      "url": "Procedure/5cce33a4-d08a-47c9-9af5-4d545aaa5cae"
    }
  }, {
    "fullUrl": "https://madie.cms.gov/Procedure/b208530d-fc97-4b00-8533-0d138b9fc9b6",
    "resource": {
      "resourceType": "Procedure",
      "id": "b208530d-fc97-4b00-8533-0d138b9fc9b6",
      "meta": {
        "profile": [ "http://hl7.org/fhir/us/qicore/StructureDefinition/qicore-procedure" ]
      },
      "extension": [ {
        "url": "http://hl7.org/fhir/us/qicore/StructureDefinition/qicore-recorded",
        "valueDateTime": "2025-05-02T11:30:00.000+00:00"
      } ],
      "status": "completed",
      "code": {
        "coding": [ {
          "system": "http://snomed.info/sct",
          "code": "410175003",
          "display": "Dietary regime management"
        } ],
        "text": "Dietary regime management"
      },
      "subject": {
        "reference": "Patient/95c5116d-15f0-4367-b467-dca152f6b43c"
      },
      "encounter": {
        "reference": "Encounter/2Encountersat100752MSROBSPass4"
      },
      "performedPeriod": {
        "start": "2026-05-01T11:30:00.000+00:00",
        "end": "2026-05-07T08:15:00.000+00:00"
      }
    },
    "request": {
      "method": "PUT",
      "url": "Procedure/b208530d-fc97-4b00-8533-0d138b9fc9b6"
    }
  }, {
    "fullUrl": "https://madie.cms.gov/Coverage/422e1470-5173-4aef-a719-bf4f755d982e",
    "resource": {
      "resourceType": "Coverage",
      "id": "422e1470-5173-4aef-a719-bf4f755d982e",
      "meta": {
        "profile": [ "http://hl7.org/fhir/us/qicore/StructureDefinition/qicore-coverage" ]
      },
      "status": "active",
      "type": {
        "coding": [ {
          "system": "https://nahdo.org/sopt",
          "version": "9.2",
          "code": "11",
          "display": "Medicare Managed Care (Includes Medicare Advantage Plans)"
        } ]
      },
      "subscriberId": "97531",
      "beneficiary": {
        "reference": "Patient/95c5116d-15f0-4367-b467-dca152f6b43c"
      },
      "dependent": "0",
      "relationship": {
        "coding": [ {
          "system": "http://terminology.hl7.org/CodeSystem/subscriber-relationship",
          "code": "self"
        } ]
      },
      "period": {
        "start": "2024-10-01T00:00:00.000+00:00"
      },
      "payor": [ {
        "reference": "Organization/1367433d-0034-49e9-b1f9-be24dc4ffaed"
      } ]
    },
    "request": {
      "method": "PUT",
      "url": "Coverage/422e1470-5173-4aef-a719-bf4f755d982e"
    }
  }, {
    "fullUrl": "https://madie.cms.gov/Encounter/4145f6f4-cdde-41b3-a482-9ae0cb89a0af",
    "resource": {
      "resourceType": "Encounter",
      "id": "4145f6f4-cdde-41b3-a482-9ae0cb89a0af",
      "meta": {
        "profile": [ "http://hl7.org/fhir/us/qicore/StructureDefinition/qicore-encounter" ]
      },
      "status": "finished",
      "class": {
        "system": "http://terminology.hl7.org/CodeSystem/v3-ActCode",
        "code": "IMP",
        "display": "inpatient encounter"
      },
      "type": [ {
        "coding": [ {
          "system": "http://snomed.info/sct",
          "code": "183452005"
        } ]
      } ],
      "subject": {
        "reference": "Patient/95c5116d-15f0-4367-b467-dca152f6b43c"
      },
      "period": {
        "start": "2026-07-01T08:00:00.000+00:00",
        "end": "2026-07-07T08:15:00.000+00:00"
      }
    },
    "request": {
      "method": "PUT",
      "url": "Encounter/4145f6f4-cdde-41b3-a482-9ae0cb89a0af"
    }
  }, {
    "fullUrl": "https://madie.cms.gov/Observation/dba48bd2-fd95-42c5-9820-110387f6b6d6",
    "resource": {
      "resourceType": "Observation",
      "id": "dba48bd2-fd95-42c5-9820-110387f6b6d6",
      "meta": {
        "profile": [ "http://hl7.org/fhir/us/qicore/StructureDefinition/qicore-observation-screening-assessment" ]
      },
      "status": "final",
      "category": [ {
        "coding": [ {
          "system": "http://terminology.hl7.org/CodeSystem/observation-category",
          "code": "survey",
          "display": "Survey"
        } ]
      } ],
      "code": {
        "coding": [ {
          "system": "http://loinc.org",
          "code": "75282-4",
          "display": "Nutrition assessment panel",
          "userSelected": true
        } ]
      },
      "subject": {
        "reference": "Patient/95c5116d-15f0-4367-b467-dca152f6b43c"
      },
      "effectiveDateTime": "2026-07-02T10:00:00.000+00:00",
      "valueCodeableConcept": {
        "coding": [ {
          "system": "http://snomed.info/sct",
          "code": "102636009",
          "display": "Chronic nutritional deficiency (finding)",
          "userSelected": true
        } ]
      }
    },
    "request": {
      "method": "PUT",
      "url": "Observation/dba48bd2-fd95-42c5-9820-110387f6b6d6"
    }
  }, {
    "fullUrl": "https://madie.cms.gov/Procedure/6f2d7462-3e8c-4ce8-8aa5-67fa0b36a137",
    "resource": {
      "resourceType": "Procedure",
      "id": "6f2d7462-3e8c-4ce8-8aa5-67fa0b36a137",
      "meta": {
        "profile": [ "http://hl7.org/fhir/us/qicore/StructureDefinition/qicore-procedure" ]
      },
      "extension": [ {
        "url": "http://hl7.org/fhir/us/qicore/StructureDefinition/qicore-recorded",
        "valueDateTime": "2026-07-01T11:30:00.000+00:00"
      } ],
      "status": "completed",
      "code": {
        "coding": [ {
          "system": "http://snomed.info/sct",
          "code": "306165000",
          "display": "Referral to hospital-based dietetics service"
        } ],
        "text": "Referral to hospital-based dietetics service"
      },
      "subject": {
        "reference": "Patient/95c5116d-15f0-4367-b467-dca152f6b43c"
      },
      "encounter": {
        "reference": "Encounter/2Encountersat100752MSROBSPass4"
      },
      "performedPeriod": {
        "start": "2026-07-01T11:30:00.000+00:00",
        "end": "2026-07-07T08:15:00.000+00:00"
      }
    },
    "request": {
      "method": "PUT",
      "url": "Procedure/6f2d7462-3e8c-4ce8-8aa5-67fa0b36a137"
    }
  }, {
    "fullUrl": "https://madie.cms.gov/Procedure/3403e08d-bc65-4110-8338-5f3db822252a",
    "resource": {
      "resourceType": "Procedure",
      "id": "3403e08d-bc65-4110-8338-5f3db822252a",
      "meta": {
        "profile": [ "http://hl7.org/fhir/us/qicore/StructureDefinition/qicore-procedure" ]
      },
      "extension": [ {
        "url": "http://hl7.org/fhir/us/qicore/StructureDefinition/qicore-recorded",
        "valueDateTime": "2026-07-02T11:30:00.000+00:00"
      } ],
      "status": "completed",
      "code": {
        "coding": [ {
          "system": "http://snomed.info/sct",
          "code": "386372009",
          "display": "Nutrition management"
        } ],
        "text": "Nutrition management (regime/therapy)"
      },
      "subject": {
        "reference": "Patient/95c5116d-15f0-4367-b467-dca152f6b43c"
      },
      "encounter": {
        "reference": "Encounter/2Encountersat100752MSROBSPass4"
      },
      "performedPeriod": {
        "start": "2026-07-01T11:30:00.000+00:00",
        "end": "2026-07-07T08:15:00.000+00:00"
      }
    },
    "request": {
      "method": "PUT",
      "url": "Procedure/3403e08d-bc65-4110-8338-5f3db822252a"
    }
  }, {
    "fullUrl": "https://madie.cms.gov/Coverage/07162ccc-9de5-4d9a-9d2b-3c7375597e3d",
    "resource": {
      "resourceType": "Coverage",
      "id": "07162ccc-9de5-4d9a-9d2b-3c7375597e3d",
      "meta": {
        "profile": [ "http://hl7.org/fhir/us/qicore/StructureDefinition/qicore-coverage" ]
      },
      "status": "active",
      "type": {
        "coding": [ {
          "system": "https://nahdo.org/sopt",
          "version": "9.2",
          "code": "11",
          "display": "Medicare Managed Care (Includes Medicare Advantage Plans)"
        } ]
      },
      "subscriberId": "97531",
      "beneficiary": {
        "reference": "Patient/95c5116d-15f0-4367-b467-dca152f6b43c"
      },
      "dependent": "0",
      "relationship": {
        "coding": [ {
          "system": "http://terminology.hl7.org/CodeSystem/subscriber-relationship",
          "code": "self"
        } ]
      },
      "period": {
        "start": "2024-10-01T00:00:00.000+00:00"
      },
      "payor": [ {
        "reference": "Organization/1367433d-0034-49e9-b1f9-be24dc4ffaed"
      } ]
    },
    "request": {
      "method": "PUT",
      "url": "Coverage/07162ccc-9de5-4d9a-9d2b-3c7375597e3d"
    }
  }, {
    "fullUrl": "https://madie.cms.gov/Organization/1367433d-0034-49e9-b1f9-be24dc4ffaed",
    "resource": {
      "resourceType": "Organization",
      "id": "1367433d-0034-49e9-b1f9-be24dc4ffaed",
      "meta": {
        "profile": [ "http://hl7.org/fhir/us/qicore/StructureDefinition/qicore-organization" ]
      },
      "identifier": [ {
        "use": "temp",
        "system": "urn:oid:2.16.840.1.113883.4.4",
        "value": "21-3259825"
      } ],
      "active": true,
      "type": [ {
        "coding": [ {
          "system": "http://terminology.hl7.org/CodeSystem/organization-type",
          "code": "pay",
          "display": "Payer"
        } ]
      } ],
      "name": "Blue Cross Blue Shield of Texas",
      "telecom": [ {
        "system": "phone",
        "value": "(+1) 972-766-6900"
      } ],
      "address": [ {
        "use": "billing",
        "type": "postal",
        "line": [ "P.O. Box 660044" ],
        "city": "Dallas",
        "state": "TX",
        "postalCode": "75266-0044",
        "country": "USA"
      } ]
    },
    "request": {
      "method": "PUT",
      "url": "Organization/1367433d-0034-49e9-b1f9-be24dc4ffaed"
    }
  }, {
    "fullUrl": "https://madie.cms.gov/MeasureReport/7d852f02-b117-4dcc-8e1e-ad5de2731582",
    "resource": {
      "resourceType": "MeasureReport",
      "id": "7d852f02-b117-4dcc-8e1e-ad5de2731582",
      "meta": {
        "profile": [ "http://hl7.org/fhir/us/cqfmeasures/StructureDefinition/test-case-cqfm" ]
      },
      "contained": [ {
        "resourceType": "Parameters",
        "id": "13ef2fba-bec3-4555-b795-7b14d7adb23e-parameters",
        "parameter": [ {
          "name": "subject",
          "valueString": "95c5116d-15f0-4367-b467-dca152f6b43c"
        } ]
      } ],
      "extension": [ {
        "url": "http://hl7.org/fhir/StructureDefinition/cqf-inputParameters",
        "valueReference": {
          "reference": "#13ef2fba-bec3-4555-b795-7b14d7adb23e-parameters"
        }
      }, {
        "url": "http://hl7.org/fhir/us/cqfmeasures/StructureDefinition/cqfm-testCaseDescription",
        "valueMarkdown": "Multiple Encounters"
      } ],
      "modifierExtension": [ {
        "url": "http://hl7.org/fhir/us/cqfmeasures/StructureDefinition/cqfm-isTestCase",
        "valueBoolean": true
      } ],
      "status": "complete",
      "type": "individual",
      "measure": "https://madie.cms.gov/Measure/CMS986FHIRMalnutritionScore",
      "period": {
        "start": "2026-01-01",
        "end": "2026-12-31"
      },
      "group": [ {
        "id": "Group_1",
        "population": [ {
          "id": "InitialPopulation_1",
          "code": {
            "coding": [ {
              "system": "http://terminology.hl7.org/CodeSystem/measure-population",
              "code": "initial-population",
              "display": "Initial Population"
            } ]
          },
          "count": 2
        }, {
          "id": "MeasurePopulation_1",
          "code": {
            "coding": [ {
              "system": "http://terminology.hl7.org/CodeSystem/measure-population",
              "code": "measure-population",
              "display": "Measure Population"
            } ]
          },
          "count": 2
        }, {
          "id": "MeasurePopulationExclusion_1",
          "code": {
            "coding": [ {
              "system": "http://terminology.hl7.org/CodeSystem/measure-population",
              "code": "measure-population-exclusion",
              "display": "Measure Population Exclusion"
            } ]
          },
          "count": 0
        }, {
          "id": "MeasureObservation_1_1",
          "code": {
            "coding": [ {
              "system": "http://terminology.hl7.org/CodeSystem/measure-population",
              "code": "measure-population-observation",
              "display": "Measure Population Observation"
            } ]
          },
          "count": 1
        }, {
          "id": "MeasureObservation_1_2",
          "code": {
            "coding": [ {
              "system": "http://terminology.hl7.org/CodeSystem/measure-population",
              "code": "measure-population-observation",
              "display": "Measure Population Observation"
            } ]
          },
          "count": 1
        } ],
        "measureScore": {
          "value": 0.0
        }
      }, {
        "id": "Group_2",
        "population": [ {
          "id": "InitialPopulation_2",
          "code": {
            "coding": [ {
              "system": "http://terminology.hl7.org/CodeSystem/measure-population",
              "code": "initial-population",
              "display": "Initial Population"
            } ]
          },
          "count": 2
        }, {
          "id": "MeasurePopulation_2",
          "code": {
            "coding": [ {
              "system": "http://terminology.hl7.org/CodeSystem/measure-population",
              "code": "measure-population",
              "display": "Measure Population"
            } ]
          },
          "count": 2
        }, {
          "id": "MeasurePopulationExclusion_2",
          "code": {
            "coding": [ {
              "system": "http://terminology.hl7.org/CodeSystem/measure-population",
              "code": "measure-population-exclusion",
              "display": "Measure Population Exclusion"
            } ]
          },
          "count": 0
        }, {
          "id": "MeasureObservation_2_1",
          "code": {
            "coding": [ {
              "system": "http://terminology.hl7.org/CodeSystem/measure-population",
              "code": "measure-population-observation",
              "display": "Measure Population Observation"
            } ]
          },
          "count": 1
        }, {
          "id": "MeasureObservation_2_2",
          "code": {
            "coding": [ {
              "system": "http://terminology.hl7.org/CodeSystem/measure-population",
              "code": "measure-population-observation",
              "display": "Measure Population Observation"
            } ]
          },
          "count": 1
        } ],
        "measureScore": {
          "value": 0.0
        }
      }, {
        "id": "Group_3",
        "population": [ {
          "id": "InitialPopulation_3",
          "code": {
            "coding": [ {
              "system": "http://terminology.hl7.org/CodeSystem/measure-population",
              "code": "initial-population",
              "display": "Initial Population"
            } ]
          },
          "count": 2
        }, {
          "id": "MeasurePopulation_3",
          "code": {
            "coding": [ {
              "system": "http://terminology.hl7.org/CodeSystem/measure-population",
              "code": "measure-population",
              "display": "Measure Population"
            } ]
          },
          "count": 2
        }, {
          "id": "MeasurePopulationExclusion_3",
          "code": {
            "coding": [ {
              "system": "http://terminology.hl7.org/CodeSystem/measure-population",
              "code": "measure-population-exclusion",
              "display": "Measure Population Exclusion"
            } ]
          },
          "count": 0
        }, {
          "id": "MeasureObservation_3_1",
          "code": {
            "coding": [ {
              "system": "http://terminology.hl7.org/CodeSystem/measure-population",
              "code": "measure-population-observation",
              "display": "Measure Population Observation"
            } ]
          },
          "count": 1
        }, {
          "id": "MeasureObservation_3_2",
          "code": {
            "coding": [ {
              "system": "http://terminology.hl7.org/CodeSystem/measure-population",
              "code": "measure-population-observation",
              "display": "Measure Population Observation"
            } ]
          },
          "count": 1
        } ],
        "measureScore": {
          "value": 0.0
        }
      }, {
        "id": "Group_4",
        "population": [ {
          "id": "InitialPopulation_4",
          "code": {
            "coding": [ {
              "system": "http://terminology.hl7.org/CodeSystem/measure-population",
              "code": "initial-population",
              "display": "Initial Population"
            } ]
          },
          "count": 2
        }, {
          "id": "MeasurePopulation_4",
          "code": {
            "coding": [ {
              "system": "http://terminology.hl7.org/CodeSystem/measure-population",
              "code": "measure-population",
              "display": "Measure Population"
            } ]
          },
          "count": 2
        }, {
          "id": "MeasurePopulationExclusion_4",
          "code": {
            "coding": [ {
              "system": "http://terminology.hl7.org/CodeSystem/measure-population",
              "code": "measure-population-exclusion",
              "display": "Measure Population Exclusion"
            } ]
          },
          "count": 0
        }, {
          "id": "MeasureObservation_4_1",
          "code": {
            "coding": [ {
              "system": "http://terminology.hl7.org/CodeSystem/measure-population",
              "code": "measure-population-observation",
              "display": "Measure Population Observation"
            } ]
          },
          "count": 1
        }, {
          "id": "MeasureObservation_4_2",
          "code": {
            "coding": [ {
              "system": "http://terminology.hl7.org/CodeSystem/measure-population",
              "code": "measure-population-observation",
              "display": "Measure Population Observation"
            } ]
          },
          "count": 1
        } ],
        "measureScore": {
          "value": 0.0
        }
      }, {
        "id": "Group_5",
        "population": [ {
          "id": "InitialPopulation_5",
          "code": {
            "coding": [ {
              "system": "http://terminology.hl7.org/CodeSystem/measure-population",
              "code": "initial-population",
              "display": "Initial Population"
            } ]
          },
          "count": 2
        }, {
          "id": "MeasurePopulation_5",
          "code": {
            "coding": [ {
              "system": "http://terminology.hl7.org/CodeSystem/measure-population",
              "code": "measure-population",
              "display": "Measure Population"
            } ]
          },
          "count": 2
        }, {
          "id": "MeasurePopulationExclusion_5",
          "code": {
            "coding": [ {
              "system": "http://terminology.hl7.org/CodeSystem/measure-population",
              "code": "measure-population-exclusion",
              "display": "Measure Population Exclusion"
            } ]
          },
          "count": 0
        }, {
          "id": "MeasureObservation_5_1",
          "code": {
            "coding": [ {
              "system": "http://terminology.hl7.org/CodeSystem/measure-population",
              "code": "measure-population-observation",
              "display": "Measure Population Observation"
            } ]
          },
          "count": 4
        }, {
          "id": "MeasureObservation_5_2",
          "code": {
            "coding": [ {
              "system": "http://terminology.hl7.org/CodeSystem/measure-population",
              "code": "measure-population-observation",
              "display": "Measure Population Observation"
            } ]
          },
          "count": 4
        } ],
        "measureScore": {
          "value": 0.0
        }
      }, {
        "id": "Group_6",
        "population": [ {
          "id": "InitialPopulation_6",
          "code": {
            "coding": [ {
              "system": "http://terminology.hl7.org/CodeSystem/measure-population",
              "code": "initial-population",
              "display": "Initial Population"
            } ]
          },
          "count": 2
        }, {
          "id": "MeasurePopulation_6",
          "code": {
            "coding": [ {
              "system": "http://terminology.hl7.org/CodeSystem/measure-population",
              "code": "measure-population",
              "display": "Measure Population"
            } ]
          },
          "count": 2
        }, {
          "id": "MeasurePopulationExclusion_6",
          "code": {
            "coding": [ {
              "system": "http://terminology.hl7.org/CodeSystem/measure-population",
              "code": "measure-population-exclusion",
              "display": "Measure Population Exclusion"
            } ]
          },
          "count": 0
        }, {
          "id": "MeasureObservation_6_1",
          "code": {
            "coding": [ {
              "system": "http://terminology.hl7.org/CodeSystem/measure-population",
              "code": "measure-population-observation",
              "display": "Measure Population Observation"
            } ]
          },
          "count": 100
        }, {
          "id": "MeasureObservation_6_2",
          "code": {
            "coding": [ {
              "system": "http://terminology.hl7.org/CodeSystem/measure-population",
              "code": "measure-population-observation",
              "display": "Measure Population Observation"
            } ]
          },
          "count": 100
        } ],
        "measureScore": {
          "value": 0.0
        }
      } ],
      "evaluatedResource": [ {
        "reference": "Patient/95c5116d-15f0-4367-b467-dca152f6b43c"
      }, {
        "reference": "Encounter/88fbd84b-6402-4b1e-9b61-33efe6e1ee45"
      }, {
        "reference": "Condition/bbebc84e-d875-4ddf-a370-0693f1385950"
      }, {
        "reference": "Observation/e52443c4-b331-4e2a-8b75-d04d770acf6a"
      }, {
        "reference": "Procedure/5cce33a4-d08a-47c9-9af5-4d545aaa5cae"
      }, {
        "reference": "Procedure/b208530d-fc97-4b00-8533-0d138b9fc9b6"
      }, {
        "reference": "Coverage/422e1470-5173-4aef-a719-bf4f755d982e"
      }, {
        "reference": "Encounter/4145f6f4-cdde-41b3-a482-9ae0cb89a0af"
      }, {
        "reference": "Observation/dba48bd2-fd95-42c5-9820-110387f6b6d6"
      }, {
        "reference": "Procedure/6f2d7462-3e8c-4ce8-8aa5-67fa0b36a137"
      }, {
        "reference": "Procedure/3403e08d-bc65-4110-8338-5f3db822252a"
      }, {
        "reference": "Coverage/07162ccc-9de5-4d9a-9d2b-3c7375597e3d"
      }, {
        "reference": "Organization/1367433d-0034-49e9-b1f9-be24dc4ffaed"
      } ]
    },
    "request": {
      "method": "PUT",
      "url": "MeasureReport/7d852f02-b117-4dcc-8e1e-ad5de2731582"
    }
  } ]
}