{
  "resourceType": "Bundle",
  "id": "ScreAtriRefNoasseNodxNocp",
  "type": "transaction",
  "entry": [ {
    "fullUrl": "https://madie.cms.gov/Patient/342ce37f-9c12-4963-9570-878d101ff24f",
    "resource": {
      "resourceType": "Patient",
      "id": "342ce37f-9c12-4963-9570-878d101ff24f",
      "meta": {
        "profile": [ "http://hl7.org/fhir/us/qicore/StructureDefinition/qicore-patient" ]
      },
      "extension": [ {
        "url": "http://hl7.org/fhir/us/core/StructureDefinition/us-core-race",
        "extension": [ {
          "url": "ombCategory",
          "valueCoding": {
            "system": "urn:oid:2.16.840.1.113883.6.238",
            "code": "2076-8",
            "display": "Native Hawaiian or Other Pacific Islander",
            "userSelected": true
          }
        }, {
          "url": "text",
          "valueString": "Native Hawaiian or Other Pacific Islander"
        } ]
      }, {
        "url": "http://hl7.org/fhir/us/core/StructureDefinition/us-core-ethnicity",
        "extension": [ {
          "url": "ombCategory",
          "valueCoding": {
            "system": "urn:oid:2.16.840.1.113883.6.238",
            "code": "2186-5",
            "display": "Not Hispanic or Latino",
            "userSelected": true
          }
        }, {
          "url": "text",
          "valueString": "Not Hispanic or Latino"
        } ]
      }, {
        "url": "http://hl7.org/fhir/us/core/StructureDefinition/us-core-sex",
        "valueCode": "248153007"
      } ],
      "identifier": [ {
        "type": {
          "coding": [ {
            "system": "http://terminology.hl7.org/CodeSystem/v2-0203",
            "code": "MR"
          } ]
        },
        "system": "https://madie.cms.gov/",
        "value": "ScreAtriRefNoasseNodxNocp"
      } ],
      "active": true,
      "name": [ {
        "use": "usual",
        "text": "ScreAtriRefNoasseNodxNocp",
        "family": "MSROBSPass2",
        "given": [ "ScreAtriRefNoasseNodxNocp" ]
      } ],
      "gender": "male",
      "birthDate": "1953-01-01",
      "address": [ {
        "text": "ScreAtriRefNoasseNodxNocp, Screened Not at risk Assessed Severely Malnourished Diagnosed Care Plan, ID=ScreAtriRefNoasseNodxNocp, DOB: 01 Jan 1953"
      } ]
    },
    "request": {
      "method": "PUT",
      "url": "Patient/342ce37f-9c12-4963-9570-878d101ff24f"
    }
  }, {
    "fullUrl": "https://madie.cms.gov/Encounter/d1b6783c-07a0-4263-893c-08049c9fa86f",
    "resource": {
      "resourceType": "Encounter",
      "id": "d1b6783c-07a0-4263-893c-08049c9fa86f",
      "meta": {
        "profile": [ "http://hl7.org/fhir/us/qicore/StructureDefinition/qicore-encounter" ]
      },
      "status": "finished",
      "class": {
        "system": "http://terminology.hl7.org/CodeSystem/v3-ActCode",
        "code": "IMP",
        "display": "inpatient encounter"
      },
      "type": [ {
        "coding": [ {
          "system": "http://snomed.info/sct",
          "code": "32485007"
        } ]
      } ],
      "subject": {
        "reference": "Patient/342ce37f-9c12-4963-9570-878d101ff24f"
      },
      "period": {
        "start": "2026-07-01T08:00:00.000+00:00",
        "end": "2026-07-11T08:15:00.000+00:00"
      }
    },
    "request": {
      "method": "PUT",
      "url": "Encounter/d1b6783c-07a0-4263-893c-08049c9fa86f"
    }
  }, {
    "fullUrl": "https://madie.cms.gov/Observation/df85f1f7-775f-4486-87bd-3f97fa00957e",
    "resource": {
      "resourceType": "Observation",
      "id": "df85f1f7-775f-4486-87bd-3f97fa00957e",
      "meta": {
        "profile": [ "http://hl7.org/fhir/us/qicore/StructureDefinition/qicore-observation-screening-assessment" ]
      },
      "status": "final",
      "category": [ {
        "coding": [ {
          "system": "http://terminology.hl7.org/CodeSystem/observation-category",
          "code": "survey",
          "display": "Survey"
        } ]
      } ],
      "code": {
        "coding": [ {
          "system": "http://loinc.org",
          "code": "98967-3",
          "display": "Nutritional Risk Screening 2002 panel",
          "userSelected": true
        } ]
      },
      "subject": {
        "reference": "Patient/342ce37f-9c12-4963-9570-878d101ff24f"
      },
      "effectiveDateTime": "2026-07-01T09:00:00.000+00:00",
      "valueCodeableConcept": {
        "coding": [ {
          "system": "http://loinc.org",
          "code": "LA27538-0",
          "display": "At risk for malnutrition",
          "userSelected": true
        } ]
      }
    },
    "request": {
      "method": "PUT",
      "url": "Observation/df85f1f7-775f-4486-87bd-3f97fa00957e"
    }
  }, {
    "fullUrl": "https://madie.cms.gov/Procedure/0eef3edb-42f9-41a0-a8a3-84a064bbc608",
    "resource": {
      "resourceType": "Procedure",
      "id": "0eef3edb-42f9-41a0-a8a3-84a064bbc608",
      "meta": {
        "profile": [ "http://hl7.org/fhir/us/qicore/StructureDefinition/qicore-procedure" ]
      },
      "extension": [ {
        "url": "http://hl7.org/fhir/us/qicore/StructureDefinition/qicore-recorded",
        "valueDateTime": "2026-02-01T11:30:00.000+00:00"
      } ],
      "status": "completed",
      "code": {
        "coding": [ {
          "system": "http://snomed.info/sct",
          "code": "306165000",
          "display": "Referral to hospital-based dietetics service (procedure)"
        } ],
        "text": "Referral to hospital-based dietetics service (procedure)"
      },
      "subject": {
        "reference": "Patient/342ce37f-9c12-4963-9570-878d101ff24f"
      },
      "encounter": {
        "reference": "Encounter/ScreAtriRefNoasseNodxNocpMSROBSPass2"
      },
      "performedPeriod": {
        "start": "2026-07-02T11:30:00.000+00:00",
        "end": "2026-07-07T08:15:00.000+00:00"
      }
    },
    "request": {
      "method": "PUT",
      "url": "Procedure/0eef3edb-42f9-41a0-a8a3-84a064bbc608"
    }
  }, {
    "fullUrl": "https://madie.cms.gov/Coverage/8bccfab6-c7b9-46eb-a41b-de7add47e46b",
    "resource": {
      "resourceType": "Coverage",
      "id": "8bccfab6-c7b9-46eb-a41b-de7add47e46b",
      "meta": {
        "profile": [ "http://hl7.org/fhir/us/qicore/StructureDefinition/qicore-coverage" ]
      },
      "status": "active",
      "type": {
        "coding": [ {
          "system": "https://nahdo.org/sopt",
          "version": "9.2",
          "code": "11",
          "display": "Medicare Managed Care (Includes Medicare Advantage Plans)"
        } ]
      },
      "subscriberId": "97531",
      "beneficiary": {
        "reference": "Patient/342ce37f-9c12-4963-9570-878d101ff24f"
      },
      "dependent": "0",
      "relationship": {
        "coding": [ {
          "system": "http://terminology.hl7.org/CodeSystem/subscriber-relationship",
          "code": "self"
        } ]
      },
      "period": {
        "start": "2026-10-01T00:00:00.000+00:00"
      },
      "payor": [ {
        "reference": "Organization/fe23a5ab-04d1-4c11-bb48-f009cc1c3f83"
      } ]
    },
    "request": {
      "method": "PUT",
      "url": "Coverage/8bccfab6-c7b9-46eb-a41b-de7add47e46b"
    }
  }, {
    "fullUrl": "https://madie.cms.gov/Organization/fe23a5ab-04d1-4c11-bb48-f009cc1c3f83",
    "resource": {
      "resourceType": "Organization",
      "id": "fe23a5ab-04d1-4c11-bb48-f009cc1c3f83",
      "meta": {
        "profile": [ "http://hl7.org/fhir/us/qicore/StructureDefinition/qicore-organization" ]
      },
      "identifier": [ {
        "use": "temp",
        "system": "urn:oid:2.16.840.1.113883.4.4",
        "value": "21-3259825"
      } ],
      "active": true,
      "type": [ {
        "coding": [ {
          "system": "http://terminology.hl7.org/CodeSystem/organization-type",
          "code": "pay",
          "display": "Payer"
        } ]
      } ],
      "name": "Blue Cross Blue Shield of Texas",
      "telecom": [ {
        "system": "phone",
        "value": "(+1) 972-766-6900"
      } ],
      "address": [ {
        "use": "billing",
        "type": "postal",
        "line": [ "P.O. Box 660044" ],
        "city": "Dallas",
        "state": "TX",
        "postalCode": "75266-0044",
        "country": "USA"
      } ]
    },
    "request": {
      "method": "PUT",
      "url": "Organization/fe23a5ab-04d1-4c11-bb48-f009cc1c3f83"
    }
  }, {
    "fullUrl": "https://madie.cms.gov/MeasureReport/7edb4f43-f8a5-404d-81d0-9057705a6baa",
    "resource": {
      "resourceType": "MeasureReport",
      "id": "7edb4f43-f8a5-404d-81d0-9057705a6baa",
      "meta": {
        "profile": [ "http://hl7.org/fhir/us/cqfmeasures/StructureDefinition/test-case-cqfm" ]
      },
      "contained": [ {
        "resourceType": "Parameters",
        "id": "316df0b8-51a2-459d-9524-0776f3dc54a4-parameters",
        "parameter": [ {
          "name": "subject",
          "valueString": "342ce37f-9c12-4963-9570-878d101ff24f"
        } ]
      } ],
      "extension": [ {
        "url": "http://hl7.org/fhir/StructureDefinition/cqf-inputParameters",
        "valueReference": {
          "reference": "#316df0b8-51a2-459d-9524-0776f3dc54a4-parameters"
        }
      }, {
        "url": "http://hl7.org/fhir/us/cqfmeasures/StructureDefinition/cqfm-testCaseDescription",
        "valueMarkdown": "Screened, At Risk, Referral, Not Assessed, No Diagnosis, No Nutrition Care Plan"
      } ],
      "modifierExtension": [ {
        "url": "http://hl7.org/fhir/us/cqfmeasures/StructureDefinition/cqfm-isTestCase",
        "valueBoolean": true
      } ],
      "status": "complete",
      "type": "individual",
      "measure": "https://madie.cms.gov/Measure/CMS986FHIRMalnutritionScore",
      "period": {
        "start": "2026-01-01",
        "end": "2026-12-31"
      },
      "group": [ {
        "id": "Group_1",
        "population": [ {
          "id": "InitialPopulation_1",
          "code": {
            "coding": [ {
              "system": "http://terminology.hl7.org/CodeSystem/measure-population",
              "code": "initial-population",
              "display": "Initial Population"
            } ]
          },
          "count": 1
        }, {
          "id": "MeasurePopulation_1",
          "code": {
            "coding": [ {
              "system": "http://terminology.hl7.org/CodeSystem/measure-population",
              "code": "measure-population",
              "display": "Measure Population"
            } ]
          },
          "count": 1
        }, {
          "id": "MeasurePopulationExclusion_1",
          "code": {
            "coding": [ {
              "system": "http://terminology.hl7.org/CodeSystem/measure-population",
              "code": "measure-population-exclusion",
              "display": "Measure Population Exclusion"
            } ]
          },
          "count": 0
        }, {
          "id": "MeasureObservation_1_1",
          "code": {
            "coding": [ {
              "system": "http://terminology.hl7.org/CodeSystem/measure-population",
              "code": "measure-population-observation",
              "display": "Measure Population Observation"
            } ]
          },
          "count": 1
        } ],
        "measureScore": {
          "value": 0.0
        }
      }, {
        "id": "Group_2",
        "population": [ {
          "id": "InitialPopulation_2",
          "code": {
            "coding": [ {
              "system": "http://terminology.hl7.org/CodeSystem/measure-population",
              "code": "initial-population",
              "display": "Initial Population"
            } ]
          },
          "count": 1
        }, {
          "id": "MeasurePopulation_2",
          "code": {
            "coding": [ {
              "system": "http://terminology.hl7.org/CodeSystem/measure-population",
              "code": "measure-population",
              "display": "Measure Population"
            } ]
          },
          "count": 1
        }, {
          "id": "MeasurePopulationExclusion_2",
          "code": {
            "coding": [ {
              "system": "http://terminology.hl7.org/CodeSystem/measure-population",
              "code": "measure-population-exclusion",
              "display": "Measure Population Exclusion"
            } ]
          },
          "count": 0
        }, {
          "id": "MeasureObservation_2_1",
          "code": {
            "coding": [ {
              "system": "http://terminology.hl7.org/CodeSystem/measure-population",
              "code": "measure-population-observation",
              "display": "Measure Population Observation"
            } ]
          },
          "count": 0
        } ],
        "measureScore": {
          "value": 0.0
        }
      }, {
        "id": "Group_3",
        "population": [ {
          "id": "InitialPopulation_3",
          "code": {
            "coding": [ {
              "system": "http://terminology.hl7.org/CodeSystem/measure-population",
              "code": "initial-population",
              "display": "Initial Population"
            } ]
          },
          "count": 1
        }, {
          "id": "MeasurePopulation_3",
          "code": {
            "coding": [ {
              "system": "http://terminology.hl7.org/CodeSystem/measure-population",
              "code": "measure-population",
              "display": "Measure Population"
            } ]
          },
          "count": 1
        }, {
          "id": "MeasurePopulationExclusion_3",
          "code": {
            "coding": [ {
              "system": "http://terminology.hl7.org/CodeSystem/measure-population",
              "code": "measure-population-exclusion",
              "display": "Measure Population Exclusion"
            } ]
          },
          "count": 0
        }, {
          "id": "MeasureObservation_3_1",
          "code": {
            "coding": [ {
              "system": "http://terminology.hl7.org/CodeSystem/measure-population",
              "code": "measure-population-observation",
              "display": "Measure Population Observation"
            } ]
          },
          "count": 0
        } ],
        "measureScore": {
          "value": 0.0
        }
      }, {
        "id": "Group_4",
        "population": [ {
          "id": "InitialPopulation_4",
          "code": {
            "coding": [ {
              "system": "http://terminology.hl7.org/CodeSystem/measure-population",
              "code": "initial-population",
              "display": "Initial Population"
            } ]
          },
          "count": 1
        }, {
          "id": "MeasurePopulation_4",
          "code": {
            "coding": [ {
              "system": "http://terminology.hl7.org/CodeSystem/measure-population",
              "code": "measure-population",
              "display": "Measure Population"
            } ]
          },
          "count": 1
        }, {
          "id": "MeasurePopulationExclusion_4",
          "code": {
            "coding": [ {
              "system": "http://terminology.hl7.org/CodeSystem/measure-population",
              "code": "measure-population-exclusion",
              "display": "Measure Population Exclusion"
            } ]
          },
          "count": 0
        }, {
          "id": "MeasureObservation_4_1",
          "code": {
            "coding": [ {
              "system": "http://terminology.hl7.org/CodeSystem/measure-population",
              "code": "measure-population-observation",
              "display": "Measure Population Observation"
            } ]
          },
          "count": 0
        } ],
        "measureScore": {
          "value": 0.0
        }
      }, {
        "id": "Group_5",
        "population": [ {
          "id": "InitialPopulation_5",
          "code": {
            "coding": [ {
              "system": "http://terminology.hl7.org/CodeSystem/measure-population",
              "code": "initial-population",
              "display": "Initial Population"
            } ]
          },
          "count": 1
        }, {
          "id": "MeasurePopulation_5",
          "code": {
            "coding": [ {
              "system": "http://terminology.hl7.org/CodeSystem/measure-population",
              "code": "measure-population",
              "display": "Measure Population"
            } ]
          },
          "count": 1
        }, {
          "id": "MeasurePopulationExclusion_5",
          "code": {
            "coding": [ {
              "system": "http://terminology.hl7.org/CodeSystem/measure-population",
              "code": "measure-population-exclusion",
              "display": "Measure Population Exclusion"
            } ]
          },
          "count": 0
        }, {
          "id": "MeasureObservation_5_1",
          "code": {
            "coding": [ {
              "system": "http://terminology.hl7.org/CodeSystem/measure-population",
              "code": "measure-population-observation",
              "display": "Measure Population Observation"
            } ]
          },
          "count": 1
        } ],
        "measureScore": {
          "value": 0.0
        }
      }, {
        "id": "Group_6",
        "population": [ {
          "id": "InitialPopulation_6",
          "code": {
            "coding": [ {
              "system": "http://terminology.hl7.org/CodeSystem/measure-population",
              "code": "initial-population",
              "display": "Initial Population"
            } ]
          },
          "count": 1
        }, {
          "id": "MeasurePopulation_6",
          "code": {
            "coding": [ {
              "system": "http://terminology.hl7.org/CodeSystem/measure-population",
              "code": "measure-population",
              "display": "Measure Population"
            } ]
          },
          "count": 1
        }, {
          "id": "MeasurePopulationExclusion_6",
          "code": {
            "coding": [ {
              "system": "http://terminology.hl7.org/CodeSystem/measure-population",
              "code": "measure-population-exclusion",
              "display": "Measure Population Exclusion"
            } ]
          },
          "count": 0
        }, {
          "id": "MeasureObservation_6_1",
          "code": {
            "coding": [ {
              "system": "http://terminology.hl7.org/CodeSystem/measure-population",
              "code": "measure-population-observation",
              "display": "Measure Population Observation"
            } ]
          },
          "count": 50
        } ],
        "measureScore": {
          "value": 0.0
        }
      } ],
      "evaluatedResource": [ {
        "reference": "Patient/342ce37f-9c12-4963-9570-878d101ff24f"
      }, {
        "reference": "Encounter/d1b6783c-07a0-4263-893c-08049c9fa86f"
      }, {
        "reference": "Observation/df85f1f7-775f-4486-87bd-3f97fa00957e"
      }, {
        "reference": "Procedure/0eef3edb-42f9-41a0-a8a3-84a064bbc608"
      }, {
        "reference": "Coverage/8bccfab6-c7b9-46eb-a41b-de7add47e46b"
      }, {
        "reference": "Organization/fe23a5ab-04d1-4c11-bb48-f009cc1c3f83"
      } ]
    },
    "request": {
      "method": "PUT",
      "url": "MeasureReport/7edb4f43-f8a5-404d-81d0-9057705a6baa"
    }
  } ]
}