{"resourceType":"Bundle","id":"tests-da25ee5a-4502-4bf6-95fe-087bd0a2c1fd-bundle","type":"transaction","entry":[{"resource":{"resourceType":"Patient","id":"da25ee5a-4502-4bf6-95fe-087bd0a2c1fd","meta":{"profile":["http://hl7.org/fhir/us/qicore/StructureDefinition/qicore-patient"]},"extension":[{"url":"http://hl7.org/fhir/us/core/StructureDefinition/us-core-race","extension":[{"url":"ombCategory","valueCoding":{"system":"urn:oid:2.16.840.1.113883.6.238","code":"2106-3","display":"White","userSelected":true}},{"url":"text","valueString":"White"}]},{"url":"http://hl7.org/fhir/us/core/StructureDefinition/us-core-ethnicity","extension":[{"url":"ombCategory","valueCoding":{"system":"urn:oid:2.16.840.1.113883.6.238","code":"2186-5","display":"Not Hispanic or Latino","userSelected":true}},{"url":"text","valueString":"Not Hispanic or Latino"}]},{"url":"http://hl7.org/fhir/us/core/StructureDefinition/us-core-sex","valueCode":"248153007"}],"identifier":[{"type":{"coding":[{"system":"http://terminology.hl7.org/CodeSystem/v2-0203","code":"MR"}]},"system":"https://madie.cms.gov/","value":"ScreNotatriRefAsseNotmNodxNocp"}],"active":true,"name":[{"use":"usual","text":"ScreNotatriRefAsseNotmNodxNocp","family":"MSROBSPass2","given":["ScreNotatriRefAsseNotmNodxNocp"]}],"gender":"male","birthDate":"1949-01-01","address":[{"text":"ScreNotatriRefAsseNotmNodxNocp, Screened Not at risk Assessed Severely Malnourished Diagnosed Care Plan, ID=ScreNotatriRefAsseNotmNodxNocp, DOB: 01 Jan 1949"}]},"request":{"method":"PUT","url":"Patient/da25ee5a-4502-4bf6-95fe-087bd0a2c1fd"}},{"resource":{"resourceType":"Procedure","id":"47a0d090-e049-4abe-847f-88f23c94fc88","meta":{"profile":["http://hl7.org/fhir/us/qicore/StructureDefinition/qicore-procedure"]},"extension":[{"url":"http://hl7.org/fhir/us/qicore/StructureDefinition/qicore-recorded","valueDateTime":"2026-02-01T11:30:00.000+00:00"}],"status":"completed","code":{"coding":[{"system":"http://snomed.info/sct","code":"306354000","display":"Referral to hospital-based dietitian (procedure)"}],"text":"Referral to hospital-based dietitian (procedure)"},"subject":{"reference":"Patient/da25ee5a-4502-4bf6-95fe-087bd0a2c1fd"},"encounter":{"reference":"Encounter/ScreNotatriRefAsseNotmNodxNocpMSROBSPass2"},"performedPeriod":{"start":"2026-02-01T11:30:00.000+00:00","end":"2026-02-07T08:15:00.000+00:00"}},"request":{"method":"PUT","url":"Procedure/47a0d090-e049-4abe-847f-88f23c94fc88"}},{"resource":{"resourceType":"MeasureReport","id":"ad227530-3182-4a2a-a9b7-3bde2a360a9d","meta":{"profile":["http://hl7.org/fhir/us/cqfmeasures/StructureDefinition/test-case-cqfm"]},"contained":[{"resourceType":"Parameters","id":"ce86fdb1-b3b5-4278-8d18-a697e8603dad-parameters","parameter":[{"name":"subject","valueString":"da25ee5a-4502-4bf6-95fe-087bd0a2c1fd"}]}],"extension":[{"url":"http://hl7.org/fhir/StructureDefinition/cqf-inputParameters","valueReference":{"reference":"#ce86fdb1-b3b5-4278-8d18-a697e8603dad-parameters"}},{"url":"http://hl7.org/fhir/us/cqfmeasures/StructureDefinition/cqfm-testCaseDescription","valueMarkdown":"Screened, Not Risk, Referral, Assessed, Not/Mildly Malnourished, No Diagnosis, No Nutrition Care Plan"}],"modifierExtension":[{"url":"http://hl7.org/fhir/us/cqfmeasures/StructureDefinition/cqfm-isTestCase","valueBoolean":true}],"status":"complete","type":"individual","measure":"https://madie.cms.gov/Measure/CMS986FHIRMalnutritionScore","period":{"start":"2026-01-01","end":"2026-12-31"},"group":[{"id":"Group_1","population":[{"id":"InitialPopulation_1","code":{"coding":[{"system":"http://terminology.hl7.org/CodeSystem/measure-population","code":"initial-population","display":"Initial Population"}]},"count":1},{"id":"MeasurePopulation_1","code":{"coding":[{"system":"http://terminology.hl7.org/CodeSystem/measure-population","code":"measure-population","display":"Measure Population"}]},"count":1},{"id":"MeasurePopulationExclusion_1","code":{"coding":[{"system":"http://terminology.hl7.org/CodeSystem/measure-population","code":"measure-population-exclusion","display":"Measure Population Exclusion"}]},"count":0},{"id":"MeasureObservation_1_1","code":{"coding":[{"system":"http://terminology.hl7.org/CodeSystem/measure-population","code":"measure-population-observation","display":"Measure Population Observation"}]},"count":1}],"measureScore":{"value":0.0}},{"id":"Group_2","population":[{"id":"InitialPopulation_2","code":{"coding":[{"system":"http://terminology.hl7.org/CodeSystem/measure-population","code":"initial-population","display":"Initial Population"}]},"count":1},{"id":"MeasurePopulation_2","code":{"coding":[{"system":"http://terminology.hl7.org/CodeSystem/measure-population","code":"measure-population","display":"Measure Population"}]},"count":1},{"id":"MeasurePopulationExclusion_2","code":{"coding":[{"system":"http://terminology.hl7.org/CodeSystem/measure-population","code":"measure-population-exclusion","display":"Measure Population Exclusion"}]},"count":0},{"id":"MeasureObservation_2_1","code":{"coding":[{"system":"http://terminology.hl7.org/CodeSystem/measure-population","code":"measure-population-observation","display":"Measure Population Observation"}]},"count":1}],"measureScore":{"value":0.0}},{"id":"Group_3","population":[{"id":"InitialPopulation_3","code":{"coding":[{"system":"http://terminology.hl7.org/CodeSystem/measure-population","code":"initial-population","display":"Initial Population"}]},"count":1},{"id":"MeasurePopulation_3","code":{"coding":[{"system":"http://terminology.hl7.org/CodeSystem/measure-population","code":"measure-population","display":"Measure Population"}]},"count":1},{"id":"MeasurePopulationExclusion_3","code":{"coding":[{"system":"http://terminology.hl7.org/CodeSystem/measure-population","code":"measure-population-exclusion","display":"Measure Population Exclusion"}]},"count":0},{"id":"MeasureObservation_3_1","code":{"coding":[{"system":"http://terminology.hl7.org/CodeSystem/measure-population","code":"measure-population-observation","display":"Measure Population Observation"}]},"count":0}],"measureScore":{"value":0.0}},{"id":"Group_4","population":[{"id":"InitialPopulation_4","code":{"coding":[{"system":"http://terminology.hl7.org/CodeSystem/measure-population","code":"initial-population","display":"Initial Population"}]},"count":1},{"id":"MeasurePopulation_4","code":{"coding":[{"system":"http://terminology.hl7.org/CodeSystem/measure-population","code":"measure-population","display":"Measure Population"}]},"count":1},{"id":"MeasurePopulationExclusion_4","code":{"coding":[{"system":"http://terminology.hl7.org/CodeSystem/measure-population","code":"measure-population-exclusion","display":"Measure Population Exclusion"}]},"count":0},{"id":"MeasureObservation_4_1","code":{"coding":[{"system":"http://terminology.hl7.org/CodeSystem/measure-population","code":"measure-population-observation","display":"Measure Population Observation"}]},"count":0}],"measureScore":{"value":0.0}},{"id":"Group_5","population":[{"id":"InitialPopulation_5","code":{"coding":[{"system":"http://terminology.hl7.org/CodeSystem/measure-population","code":"initial-population","display":"Initial Population"}]},"count":1},{"id":"MeasurePopulation_5","code":{"coding":[{"system":"http://terminology.hl7.org/CodeSystem/measure-population","code":"measure-population","display":"Measure Population"}]},"count":1},{"id":"MeasurePopulationExclusion_5","code":{"coding":[{"system":"http://terminology.hl7.org/CodeSystem/measure-population","code":"measure-population-exclusion","display":"Measure Population Exclusion"}]},"count":0},{"id":"MeasureObservation_5_1","code":{"coding":[{"system":"http://terminology.hl7.org/CodeSystem/measure-population","code":"measure-population-observation","display":"Measure Population Observation"}]},"count":2}],"measureScore":{"value":0.0}},{"id":"Group_6","population":[{"id":"InitialPopulation_6","code":{"coding":[{"system":"http://terminology.hl7.org/CodeSystem/measure-population","code":"initial-population","display":"Initial Population"}]},"count":1},{"id":"MeasurePopulation_6","code":{"coding":[{"system":"http://terminology.hl7.org/CodeSystem/measure-population","code":"measure-population","display":"Measure Population"}]},"count":1},{"id":"MeasurePopulationExclusion_6","code":{"coding":[{"system":"http://terminology.hl7.org/CodeSystem/measure-population","code":"measure-population-exclusion","display":"Measure Population Exclusion"}]},"count":0},{"id":"MeasureObservation_6_1","code":{"coding":[{"system":"http://terminology.hl7.org/CodeSystem/measure-population","code":"measure-population-observation","display":"Measure Population Observation"}]},"count":100}],"measureScore":{"value":0.0}}],"evaluatedResource":[{"reference":"Patient/da25ee5a-4502-4bf6-95fe-087bd0a2c1fd"},{"reference":"Encounter/755abc18-bc8d-4286-8dc5-4e5d7bea5408"},{"reference":"Observation/ee94a091-80d5-4f39-a0a5-d22ba21134e1"},{"reference":"Observation/010fbb2f-1899-4523-b1b5-3444f7e56bb0"},{"reference":"Procedure/47a0d090-e049-4abe-847f-88f23c94fc88"},{"reference":"Coverage/1154e773-1a23-446d-a869-9df7e4fc1d1b"},{"reference":"Organization/c0363b50-68bb-4a81-bc45-a857eb59b67e"}]},"request":{"method":"PUT","url":"MeasureReport/ad227530-3182-4a2a-a9b7-3bde2a360a9d"}},{"resource":{"resourceType":"Observation","id":"ee94a091-80d5-4f39-a0a5-d22ba21134e1","meta":{"profile":["http://hl7.org/fhir/us/qicore/StructureDefinition/qicore-observation-screening-assessment"]},"status":"final","category":[{"coding":[{"system":"http://terminology.hl7.org/CodeSystem/observation-category","code":"survey","display":"Survey"}]}],"code":{"coding":[{"system":"http://loinc.org","code":"101807-6","display":"Malnutrition risk screen results indicator","userSelected":true}]},"subject":{"reference":"Patient/da25ee5a-4502-4bf6-95fe-087bd0a2c1fd"},"effectiveDateTime":"2026-02-01T09:00:00.000+00:00","valueCodeableConcept":{"coding":[{"system":"http://loinc.org","code":"LA33699-2","display":"Not at risk for malnutrition","userSelected":true}]}},"request":{"method":"PUT","url":"Observation/ee94a091-80d5-4f39-a0a5-d22ba21134e1"}},{"resource":{"resourceType":"Encounter","id":"755abc18-bc8d-4286-8dc5-4e5d7bea5408","meta":{"profile":["http://hl7.org/fhir/us/qicore/StructureDefinition/qicore-encounter"]},"status":"finished","class":{"system":"http://terminology.hl7.org/CodeSystem/v3-ActCode","code":"IMP","display":"inpatient encounter"},"type":[{"coding":[{"system":"http://snomed.info/sct","code":"183452005"}]}],"subject":{"reference":"Patient/da25ee5a-4502-4bf6-95fe-087bd0a2c1fd"},"period":{"start":"2026-02-01T08:00:00.000+00:00","end":"2026-02-07T08:15:00.000+00:00"}},"request":{"method":"PUT","url":"Encounter/755abc18-bc8d-4286-8dc5-4e5d7bea5408"}},{"resource":{"resourceType":"Organization","id":"c0363b50-68bb-4a81-bc45-a857eb59b67e","meta":{"profile":["http://hl7.org/fhir/us/qicore/StructureDefinition/qicore-organization"]},"identifier":[{"use":"temp","system":"urn:oid:2.16.840.1.113883.4.4","value":"21-3259825"}],"active":true,"type":[{"coding":[{"system":"http://terminology.hl7.org/CodeSystem/organization-type","code":"pay","display":"Payer"}]}],"name":"Blue Cross Blue Shield of Texas","telecom":[{"system":"phone","value":"(+1) 972-766-6900"}],"address":[{"use":"billing","type":"postal","line":["P.O. Box 660044"],"city":"Dallas","state":"TX","postalCode":"75266-0044","country":"USA"}]},"request":{"method":"PUT","url":"Organization/c0363b50-68bb-4a81-bc45-a857eb59b67e"}},{"resource":{"resourceType":"Bundle","id":"ScreNotatriRefAsseNotmNodxNocp","type":"transaction","entry":[{"fullUrl":"https://madie.cms.gov/Patient/da25ee5a-4502-4bf6-95fe-087bd0a2c1fd","resource":{"resourceType":"Patient","id":"da25ee5a-4502-4bf6-95fe-087bd0a2c1fd","meta":{"profile":["http://hl7.org/fhir/us/qicore/StructureDefinition/qicore-patient"]},"extension":[{"url":"http://hl7.org/fhir/us/core/StructureDefinition/us-core-race","extension":[{"url":"ombCategory","valueCoding":{"system":"urn:oid:2.16.840.1.113883.6.238","code":"2106-3","display":"White","userSelected":true}},{"url":"text","valueString":"White"}]},{"url":"http://hl7.org/fhir/us/core/StructureDefinition/us-core-ethnicity","extension":[{"url":"ombCategory","valueCoding":{"system":"urn:oid:2.16.840.1.113883.6.238","code":"2186-5","display":"Not Hispanic or Latino","userSelected":true}},{"url":"text","valueString":"Not Hispanic or Latino"}]},{"url":"http://hl7.org/fhir/us/core/StructureDefinition/us-core-sex","valueCode":"248153007"}],"identifier":[{"type":{"coding":[{"system":"http://terminology.hl7.org/CodeSystem/v2-0203","code":"MR"}]},"system":"https://madie.cms.gov/","value":"ScreNotatriRefAsseNotmNodxNocp"}],"active":true,"name":[{"use":"usual","text":"ScreNotatriRefAsseNotmNodxNocp","family":"MSROBSPass2","given":["ScreNotatriRefAsseNotmNodxNocp"]}],"gender":"male","birthDate":"1949-01-01","address":[{"text":"ScreNotatriRefAsseNotmNodxNocp, Screened Not at risk Assessed Severely Malnourished Diagnosed Care Plan, ID=ScreNotatriRefAsseNotmNodxNocp, DOB: 01 Jan 1949"}]},"request":{"method":"PUT","url":"Patient/da25ee5a-4502-4bf6-95fe-087bd0a2c1fd"}},{"fullUrl":"https://madie.cms.gov/Encounter/755abc18-bc8d-4286-8dc5-4e5d7bea5408","resource":{"resourceType":"Encounter","id":"755abc18-bc8d-4286-8dc5-4e5d7bea5408","meta":{"profile":["http://hl7.org/fhir/us/qicore/StructureDefinition/qicore-encounter"]},"status":"finished","class":{"system":"http://terminology.hl7.org/CodeSystem/v3-ActCode","code":"IMP","display":"inpatient encounter"},"type":[{"coding":[{"system":"http://snomed.info/sct","code":"183452005"}]}],"subject":{"reference":"Patient/da25ee5a-4502-4bf6-95fe-087bd0a2c1fd"},"period":{"start":"2026-02-01T08:00:00.000+00:00","end":"2026-02-07T08:15:00.000+00:00"}},"request":{"method":"PUT","url":"Encounter/755abc18-bc8d-4286-8dc5-4e5d7bea5408"}},{"fullUrl":"https://madie.cms.gov/Observation/ee94a091-80d5-4f39-a0a5-d22ba21134e1","resource":{"resourceType":"Observation","id":"ee94a091-80d5-4f39-a0a5-d22ba21134e1","meta":{"profile":["http://hl7.org/fhir/us/qicore/StructureDefinition/qicore-observation-screening-assessment"]},"status":"final","category":[{"coding":[{"system":"http://terminology.hl7.org/CodeSystem/observation-category","code":"survey","display":"Survey"}]}],"code":{"coding":[{"system":"http://loinc.org","code":"101807-6","display":"Malnutrition risk screen results indicator","userSelected":true}]},"subject":{"reference":"Patient/da25ee5a-4502-4bf6-95fe-087bd0a2c1fd"},"effectiveDateTime":"2026-02-01T09:00:00.000+00:00","valueCodeableConcept":{"coding":[{"system":"http://loinc.org","code":"LA33699-2","display":"Not at risk for malnutrition","userSelected":true}]}},"request":{"method":"PUT","url":"Observation/ee94a091-80d5-4f39-a0a5-d22ba21134e1"}},{"fullUrl":"https://madie.cms.gov/Observation/010fbb2f-1899-4523-b1b5-3444f7e56bb0","resource":{"resourceType":"Observation","id":"010fbb2f-1899-4523-b1b5-3444f7e56bb0","meta":{"profile":["http://hl7.org/fhir/us/qicore/StructureDefinition/qicore-observation-screening-assessment"]},"status":"final","category":[{"coding":[{"system":"http://terminology.hl7.org/CodeSystem/observation-category","code":"survey","display":"Survey"}]}],"code":{"coding":[{"system":"http://loinc.org","code":"101819-1","display":"Nutritional assessment for malnutrition status","userSelected":true}]},"subject":{"reference":"Patient/da25ee5a-4502-4bf6-95fe-087bd0a2c1fd"},"effectiveDateTime":"2026-02-01T10:00:00.000+00:00","valueCodeableConcept":{"coding":[{"system":"http://loinc.org","code":"LA33703-2","display":"Mildly malnourished","userSelected":true}]}},"request":{"method":"PUT","url":"Observation/010fbb2f-1899-4523-b1b5-3444f7e56bb0"}},{"fullUrl":"https://madie.cms.gov/Procedure/47a0d090-e049-4abe-847f-88f23c94fc88","resource":{"resourceType":"Procedure","id":"47a0d090-e049-4abe-847f-88f23c94fc88","meta":{"profile":["http://hl7.org/fhir/us/qicore/StructureDefinition/qicore-procedure"]},"extension":[{"url":"http://hl7.org/fhir/us/qicore/StructureDefinition/qicore-recorded","valueDateTime":"2026-02-01T11:30:00.000+00:00"}],"status":"completed","code":{"coding":[{"system":"http://snomed.info/sct","code":"306354000","display":"Referral to hospital-based dietitian (procedure)"}],"text":"Referral to hospital-based dietitian (procedure)"},"subject":{"reference":"Patient/da25ee5a-4502-4bf6-95fe-087bd0a2c1fd"},"encounter":{"reference":"Encounter/ScreNotatriRefAsseNotmNodxNocpMSROBSPass2"},"performedPeriod":{"start":"2026-02-01T11:30:00.000+00:00","end":"2026-02-07T08:15:00.000+00:00"}},"request":{"method":"PUT","url":"Procedure/47a0d090-e049-4abe-847f-88f23c94fc88"}},{"fullUrl":"https://madie.cms.gov/Coverage/1154e773-1a23-446d-a869-9df7e4fc1d1b","resource":{"resourceType":"Coverage","id":"1154e773-1a23-446d-a869-9df7e4fc1d1b","meta":{"profile":["http://hl7.org/fhir/us/qicore/StructureDefinition/qicore-coverage"]},"status":"active","type":{"coding":[{"system":"https://nahdo.org/sopt","version":"9.2","code":"11","display":"Medicare Managed Care (Includes Medicare Advantage Plans)"}]},"subscriberId":"97531","beneficiary":{"reference":"Patient/da25ee5a-4502-4bf6-95fe-087bd0a2c1fd"},"dependent":"0","relationship":{"coding":[{"system":"http://terminology.hl7.org/CodeSystem/subscriber-relationship","code":"self"}]},"period":{"start":"2025-10-01T00:00:00.000+00:00"},"payor":[{"reference":"Organization/c0363b50-68bb-4a81-bc45-a857eb59b67e"}]},"request":{"method":"PUT","url":"Coverage/1154e773-1a23-446d-a869-9df7e4fc1d1b"}},{"fullUrl":"https://madie.cms.gov/Organization/c0363b50-68bb-4a81-bc45-a857eb59b67e","resource":{"resourceType":"Organization","id":"c0363b50-68bb-4a81-bc45-a857eb59b67e","meta":{"profile":["http://hl7.org/fhir/us/qicore/StructureDefinition/qicore-organization"]},"identifier":[{"use":"temp","system":"urn:oid:2.16.840.1.113883.4.4","value":"21-3259825"}],"active":true,"type":[{"coding":[{"system":"http://terminology.hl7.org/CodeSystem/organization-type","code":"pay","display":"Payer"}]}],"name":"Blue Cross Blue Shield of Texas","telecom":[{"system":"phone","value":"(+1) 972-766-6900"}],"address":[{"use":"billing","type":"postal","line":["P.O. Box 660044"],"city":"Dallas","state":"TX","postalCode":"75266-0044","country":"USA"}]},"request":{"method":"PUT","url":"Organization/c0363b50-68bb-4a81-bc45-a857eb59b67e"}},{"fullUrl":"https://madie.cms.gov/MeasureReport/ad227530-3182-4a2a-a9b7-3bde2a360a9d","resource":{"resourceType":"MeasureReport","id":"ad227530-3182-4a2a-a9b7-3bde2a360a9d","meta":{"profile":["http://hl7.org/fhir/us/cqfmeasures/StructureDefinition/test-case-cqfm"]},"contained":[{"resourceType":"Parameters","id":"ce86fdb1-b3b5-4278-8d18-a697e8603dad-parameters","parameter":[{"name":"subject","valueString":"da25ee5a-4502-4bf6-95fe-087bd0a2c1fd"}]}],"extension":[{"url":"http://hl7.org/fhir/StructureDefinition/cqf-inputParameters","valueReference":{"reference":"#ce86fdb1-b3b5-4278-8d18-a697e8603dad-parameters"}},{"url":"http://hl7.org/fhir/us/cqfmeasures/StructureDefinition/cqfm-testCaseDescription","valueMarkdown":"Screened, Not Risk, Referral, Assessed, Not/Mildly Malnourished, No Diagnosis, No Nutrition Care Plan"}],"modifierExtension":[{"url":"http://hl7.org/fhir/us/cqfmeasures/StructureDefinition/cqfm-isTestCase","valueBoolean":true}],"status":"complete","type":"individual","measure":"https://madie.cms.gov/Measure/CMS986FHIRMalnutritionScore","period":{"start":"2026-01-01","end":"2026-12-31"},"group":[{"id":"Group_1","population":[{"id":"InitialPopulation_1","code":{"coding":[{"system":"http://terminology.hl7.org/CodeSystem/measure-population","code":"initial-population","display":"Initial Population"}]},"count":1},{"id":"MeasurePopulation_1","code":{"coding":[{"system":"http://terminology.hl7.org/CodeSystem/measure-population","code":"measure-population","display":"Measure Population"}]},"count":1},{"id":"MeasurePopulationExclusion_1","code":{"coding":[{"system":"http://terminology.hl7.org/CodeSystem/measure-population","code":"measure-population-exclusion","display":"Measure Population Exclusion"}]},"count":0},{"id":"MeasureObservation_1_1","code":{"coding":[{"system":"http://terminology.hl7.org/CodeSystem/measure-population","code":"measure-population-observation","display":"Measure Population Observation"}]},"count":1}],"measureScore":{"value":0.0}},{"id":"Group_2","population":[{"id":"InitialPopulation_2","code":{"coding":[{"system":"http://terminology.hl7.org/CodeSystem/measure-population","code":"initial-population","display":"Initial Population"}]},"count":1},{"id":"MeasurePopulation_2","code":{"coding":[{"system":"http://terminology.hl7.org/CodeSystem/measure-population","code":"measure-population","display":"Measure Population"}]},"count":1},{"id":"MeasurePopulationExclusion_2","code":{"coding":[{"system":"http://terminology.hl7.org/CodeSystem/measure-population","code":"measure-population-exclusion","display":"Measure Population Exclusion"}]},"count":0},{"id":"MeasureObservation_2_1","code":{"coding":[{"system":"http://terminology.hl7.org/CodeSystem/measure-population","code":"measure-population-observation","display":"Measure Population Observation"}]},"count":1}],"measureScore":{"value":0.0}},{"id":"Group_3","population":[{"id":"InitialPopulation_3","code":{"coding":[{"system":"http://terminology.hl7.org/CodeSystem/measure-population","code":"initial-population","display":"Initial Population"}]},"count":1},{"id":"MeasurePopulation_3","code":{"coding":[{"system":"http://terminology.hl7.org/CodeSystem/measure-population","code":"measure-population","display":"Measure Population"}]},"count":1},{"id":"MeasurePopulationExclusion_3","code":{"coding":[{"system":"http://terminology.hl7.org/CodeSystem/measure-population","code":"measure-population-exclusion","display":"Measure Population Exclusion"}]},"count":0},{"id":"MeasureObservation_3_1","code":{"coding":[{"system":"http://terminology.hl7.org/CodeSystem/measure-population","code":"measure-population-observation","display":"Measure Population Observation"}]},"count":0}],"measureScore":{"value":0.0}},{"id":"Group_4","population":[{"id":"InitialPopulation_4","code":{"coding":[{"system":"http://terminology.hl7.org/CodeSystem/measure-population","code":"initial-population","display":"Initial Population"}]},"count":1},{"id":"MeasurePopulation_4","code":{"coding":[{"system":"http://terminology.hl7.org/CodeSystem/measure-population","code":"measure-population","display":"Measure Population"}]},"count":1},{"id":"MeasurePopulationExclusion_4","code":{"coding":[{"system":"http://terminology.hl7.org/CodeSystem/measure-population","code":"measure-population-exclusion","display":"Measure Population Exclusion"}]},"count":0},{"id":"MeasureObservation_4_1","code":{"coding":[{"system":"http://terminology.hl7.org/CodeSystem/measure-population","code":"measure-population-observation","display":"Measure Population Observation"}]},"count":0}],"measureScore":{"value":0.0}},{"id":"Group_5","population":[{"id":"InitialPopulation_5","code":{"coding":[{"system":"http://terminology.hl7.org/CodeSystem/measure-population","code":"initial-population","display":"Initial Population"}]},"count":1},{"id":"MeasurePopulation_5","code":{"coding":[{"system":"http://terminology.hl7.org/CodeSystem/measure-population","code":"measure-population","display":"Measure Population"}]},"count":1},{"id":"MeasurePopulationExclusion_5","code":{"coding":[{"system":"http://terminology.hl7.org/CodeSystem/measure-population","code":"measure-population-exclusion","display":"Measure Population Exclusion"}]},"count":0},{"id":"MeasureObservation_5_1","code":{"coding":[{"system":"http://terminology.hl7.org/CodeSystem/measure-population","code":"measure-population-observation","display":"Measure Population Observation"}]},"count":2}],"measureScore":{"value":0.0}},{"id":"Group_6","population":[{"id":"InitialPopulation_6","code":{"coding":[{"system":"http://terminology.hl7.org/CodeSystem/measure-population","code":"initial-population","display":"Initial Population"}]},"count":1},{"id":"MeasurePopulation_6","code":{"coding":[{"system":"http://terminology.hl7.org/CodeSystem/measure-population","code":"measure-population","display":"Measure Population"}]},"count":1},{"id":"MeasurePopulationExclusion_6","code":{"coding":[{"system":"http://terminology.hl7.org/CodeSystem/measure-population","code":"measure-population-exclusion","display":"Measure Population Exclusion"}]},"count":0},{"id":"MeasureObservation_6_1","code":{"coding":[{"system":"http://terminology.hl7.org/CodeSystem/measure-population","code":"measure-population-observation","display":"Measure Population Observation"}]},"count":100}],"measureScore":{"value":0.0}}],"evaluatedResource":[{"reference":"Patient/da25ee5a-4502-4bf6-95fe-087bd0a2c1fd"},{"reference":"Encounter/755abc18-bc8d-4286-8dc5-4e5d7bea5408"},{"reference":"Observation/ee94a091-80d5-4f39-a0a5-d22ba21134e1"},{"reference":"Observation/010fbb2f-1899-4523-b1b5-3444f7e56bb0"},{"reference":"Procedure/47a0d090-e049-4abe-847f-88f23c94fc88"},{"reference":"Coverage/1154e773-1a23-446d-a869-9df7e4fc1d1b"},{"reference":"Organization/c0363b50-68bb-4a81-bc45-a857eb59b67e"}]},"request":{"method":"PUT","url":"MeasureReport/ad227530-3182-4a2a-a9b7-3bde2a360a9d"}}]},"request":{"method":"PUT","url":"Bundle/ScreNotatriRefAsseNotmNodxNocp"}},{"resource":{"resourceType":"Coverage","id":"1154e773-1a23-446d-a869-9df7e4fc1d1b","meta":{"profile":["http://hl7.org/fhir/us/qicore/StructureDefinition/qicore-coverage"]},"status":"active","type":{"coding":[{"system":"https://nahdo.org/sopt","version":"9.2","code":"11","display":"Medicare Managed Care (Includes Medicare Advantage Plans)"}]},"subscriberId":"97531","beneficiary":{"reference":"Patient/da25ee5a-4502-4bf6-95fe-087bd0a2c1fd"},"dependent":"0","relationship":{"coding":[{"system":"http://terminology.hl7.org/CodeSystem/subscriber-relationship","code":"self"}]},"period":{"start":"2025-10-01T00:00:00.000+00:00"},"payor":[{"reference":"Organization/c0363b50-68bb-4a81-bc45-a857eb59b67e"}]},"request":{"method":"PUT","url":"Coverage/1154e773-1a23-446d-a869-9df7e4fc1d1b"}},{"resource":{"resourceType":"Observation","id":"010fbb2f-1899-4523-b1b5-3444f7e56bb0","meta":{"profile":["http://hl7.org/fhir/us/qicore/StructureDefinition/qicore-observation-screening-assessment"]},"status":"final","category":[{"coding":[{"system":"http://terminology.hl7.org/CodeSystem/observation-category","code":"survey","display":"Survey"}]}],"code":{"coding":[{"system":"http://loinc.org","code":"101819-1","display":"Nutritional assessment for malnutrition status","userSelected":true}]},"subject":{"reference":"Patient/da25ee5a-4502-4bf6-95fe-087bd0a2c1fd"},"effectiveDateTime":"2026-02-01T10:00:00.000+00:00","valueCodeableConcept":{"coding":[{"system":"http://loinc.org","code":"LA33703-2","display":"Mildly malnourished","userSelected":true}]}},"request":{"method":"PUT","url":"Observation/010fbb2f-1899-4523-b1b5-3444f7e56bb0"}}]}