{"resourceType":"Bundle","id":"tests-f524a276-6788-435a-99f7-cd0ef48553e6-bundle","type":"transaction","entry":[{"resource":{"resourceType":"Procedure","id":"9dea3024-d360-41f7-8da4-5db41940ac92","meta":{"profile":["http://hl7.org/fhir/us/qicore/StructureDefinition/qicore-procedure"]},"extension":[{"url":"http://hl7.org/fhir/us/qicore/StructureDefinition/qicore-recorded","valueDateTime":"2026-02-02T11:30:00.000+00:00"}],"status":"completed","code":{"coding":[{"system":"http://snomed.info/sct","code":"410172000","display":"Nutrition care management (procedure)"}],"text":"Nutrition care management (procedure)"},"subject":{"reference":"Patient/f524a276-6788-435a-99f7-cd0ef48553e6"},"encounter":{"reference":"Encounter/ScreNotatriRefAsseModNodxCPMSROBSPass4"},"performedPeriod":{"start":"2026-09-20T11:30:00.000+00:00","end":"2026-09-21T08:15:00.000+00:00"}},"request":{"method":"PUT","url":"Procedure/9dea3024-d360-41f7-8da4-5db41940ac92"}},{"resource":{"resourceType":"Organization","id":"2190b2f8-d801-43cd-9678-bf6d0b364beb","meta":{"profile":["http://hl7.org/fhir/us/qicore/StructureDefinition/qicore-organization"]},"identifier":[{"use":"temp","system":"urn:oid:2.16.840.1.113883.4.4","value":"21-3259825"}],"active":true,"type":[{"coding":[{"system":"http://terminology.hl7.org/CodeSystem/organization-type","code":"pay","display":"Payer"}]}],"name":"Blue Cross Blue Shield of Texas","telecom":[{"system":"phone","value":"(+1) 972-766-6900"}],"address":[{"use":"billing","type":"postal","line":["P.O. Box 660044"],"city":"Dallas","state":"TX","postalCode":"75266-0044","country":"USA"}]},"request":{"method":"PUT","url":"Organization/2190b2f8-d801-43cd-9678-bf6d0b364beb"}},{"resource":{"resourceType":"Procedure","id":"6a6c3597-50fc-4471-9831-1d3b776745e8","meta":{"profile":["http://hl7.org/fhir/us/qicore/StructureDefinition/qicore-procedure"]},"extension":[{"url":"http://hl7.org/fhir/us/qicore/StructureDefinition/qicore-recorded","valueDateTime":"2026-02-02T11:30:00.000+00:00"}],"status":"completed","code":{"coding":[{"system":"http://snomed.info/sct","code":"306165000","display":"Referral to hospital-based dietetics service (procedure)"}],"text":"Referral to hospital-based dietetics service (procedure)"},"subject":{"reference":"Patient/f524a276-6788-435a-99f7-cd0ef48553e6"},"encounter":{"reference":"Encounter/ScreNotatriRefAsseModNodxCPMSROBSPass4"},"performedPeriod":{"start":"2026-09-20T11:30:00.000+00:00","end":"2026-09-21T08:15:00.000+00:00"}},"request":{"method":"PUT","url":"Procedure/6a6c3597-50fc-4471-9831-1d3b776745e8"}},{"resource":{"resourceType":"MeasureReport","id":"a8cd3330-e224-450d-89fb-48345a4d08b4","meta":{"profile":["http://hl7.org/fhir/us/cqfmeasures/StructureDefinition/test-case-cqfm"]},"contained":[{"resourceType":"Parameters","id":"fa43b7e5-8e6e-4736-9646-c94d68195a8e-parameters","parameter":[{"name":"subject","valueString":"f524a276-6788-435a-99f7-cd0ef48553e6"}]}],"extension":[{"url":"http://hl7.org/fhir/StructureDefinition/cqf-inputParameters","valueReference":{"reference":"#fa43b7e5-8e6e-4736-9646-c94d68195a8e-parameters"}},{"url":"http://hl7.org/fhir/us/cqfmeasures/StructureDefinition/cqfm-testCaseDescription","valueMarkdown":"Screened, Not at Risk, Referral, Assessed, Severe Malnutrition, No Diagnosis, Nutrition Care Plan"}],"modifierExtension":[{"url":"http://hl7.org/fhir/us/cqfmeasures/StructureDefinition/cqfm-isTestCase","valueBoolean":true}],"status":"complete","type":"individual","measure":"https://madie.cms.gov/Measure/CMS986FHIRMalnutritionScore","period":{"start":"2026-01-01","end":"2026-12-31"},"group":[{"id":"Group_1","population":[{"id":"InitialPopulation_1","code":{"coding":[{"system":"http://terminology.hl7.org/CodeSystem/measure-population","code":"initial-population","display":"Initial Population"}]},"count":1},{"id":"MeasurePopulation_1","code":{"coding":[{"system":"http://terminology.hl7.org/CodeSystem/measure-population","code":"measure-population","display":"Measure Population"}]},"count":1},{"id":"MeasurePopulationExclusion_1","code":{"coding":[{"system":"http://terminology.hl7.org/CodeSystem/measure-population","code":"measure-population-exclusion","display":"Measure Population Exclusion"}]},"count":0},{"id":"MeasureObservation_1_1","code":{"coding":[{"system":"http://terminology.hl7.org/CodeSystem/measure-population","code":"measure-population-observation","display":"Measure Population Observation"}]},"count":1}],"measureScore":{"value":0.0}},{"id":"Group_2","population":[{"id":"InitialPopulation_2","code":{"coding":[{"system":"http://terminology.hl7.org/CodeSystem/measure-population","code":"initial-population","display":"Initial Population"}]},"count":1},{"id":"MeasurePopulation_2","code":{"coding":[{"system":"http://terminology.hl7.org/CodeSystem/measure-population","code":"measure-population","display":"Measure Population"}]},"count":1},{"id":"MeasurePopulationExclusion_2","code":{"coding":[{"system":"http://terminology.hl7.org/CodeSystem/measure-population","code":"measure-population-exclusion","display":"Measure Population Exclusion"}]},"count":0},{"id":"MeasureObservation_2_1","code":{"coding":[{"system":"http://terminology.hl7.org/CodeSystem/measure-population","code":"measure-population-observation","display":"Measure Population Observation"}]},"count":1}],"measureScore":{"value":0.0}},{"id":"Group_3","population":[{"id":"InitialPopulation_3","code":{"coding":[{"system":"http://terminology.hl7.org/CodeSystem/measure-population","code":"initial-population","display":"Initial Population"}]},"count":1},{"id":"MeasurePopulation_3","code":{"coding":[{"system":"http://terminology.hl7.org/CodeSystem/measure-population","code":"measure-population","display":"Measure Population"}]},"count":1},{"id":"MeasurePopulationExclusion_3","code":{"coding":[{"system":"http://terminology.hl7.org/CodeSystem/measure-population","code":"measure-population-exclusion","display":"Measure Population Exclusion"}]},"count":0},{"id":"MeasureObservation_3_1","code":{"coding":[{"system":"http://terminology.hl7.org/CodeSystem/measure-population","code":"measure-population-observation","display":"Measure Population Observation"}]},"count":0}],"measureScore":{"value":0.0}},{"id":"Group_4","population":[{"id":"InitialPopulation_4","code":{"coding":[{"system":"http://terminology.hl7.org/CodeSystem/measure-population","code":"initial-population","display":"Initial Population"}]},"count":1},{"id":"MeasurePopulation_4","code":{"coding":[{"system":"http://terminology.hl7.org/CodeSystem/measure-population","code":"measure-population","display":"Measure Population"}]},"count":1},{"id":"MeasurePopulationExclusion_4","code":{"coding":[{"system":"http://terminology.hl7.org/CodeSystem/measure-population","code":"measure-population-exclusion","display":"Measure Population Exclusion"}]},"count":0},{"id":"MeasureObservation_4_1","code":{"coding":[{"system":"http://terminology.hl7.org/CodeSystem/measure-population","code":"measure-population-observation","display":"Measure Population Observation"}]},"count":1}],"measureScore":{"value":0.0}},{"id":"Group_5","population":[{"id":"InitialPopulation_5","code":{"coding":[{"system":"http://terminology.hl7.org/CodeSystem/measure-population","code":"initial-population","display":"Initial Population"}]},"count":1},{"id":"MeasurePopulation_5","code":{"coding":[{"system":"http://terminology.hl7.org/CodeSystem/measure-population","code":"measure-population","display":"Measure Population"}]},"count":1},{"id":"MeasurePopulationExclusion_5","code":{"coding":[{"system":"http://terminology.hl7.org/CodeSystem/measure-population","code":"measure-population-exclusion","display":"Measure Population Exclusion"}]},"count":0},{"id":"MeasureObservation_5_1","code":{"coding":[{"system":"http://terminology.hl7.org/CodeSystem/measure-population","code":"measure-population-observation","display":"Measure Population Observation"}]},"count":3}],"measureScore":{"value":0.0}},{"id":"Group_6","population":[{"id":"InitialPopulation_6","code":{"coding":[{"system":"http://terminology.hl7.org/CodeSystem/measure-population","code":"initial-population","display":"Initial Population"}]},"count":1},{"id":"MeasurePopulation_6","code":{"coding":[{"system":"http://terminology.hl7.org/CodeSystem/measure-population","code":"measure-population","display":"Measure Population"}]},"count":1},{"id":"MeasurePopulationExclusion_6","code":{"coding":[{"system":"http://terminology.hl7.org/CodeSystem/measure-population","code":"measure-population-exclusion","display":"Measure Population Exclusion"}]},"count":0},{"id":"MeasureObservation_6_1","code":{"coding":[{"system":"http://terminology.hl7.org/CodeSystem/measure-population","code":"measure-population-observation","display":"Measure Population Observation"}]},"count":75}],"measureScore":{"value":0.0}}],"evaluatedResource":[{"reference":"Patient/f524a276-6788-435a-99f7-cd0ef48553e6"},{"reference":"Encounter/c47de117-0eb2-4fe3-9006-3612a23540dc"},{"reference":"Observation/a0ee4e20-0309-4141-9689-e5c749cd8814"},{"reference":"Observation/080fd15b-e54a-4aef-aa02-87235917bbfe"},{"reference":"Procedure/6a6c3597-50fc-4471-9831-1d3b776745e8"},{"reference":"Procedure/9dea3024-d360-41f7-8da4-5db41940ac92"},{"reference":"Coverage/6af2b184-fa34-458c-bbab-bf9800b1560b"},{"reference":"Organization/2190b2f8-d801-43cd-9678-bf6d0b364beb"}]},"request":{"method":"PUT","url":"MeasureReport/a8cd3330-e224-450d-89fb-48345a4d08b4"}},{"resource":{"resourceType":"Patient","id":"f524a276-6788-435a-99f7-cd0ef48553e6","meta":{"profile":["http://hl7.org/fhir/us/qicore/StructureDefinition/qicore-patient"]},"extension":[{"url":"http://hl7.org/fhir/us/core/StructureDefinition/us-core-race","extension":[{"url":"ombCategory","valueCoding":{"system":"urn:oid:2.16.840.1.113883.6.238","code":"2028-9","display":"Asian","userSelected":true}},{"url":"text","valueString":"Asian"}]},{"url":"http://hl7.org/fhir/us/core/StructureDefinition/us-core-ethnicity","extension":[{"url":"ombCategory","valueCoding":{"system":"urn:oid:2.16.840.1.113883.6.238","code":"2186-5","display":"Not Hispanic or Latino","userSelected":true}},{"url":"text","valueString":"Not Hispanic or Latino"}]},{"url":"http://hl7.org/fhir/us/core/StructureDefinition/us-core-sex","valueCode":"248152002"}],"identifier":[{"type":{"coding":[{"system":"http://terminology.hl7.org/CodeSystem/v2-0203","code":"MR"}]},"system":"https://madie.cms.gov/","value":"ScreNotatriRefAsseModNodxCP"}],"active":true,"name":[{"use":"usual","text":"ScreNotatriRefAsseModNodxCP","family":"MSROBSPass4","given":["ScreNotatriRefAsseModNodxCP"]}],"gender":"female","birthDate":"1955-12-31","address":[{"text":"ScreNotatriRefAsseModNodxCP, Screened Not at risk Assessed Severely Malnourished Diagnosed Care Plan, ID=ScreNotatriRefAsseModNodxCP, DOB: 31 Dec 1955"}]},"request":{"method":"PUT","url":"Patient/f524a276-6788-435a-99f7-cd0ef48553e6"}},{"resource":{"resourceType":"Observation","id":"080fd15b-e54a-4aef-aa02-87235917bbfe","meta":{"profile":["http://hl7.org/fhir/us/qicore/StructureDefinition/qicore-observation-screening-assessment"]},"status":"final","category":[{"coding":[{"system":"http://terminology.hl7.org/CodeSystem/observation-category","code":"survey","display":"Survey"}]}],"code":{"coding":[{"system":"http://loinc.org","code":"75303-8","display":"Nutrition assessment narrative","userSelected":true}]},"subject":{"reference":"Patient/f524a276-6788-435a-99f7-cd0ef48553e6"},"effectiveDateTime":"2026-09-20T10:00:00.000+00:00","valueCodeableConcept":{"coding":[{"system":"http://snomed.info/sct","code":"723917005","display":"Dangerously low body weight co-occurrent and due to anorexia nervosa of restricting type (disorder)","userSelected":true}]}},"request":{"method":"PUT","url":"Observation/080fd15b-e54a-4aef-aa02-87235917bbfe"}},{"resource":{"resourceType":"Observation","id":"a0ee4e20-0309-4141-9689-e5c749cd8814","meta":{"profile":["http://hl7.org/fhir/us/qicore/StructureDefinition/qicore-observation-screening-assessment"]},"status":"final","category":[{"coding":[{"system":"http://terminology.hl7.org/CodeSystem/observation-category","code":"survey","display":"Survey"}]}],"code":{"coding":[{"system":"http://loinc.org","code":"98968-1","display":"Initial screening NRS_2002","userSelected":true}]},"subject":{"reference":"Patient/f524a276-6788-435a-99f7-cd0ef48553e6"},"effectiveDateTime":"2026-09-20T09:00:00.000+00:00","valueCodeableConcept":{"coding":[{"system":"http://loinc.org","code":"LA33699-2","display":"Not at risk for malnutrition","userSelected":true}]}},"request":{"method":"PUT","url":"Observation/a0ee4e20-0309-4141-9689-e5c749cd8814"}},{"resource":{"resourceType":"Bundle","id":"ScreNotatriRefAsseModNodxCP","type":"transaction","entry":[{"fullUrl":"https://madie.cms.gov/Patient/f524a276-6788-435a-99f7-cd0ef48553e6","resource":{"resourceType":"Patient","id":"f524a276-6788-435a-99f7-cd0ef48553e6","meta":{"profile":["http://hl7.org/fhir/us/qicore/StructureDefinition/qicore-patient"]},"extension":[{"url":"http://hl7.org/fhir/us/core/StructureDefinition/us-core-race","extension":[{"url":"ombCategory","valueCoding":{"system":"urn:oid:2.16.840.1.113883.6.238","code":"2028-9","display":"Asian","userSelected":true}},{"url":"text","valueString":"Asian"}]},{"url":"http://hl7.org/fhir/us/core/StructureDefinition/us-core-ethnicity","extension":[{"url":"ombCategory","valueCoding":{"system":"urn:oid:2.16.840.1.113883.6.238","code":"2186-5","display":"Not Hispanic or Latino","userSelected":true}},{"url":"text","valueString":"Not Hispanic or Latino"}]},{"url":"http://hl7.org/fhir/us/core/StructureDefinition/us-core-sex","valueCode":"248152002"}],"identifier":[{"type":{"coding":[{"system":"http://terminology.hl7.org/CodeSystem/v2-0203","code":"MR"}]},"system":"https://madie.cms.gov/","value":"ScreNotatriRefAsseModNodxCP"}],"active":true,"name":[{"use":"usual","text":"ScreNotatriRefAsseModNodxCP","family":"MSROBSPass4","given":["ScreNotatriRefAsseModNodxCP"]}],"gender":"female","birthDate":"1955-12-31","address":[{"text":"ScreNotatriRefAsseModNodxCP, Screened Not at risk Assessed Severely Malnourished Diagnosed Care Plan, ID=ScreNotatriRefAsseModNodxCP, DOB: 31 Dec 1955"}]},"request":{"method":"PUT","url":"Patient/f524a276-6788-435a-99f7-cd0ef48553e6"}},{"fullUrl":"https://madie.cms.gov/Encounter/c47de117-0eb2-4fe3-9006-3612a23540dc","resource":{"resourceType":"Encounter","id":"c47de117-0eb2-4fe3-9006-3612a23540dc","meta":{"profile":["http://hl7.org/fhir/us/qicore/StructureDefinition/qicore-encounter"]},"status":"finished","class":{"system":"http://terminology.hl7.org/CodeSystem/v3-ActCode","code":"IMP","display":"inpatient encounter"},"type":[{"coding":[{"system":"http://snomed.info/sct","code":"8715000"}]}],"subject":{"reference":"Patient/f524a276-6788-435a-99f7-cd0ef48553e6"},"period":{"start":"2026-09-20T08:00:00.000+00:00","end":"2026-10-22T08:15:00.000+00:00"}},"request":{"method":"PUT","url":"Encounter/c47de117-0eb2-4fe3-9006-3612a23540dc"}},{"fullUrl":"https://madie.cms.gov/Observation/a0ee4e20-0309-4141-9689-e5c749cd8814","resource":{"resourceType":"Observation","id":"a0ee4e20-0309-4141-9689-e5c749cd8814","meta":{"profile":["http://hl7.org/fhir/us/qicore/StructureDefinition/qicore-observation-screening-assessment"]},"status":"final","category":[{"coding":[{"system":"http://terminology.hl7.org/CodeSystem/observation-category","code":"survey","display":"Survey"}]}],"code":{"coding":[{"system":"http://loinc.org","code":"98968-1","display":"Initial screening NRS_2002","userSelected":true}]},"subject":{"reference":"Patient/f524a276-6788-435a-99f7-cd0ef48553e6"},"effectiveDateTime":"2026-09-20T09:00:00.000+00:00","valueCodeableConcept":{"coding":[{"system":"http://loinc.org","code":"LA33699-2","display":"Not at risk for malnutrition","userSelected":true}]}},"request":{"method":"PUT","url":"Observation/a0ee4e20-0309-4141-9689-e5c749cd8814"}},{"fullUrl":"https://madie.cms.gov/Observation/080fd15b-e54a-4aef-aa02-87235917bbfe","resource":{"resourceType":"Observation","id":"080fd15b-e54a-4aef-aa02-87235917bbfe","meta":{"profile":["http://hl7.org/fhir/us/qicore/StructureDefinition/qicore-observation-screening-assessment"]},"status":"final","category":[{"coding":[{"system":"http://terminology.hl7.org/CodeSystem/observation-category","code":"survey","display":"Survey"}]}],"code":{"coding":[{"system":"http://loinc.org","code":"75303-8","display":"Nutrition assessment narrative","userSelected":true}]},"subject":{"reference":"Patient/f524a276-6788-435a-99f7-cd0ef48553e6"},"effectiveDateTime":"2026-09-20T10:00:00.000+00:00","valueCodeableConcept":{"coding":[{"system":"http://snomed.info/sct","code":"723917005","display":"Dangerously low body weight co-occurrent and due to anorexia nervosa of restricting type (disorder)","userSelected":true}]}},"request":{"method":"PUT","url":"Observation/080fd15b-e54a-4aef-aa02-87235917bbfe"}},{"fullUrl":"https://madie.cms.gov/Procedure/6a6c3597-50fc-4471-9831-1d3b776745e8","resource":{"resourceType":"Procedure","id":"6a6c3597-50fc-4471-9831-1d3b776745e8","meta":{"profile":["http://hl7.org/fhir/us/qicore/StructureDefinition/qicore-procedure"]},"extension":[{"url":"http://hl7.org/fhir/us/qicore/StructureDefinition/qicore-recorded","valueDateTime":"2026-02-02T11:30:00.000+00:00"}],"status":"completed","code":{"coding":[{"system":"http://snomed.info/sct","code":"306165000","display":"Referral to hospital-based dietetics service (procedure)"}],"text":"Referral to hospital-based dietetics service (procedure)"},"subject":{"reference":"Patient/f524a276-6788-435a-99f7-cd0ef48553e6"},"encounter":{"reference":"Encounter/ScreNotatriRefAsseModNodxCPMSROBSPass4"},"performedPeriod":{"start":"2026-09-20T11:30:00.000+00:00","end":"2026-09-21T08:15:00.000+00:00"}},"request":{"method":"PUT","url":"Procedure/6a6c3597-50fc-4471-9831-1d3b776745e8"}},{"fullUrl":"https://madie.cms.gov/Procedure/9dea3024-d360-41f7-8da4-5db41940ac92","resource":{"resourceType":"Procedure","id":"9dea3024-d360-41f7-8da4-5db41940ac92","meta":{"profile":["http://hl7.org/fhir/us/qicore/StructureDefinition/qicore-procedure"]},"extension":[{"url":"http://hl7.org/fhir/us/qicore/StructureDefinition/qicore-recorded","valueDateTime":"2026-02-02T11:30:00.000+00:00"}],"status":"completed","code":{"coding":[{"system":"http://snomed.info/sct","code":"410172000","display":"Nutrition care management (procedure)"}],"text":"Nutrition care management (procedure)"},"subject":{"reference":"Patient/f524a276-6788-435a-99f7-cd0ef48553e6"},"encounter":{"reference":"Encounter/ScreNotatriRefAsseModNodxCPMSROBSPass4"},"performedPeriod":{"start":"2026-09-20T11:30:00.000+00:00","end":"2026-09-21T08:15:00.000+00:00"}},"request":{"method":"PUT","url":"Procedure/9dea3024-d360-41f7-8da4-5db41940ac92"}},{"fullUrl":"https://madie.cms.gov/Coverage/6af2b184-fa34-458c-bbab-bf9800b1560b","resource":{"resourceType":"Coverage","id":"6af2b184-fa34-458c-bbab-bf9800b1560b","meta":{"profile":["http://hl7.org/fhir/us/qicore/StructureDefinition/qicore-coverage"]},"status":"active","type":{"coding":[{"system":"https://nahdo.org/sopt","version":"9.2","code":"11","display":"Medicare Managed Care (Includes Medicare Advantage Plans)"}]},"subscriberId":"97531","beneficiary":{"reference":"Patient/f524a276-6788-435a-99f7-cd0ef48553e6"},"dependent":"0","relationship":{"coding":[{"system":"http://terminology.hl7.org/CodeSystem/subscriber-relationship","code":"self"}]},"period":{"start":"2026-10-01T00:00:00.000+00:00"},"payor":[{"reference":"Organization/2190b2f8-d801-43cd-9678-bf6d0b364beb"}]},"request":{"method":"PUT","url":"Coverage/6af2b184-fa34-458c-bbab-bf9800b1560b"}},{"fullUrl":"https://madie.cms.gov/Organization/2190b2f8-d801-43cd-9678-bf6d0b364beb","resource":{"resourceType":"Organization","id":"2190b2f8-d801-43cd-9678-bf6d0b364beb","meta":{"profile":["http://hl7.org/fhir/us/qicore/StructureDefinition/qicore-organization"]},"identifier":[{"use":"temp","system":"urn:oid:2.16.840.1.113883.4.4","value":"21-3259825"}],"active":true,"type":[{"coding":[{"system":"http://terminology.hl7.org/CodeSystem/organization-type","code":"pay","display":"Payer"}]}],"name":"Blue Cross Blue Shield of Texas","telecom":[{"system":"phone","value":"(+1) 972-766-6900"}],"address":[{"use":"billing","type":"postal","line":["P.O. Box 660044"],"city":"Dallas","state":"TX","postalCode":"75266-0044","country":"USA"}]},"request":{"method":"PUT","url":"Organization/2190b2f8-d801-43cd-9678-bf6d0b364beb"}},{"fullUrl":"https://madie.cms.gov/MeasureReport/a8cd3330-e224-450d-89fb-48345a4d08b4","resource":{"resourceType":"MeasureReport","id":"a8cd3330-e224-450d-89fb-48345a4d08b4","meta":{"profile":["http://hl7.org/fhir/us/cqfmeasures/StructureDefinition/test-case-cqfm"]},"contained":[{"resourceType":"Parameters","id":"fa43b7e5-8e6e-4736-9646-c94d68195a8e-parameters","parameter":[{"name":"subject","valueString":"f524a276-6788-435a-99f7-cd0ef48553e6"}]}],"extension":[{"url":"http://hl7.org/fhir/StructureDefinition/cqf-inputParameters","valueReference":{"reference":"#fa43b7e5-8e6e-4736-9646-c94d68195a8e-parameters"}},{"url":"http://hl7.org/fhir/us/cqfmeasures/StructureDefinition/cqfm-testCaseDescription","valueMarkdown":"Screened, Not at Risk, Referral, Assessed, Severe Malnutrition, No Diagnosis, Nutrition Care Plan"}],"modifierExtension":[{"url":"http://hl7.org/fhir/us/cqfmeasures/StructureDefinition/cqfm-isTestCase","valueBoolean":true}],"status":"complete","type":"individual","measure":"https://madie.cms.gov/Measure/CMS986FHIRMalnutritionScore","period":{"start":"2026-01-01","end":"2026-12-31"},"group":[{"id":"Group_1","population":[{"id":"InitialPopulation_1","code":{"coding":[{"system":"http://terminology.hl7.org/CodeSystem/measure-population","code":"initial-population","display":"Initial Population"}]},"count":1},{"id":"MeasurePopulation_1","code":{"coding":[{"system":"http://terminology.hl7.org/CodeSystem/measure-population","code":"measure-population","display":"Measure Population"}]},"count":1},{"id":"MeasurePopulationExclusion_1","code":{"coding":[{"system":"http://terminology.hl7.org/CodeSystem/measure-population","code":"measure-population-exclusion","display":"Measure Population Exclusion"}]},"count":0},{"id":"MeasureObservation_1_1","code":{"coding":[{"system":"http://terminology.hl7.org/CodeSystem/measure-population","code":"measure-population-observation","display":"Measure Population Observation"}]},"count":1}],"measureScore":{"value":0.0}},{"id":"Group_2","population":[{"id":"InitialPopulation_2","code":{"coding":[{"system":"http://terminology.hl7.org/CodeSystem/measure-population","code":"initial-population","display":"Initial Population"}]},"count":1},{"id":"MeasurePopulation_2","code":{"coding":[{"system":"http://terminology.hl7.org/CodeSystem/measure-population","code":"measure-population","display":"Measure Population"}]},"count":1},{"id":"MeasurePopulationExclusion_2","code":{"coding":[{"system":"http://terminology.hl7.org/CodeSystem/measure-population","code":"measure-population-exclusion","display":"Measure Population Exclusion"}]},"count":0},{"id":"MeasureObservation_2_1","code":{"coding":[{"system":"http://terminology.hl7.org/CodeSystem/measure-population","code":"measure-population-observation","display":"Measure Population Observation"}]},"count":1}],"measureScore":{"value":0.0}},{"id":"Group_3","population":[{"id":"InitialPopulation_3","code":{"coding":[{"system":"http://terminology.hl7.org/CodeSystem/measure-population","code":"initial-population","display":"Initial Population"}]},"count":1},{"id":"MeasurePopulation_3","code":{"coding":[{"system":"http://terminology.hl7.org/CodeSystem/measure-population","code":"measure-population","display":"Measure Population"}]},"count":1},{"id":"MeasurePopulationExclusion_3","code":{"coding":[{"system":"http://terminology.hl7.org/CodeSystem/measure-population","code":"measure-population-exclusion","display":"Measure Population Exclusion"}]},"count":0},{"id":"MeasureObservation_3_1","code":{"coding":[{"system":"http://terminology.hl7.org/CodeSystem/measure-population","code":"measure-population-observation","display":"Measure Population Observation"}]},"count":0}],"measureScore":{"value":0.0}},{"id":"Group_4","population":[{"id":"InitialPopulation_4","code":{"coding":[{"system":"http://terminology.hl7.org/CodeSystem/measure-population","code":"initial-population","display":"Initial Population"}]},"count":1},{"id":"MeasurePopulation_4","code":{"coding":[{"system":"http://terminology.hl7.org/CodeSystem/measure-population","code":"measure-population","display":"Measure Population"}]},"count":1},{"id":"MeasurePopulationExclusion_4","code":{"coding":[{"system":"http://terminology.hl7.org/CodeSystem/measure-population","code":"measure-population-exclusion","display":"Measure Population Exclusion"}]},"count":0},{"id":"MeasureObservation_4_1","code":{"coding":[{"system":"http://terminology.hl7.org/CodeSystem/measure-population","code":"measure-population-observation","display":"Measure Population Observation"}]},"count":1}],"measureScore":{"value":0.0}},{"id":"Group_5","population":[{"id":"InitialPopulation_5","code":{"coding":[{"system":"http://terminology.hl7.org/CodeSystem/measure-population","code":"initial-population","display":"Initial Population"}]},"count":1},{"id":"MeasurePopulation_5","code":{"coding":[{"system":"http://terminology.hl7.org/CodeSystem/measure-population","code":"measure-population","display":"Measure Population"}]},"count":1},{"id":"MeasurePopulationExclusion_5","code":{"coding":[{"system":"http://terminology.hl7.org/CodeSystem/measure-population","code":"measure-population-exclusion","display":"Measure Population Exclusion"}]},"count":0},{"id":"MeasureObservation_5_1","code":{"coding":[{"system":"http://terminology.hl7.org/CodeSystem/measure-population","code":"measure-population-observation","display":"Measure Population Observation"}]},"count":3}],"measureScore":{"value":0.0}},{"id":"Group_6","population":[{"id":"InitialPopulation_6","code":{"coding":[{"system":"http://terminology.hl7.org/CodeSystem/measure-population","code":"initial-population","display":"Initial Population"}]},"count":1},{"id":"MeasurePopulation_6","code":{"coding":[{"system":"http://terminology.hl7.org/CodeSystem/measure-population","code":"measure-population","display":"Measure Population"}]},"count":1},{"id":"MeasurePopulationExclusion_6","code":{"coding":[{"system":"http://terminology.hl7.org/CodeSystem/measure-population","code":"measure-population-exclusion","display":"Measure Population Exclusion"}]},"count":0},{"id":"MeasureObservation_6_1","code":{"coding":[{"system":"http://terminology.hl7.org/CodeSystem/measure-population","code":"measure-population-observation","display":"Measure Population Observation"}]},"count":75}],"measureScore":{"value":0.0}}],"evaluatedResource":[{"reference":"Patient/f524a276-6788-435a-99f7-cd0ef48553e6"},{"reference":"Encounter/c47de117-0eb2-4fe3-9006-3612a23540dc"},{"reference":"Observation/a0ee4e20-0309-4141-9689-e5c749cd8814"},{"reference":"Observation/080fd15b-e54a-4aef-aa02-87235917bbfe"},{"reference":"Procedure/6a6c3597-50fc-4471-9831-1d3b776745e8"},{"reference":"Procedure/9dea3024-d360-41f7-8da4-5db41940ac92"},{"reference":"Coverage/6af2b184-fa34-458c-bbab-bf9800b1560b"},{"reference":"Organization/2190b2f8-d801-43cd-9678-bf6d0b364beb"}]},"request":{"method":"PUT","url":"MeasureReport/a8cd3330-e224-450d-89fb-48345a4d08b4"}}]},"request":{"method":"PUT","url":"Bundle/ScreNotatriRefAsseModNodxCP"}},{"resource":{"resourceType":"Coverage","id":"6af2b184-fa34-458c-bbab-bf9800b1560b","meta":{"profile":["http://hl7.org/fhir/us/qicore/StructureDefinition/qicore-coverage"]},"status":"active","type":{"coding":[{"system":"https://nahdo.org/sopt","version":"9.2","code":"11","display":"Medicare Managed Care (Includes Medicare Advantage Plans)"}]},"subscriberId":"97531","beneficiary":{"reference":"Patient/f524a276-6788-435a-99f7-cd0ef48553e6"},"dependent":"0","relationship":{"coding":[{"system":"http://terminology.hl7.org/CodeSystem/subscriber-relationship","code":"self"}]},"period":{"start":"2026-10-01T00:00:00.000+00:00"},"payor":[{"reference":"Organization/2190b2f8-d801-43cd-9678-bf6d0b364beb"}]},"request":{"method":"PUT","url":"Coverage/6af2b184-fa34-458c-bbab-bf9800b1560b"}},{"resource":{"resourceType":"Encounter","id":"c47de117-0eb2-4fe3-9006-3612a23540dc","meta":{"profile":["http://hl7.org/fhir/us/qicore/StructureDefinition/qicore-encounter"]},"status":"finished","class":{"system":"http://terminology.hl7.org/CodeSystem/v3-ActCode","code":"IMP","display":"inpatient encounter"},"type":[{"coding":[{"system":"http://snomed.info/sct","code":"8715000"}]}],"subject":{"reference":"Patient/f524a276-6788-435a-99f7-cd0ef48553e6"},"period":{"start":"2026-09-20T08:00:00.000+00:00","end":"2026-10-22T08:15:00.000+00:00"}},"request":{"method":"PUT","url":"Encounter/c47de117-0eb2-4fe3-9006-3612a23540dc"}}]}