{"resourceType":"Bundle","id":"tests-75d19c2d-5ae9-476e-93f5-e84e668512a8-bundle","type":"transaction","entry":[{"resource":{"resourceType":"Bundle","id":"MultEncwithMultAsses","type":"transaction","entry":[{"fullUrl":"https://madie.cms.gov/Patient/75d19c2d-5ae9-476e-93f5-e84e668512a8","resource":{"resourceType":"Patient","id":"75d19c2d-5ae9-476e-93f5-e84e668512a8","meta":{"profile":["http://hl7.org/fhir/us/qicore/StructureDefinition/qicore-patient"]},"extension":[{"url":"http://hl7.org/fhir/us/core/StructureDefinition/us-core-race","extension":[{"url":"ombCategory","valueCoding":{"system":"urn:oid:2.16.840.1.113883.6.238","code":"2028-9","display":"Asian","userSelected":true}},{"url":"text","valueString":"White"}]},{"url":"http://hl7.org/fhir/us/core/StructureDefinition/us-core-ethnicity","extension":[{"url":"ombCategory","valueCoding":{"system":"urn:oid:2.16.840.1.113883.6.238","code":"2186-5","display":"Not Hispanic or Latino","userSelected":true}},{"url":"text","valueString":"Not Hispanic or Latino"}]},{"url":"http://hl7.org/fhir/us/core/StructureDefinition/us-core-sex","valueCode":"248152002"}],"identifier":[{"type":{"coding":[{"system":"http://terminology.hl7.org/CodeSystem/v2-0203","code":"MR"}]},"system":"https://madie.cms.gov/","value":"MultEncwithMultAsses"}],"active":true,"name":[{"use":"usual","text":"MultEncwithMultAsses","family":"MSROBSPass4","given":["MultEncwithMultAsses"]}],"gender":"female","birthDate":"1984-04-04","address":[{"text":"MultEncwithMultAsses, Screened Not at risk Assessed Severely Malnourished Diagnosed Care Plan, ID=ScreAtriRefAsseModDxCp2, DOB: 03 Feb 1956"}]},"request":{"method":"PUT","url":"Patient/75d19c2d-5ae9-476e-93f5-e84e668512a8"}},{"fullUrl":"https://madie.cms.gov/Encounter/85fa7b1e-739b-428e-a0b1-5b224f11d769","resource":{"resourceType":"Encounter","id":"85fa7b1e-739b-428e-a0b1-5b224f11d769","meta":{"profile":["http://hl7.org/fhir/us/qicore/StructureDefinition/qicore-encounter"]},"status":"finished","class":{"system":"http://terminology.hl7.org/CodeSystem/v3-ActCode","code":"IMP","display":"inpatient encounter"},"type":[{"coding":[{"system":"http://snomed.info/sct","code":"32485007"}]}],"subject":{"reference":"Patient/75d19c2d-5ae9-476e-93f5-e84e668512a8"},"period":{"start":"2026-08-01T08:00:00.000+00:00","end":"2026-08-10T08:00:00.000+00:00"}},"request":{"method":"PUT","url":"Encounter/85fa7b1e-739b-428e-a0b1-5b224f11d769"}},{"fullUrl":"https://madie.cms.gov/Encounter/22a26177-d0e6-4956-b52c-9cfed5dac1f5","resource":{"resourceType":"Encounter","id":"22a26177-d0e6-4956-b52c-9cfed5dac1f5","meta":{"profile":["http://hl7.org/fhir/us/qicore/StructureDefinition/qicore-encounter"]},"status":"finished","class":{"system":"http://terminology.hl7.org/CodeSystem/v3-ActCode","code":"IMP","display":"inpatient encounter"},"type":[{"coding":[{"system":"http://snomed.info/sct","code":"8715000"}]}],"subject":{"reference":"Patient/75d19c2d-5ae9-476e-93f5-e84e668512a8"},"period":{"start":"2026-05-01T08:00:00.000+00:00","end":"2026-05-10T08:00:00.000+00:00"}},"request":{"method":"PUT","url":"Encounter/22a26177-d0e6-4956-b52c-9cfed5dac1f5"}},{"fullUrl":"https://madie.cms.gov/Condition/037191d5-5a16-45ef-9036-04dc8c9dc7a9","resource":{"resourceType":"Condition","id":"037191d5-5a16-45ef-9036-04dc8c9dc7a9","meta":{"profile":["http://hl7.org/fhir/us/qicore/StructureDefinition/qicore-condition-encounter-diagnosis"]},"clinicalStatus":{"coding":[{"system":"http://terminology.hl7.org/CodeSystem/condition-clinical","code":"active","display":"Active","userSelected":true}]},"verificationStatus":{"coding":[{"system":"http://terminology.hl7.org/CodeSystem/condition-ver-status","code":"confirmed","display":"Confirmed","userSelected":true}]},"category":[{"coding":[{"system":"http://terminology.hl7.org/CodeSystem/condition-category","code":"encounter-diagnosis","display":"Encounter Diagnosis","userSelected":true}]}],"code":{"coding":[{"system":"http://hl7.org/fhir/sid/icd-10-cm","code":"E40","display":"Kwashiorkor","userSelected":true}]},"subject":{"reference":"Patient/75d19c2d-5ae9-476e-93f5-e84e668512a8"},"recordedDate":"2026-05-01T08:00:00.000+00:00"},"request":{"method":"PUT","url":"Condition/037191d5-5a16-45ef-9036-04dc8c9dc7a9"}},{"fullUrl":"https://madie.cms.gov/Procedure/b34e5a0f-e432-4ecf-b966-65b8a65f0131","resource":{"resourceType":"Procedure","id":"b34e5a0f-e432-4ecf-b966-65b8a65f0131","meta":{"profile":["http://hl7.org/fhir/us/qicore/StructureDefinition/qicore-procedure"]},"extension":[{"url":"http://hl7.org/fhir/us/qicore/StructureDefinition/qicore-recorded","valueDateTime":"2026-03-05T08:00:00.000+00:00"}],"status":"completed","code":{"coding":[{"system":"http://snomed.info/sct","code":"306165000","display":"Referral to hospital-based dietetics service (procedure)"}],"text":"Referral to hospital-based dietetics service (procedure)"},"subject":{"reference":"Patient/75d19c2d-5ae9-476e-93f5-e84e668512a8"},"encounter":{"reference":"Encounter/MultEncwithMultAssesMSROBSPass4"},"performedPeriod":{"start":"2026-08-05T08:00:00.000+00:00","end":"2026-08-05T08:00:00.000+00:00"}},"request":{"method":"PUT","url":"Procedure/b34e5a0f-e432-4ecf-b966-65b8a65f0131"}},{"fullUrl":"https://madie.cms.gov/Observation/c8bbd234-309c-4014-b8a3-54444fea6d84","resource":{"resourceType":"Observation","id":"c8bbd234-309c-4014-b8a3-54444fea6d84","meta":{"profile":["http://hl7.org/fhir/us/qicore/StructureDefinition/qicore-observation-screening-assessment"]},"status":"final","category":[{"coding":[{"system":"http://terminology.hl7.org/CodeSystem/observation-category","code":"survey","display":"Survey"}]}],"code":{"coding":[{"system":"http://loinc.org","code":"75282-4","display":"Nutrition assessment panel","userSelected":true}]},"subject":{"reference":"Patient/75d19c2d-5ae9-476e-93f5-e84e668512a8"},"effectiveDateTime":"2026-08-08T08:00:00.000+00:00","valueCodeableConcept":{"coding":[{"system":"http://loinc.org","code":"LA33701-6","display":"Well nourished","userSelected":true}]}},"request":{"method":"PUT","url":"Observation/c8bbd234-309c-4014-b8a3-54444fea6d84"}},{"fullUrl":"https://madie.cms.gov/Observation/c821e6c0-8ebd-46b7-bf21-05ee5a8e1e0c","resource":{"resourceType":"Observation","id":"c821e6c0-8ebd-46b7-bf21-05ee5a8e1e0c","meta":{"profile":["http://hl7.org/fhir/us/qicore/StructureDefinition/qicore-observation-screening-assessment"]},"status":"final","category":[{"coding":[{"system":"http://terminology.hl7.org/CodeSystem/observation-category","code":"survey","display":"Survey"}]}],"code":{"coding":[{"system":"http://loinc.org","code":"75282-4","display":"Nutrition assessment panel","userSelected":true}]},"subject":{"reference":"Patient/75d19c2d-5ae9-476e-93f5-e84e668512a8"},"effectiveDateTime":"2026-08-01T08:00:00.000+00:00","valueCodeableConcept":{"coding":[{"system":"http://snomed.info/sct","code":"102636009","display":"Chronic nutritional deficiency (finding)","userSelected":true}]}},"request":{"method":"PUT","url":"Observation/c821e6c0-8ebd-46b7-bf21-05ee5a8e1e0c"}},{"fullUrl":"https://madie.cms.gov/Procedure/674f1ac4-a8bd-46bb-9786-232370c3271b","resource":{"resourceType":"Procedure","id":"674f1ac4-a8bd-46bb-9786-232370c3271b","meta":{"profile":["http://hl7.org/fhir/us/qicore/StructureDefinition/qicore-procedure"]},"extension":[{"url":"http://hl7.org/fhir/us/qicore/StructureDefinition/qicore-recorded","valueDateTime":"2026-02-02T11:30:00.000+00:00"}],"status":"completed","code":{"coding":[{"system":"http://snomed.info/sct","code":"445101000124100","display":"Collaborating in nutrition therapy (procedure)"}],"text":"Collaborating in nutrition therapy (procedure)"},"subject":{"reference":"Patient/75d19c2d-5ae9-476e-93f5-e84e668512a8"},"encounter":{"reference":"Encounter/MultEncwithMultAssesMSROBSPass4"},"performedPeriod":{"start":"2026-05-05T08:00:00.000+00:00","end":"2026-05-05T08:00:00.000+00:00"}},"request":{"method":"PUT","url":"Procedure/674f1ac4-a8bd-46bb-9786-232370c3271b"}},{"fullUrl":"https://madie.cms.gov/Procedure/696526c3-1fe8-4be4-b7de-bda8780f24d0","resource":{"resourceType":"Procedure","id":"696526c3-1fe8-4be4-b7de-bda8780f24d0","meta":{"profile":["http://hl7.org/fhir/us/qicore/StructureDefinition/qicore-procedure"]},"extension":[{"url":"http://hl7.org/fhir/us/qicore/StructureDefinition/qicore-recorded","valueDateTime":"2026-02-02T11:30:00.000+00:00"}],"status":"completed","code":{"coding":[{"system":"http://snomed.info/sct","code":"445101000124100","display":"Collaborating in nutrition therapy (procedure)"}],"text":"Collaborating in nutrition therapy (procedure)"},"subject":{"reference":"Patient/75d19c2d-5ae9-476e-93f5-e84e668512a8"},"encounter":{"reference":"Encounter/MultEncwithMultAssesMSROBSPass4"},"performedPeriod":{"start":"2026-08-08T08:00:00.000+00:00","end":"2026-08-08T08:00:00.000+00:00"}},"request":{"method":"PUT","url":"Procedure/696526c3-1fe8-4be4-b7de-bda8780f24d0"}},{"fullUrl":"https://madie.cms.gov/Coverage/d2b86b23-ab4e-458c-811d-6d237232bf0f","resource":{"resourceType":"Coverage","id":"d2b86b23-ab4e-458c-811d-6d237232bf0f","meta":{"profile":["http://hl7.org/fhir/us/qicore/StructureDefinition/qicore-coverage"]},"status":"active","type":{"coding":[{"system":"https://nahdo.org/sopt","version":"9.2","code":"11","display":"Medicare Managed Care (Includes Medicare Advantage Plans)"}]},"subscriberId":"97531","beneficiary":{"reference":"Patient/75d19c2d-5ae9-476e-93f5-e84e668512a8"},"dependent":"0","relationship":{"coding":[{"system":"http://terminology.hl7.org/CodeSystem/subscriber-relationship","code":"self"}]},"period":{"start":"2025-10-01T00:00:00.000+00:00"},"payor":[{"reference":"Organization/e846633f-037e-4174-b5b7-2d1bff0af48c"}]},"request":{"method":"PUT","url":"Coverage/d2b86b23-ab4e-458c-811d-6d237232bf0f"}},{"fullUrl":"https://madie.cms.gov/Organization/e846633f-037e-4174-b5b7-2d1bff0af48c","resource":{"resourceType":"Organization","id":"e846633f-037e-4174-b5b7-2d1bff0af48c","meta":{"profile":["http://hl7.org/fhir/us/qicore/StructureDefinition/qicore-organization"]},"identifier":[{"use":"temp","system":"urn:oid:2.16.840.1.113883.4.4","value":"21-3259825"}],"active":true,"type":[{"coding":[{"system":"http://terminology.hl7.org/CodeSystem/organization-type","code":"pay","display":"Payer"}]}],"name":"Blue Cross Blue Shield of Texas","telecom":[{"system":"phone","value":"(+1) 972-766-6900"}],"address":[{"use":"billing","type":"postal","line":["P.O. Box 660044"],"city":"Dallas","state":"TX","postalCode":"75266-0044","country":"USA"}]},"request":{"method":"PUT","url":"Organization/e846633f-037e-4174-b5b7-2d1bff0af48c"}},{"fullUrl":"https://madie.cms.gov/Observation/aadb0e2f-1ce7-4a88-8a49-39e1369e1060","resource":{"resourceType":"Observation","id":"aadb0e2f-1ce7-4a88-8a49-39e1369e1060","meta":{"profile":["http://hl7.org/fhir/us/qicore/StructureDefinition/qicore-observation-screening-assessment"]},"status":"final","category":[{"coding":[{"system":"http://terminology.hl7.org/CodeSystem/observation-category","code":"survey","display":"Survey"}]}],"code":{"coding":[{"system":"http://loinc.org","code":"98967-3","display":"Nutritional Risk Screening 2002 panel","userSelected":true}]},"subject":{"reference":"Patient/75d19c2d-5ae9-476e-93f5-e84e668512a8"},"effectiveDateTime":"2026-05-05T08:00:00.000+00:00","valueCodeableConcept":{"coding":[{"system":"http://snomed.info/sct","code":"129689002","display":"At risk for nutritional problem","userSelected":true}]}},"request":{"method":"PUT","url":"Observation/aadb0e2f-1ce7-4a88-8a49-39e1369e1060"}},{"fullUrl":"https://madie.cms.gov/MeasureReport/cdf28f6c-69c1-4654-97c7-331dcb1f6c6b","resource":{"resourceType":"MeasureReport","id":"cdf28f6c-69c1-4654-97c7-331dcb1f6c6b","meta":{"profile":["http://hl7.org/fhir/us/cqfmeasures/StructureDefinition/test-case-cqfm"]},"contained":[{"resourceType":"Parameters","id":"cf92d366-9c35-4f41-a11c-516334aa5184-parameters","parameter":[{"name":"subject","valueString":"75d19c2d-5ae9-476e-93f5-e84e668512a8"}]}],"extension":[{"url":"http://hl7.org/fhir/StructureDefinition/cqf-inputParameters","valueReference":{"reference":"#cf92d366-9c35-4f41-a11c-516334aa5184-parameters"}},{"url":"http://hl7.org/fhir/us/cqfmeasures/StructureDefinition/cqfm-testCaseDescription","valueMarkdown":"2 Encounters, 2 Assessments in Each Encounter (Not then Moderate, Mod then Not)\n1111 100% 1100 100%"}],"modifierExtension":[{"url":"http://hl7.org/fhir/us/cqfmeasures/StructureDefinition/cqfm-isTestCase","valueBoolean":true}],"status":"complete","type":"individual","measure":"https://madie.cms.gov/Measure/CMS986FHIRMalnutritionScore","period":{"start":"2026-01-01","end":"2026-12-31"},"group":[{"id":"Group_1","population":[{"id":"InitialPopulation_1","code":{"coding":[{"system":"http://terminology.hl7.org/CodeSystem/measure-population","code":"initial-population","display":"Initial Population"}]},"count":2},{"id":"MeasurePopulation_1","code":{"coding":[{"system":"http://terminology.hl7.org/CodeSystem/measure-population","code":"measure-population","display":"Measure Population"}]},"count":2},{"id":"MeasurePopulationExclusion_1","code":{"coding":[{"system":"http://terminology.hl7.org/CodeSystem/measure-population","code":"measure-population-exclusion","display":"Measure Population Exclusion"}]},"count":0},{"id":"MeasureObservation_1_1","code":{"coding":[{"system":"http://terminology.hl7.org/CodeSystem/measure-population","code":"measure-population-observation","display":"Measure Population Observation"}]},"count":1},{"id":"MeasureObservation_1_2","code":{"coding":[{"system":"http://terminology.hl7.org/CodeSystem/measure-population","code":"measure-population-observation","display":"Measure Population Observation"}]},"count":1}],"measureScore":{"value":0.0}},{"id":"Group_2","population":[{"id":"InitialPopulation_2","code":{"coding":[{"system":"http://terminology.hl7.org/CodeSystem/measure-population","code":"initial-population","display":"Initial Population"}]},"count":2},{"id":"MeasurePopulation_2","code":{"coding":[{"system":"http://terminology.hl7.org/CodeSystem/measure-population","code":"measure-population","display":"Measure Population"}]},"count":2},{"id":"MeasurePopulationExclusion_2","code":{"coding":[{"system":"http://terminology.hl7.org/CodeSystem/measure-population","code":"measure-population-exclusion","display":"Measure Population Exclusion"}]},"count":0},{"id":"MeasureObservation_2_1","code":{"coding":[{"system":"http://terminology.hl7.org/CodeSystem/measure-population","code":"measure-population-observation","display":"Measure Population Observation"}]},"count":1},{"id":"MeasureObservation_2_2","code":{"coding":[{"system":"http://terminology.hl7.org/CodeSystem/measure-population","code":"measure-population-observation","display":"Measure Population Observation"}]},"count":0}],"measureScore":{"value":0.0}},{"id":"Group_3","population":[{"id":"InitialPopulation_3","code":{"coding":[{"system":"http://terminology.hl7.org/CodeSystem/measure-population","code":"initial-population","display":"Initial Population"}]},"count":2},{"id":"MeasurePopulation_3","code":{"coding":[{"system":"http://terminology.hl7.org/CodeSystem/measure-population","code":"measure-population","display":"Measure Population"}]},"count":2},{"id":"MeasurePopulationExclusion_3","code":{"coding":[{"system":"http://terminology.hl7.org/CodeSystem/measure-population","code":"measure-population-exclusion","display":"Measure Population Exclusion"}]},"count":0},{"id":"MeasureObservation_3_1","code":{"coding":[{"system":"http://terminology.hl7.org/CodeSystem/measure-population","code":"measure-population-observation","display":"Measure Population Observation"}]},"count":0},{"id":"MeasureObservation_3_2","code":{"coding":[{"system":"http://terminology.hl7.org/CodeSystem/measure-population","code":"measure-population-observation","display":"Measure Population Observation"}]},"count":0}],"measureScore":{"value":0.0}},{"id":"Group_4","population":[{"id":"InitialPopulation_4","code":{"coding":[{"system":"http://terminology.hl7.org/CodeSystem/measure-population","code":"initial-population","display":"Initial Population"}]},"count":2},{"id":"MeasurePopulation_4","code":{"coding":[{"system":"http://terminology.hl7.org/CodeSystem/measure-population","code":"measure-population","display":"Measure Population"}]},"count":2},{"id":"MeasurePopulationExclusion_4","code":{"coding":[{"system":"http://terminology.hl7.org/CodeSystem/measure-population","code":"measure-population-exclusion","display":"Measure Population Exclusion"}]},"count":0},{"id":"MeasureObservation_4_1","code":{"coding":[{"system":"http://terminology.hl7.org/CodeSystem/measure-population","code":"measure-population-observation","display":"Measure Population Observation"}]},"count":0},{"id":"MeasureObservation_4_2","code":{"coding":[{"system":"http://terminology.hl7.org/CodeSystem/measure-population","code":"measure-population-observation","display":"Measure Population Observation"}]},"count":0}],"measureScore":{"value":0.0}},{"id":"Group_5","population":[{"id":"InitialPopulation_5","code":{"coding":[{"system":"http://terminology.hl7.org/CodeSystem/measure-population","code":"initial-population","display":"Initial Population"}]},"count":2},{"id":"MeasurePopulation_5","code":{"coding":[{"system":"http://terminology.hl7.org/CodeSystem/measure-population","code":"measure-population","display":"Measure Population"}]},"count":2},{"id":"MeasurePopulationExclusion_5","code":{"coding":[{"system":"http://terminology.hl7.org/CodeSystem/measure-population","code":"measure-population-exclusion","display":"Measure Population Exclusion"}]},"count":0},{"id":"MeasureObservation_5_1","code":{"coding":[{"system":"http://terminology.hl7.org/CodeSystem/measure-population","code":"measure-population-observation","display":"Measure Population Observation"}]},"count":2},{"id":"MeasureObservation_5_2","code":{"coding":[{"system":"http://terminology.hl7.org/CodeSystem/measure-population","code":"measure-population-observation","display":"Measure Population Observation"}]},"count":1}],"measureScore":{"value":0.0}},{"id":"Group_6","population":[{"id":"InitialPopulation_6","code":{"coding":[{"system":"http://terminology.hl7.org/CodeSystem/measure-population","code":"initial-population","display":"Initial Population"}]},"count":2},{"id":"MeasurePopulation_6","code":{"coding":[{"system":"http://terminology.hl7.org/CodeSystem/measure-population","code":"measure-population","display":"Measure Population"}]},"count":2},{"id":"MeasurePopulationExclusion_6","code":{"coding":[{"system":"http://terminology.hl7.org/CodeSystem/measure-population","code":"measure-population-exclusion","display":"Measure Population Exclusion"}]},"count":0},{"id":"MeasureObservation_6_1","code":{"coding":[{"system":"http://terminology.hl7.org/CodeSystem/measure-population","code":"measure-population-observation","display":"Measure Population Observation"}]},"count":100},{"id":"MeasureObservation_6_2","code":{"coding":[{"system":"http://terminology.hl7.org/CodeSystem/measure-population","code":"measure-population-observation","display":"Measure Population Observation"}]},"count":50}],"measureScore":{"value":0.0}}],"evaluatedResource":[{"reference":"Patient/75d19c2d-5ae9-476e-93f5-e84e668512a8"},{"reference":"Encounter/85fa7b1e-739b-428e-a0b1-5b224f11d769"},{"reference":"Encounter/22a26177-d0e6-4956-b52c-9cfed5dac1f5"},{"reference":"Condition/037191d5-5a16-45ef-9036-04dc8c9dc7a9"},{"reference":"Procedure/b34e5a0f-e432-4ecf-b966-65b8a65f0131"},{"reference":"Observation/c8bbd234-309c-4014-b8a3-54444fea6d84"},{"reference":"Observation/c821e6c0-8ebd-46b7-bf21-05ee5a8e1e0c"},{"reference":"Procedure/674f1ac4-a8bd-46bb-9786-232370c3271b"},{"reference":"Procedure/696526c3-1fe8-4be4-b7de-bda8780f24d0"},{"reference":"Coverage/d2b86b23-ab4e-458c-811d-6d237232bf0f"},{"reference":"Organization/e846633f-037e-4174-b5b7-2d1bff0af48c"},{"reference":"Observation/aadb0e2f-1ce7-4a88-8a49-39e1369e1060"}]},"request":{"method":"PUT","url":"MeasureReport/cdf28f6c-69c1-4654-97c7-331dcb1f6c6b"}}]},"request":{"method":"PUT","url":"Bundle/MultEncwithMultAsses"}},{"resource":{"resourceType":"Condition","id":"037191d5-5a16-45ef-9036-04dc8c9dc7a9","meta":{"profile":["http://hl7.org/fhir/us/qicore/StructureDefinition/qicore-condition-encounter-diagnosis"]},"clinicalStatus":{"coding":[{"system":"http://terminology.hl7.org/CodeSystem/condition-clinical","code":"active","display":"Active","userSelected":true}]},"verificationStatus":{"coding":[{"system":"http://terminology.hl7.org/CodeSystem/condition-ver-status","code":"confirmed","display":"Confirmed","userSelected":true}]},"category":[{"coding":[{"system":"http://terminology.hl7.org/CodeSystem/condition-category","code":"encounter-diagnosis","display":"Encounter Diagnosis","userSelected":true}]}],"code":{"coding":[{"system":"http://hl7.org/fhir/sid/icd-10-cm","code":"E40","display":"Kwashiorkor","userSelected":true}]},"subject":{"reference":"Patient/75d19c2d-5ae9-476e-93f5-e84e668512a8"},"recordedDate":"2026-05-01T08:00:00.000+00:00"},"request":{"method":"PUT","url":"Condition/037191d5-5a16-45ef-9036-04dc8c9dc7a9"}},{"resource":{"resourceType":"Observation","id":"c821e6c0-8ebd-46b7-bf21-05ee5a8e1e0c","meta":{"profile":["http://hl7.org/fhir/us/qicore/StructureDefinition/qicore-observation-screening-assessment"]},"status":"final","category":[{"coding":[{"system":"http://terminology.hl7.org/CodeSystem/observation-category","code":"survey","display":"Survey"}]}],"code":{"coding":[{"system":"http://loinc.org","code":"75282-4","display":"Nutrition assessment panel","userSelected":true}]},"subject":{"reference":"Patient/75d19c2d-5ae9-476e-93f5-e84e668512a8"},"effectiveDateTime":"2026-08-01T08:00:00.000+00:00","valueCodeableConcept":{"coding":[{"system":"http://snomed.info/sct","code":"102636009","display":"Chronic nutritional deficiency (finding)","userSelected":true}]}},"request":{"method":"PUT","url":"Observation/c821e6c0-8ebd-46b7-bf21-05ee5a8e1e0c"}},{"resource":{"resourceType":"Patient","id":"75d19c2d-5ae9-476e-93f5-e84e668512a8","meta":{"profile":["http://hl7.org/fhir/us/qicore/StructureDefinition/qicore-patient"]},"extension":[{"url":"http://hl7.org/fhir/us/core/StructureDefinition/us-core-race","extension":[{"url":"ombCategory","valueCoding":{"system":"urn:oid:2.16.840.1.113883.6.238","code":"2028-9","display":"Asian","userSelected":true}},{"url":"text","valueString":"White"}]},{"url":"http://hl7.org/fhir/us/core/StructureDefinition/us-core-ethnicity","extension":[{"url":"ombCategory","valueCoding":{"system":"urn:oid:2.16.840.1.113883.6.238","code":"2186-5","display":"Not Hispanic or Latino","userSelected":true}},{"url":"text","valueString":"Not Hispanic or Latino"}]},{"url":"http://hl7.org/fhir/us/core/StructureDefinition/us-core-sex","valueCode":"248152002"}],"identifier":[{"type":{"coding":[{"system":"http://terminology.hl7.org/CodeSystem/v2-0203","code":"MR"}]},"system":"https://madie.cms.gov/","value":"MultEncwithMultAsses"}],"active":true,"name":[{"use":"usual","text":"MultEncwithMultAsses","family":"MSROBSPass4","given":["MultEncwithMultAsses"]}],"gender":"female","birthDate":"1984-04-04","address":[{"text":"MultEncwithMultAsses, Screened Not at risk Assessed Severely Malnourished Diagnosed Care Plan, ID=ScreAtriRefAsseModDxCp2, DOB: 03 Feb 1956"}]},"request":{"method":"PUT","url":"Patient/75d19c2d-5ae9-476e-93f5-e84e668512a8"}},{"resource":{"resourceType":"MeasureReport","id":"cdf28f6c-69c1-4654-97c7-331dcb1f6c6b","meta":{"profile":["http://hl7.org/fhir/us/cqfmeasures/StructureDefinition/test-case-cqfm"]},"contained":[{"resourceType":"Parameters","id":"cf92d366-9c35-4f41-a11c-516334aa5184-parameters","parameter":[{"name":"subject","valueString":"75d19c2d-5ae9-476e-93f5-e84e668512a8"}]}],"extension":[{"url":"http://hl7.org/fhir/StructureDefinition/cqf-inputParameters","valueReference":{"reference":"#cf92d366-9c35-4f41-a11c-516334aa5184-parameters"}},{"url":"http://hl7.org/fhir/us/cqfmeasures/StructureDefinition/cqfm-testCaseDescription","valueMarkdown":"2 Encounters, 2 Assessments in Each Encounter (Not then Moderate, Mod then Not)\n1111 100% 1100 100%"}],"modifierExtension":[{"url":"http://hl7.org/fhir/us/cqfmeasures/StructureDefinition/cqfm-isTestCase","valueBoolean":true}],"status":"complete","type":"individual","measure":"https://madie.cms.gov/Measure/CMS986FHIRMalnutritionScore","period":{"start":"2026-01-01","end":"2026-12-31"},"group":[{"id":"Group_1","population":[{"id":"InitialPopulation_1","code":{"coding":[{"system":"http://terminology.hl7.org/CodeSystem/measure-population","code":"initial-population","display":"Initial Population"}]},"count":2},{"id":"MeasurePopulation_1","code":{"coding":[{"system":"http://terminology.hl7.org/CodeSystem/measure-population","code":"measure-population","display":"Measure Population"}]},"count":2},{"id":"MeasurePopulationExclusion_1","code":{"coding":[{"system":"http://terminology.hl7.org/CodeSystem/measure-population","code":"measure-population-exclusion","display":"Measure Population Exclusion"}]},"count":0},{"id":"MeasureObservation_1_1","code":{"coding":[{"system":"http://terminology.hl7.org/CodeSystem/measure-population","code":"measure-population-observation","display":"Measure Population Observation"}]},"count":1},{"id":"MeasureObservation_1_2","code":{"coding":[{"system":"http://terminology.hl7.org/CodeSystem/measure-population","code":"measure-population-observation","display":"Measure Population Observation"}]},"count":1}],"measureScore":{"value":0.0}},{"id":"Group_2","population":[{"id":"InitialPopulation_2","code":{"coding":[{"system":"http://terminology.hl7.org/CodeSystem/measure-population","code":"initial-population","display":"Initial Population"}]},"count":2},{"id":"MeasurePopulation_2","code":{"coding":[{"system":"http://terminology.hl7.org/CodeSystem/measure-population","code":"measure-population","display":"Measure Population"}]},"count":2},{"id":"MeasurePopulationExclusion_2","code":{"coding":[{"system":"http://terminology.hl7.org/CodeSystem/measure-population","code":"measure-population-exclusion","display":"Measure Population Exclusion"}]},"count":0},{"id":"MeasureObservation_2_1","code":{"coding":[{"system":"http://terminology.hl7.org/CodeSystem/measure-population","code":"measure-population-observation","display":"Measure Population Observation"}]},"count":1},{"id":"MeasureObservation_2_2","code":{"coding":[{"system":"http://terminology.hl7.org/CodeSystem/measure-population","code":"measure-population-observation","display":"Measure Population Observation"}]},"count":0}],"measureScore":{"value":0.0}},{"id":"Group_3","population":[{"id":"InitialPopulation_3","code":{"coding":[{"system":"http://terminology.hl7.org/CodeSystem/measure-population","code":"initial-population","display":"Initial Population"}]},"count":2},{"id":"MeasurePopulation_3","code":{"coding":[{"system":"http://terminology.hl7.org/CodeSystem/measure-population","code":"measure-population","display":"Measure Population"}]},"count":2},{"id":"MeasurePopulationExclusion_3","code":{"coding":[{"system":"http://terminology.hl7.org/CodeSystem/measure-population","code":"measure-population-exclusion","display":"Measure Population Exclusion"}]},"count":0},{"id":"MeasureObservation_3_1","code":{"coding":[{"system":"http://terminology.hl7.org/CodeSystem/measure-population","code":"measure-population-observation","display":"Measure Population Observation"}]},"count":0},{"id":"MeasureObservation_3_2","code":{"coding":[{"system":"http://terminology.hl7.org/CodeSystem/measure-population","code":"measure-population-observation","display":"Measure Population Observation"}]},"count":0}],"measureScore":{"value":0.0}},{"id":"Group_4","population":[{"id":"InitialPopulation_4","code":{"coding":[{"system":"http://terminology.hl7.org/CodeSystem/measure-population","code":"initial-population","display":"Initial Population"}]},"count":2},{"id":"MeasurePopulation_4","code":{"coding":[{"system":"http://terminology.hl7.org/CodeSystem/measure-population","code":"measure-population","display":"Measure Population"}]},"count":2},{"id":"MeasurePopulationExclusion_4","code":{"coding":[{"system":"http://terminology.hl7.org/CodeSystem/measure-population","code":"measure-population-exclusion","display":"Measure Population Exclusion"}]},"count":0},{"id":"MeasureObservation_4_1","code":{"coding":[{"system":"http://terminology.hl7.org/CodeSystem/measure-population","code":"measure-population-observation","display":"Measure Population Observation"}]},"count":0},{"id":"MeasureObservation_4_2","code":{"coding":[{"system":"http://terminology.hl7.org/CodeSystem/measure-population","code":"measure-population-observation","display":"Measure Population Observation"}]},"count":0}],"measureScore":{"value":0.0}},{"id":"Group_5","population":[{"id":"InitialPopulation_5","code":{"coding":[{"system":"http://terminology.hl7.org/CodeSystem/measure-population","code":"initial-population","display":"Initial Population"}]},"count":2},{"id":"MeasurePopulation_5","code":{"coding":[{"system":"http://terminology.hl7.org/CodeSystem/measure-population","code":"measure-population","display":"Measure Population"}]},"count":2},{"id":"MeasurePopulationExclusion_5","code":{"coding":[{"system":"http://terminology.hl7.org/CodeSystem/measure-population","code":"measure-population-exclusion","display":"Measure Population Exclusion"}]},"count":0},{"id":"MeasureObservation_5_1","code":{"coding":[{"system":"http://terminology.hl7.org/CodeSystem/measure-population","code":"measure-population-observation","display":"Measure Population Observation"}]},"count":2},{"id":"MeasureObservation_5_2","code":{"coding":[{"system":"http://terminology.hl7.org/CodeSystem/measure-population","code":"measure-population-observation","display":"Measure Population Observation"}]},"count":1}],"measureScore":{"value":0.0}},{"id":"Group_6","population":[{"id":"InitialPopulation_6","code":{"coding":[{"system":"http://terminology.hl7.org/CodeSystem/measure-population","code":"initial-population","display":"Initial Population"}]},"count":2},{"id":"MeasurePopulation_6","code":{"coding":[{"system":"http://terminology.hl7.org/CodeSystem/measure-population","code":"measure-population","display":"Measure Population"}]},"count":2},{"id":"MeasurePopulationExclusion_6","code":{"coding":[{"system":"http://terminology.hl7.org/CodeSystem/measure-population","code":"measure-population-exclusion","display":"Measure Population Exclusion"}]},"count":0},{"id":"MeasureObservation_6_1","code":{"coding":[{"system":"http://terminology.hl7.org/CodeSystem/measure-population","code":"measure-population-observation","display":"Measure Population Observation"}]},"count":100},{"id":"MeasureObservation_6_2","code":{"coding":[{"system":"http://terminology.hl7.org/CodeSystem/measure-population","code":"measure-population-observation","display":"Measure Population Observation"}]},"count":50}],"measureScore":{"value":0.0}}],"evaluatedResource":[{"reference":"Patient/75d19c2d-5ae9-476e-93f5-e84e668512a8"},{"reference":"Encounter/85fa7b1e-739b-428e-a0b1-5b224f11d769"},{"reference":"Encounter/22a26177-d0e6-4956-b52c-9cfed5dac1f5"},{"reference":"Condition/037191d5-5a16-45ef-9036-04dc8c9dc7a9"},{"reference":"Procedure/b34e5a0f-e432-4ecf-b966-65b8a65f0131"},{"reference":"Observation/c8bbd234-309c-4014-b8a3-54444fea6d84"},{"reference":"Observation/c821e6c0-8ebd-46b7-bf21-05ee5a8e1e0c"},{"reference":"Procedure/674f1ac4-a8bd-46bb-9786-232370c3271b"},{"reference":"Procedure/696526c3-1fe8-4be4-b7de-bda8780f24d0"},{"reference":"Coverage/d2b86b23-ab4e-458c-811d-6d237232bf0f"},{"reference":"Organization/e846633f-037e-4174-b5b7-2d1bff0af48c"},{"reference":"Observation/aadb0e2f-1ce7-4a88-8a49-39e1369e1060"}]},"request":{"method":"PUT","url":"MeasureReport/cdf28f6c-69c1-4654-97c7-331dcb1f6c6b"}},{"resource":{"resourceType":"Procedure","id":"696526c3-1fe8-4be4-b7de-bda8780f24d0","meta":{"profile":["http://hl7.org/fhir/us/qicore/StructureDefinition/qicore-procedure"]},"extension":[{"url":"http://hl7.org/fhir/us/qicore/StructureDefinition/qicore-recorded","valueDateTime":"2026-02-02T11:30:00.000+00:00"}],"status":"completed","code":{"coding":[{"system":"http://snomed.info/sct","code":"445101000124100","display":"Collaborating in nutrition therapy (procedure)"}],"text":"Collaborating in nutrition therapy (procedure)"},"subject":{"reference":"Patient/75d19c2d-5ae9-476e-93f5-e84e668512a8"},"encounter":{"reference":"Encounter/MultEncwithMultAssesMSROBSPass4"},"performedPeriod":{"start":"2026-08-08T08:00:00.000+00:00","end":"2026-08-08T08:00:00.000+00:00"}},"request":{"method":"PUT","url":"Procedure/696526c3-1fe8-4be4-b7de-bda8780f24d0"}},{"resource":{"resourceType":"Observation","id":"aadb0e2f-1ce7-4a88-8a49-39e1369e1060","meta":{"profile":["http://hl7.org/fhir/us/qicore/StructureDefinition/qicore-observation-screening-assessment"]},"status":"final","category":[{"coding":[{"system":"http://terminology.hl7.org/CodeSystem/observation-category","code":"survey","display":"Survey"}]}],"code":{"coding":[{"system":"http://loinc.org","code":"98967-3","display":"Nutritional Risk Screening 2002 panel","userSelected":true}]},"subject":{"reference":"Patient/75d19c2d-5ae9-476e-93f5-e84e668512a8"},"effectiveDateTime":"2026-05-05T08:00:00.000+00:00","valueCodeableConcept":{"coding":[{"system":"http://snomed.info/sct","code":"129689002","display":"At risk for nutritional problem","userSelected":true}]}},"request":{"method":"PUT","url":"Observation/aadb0e2f-1ce7-4a88-8a49-39e1369e1060"}},{"resource":{"resourceType":"Encounter","id":"85fa7b1e-739b-428e-a0b1-5b224f11d769","meta":{"profile":["http://hl7.org/fhir/us/qicore/StructureDefinition/qicore-encounter"]},"status":"finished","class":{"system":"http://terminology.hl7.org/CodeSystem/v3-ActCode","code":"IMP","display":"inpatient encounter"},"type":[{"coding":[{"system":"http://snomed.info/sct","code":"32485007"}]}],"subject":{"reference":"Patient/75d19c2d-5ae9-476e-93f5-e84e668512a8"},"period":{"start":"2026-08-01T08:00:00.000+00:00","end":"2026-08-10T08:00:00.000+00:00"}},"request":{"method":"PUT","url":"Encounter/85fa7b1e-739b-428e-a0b1-5b224f11d769"}},{"resource":{"resourceType":"Observation","id":"c8bbd234-309c-4014-b8a3-54444fea6d84","meta":{"profile":["http://hl7.org/fhir/us/qicore/StructureDefinition/qicore-observation-screening-assessment"]},"status":"final","category":[{"coding":[{"system":"http://terminology.hl7.org/CodeSystem/observation-category","code":"survey","display":"Survey"}]}],"code":{"coding":[{"system":"http://loinc.org","code":"75282-4","display":"Nutrition assessment panel","userSelected":true}]},"subject":{"reference":"Patient/75d19c2d-5ae9-476e-93f5-e84e668512a8"},"effectiveDateTime":"2026-08-08T08:00:00.000+00:00","valueCodeableConcept":{"coding":[{"system":"http://loinc.org","code":"LA33701-6","display":"Well nourished","userSelected":true}]}},"request":{"method":"PUT","url":"Observation/c8bbd234-309c-4014-b8a3-54444fea6d84"}},{"resource":{"resourceType":"Procedure","id":"b34e5a0f-e432-4ecf-b966-65b8a65f0131","meta":{"profile":["http://hl7.org/fhir/us/qicore/StructureDefinition/qicore-procedure"]},"extension":[{"url":"http://hl7.org/fhir/us/qicore/StructureDefinition/qicore-recorded","valueDateTime":"2026-03-05T08:00:00.000+00:00"}],"status":"completed","code":{"coding":[{"system":"http://snomed.info/sct","code":"306165000","display":"Referral to hospital-based dietetics service (procedure)"}],"text":"Referral to hospital-based dietetics service (procedure)"},"subject":{"reference":"Patient/75d19c2d-5ae9-476e-93f5-e84e668512a8"},"encounter":{"reference":"Encounter/MultEncwithMultAssesMSROBSPass4"},"performedPeriod":{"start":"2026-08-05T08:00:00.000+00:00","end":"2026-08-05T08:00:00.000+00:00"}},"request":{"method":"PUT","url":"Procedure/b34e5a0f-e432-4ecf-b966-65b8a65f0131"}},{"resource":{"resourceType":"Organization","id":"e846633f-037e-4174-b5b7-2d1bff0af48c","meta":{"profile":["http://hl7.org/fhir/us/qicore/StructureDefinition/qicore-organization"]},"identifier":[{"use":"temp","system":"urn:oid:2.16.840.1.113883.4.4","value":"21-3259825"}],"active":true,"type":[{"coding":[{"system":"http://terminology.hl7.org/CodeSystem/organization-type","code":"pay","display":"Payer"}]}],"name":"Blue Cross Blue Shield of Texas","telecom":[{"system":"phone","value":"(+1) 972-766-6900"}],"address":[{"use":"billing","type":"postal","line":["P.O. Box 660044"],"city":"Dallas","state":"TX","postalCode":"75266-0044","country":"USA"}]},"request":{"method":"PUT","url":"Organization/e846633f-037e-4174-b5b7-2d1bff0af48c"}},{"resource":{"resourceType":"Coverage","id":"d2b86b23-ab4e-458c-811d-6d237232bf0f","meta":{"profile":["http://hl7.org/fhir/us/qicore/StructureDefinition/qicore-coverage"]},"status":"active","type":{"coding":[{"system":"https://nahdo.org/sopt","version":"9.2","code":"11","display":"Medicare Managed Care (Includes Medicare Advantage Plans)"}]},"subscriberId":"97531","beneficiary":{"reference":"Patient/75d19c2d-5ae9-476e-93f5-e84e668512a8"},"dependent":"0","relationship":{"coding":[{"system":"http://terminology.hl7.org/CodeSystem/subscriber-relationship","code":"self"}]},"period":{"start":"2025-10-01T00:00:00.000+00:00"},"payor":[{"reference":"Organization/e846633f-037e-4174-b5b7-2d1bff0af48c"}]},"request":{"method":"PUT","url":"Coverage/d2b86b23-ab4e-458c-811d-6d237232bf0f"}},{"resource":{"resourceType":"Procedure","id":"674f1ac4-a8bd-46bb-9786-232370c3271b","meta":{"profile":["http://hl7.org/fhir/us/qicore/StructureDefinition/qicore-procedure"]},"extension":[{"url":"http://hl7.org/fhir/us/qicore/StructureDefinition/qicore-recorded","valueDateTime":"2026-02-02T11:30:00.000+00:00"}],"status":"completed","code":{"coding":[{"system":"http://snomed.info/sct","code":"445101000124100","display":"Collaborating in nutrition therapy (procedure)"}],"text":"Collaborating in nutrition therapy (procedure)"},"subject":{"reference":"Patient/75d19c2d-5ae9-476e-93f5-e84e668512a8"},"encounter":{"reference":"Encounter/MultEncwithMultAssesMSROBSPass4"},"performedPeriod":{"start":"2026-05-05T08:00:00.000+00:00","end":"2026-05-05T08:00:00.000+00:00"}},"request":{"method":"PUT","url":"Procedure/674f1ac4-a8bd-46bb-9786-232370c3271b"}},{"resource":{"resourceType":"Encounter","id":"22a26177-d0e6-4956-b52c-9cfed5dac1f5","meta":{"profile":["http://hl7.org/fhir/us/qicore/StructureDefinition/qicore-encounter"]},"status":"finished","class":{"system":"http://terminology.hl7.org/CodeSystem/v3-ActCode","code":"IMP","display":"inpatient encounter"},"type":[{"coding":[{"system":"http://snomed.info/sct","code":"8715000"}]}],"subject":{"reference":"Patient/75d19c2d-5ae9-476e-93f5-e84e668512a8"},"period":{"start":"2026-05-01T08:00:00.000+00:00","end":"2026-05-10T08:00:00.000+00:00"}},"request":{"method":"PUT","url":"Encounter/22a26177-d0e6-4956-b52c-9cfed5dac1f5"}}]}