{"resourceType":"Bundle","id":"tests-64a7c79b-1858-4cc5-a662-b6773e796a29-bundle","type":"transaction","entry":[{"resource":{"resourceType":"Observation","id":"eb81944a-8cec-4c38-be0a-60b48182d261","meta":{"profile":["http://hl7.org/fhir/us/qicore/StructureDefinition/qicore-observation-screening-assessment"]},"status":"final","category":[{"coding":[{"system":"http://terminology.hl7.org/CodeSystem/observation-category","code":"survey","display":"Survey"}]}],"code":{"coding":[{"system":"http://loinc.org","code":"75303-8","display":"Nutrition assessment Narrative","userSelected":true}]},"subject":{"reference":"Patient/64a7c79b-1858-4cc5-a662-b6773e796a29"},"effectiveDateTime":"2026-03-05T08:00:00Z","valueCodeableConcept":{"coding":[{"system":"http://snomed.info/sct","code":"2492009","display":"Nutritional disorder (disorder)","userSelected":true}]}},"request":{"method":"PUT","url":"Observation/eb81944a-8cec-4c38-be0a-60b48182d261"}},{"resource":{"resourceType":"Encounter","id":"1eba3466-9d32-456c-847d-9897fafaa98a","meta":{"profile":["http://hl7.org/fhir/us/qicore/StructureDefinition/qicore-encounter"]},"status":"finished","class":{"system":"http://terminology.hl7.org/CodeSystem/v3-ActCode","code":"IMP","display":"inpatient encounter"},"type":[{"coding":[{"system":"http://snomed.info/sct","code":"8715000"}]}],"subject":{"reference":"Patient/64a7c79b-1858-4cc5-a662-b6773e796a29"},"period":{"start":"2026-02-01T08:00:00Z","end":"2026-02-10T08:00:00Z"}},"request":{"method":"PUT","url":"Encounter/1eba3466-9d32-456c-847d-9897fafaa98a"}},{"resource":{"resourceType":"Bundle","id":"2Encounters100504","type":"transaction","entry":[{"fullUrl":"https://madie.cms.gov/Patient/64a7c79b-1858-4cc5-a662-b6773e796a29","resource":{"resourceType":"Patient","id":"64a7c79b-1858-4cc5-a662-b6773e796a29","meta":{"profile":["http://hl7.org/fhir/us/qicore/StructureDefinition/qicore-patient"]},"extension":[{"url":"http://hl7.org/fhir/us/core/StructureDefinition/us-core-race","extension":[{"url":"ombCategory","valueCoding":{"system":"urn:oid:2.16.840.1.113883.6.238","code":"2054-5","display":"Black or African American","userSelected":true}},{"url":"text","valueString":"Black or African American"}]},{"url":"http://hl7.org/fhir/us/core/StructureDefinition/us-core-ethnicity","extension":[{"url":"ombCategory","valueCoding":{"system":"urn:oid:2.16.840.1.113883.6.238","code":"2135-2","display":"Hispanic or Latino","userSelected":true}},{"url":"text","valueString":"Hispanic or Latino"}]},{"url":"http://hl7.org/fhir/us/core/StructureDefinition/us-core-sex","valueCode":"248152002"}],"identifier":[{"type":{"coding":[{"system":"http://terminology.hl7.org/CodeSystem/v2-0203","code":"MR"}]},"system":"https://madie.cms.gov/","value":"2Encounters100504"}],"active":true,"name":[{"use":"usual","text":"2Encounters100504","family":"MSROBSPass4","given":["2Encounters100504"]}],"gender":"female","birthDate":"1947-01-01","address":[{"text":"2Encounters100504 4, Screened Not at risk Assessed Severely Malnourished Diagnosed Care Plan, ID=2Encounters100504, DOB: 03 Feb 1956"}]},"request":{"method":"PUT","url":"Patient/64a7c79b-1858-4cc5-a662-b6773e796a29"}},{"fullUrl":"https://madie.cms.gov/Encounter/a7306a2b-ff47-4a37-8156-8934aafb5306","resource":{"resourceType":"Encounter","id":"a7306a2b-ff47-4a37-8156-8934aafb5306","meta":{"profile":["http://hl7.org/fhir/us/qicore/StructureDefinition/qicore-encounter"]},"status":"finished","class":{"system":"http://terminology.hl7.org/CodeSystem/v3-ActCode","code":"IMP","display":"inpatient encounter"},"type":[{"coding":[{"system":"http://snomed.info/sct","code":"32485007"}]}],"subject":{"reference":"Patient/64a7c79b-1858-4cc5-a662-b6773e796a29"},"period":{"start":"2026-03-01T08:00:00Z","end":"2026-03-10T08:00:00Z"}},"request":{"method":"PUT","url":"Encounter/a7306a2b-ff47-4a37-8156-8934aafb5306"}},{"fullUrl":"https://madie.cms.gov/Encounter/1eba3466-9d32-456c-847d-9897fafaa98a","resource":{"resourceType":"Encounter","id":"1eba3466-9d32-456c-847d-9897fafaa98a","meta":{"profile":["http://hl7.org/fhir/us/qicore/StructureDefinition/qicore-encounter"]},"status":"finished","class":{"system":"http://terminology.hl7.org/CodeSystem/v3-ActCode","code":"IMP","display":"inpatient encounter"},"type":[{"coding":[{"system":"http://snomed.info/sct","code":"8715000"}]}],"subject":{"reference":"Patient/64a7c79b-1858-4cc5-a662-b6773e796a29"},"period":{"start":"2026-02-01T08:00:00Z","end":"2026-02-10T08:00:00Z"}},"request":{"method":"PUT","url":"Encounter/1eba3466-9d32-456c-847d-9897fafaa98a"}},{"fullUrl":"https://madie.cms.gov/Condition/87dedfa3-f6d6-463c-8cc7-068624ddc355","resource":{"resourceType":"Condition","id":"87dedfa3-f6d6-463c-8cc7-068624ddc355","meta":{"profile":["http://hl7.org/fhir/us/qicore/StructureDefinition/qicore-condition-problems-health-concerns"]},"clinicalStatus":{"coding":[{"system":"http://terminology.hl7.org/CodeSystem/condition-clinical","code":"active","display":"Active","userSelected":true}]},"verificationStatus":{"coding":[{"system":"http://terminology.hl7.org/CodeSystem/condition-ver-status","code":"confirmed","display":"Confirmed","userSelected":true}]},"category":[{"coding":[{"system":"http://terminology.hl7.org/CodeSystem/condition-category","code":"health-concern","display":"Health Concern","userSelected":true}]}],"code":{"coding":[{"system":"http://hl7.org/fhir/sid/icd-10-cm","code":"E64.0","display":"Sequelae of protein-calorie malnutrition","userSelected":true}]},"subject":{"reference":"Patient/64a7c79b-1858-4cc5-a662-b6773e796a29"},"onsetDateTime":"2026-02-08T07:01:00Z","abatementDateTime":"2026-02-10T08:00:00"},"request":{"method":"PUT","url":"Condition/87dedfa3-f6d6-463c-8cc7-068624ddc355"}},{"fullUrl":"https://madie.cms.gov/Procedure/65d77ba0-bae9-4e7d-9786-da44a825ab3a","resource":{"resourceType":"Procedure","id":"65d77ba0-bae9-4e7d-9786-da44a825ab3a","meta":{"profile":["http://hl7.org/fhir/us/qicore/StructureDefinition/qicore-procedure"]},"extension":[{"url":"http://hl7.org/fhir/us/qicore/StructureDefinition/qicore-recorded","valueDateTime":"2026-03-05T08:00:00Z"}],"status":"completed","code":{"coding":[{"system":"http://snomed.info/sct","code":"306165000","display":"Referral to hospital-based dietetics service (procedure)"}],"text":"Referral to hospital-based dietetics service (procedure)"},"subject":{"reference":"Patient/64a7c79b-1858-4cc5-a662-b6773e796a29"},"encounter":{"reference":"Encounter/2Encounters100504MSROBSPass4"},"performedPeriod":{"start":"2026-03-05T08:00:00Z","end":"2026-03-05T08:00:00Z"}},"request":{"method":"PUT","url":"Procedure/65d77ba0-bae9-4e7d-9786-da44a825ab3a"}},{"fullUrl":"https://madie.cms.gov/Observation/eb81944a-8cec-4c38-be0a-60b48182d261","resource":{"resourceType":"Observation","id":"eb81944a-8cec-4c38-be0a-60b48182d261","meta":{"profile":["http://hl7.org/fhir/us/qicore/StructureDefinition/qicore-observation-screening-assessment"]},"status":"final","category":[{"coding":[{"system":"http://terminology.hl7.org/CodeSystem/observation-category","code":"survey","display":"Survey"}]}],"code":{"coding":[{"system":"http://loinc.org","code":"75303-8","display":"Nutrition assessment Narrative","userSelected":true}]},"subject":{"reference":"Patient/64a7c79b-1858-4cc5-a662-b6773e796a29"},"effectiveDateTime":"2026-03-05T08:00:00Z","valueCodeableConcept":{"coding":[{"system":"http://snomed.info/sct","code":"2492009","display":"Nutritional disorder (disorder)","userSelected":true}]}},"request":{"method":"PUT","url":"Observation/eb81944a-8cec-4c38-be0a-60b48182d261"}},{"fullUrl":"https://madie.cms.gov/Observation/43285d45-4dd0-4270-9d8b-0aa1d5aa867e","resource":{"resourceType":"Observation","id":"43285d45-4dd0-4270-9d8b-0aa1d5aa867e","meta":{"profile":["http://hl7.org/fhir/us/qicore/StructureDefinition/qicore-observation-screening-assessment"]},"status":"final","category":[{"coding":[{"system":"http://terminology.hl7.org/CodeSystem/observation-category","code":"survey","display":"Survey"}]}],"code":{"coding":[{"system":"http://loinc.org","code":"101819-1","display":"Nutritional assessment for malnutrition status","userSelected":true}]},"subject":{"reference":"Patient/64a7c79b-1858-4cc5-a662-b6773e796a29"},"effectiveDateTime":"2026-02-05T08:00:00Z","valueCodeableConcept":{"coding":[{"system":"http://snomed.info/sct","code":"102636009","display":"Chronic nutritional deficiency (finding)","userSelected":true}]}},"request":{"method":"PUT","url":"Observation/43285d45-4dd0-4270-9d8b-0aa1d5aa867e"}},{"fullUrl":"https://madie.cms.gov/Procedure/9564f5be-d5bc-4864-b5a9-e366d15d0e7d","resource":{"resourceType":"Procedure","id":"9564f5be-d5bc-4864-b5a9-e366d15d0e7d","meta":{"profile":["http://hl7.org/fhir/us/qicore/StructureDefinition/qicore-procedure"]},"extension":[{"url":"http://hl7.org/fhir/us/qicore/StructureDefinition/qicore-recorded","valueDateTime":"2026-07-02T08:00:00Z"}],"status":"completed","code":{"coding":[{"system":"http://snomed.info/sct","code":"306165000","display":"Referral to hospital-based dietetics service (procedure)"}],"text":"Referral to hospital-based dietetics service (procedure)"},"subject":{"reference":"Patient/64a7c79b-1858-4cc5-a662-b6773e796a29"},"encounter":{"reference":"Encounter/2Encounters100504MSROBSPass4"},"performedPeriod":{"start":"2026-02-05T08:00:00Z","end":"2026-02-05T08:01:00Z"}},"request":{"method":"PUT","url":"Procedure/9564f5be-d5bc-4864-b5a9-e366d15d0e7d"}},{"fullUrl":"https://madie.cms.gov/Procedure/5c65bf29-9753-4549-8791-69ecc515f73c","resource":{"resourceType":"Procedure","id":"5c65bf29-9753-4549-8791-69ecc515f73c","meta":{"profile":["http://hl7.org/fhir/us/qicore/StructureDefinition/qicore-procedure"]},"extension":[{"url":"http://hl7.org/fhir/us/qicore/StructureDefinition/qicore-recorded","valueDateTime":"2026-02-02T11:30:00Z"}],"status":"completed","code":{"coding":[{"system":"http://snomed.info/sct","code":"1279742004","display":"Development of nutrition care plan (procedure)"}],"text":"Development of nutrition care plan (procedure)"},"subject":{"reference":"Patient/64a7c79b-1858-4cc5-a662-b6773e796a29"},"encounter":{"reference":"Encounter/2Encounters100504MSROBSPass4"},"performedPeriod":{"start":"2026-02-05T08:00:00Z","end":"2026-02-05T08:00:00Z"}},"request":{"method":"PUT","url":"Procedure/5c65bf29-9753-4549-8791-69ecc515f73c"}},{"fullUrl":"https://madie.cms.gov/Coverage/a5480c4c-cd9d-4c72-a327-6831c08cf3ca","resource":{"resourceType":"Coverage","id":"a5480c4c-cd9d-4c72-a327-6831c08cf3ca","meta":{"profile":["http://hl7.org/fhir/us/qicore/StructureDefinition/qicore-coverage"]},"status":"active","type":{"coding":[{"system":"https://nahdo.org/sopt","version":"9.2","code":"11","display":"Medicare Managed Care (Includes Medicare Advantage Plans)"}]},"subscriberId":"97531","beneficiary":{"reference":"Patient/64a7c79b-1858-4cc5-a662-b6773e796a29"},"dependent":"0","relationship":{"coding":[{"system":"http://terminology.hl7.org/CodeSystem/subscriber-relationship","code":"self"}]},"period":{"start":"2025-10-01T00:00:00Z"},"payor":[{"reference":"Organization/a8f45a3d-a26f-4ec9-8f83-6209c031a471"}]},"request":{"method":"PUT","url":"Coverage/a5480c4c-cd9d-4c72-a327-6831c08cf3ca"}},{"fullUrl":"https://madie.cms.gov/Organization/a8f45a3d-a26f-4ec9-8f83-6209c031a471","resource":{"resourceType":"Organization","id":"a8f45a3d-a26f-4ec9-8f83-6209c031a471","meta":{"profile":["http://hl7.org/fhir/us/qicore/StructureDefinition/qicore-organization"]},"identifier":[{"use":"temp","system":"urn:oid:2.16.840.1.113883.4.4","value":"21-3259825"}],"active":true,"type":[{"coding":[{"system":"http://terminology.hl7.org/CodeSystem/organization-type","code":"pay","display":"Payer"}]}],"name":"Blue Cross Blue Shield of Texas","telecom":[{"system":"phone","value":"(+1) 972-766-6900"}],"address":[{"use":"billing","type":"postal","line":["P.O. Box 660044"],"city":"Dallas","state":"TX","postalCode":"75266-0044","country":"USA"}]},"request":{"method":"PUT","url":"Organization/a8f45a3d-a26f-4ec9-8f83-6209c031a471"}},{"fullUrl":"https://madie.cms.gov/MeasureReport/13b8bfd0-be17-4042-9cc3-1560a1306f68","resource":{"resourceType":"MeasureReport","id":"13b8bfd0-be17-4042-9cc3-1560a1306f68","meta":{"profile":["http://hl7.org/fhir/us/cqfmeasures/StructureDefinition/test-case-cqfm"]},"contained":[{"resourceType":"Parameters","id":"3e678ba3-dd1c-456e-8cb1-92329f9d64b1-parameters","parameter":[{"name":"subject","valueString":"64a7c79b-1858-4cc5-a662-b6773e796a29"}]}],"extension":[{"url":"http://hl7.org/fhir/StructureDefinition/cqf-inputParameters","valueReference":{"reference":"#3e678ba3-dd1c-456e-8cb1-92329f9d64b1-parameters"}},{"url":"http://hl7.org/fhir/us/cqfmeasures/StructureDefinition/cqfm-testCaseDescription","valueMarkdown":"2 encounters: 1-Referral, Assessment with mod, dx, care plan (4/4, 100%)\n2-Referral, assessment with mod, no dx or care plan (2/4, 50%)"}],"modifierExtension":[{"url":"http://hl7.org/fhir/us/cqfmeasures/StructureDefinition/cqfm-isTestCase","valueBoolean":true}],"status":"complete","type":"individual","measure":"https://madie.cms.gov/Measure/CMS986FHIRMalnutritionScore","period":{"start":"2026-01-01","end":"2026-12-31"},"group":[{"id":"Group_1","population":[{"id":"InitialPopulation_1","code":{"coding":[{"system":"http://terminology.hl7.org/CodeSystem/measure-population","code":"initial-population","display":"Initial Population"}]},"count":2},{"id":"MeasurePopulation_1","code":{"coding":[{"system":"http://terminology.hl7.org/CodeSystem/measure-population","code":"measure-population","display":"Measure Population"}]},"count":2},{"id":"MeasurePopulationExclusion_1","code":{"coding":[{"system":"http://terminology.hl7.org/CodeSystem/measure-population","code":"measure-population-exclusion","display":"Measure Population Exclusion"}]},"count":0},{"id":"MeasureObservation_1_1","code":{"coding":[{"system":"http://terminology.hl7.org/CodeSystem/measure-population","code":"measure-population-observation","display":"Measure Population Observation"}]},"count":1},{"id":"MeasureObservation_1_2","code":{"coding":[{"system":"http://terminology.hl7.org/CodeSystem/measure-population","code":"measure-population-observation","display":"Measure Population Observation"}]},"count":1}],"measureScore":{"value":0.0}},{"id":"Group_2","population":[{"id":"InitialPopulation_2","code":{"coding":[{"system":"http://terminology.hl7.org/CodeSystem/measure-population","code":"initial-population","display":"Initial Population"}]},"count":2},{"id":"MeasurePopulation_2","code":{"coding":[{"system":"http://terminology.hl7.org/CodeSystem/measure-population","code":"measure-population","display":"Measure Population"}]},"count":2},{"id":"MeasurePopulationExclusion_2","code":{"coding":[{"system":"http://terminology.hl7.org/CodeSystem/measure-population","code":"measure-population-exclusion","display":"Measure Population Exclusion"}]},"count":0},{"id":"MeasureObservation_2_1","code":{"coding":[{"system":"http://terminology.hl7.org/CodeSystem/measure-population","code":"measure-population-observation","display":"Measure Population Observation"}]},"count":1},{"id":"MeasureObservation_2_2","code":{"coding":[{"system":"http://terminology.hl7.org/CodeSystem/measure-population","code":"measure-population-observation","display":"Measure Population Observation"}]},"count":1}],"measureScore":{"value":0.0}},{"id":"Group_3","population":[{"id":"InitialPopulation_3","code":{"coding":[{"system":"http://terminology.hl7.org/CodeSystem/measure-population","code":"initial-population","display":"Initial Population"}]},"count":2},{"id":"MeasurePopulation_3","code":{"coding":[{"system":"http://terminology.hl7.org/CodeSystem/measure-population","code":"measure-population","display":"Measure Population"}]},"count":2},{"id":"MeasurePopulationExclusion_3","code":{"coding":[{"system":"http://terminology.hl7.org/CodeSystem/measure-population","code":"measure-population-exclusion","display":"Measure Population Exclusion"}]},"count":0},{"id":"MeasureObservation_3_1","code":{"coding":[{"system":"http://terminology.hl7.org/CodeSystem/measure-population","code":"measure-population-observation","display":"Measure Population Observation"}]},"count":1},{"id":"MeasureObservation_3_2","code":{"coding":[{"system":"http://terminology.hl7.org/CodeSystem/measure-population","code":"measure-population-observation","display":"Measure Population Observation"}]},"count":0}],"measureScore":{"value":0.0}},{"id":"Group_4","population":[{"id":"InitialPopulation_4","code":{"coding":[{"system":"http://terminology.hl7.org/CodeSystem/measure-population","code":"initial-population","display":"Initial Population"}]},"count":2},{"id":"MeasurePopulation_4","code":{"coding":[{"system":"http://terminology.hl7.org/CodeSystem/measure-population","code":"measure-population","display":"Measure Population"}]},"count":2},{"id":"MeasurePopulationExclusion_4","code":{"coding":[{"system":"http://terminology.hl7.org/CodeSystem/measure-population","code":"measure-population-exclusion","display":"Measure Population Exclusion"}]},"count":0},{"id":"MeasureObservation_4_1","code":{"coding":[{"system":"http://terminology.hl7.org/CodeSystem/measure-population","code":"measure-population-observation","display":"Measure Population Observation"}]},"count":1},{"id":"MeasureObservation_4_2","code":{"coding":[{"system":"http://terminology.hl7.org/CodeSystem/measure-population","code":"measure-population-observation","display":"Measure Population Observation"}]},"count":0}],"measureScore":{"value":0.0}},{"id":"Group_5","population":[{"id":"InitialPopulation_5","code":{"coding":[{"system":"http://terminology.hl7.org/CodeSystem/measure-population","code":"initial-population","display":"Initial Population"}]},"count":2},{"id":"MeasurePopulation_5","code":{"coding":[{"system":"http://terminology.hl7.org/CodeSystem/measure-population","code":"measure-population","display":"Measure Population"}]},"count":2},{"id":"MeasurePopulationExclusion_5","code":{"coding":[{"system":"http://terminology.hl7.org/CodeSystem/measure-population","code":"measure-population-exclusion","display":"Measure Population Exclusion"}]},"count":0},{"id":"MeasureObservation_5_1","code":{"coding":[{"system":"http://terminology.hl7.org/CodeSystem/measure-population","code":"measure-population-observation","display":"Measure Population Observation"}]},"count":2},{"id":"MeasureObservation_5_2","code":{"coding":[{"system":"http://terminology.hl7.org/CodeSystem/measure-population","code":"measure-population-observation","display":"Measure Population Observation"}]},"count":4}],"measureScore":{"value":0.0}},{"id":"Group_6","population":[{"id":"InitialPopulation_6","code":{"coding":[{"system":"http://terminology.hl7.org/CodeSystem/measure-population","code":"initial-population","display":"Initial Population"}]},"count":2},{"id":"MeasurePopulation_6","code":{"coding":[{"system":"http://terminology.hl7.org/CodeSystem/measure-population","code":"measure-population","display":"Measure Population"}]},"count":2},{"id":"MeasurePopulationExclusion_6","code":{"coding":[{"system":"http://terminology.hl7.org/CodeSystem/measure-population","code":"measure-population-exclusion","display":"Measure Population Exclusion"}]},"count":0},{"id":"MeasureObservation_6_1","code":{"coding":[{"system":"http://terminology.hl7.org/CodeSystem/measure-population","code":"measure-population-observation","display":"Measure Population Observation"}]},"count":50},{"id":"MeasureObservation_6_2","code":{"coding":[{"system":"http://terminology.hl7.org/CodeSystem/measure-population","code":"measure-population-observation","display":"Measure Population Observation"}]},"count":100}],"measureScore":{"value":0.0}}],"evaluatedResource":[{"reference":"Patient/64a7c79b-1858-4cc5-a662-b6773e796a29"},{"reference":"Encounter/a7306a2b-ff47-4a37-8156-8934aafb5306"},{"reference":"Encounter/1eba3466-9d32-456c-847d-9897fafaa98a"},{"reference":"Condition/87dedfa3-f6d6-463c-8cc7-068624ddc355"},{"reference":"Procedure/65d77ba0-bae9-4e7d-9786-da44a825ab3a"},{"reference":"Observation/eb81944a-8cec-4c38-be0a-60b48182d261"},{"reference":"Observation/43285d45-4dd0-4270-9d8b-0aa1d5aa867e"},{"reference":"Procedure/9564f5be-d5bc-4864-b5a9-e366d15d0e7d"},{"reference":"Procedure/5c65bf29-9753-4549-8791-69ecc515f73c"},{"reference":"Coverage/a5480c4c-cd9d-4c72-a327-6831c08cf3ca"},{"reference":"Organization/a8f45a3d-a26f-4ec9-8f83-6209c031a471"}]},"request":{"method":"PUT","url":"MeasureReport/13b8bfd0-be17-4042-9cc3-1560a1306f68"}}]},"request":{"method":"PUT","url":"Bundle/2Encounters100504"}},{"resource":{"resourceType":"Procedure","id":"9564f5be-d5bc-4864-b5a9-e366d15d0e7d","meta":{"profile":["http://hl7.org/fhir/us/qicore/StructureDefinition/qicore-procedure"]},"extension":[{"url":"http://hl7.org/fhir/us/qicore/StructureDefinition/qicore-recorded","valueDateTime":"2026-07-02T08:00:00Z"}],"status":"completed","code":{"coding":[{"system":"http://snomed.info/sct","code":"306165000","display":"Referral to hospital-based dietetics service (procedure)"}],"text":"Referral to hospital-based dietetics service (procedure)"},"subject":{"reference":"Patient/64a7c79b-1858-4cc5-a662-b6773e796a29"},"encounter":{"reference":"Encounter/2Encounters100504MSROBSPass4"},"performedPeriod":{"start":"2026-02-05T08:00:00Z","end":"2026-02-05T08:01:00Z"}},"request":{"method":"PUT","url":"Procedure/9564f5be-d5bc-4864-b5a9-e366d15d0e7d"}},{"resource":{"resourceType":"Patient","id":"64a7c79b-1858-4cc5-a662-b6773e796a29","meta":{"profile":["http://hl7.org/fhir/us/qicore/StructureDefinition/qicore-patient"]},"extension":[{"url":"http://hl7.org/fhir/us/core/StructureDefinition/us-core-race","extension":[{"url":"ombCategory","valueCoding":{"system":"urn:oid:2.16.840.1.113883.6.238","code":"2054-5","display":"Black or African American","userSelected":true}},{"url":"text","valueString":"Black or African American"}]},{"url":"http://hl7.org/fhir/us/core/StructureDefinition/us-core-ethnicity","extension":[{"url":"ombCategory","valueCoding":{"system":"urn:oid:2.16.840.1.113883.6.238","code":"2135-2","display":"Hispanic or Latino","userSelected":true}},{"url":"text","valueString":"Hispanic or Latino"}]},{"url":"http://hl7.org/fhir/us/core/StructureDefinition/us-core-sex","valueCode":"248152002"}],"identifier":[{"type":{"coding":[{"system":"http://terminology.hl7.org/CodeSystem/v2-0203","code":"MR"}]},"system":"https://madie.cms.gov/","value":"2Encounters100504"}],"active":true,"name":[{"use":"usual","text":"2Encounters100504","family":"MSROBSPass4","given":["2Encounters100504"]}],"gender":"female","birthDate":"1947-01-01","address":[{"text":"2Encounters100504 4, Screened Not at risk Assessed Severely Malnourished Diagnosed Care Plan, ID=2Encounters100504, DOB: 03 Feb 1956"}]},"request":{"method":"PUT","url":"Patient/64a7c79b-1858-4cc5-a662-b6773e796a29"}},{"resource":{"resourceType":"Condition","id":"87dedfa3-f6d6-463c-8cc7-068624ddc355","meta":{"profile":["http://hl7.org/fhir/us/qicore/StructureDefinition/qicore-condition-problems-health-concerns"]},"clinicalStatus":{"coding":[{"system":"http://terminology.hl7.org/CodeSystem/condition-clinical","code":"active","display":"Active","userSelected":true}]},"verificationStatus":{"coding":[{"system":"http://terminology.hl7.org/CodeSystem/condition-ver-status","code":"confirmed","display":"Confirmed","userSelected":true}]},"category":[{"coding":[{"system":"http://terminology.hl7.org/CodeSystem/condition-category","code":"health-concern","display":"Health Concern","userSelected":true}]}],"code":{"coding":[{"system":"http://hl7.org/fhir/sid/icd-10-cm","code":"E64.0","display":"Sequelae of protein-calorie malnutrition","userSelected":true}]},"subject":{"reference":"Patient/64a7c79b-1858-4cc5-a662-b6773e796a29"},"onsetDateTime":"2026-02-08T07:01:00Z","abatementDateTime":"2026-02-10T08:00:00"},"request":{"method":"PUT","url":"Condition/87dedfa3-f6d6-463c-8cc7-068624ddc355"}},{"resource":{"resourceType":"Observation","id":"43285d45-4dd0-4270-9d8b-0aa1d5aa867e","meta":{"profile":["http://hl7.org/fhir/us/qicore/StructureDefinition/qicore-observation-screening-assessment"]},"status":"final","category":[{"coding":[{"system":"http://terminology.hl7.org/CodeSystem/observation-category","code":"survey","display":"Survey"}]}],"code":{"coding":[{"system":"http://loinc.org","code":"101819-1","display":"Nutritional assessment for malnutrition status","userSelected":true}]},"subject":{"reference":"Patient/64a7c79b-1858-4cc5-a662-b6773e796a29"},"effectiveDateTime":"2026-02-05T08:00:00Z","valueCodeableConcept":{"coding":[{"system":"http://snomed.info/sct","code":"102636009","display":"Chronic nutritional deficiency (finding)","userSelected":true}]}},"request":{"method":"PUT","url":"Observation/43285d45-4dd0-4270-9d8b-0aa1d5aa867e"}},{"resource":{"resourceType":"MeasureReport","id":"13b8bfd0-be17-4042-9cc3-1560a1306f68","meta":{"profile":["http://hl7.org/fhir/us/cqfmeasures/StructureDefinition/test-case-cqfm"]},"contained":[{"resourceType":"Parameters","id":"3e678ba3-dd1c-456e-8cb1-92329f9d64b1-parameters","parameter":[{"name":"subject","valueString":"64a7c79b-1858-4cc5-a662-b6773e796a29"}]}],"extension":[{"url":"http://hl7.org/fhir/StructureDefinition/cqf-inputParameters","valueReference":{"reference":"#3e678ba3-dd1c-456e-8cb1-92329f9d64b1-parameters"}},{"url":"http://hl7.org/fhir/us/cqfmeasures/StructureDefinition/cqfm-testCaseDescription","valueMarkdown":"2 encounters: 1-Referral, Assessment with mod, dx, care plan (4/4, 100%)\n2-Referral, assessment with mod, no dx or care plan (2/4, 50%)"}],"modifierExtension":[{"url":"http://hl7.org/fhir/us/cqfmeasures/StructureDefinition/cqfm-isTestCase","valueBoolean":true}],"status":"complete","type":"individual","measure":"https://madie.cms.gov/Measure/CMS986FHIRMalnutritionScore","period":{"start":"2026-01-01","end":"2026-12-31"},"group":[{"id":"Group_1","population":[{"id":"InitialPopulation_1","code":{"coding":[{"system":"http://terminology.hl7.org/CodeSystem/measure-population","code":"initial-population","display":"Initial Population"}]},"count":2},{"id":"MeasurePopulation_1","code":{"coding":[{"system":"http://terminology.hl7.org/CodeSystem/measure-population","code":"measure-population","display":"Measure Population"}]},"count":2},{"id":"MeasurePopulationExclusion_1","code":{"coding":[{"system":"http://terminology.hl7.org/CodeSystem/measure-population","code":"measure-population-exclusion","display":"Measure Population Exclusion"}]},"count":0},{"id":"MeasureObservation_1_1","code":{"coding":[{"system":"http://terminology.hl7.org/CodeSystem/measure-population","code":"measure-population-observation","display":"Measure Population Observation"}]},"count":1},{"id":"MeasureObservation_1_2","code":{"coding":[{"system":"http://terminology.hl7.org/CodeSystem/measure-population","code":"measure-population-observation","display":"Measure Population Observation"}]},"count":1}],"measureScore":{"value":0.0}},{"id":"Group_2","population":[{"id":"InitialPopulation_2","code":{"coding":[{"system":"http://terminology.hl7.org/CodeSystem/measure-population","code":"initial-population","display":"Initial Population"}]},"count":2},{"id":"MeasurePopulation_2","code":{"coding":[{"system":"http://terminology.hl7.org/CodeSystem/measure-population","code":"measure-population","display":"Measure Population"}]},"count":2},{"id":"MeasurePopulationExclusion_2","code":{"coding":[{"system":"http://terminology.hl7.org/CodeSystem/measure-population","code":"measure-population-exclusion","display":"Measure Population Exclusion"}]},"count":0},{"id":"MeasureObservation_2_1","code":{"coding":[{"system":"http://terminology.hl7.org/CodeSystem/measure-population","code":"measure-population-observation","display":"Measure Population Observation"}]},"count":1},{"id":"MeasureObservation_2_2","code":{"coding":[{"system":"http://terminology.hl7.org/CodeSystem/measure-population","code":"measure-population-observation","display":"Measure Population Observation"}]},"count":1}],"measureScore":{"value":0.0}},{"id":"Group_3","population":[{"id":"InitialPopulation_3","code":{"coding":[{"system":"http://terminology.hl7.org/CodeSystem/measure-population","code":"initial-population","display":"Initial Population"}]},"count":2},{"id":"MeasurePopulation_3","code":{"coding":[{"system":"http://terminology.hl7.org/CodeSystem/measure-population","code":"measure-population","display":"Measure Population"}]},"count":2},{"id":"MeasurePopulationExclusion_3","code":{"coding":[{"system":"http://terminology.hl7.org/CodeSystem/measure-population","code":"measure-population-exclusion","display":"Measure Population Exclusion"}]},"count":0},{"id":"MeasureObservation_3_1","code":{"coding":[{"system":"http://terminology.hl7.org/CodeSystem/measure-population","code":"measure-population-observation","display":"Measure Population Observation"}]},"count":1},{"id":"MeasureObservation_3_2","code":{"coding":[{"system":"http://terminology.hl7.org/CodeSystem/measure-population","code":"measure-population-observation","display":"Measure Population Observation"}]},"count":0}],"measureScore":{"value":0.0}},{"id":"Group_4","population":[{"id":"InitialPopulation_4","code":{"coding":[{"system":"http://terminology.hl7.org/CodeSystem/measure-population","code":"initial-population","display":"Initial Population"}]},"count":2},{"id":"MeasurePopulation_4","code":{"coding":[{"system":"http://terminology.hl7.org/CodeSystem/measure-population","code":"measure-population","display":"Measure Population"}]},"count":2},{"id":"MeasurePopulationExclusion_4","code":{"coding":[{"system":"http://terminology.hl7.org/CodeSystem/measure-population","code":"measure-population-exclusion","display":"Measure Population Exclusion"}]},"count":0},{"id":"MeasureObservation_4_1","code":{"coding":[{"system":"http://terminology.hl7.org/CodeSystem/measure-population","code":"measure-population-observation","display":"Measure Population Observation"}]},"count":1},{"id":"MeasureObservation_4_2","code":{"coding":[{"system":"http://terminology.hl7.org/CodeSystem/measure-population","code":"measure-population-observation","display":"Measure Population Observation"}]},"count":0}],"measureScore":{"value":0.0}},{"id":"Group_5","population":[{"id":"InitialPopulation_5","code":{"coding":[{"system":"http://terminology.hl7.org/CodeSystem/measure-population","code":"initial-population","display":"Initial Population"}]},"count":2},{"id":"MeasurePopulation_5","code":{"coding":[{"system":"http://terminology.hl7.org/CodeSystem/measure-population","code":"measure-population","display":"Measure Population"}]},"count":2},{"id":"MeasurePopulationExclusion_5","code":{"coding":[{"system":"http://terminology.hl7.org/CodeSystem/measure-population","code":"measure-population-exclusion","display":"Measure Population Exclusion"}]},"count":0},{"id":"MeasureObservation_5_1","code":{"coding":[{"system":"http://terminology.hl7.org/CodeSystem/measure-population","code":"measure-population-observation","display":"Measure Population Observation"}]},"count":2},{"id":"MeasureObservation_5_2","code":{"coding":[{"system":"http://terminology.hl7.org/CodeSystem/measure-population","code":"measure-population-observation","display":"Measure Population Observation"}]},"count":4}],"measureScore":{"value":0.0}},{"id":"Group_6","population":[{"id":"InitialPopulation_6","code":{"coding":[{"system":"http://terminology.hl7.org/CodeSystem/measure-population","code":"initial-population","display":"Initial Population"}]},"count":2},{"id":"MeasurePopulation_6","code":{"coding":[{"system":"http://terminology.hl7.org/CodeSystem/measure-population","code":"measure-population","display":"Measure Population"}]},"count":2},{"id":"MeasurePopulationExclusion_6","code":{"coding":[{"system":"http://terminology.hl7.org/CodeSystem/measure-population","code":"measure-population-exclusion","display":"Measure Population Exclusion"}]},"count":0},{"id":"MeasureObservation_6_1","code":{"coding":[{"system":"http://terminology.hl7.org/CodeSystem/measure-population","code":"measure-population-observation","display":"Measure Population Observation"}]},"count":50},{"id":"MeasureObservation_6_2","code":{"coding":[{"system":"http://terminology.hl7.org/CodeSystem/measure-population","code":"measure-population-observation","display":"Measure Population Observation"}]},"count":100}],"measureScore":{"value":0.0}}],"evaluatedResource":[{"reference":"Patient/64a7c79b-1858-4cc5-a662-b6773e796a29"},{"reference":"Encounter/a7306a2b-ff47-4a37-8156-8934aafb5306"},{"reference":"Encounter/1eba3466-9d32-456c-847d-9897fafaa98a"},{"reference":"Condition/87dedfa3-f6d6-463c-8cc7-068624ddc355"},{"reference":"Procedure/65d77ba0-bae9-4e7d-9786-da44a825ab3a"},{"reference":"Observation/eb81944a-8cec-4c38-be0a-60b48182d261"},{"reference":"Observation/43285d45-4dd0-4270-9d8b-0aa1d5aa867e"},{"reference":"Procedure/9564f5be-d5bc-4864-b5a9-e366d15d0e7d"},{"reference":"Procedure/5c65bf29-9753-4549-8791-69ecc515f73c"},{"reference":"Coverage/a5480c4c-cd9d-4c72-a327-6831c08cf3ca"},{"reference":"Organization/a8f45a3d-a26f-4ec9-8f83-6209c031a471"}]},"request":{"method":"PUT","url":"MeasureReport/13b8bfd0-be17-4042-9cc3-1560a1306f68"}},{"resource":{"resourceType":"Coverage","id":"a5480c4c-cd9d-4c72-a327-6831c08cf3ca","meta":{"profile":["http://hl7.org/fhir/us/qicore/StructureDefinition/qicore-coverage"]},"status":"active","type":{"coding":[{"system":"https://nahdo.org/sopt","version":"9.2","code":"11","display":"Medicare Managed Care (Includes Medicare Advantage Plans)"}]},"subscriberId":"97531","beneficiary":{"reference":"Patient/64a7c79b-1858-4cc5-a662-b6773e796a29"},"dependent":"0","relationship":{"coding":[{"system":"http://terminology.hl7.org/CodeSystem/subscriber-relationship","code":"self"}]},"period":{"start":"2025-10-01T00:00:00Z"},"payor":[{"reference":"Organization/a8f45a3d-a26f-4ec9-8f83-6209c031a471"}]},"request":{"method":"PUT","url":"Coverage/a5480c4c-cd9d-4c72-a327-6831c08cf3ca"}},{"resource":{"resourceType":"Procedure","id":"65d77ba0-bae9-4e7d-9786-da44a825ab3a","meta":{"profile":["http://hl7.org/fhir/us/qicore/StructureDefinition/qicore-procedure"]},"extension":[{"url":"http://hl7.org/fhir/us/qicore/StructureDefinition/qicore-recorded","valueDateTime":"2026-03-05T08:00:00Z"}],"status":"completed","code":{"coding":[{"system":"http://snomed.info/sct","code":"306165000","display":"Referral to hospital-based dietetics service (procedure)"}],"text":"Referral to hospital-based dietetics service (procedure)"},"subject":{"reference":"Patient/64a7c79b-1858-4cc5-a662-b6773e796a29"},"encounter":{"reference":"Encounter/2Encounters100504MSROBSPass4"},"performedPeriod":{"start":"2026-03-05T08:00:00Z","end":"2026-03-05T08:00:00Z"}},"request":{"method":"PUT","url":"Procedure/65d77ba0-bae9-4e7d-9786-da44a825ab3a"}},{"resource":{"resourceType":"Encounter","id":"a7306a2b-ff47-4a37-8156-8934aafb5306","meta":{"profile":["http://hl7.org/fhir/us/qicore/StructureDefinition/qicore-encounter"]},"status":"finished","class":{"system":"http://terminology.hl7.org/CodeSystem/v3-ActCode","code":"IMP","display":"inpatient encounter"},"type":[{"coding":[{"system":"http://snomed.info/sct","code":"32485007"}]}],"subject":{"reference":"Patient/64a7c79b-1858-4cc5-a662-b6773e796a29"},"period":{"start":"2026-03-01T08:00:00Z","end":"2026-03-10T08:00:00Z"}},"request":{"method":"PUT","url":"Encounter/a7306a2b-ff47-4a37-8156-8934aafb5306"}},{"resource":{"resourceType":"Organization","id":"a8f45a3d-a26f-4ec9-8f83-6209c031a471","meta":{"profile":["http://hl7.org/fhir/us/qicore/StructureDefinition/qicore-organization"]},"identifier":[{"use":"temp","system":"urn:oid:2.16.840.1.113883.4.4","value":"21-3259825"}],"active":true,"type":[{"coding":[{"system":"http://terminology.hl7.org/CodeSystem/organization-type","code":"pay","display":"Payer"}]}],"name":"Blue Cross Blue Shield of Texas","telecom":[{"system":"phone","value":"(+1) 972-766-6900"}],"address":[{"use":"billing","type":"postal","line":["P.O. Box 660044"],"city":"Dallas","state":"TX","postalCode":"75266-0044","country":"USA"}]},"request":{"method":"PUT","url":"Organization/a8f45a3d-a26f-4ec9-8f83-6209c031a471"}},{"resource":{"resourceType":"Procedure","id":"5c65bf29-9753-4549-8791-69ecc515f73c","meta":{"profile":["http://hl7.org/fhir/us/qicore/StructureDefinition/qicore-procedure"]},"extension":[{"url":"http://hl7.org/fhir/us/qicore/StructureDefinition/qicore-recorded","valueDateTime":"2026-02-02T11:30:00Z"}],"status":"completed","code":{"coding":[{"system":"http://snomed.info/sct","code":"1279742004","display":"Development of nutrition care plan (procedure)"}],"text":"Development of nutrition care plan (procedure)"},"subject":{"reference":"Patient/64a7c79b-1858-4cc5-a662-b6773e796a29"},"encounter":{"reference":"Encounter/2Encounters100504MSROBSPass4"},"performedPeriod":{"start":"2026-02-05T08:00:00Z","end":"2026-02-05T08:00:00Z"}},"request":{"method":"PUT","url":"Procedure/5c65bf29-9753-4549-8791-69ecc515f73c"}}]}