{
  "resourceType": "Bundle",
  "id": "63487c2e0968f80122540178",
  "type": "transaction",
  "entry": [ {
    "fullUrl": "https://madie.cms.gov/Patient/663f65ef-8b51-4a5c-a18f-570677441fd1",
    "resource": {
      "resourceType": "Patient",
      "id": "663f65ef-8b51-4a5c-a18f-570677441fd1",
      "meta": {
        "profile": [ "http://hl7.org/fhir/us/qicore/StructureDefinition/qicore-patient" ]
      },
      "text": {
        "status": "generated",
        "div": "<div xmlns=\"http://www.w3.org/1999/xhtml\"><div class=\"hapiHeaderText\">EncDxAbnPres<b>DENEXPASS</b></div><table class=\"hapiPropertyTable\"><tbody><tr><td>Identifier</td><td>e60ac0c86374d56542751bc908b8f4587a0e4d04c5ad61e351ba0274daf18ca0</td></tr><tr><td>Date of birth</td><td><span>14 February 1985</span></td></tr></tbody></table></div>"
      },
      "extension": [ {
        "url": "http://hl7.org/fhir/us/core/StructureDefinition/us-core-race",
        "extension": [ {
          "url": "ombCategory",
          "valueCoding": {
            "system": "urn:oid:2.16.840.1.113883.6.238",
            "code": "1002-5",
            "display": "American Indian or Alaska Native",
            "userSelected": true
          }
        }, {
          "url": "text",
          "valueString": "American Indian or Alaska Native"
        } ]
      }, {
        "url": "http://hl7.org/fhir/us/core/StructureDefinition/us-core-ethnicity",
        "extension": [ {
          "url": "ombCategory",
          "valueCoding": {
            "system": "urn:oid:2.16.840.1.113883.6.238",
            "code": "2135-2",
            "display": "Hispanic or Latino",
            "userSelected": true
          }
        }, {
          "url": "text",
          "valueString": "Hispanic or Latino"
        } ]
      } ],
      "identifier": [ {
        "type": {
          "coding": [ {
            "system": "http://terminology.hl7.org/CodeSystem/v2-0203",
            "code": "MR"
          } ]
        },
        "system": "https://bonnie-fhir.healthit.gov/",
        "value": "63487c2e0968f80122540178"
      } ],
      "active": true,
      "name": [ {
        "use": "usual",
        "family": "DENEXPass",
        "given": [ "EncDxAbnPres" ]
      } ],
      "gender": "female",
      "birthDate": "1998-02-14"
    },
    "request": {
      "method": "PUT",
      "url": "Patient/663f65ef-8b51-4a5c-a18f-570677441fd1"
    }
  }, {
    "fullUrl": "https://madie.cms.gov/Observation/11160f34-fe3b-44ca-bbc7-1c2c5f825556",
    "resource": {
      "resourceType": "Observation",
      "id": "11160f34-fe3b-44ca-bbc7-1c2c5f825556",
      "meta": {
        "profile": [ "http://hl7.org/fhir/us/qicore/StructureDefinition/qicore-simple-observation" ]
      },
      "status": "final",
      "category": [ {
        "coding": [ {
          "system": "http://terminology.hl7.org/CodeSystem/observation-category",
          "code": "exam",
          "display": "exam",
          "userSelected": true
        } ]
      } ],
      "code": {
        "coding": [ {
          "system": "http://loinc.org",
          "code": "11996-6"
        } ]
      },
      "subject": {
        "reference": "Patient/663f65ef-8b51-4a5c-a18f-570677441fd1"
      },
      "effectiveDateTime": "2026-06-08T08:00:00.000+00:00",
      "performer": [ {
        "reference": "Organization/example1",
        "display": "Hendricks Country Hospital"
      } ],
      "valueInteger": 1
    },
    "request": {
      "method": "PUT",
      "url": "Observation/11160f34-fe3b-44ca-bbc7-1c2c5f825556"
    }
  }, {
    "fullUrl": "https://madie.cms.gov/Observation/4720bff0-b21b-49eb-a8d4-89150564b60b",
    "resource": {
      "resourceType": "Observation",
      "id": "4720bff0-b21b-49eb-a8d4-89150564b60b",
      "meta": {
        "profile": [ "http://hl7.org/fhir/us/qicore/StructureDefinition/qicore-simple-observation" ]
      },
      "status": "final",
      "category": [ {
        "coding": [ {
          "system": "http://terminology.hl7.org/CodeSystem/observation-category",
          "code": "exam",
          "display": "exam",
          "userSelected": true
        } ]
      } ],
      "code": {
        "coding": [ {
          "system": "http://loinc.org",
          "code": "11884-4"
        } ]
      },
      "subject": {
        "reference": "Patient/663f65ef-8b51-4a5c-a18f-570677441fd1"
      },
      "effectiveDateTime": "2026-06-08T08:00:00.000+00:00",
      "performer": [ {
        "reference": "Organization/example1",
        "display": "Hendricks Country Hospital"
      } ],
      "valueQuantity": {
        "value": 43,
        "system": "http://unitsofmeasure.org",
        "code": "wk"
      }
    },
    "request": {
      "method": "PUT",
      "url": "Observation/4720bff0-b21b-49eb-a8d4-89150564b60b"
    }
  }, {
    "fullUrl": "https://madie.cms.gov/Observation/0538099e-758d-426c-b370-6ccc040e5dfb",
    "resource": {
      "resourceType": "Observation",
      "id": "0538099e-758d-426c-b370-6ccc040e5dfb",
      "meta": {
        "profile": [ "http://hl7.org/fhir/us/qicore/StructureDefinition/qicore-simple-observation" ]
      },
      "status": "final",
      "category": [ {
        "coding": [ {
          "system": "http://terminology.hl7.org/CodeSystem/observation-category",
          "code": "exam",
          "display": "exam",
          "userSelected": true
        } ]
      } ],
      "code": {
        "coding": [ {
          "system": "http://loinc.org",
          "code": "93857-1"
        } ]
      },
      "subject": {
        "reference": "Patient/663f65ef-8b51-4a5c-a18f-570677441fd1"
      },
      "effectiveDateTime": "2026-06-08T20:00:00.000+00:00",
      "performer": [ {
        "reference": "Organization/example1",
        "display": "Hendricks Country Hospital"
      } ],
      "valueDateTime": "2026-06-08T20:00:00.000+00:00"
    },
    "request": {
      "method": "PUT",
      "url": "Observation/0538099e-758d-426c-b370-6ccc040e5dfb"
    }
  }, {
    "fullUrl": "https://madie.cms.gov/Encounter/bb5b30f5-4012-40e8-a1b3-7fc6ce857394",
    "resource": {
      "resourceType": "Encounter",
      "id": "bb5b30f5-4012-40e8-a1b3-7fc6ce857394",
      "meta": {
        "profile": [ "http://hl7.org/fhir/us/qicore/StructureDefinition/qicore-encounter" ]
      },
      "status": "finished",
      "class": {
        "system": "http://terminology.hl7.org/CodeSystem/v3-ActCode",
        "code": "IMP",
        "display": "inpatient encounter"
      },
      "type": [ {
        "coding": [ {
          "system": "http://snomed.info/sct",
          "code": "8715000"
        } ]
      } ],
      "subject": {
        "reference": "Patient/663f65ef-8b51-4a5c-a18f-570677441fd1"
      },
      "period": {
        "start": "2026-06-08T08:00:00.000+00:00",
        "end": "2026-06-10T08:15:00.000+00:00"
      },
      "reasonCode": [ {
        "coding": [ {
          "system": "http://snomed.info/sct",
          "code": "169826009",
          "display": "Single live birth from singleton pregnancy (finding)"
        } ]
      } ],
      "reasonReference": [ {
        "reference": "Condition/072fb6e8-6543-4e5c-9fb5-f38d5d65eae4"
      } ]
    },
    "request": {
      "method": "PUT",
      "url": "Encounter/bb5b30f5-4012-40e8-a1b3-7fc6ce857394"
    }
  }, {
    "fullUrl": "https://madie.cms.gov/Procedure/f80a02a9-5796-430f-8f3b-518ac2361f68",
    "resource": {
      "resourceType": "Procedure",
      "id": "f80a02a9-5796-430f-8f3b-518ac2361f68",
      "meta": {
        "profile": [ "http://hl7.org/fhir/us/qicore/StructureDefinition/qicore-procedure" ]
      },
      "extension": [ {
        "url": "http://hl7.org/fhir/us/qicore/StructureDefinition/qicore-recorded",
        "valueDateTime": "2014-04-05T13:35:00.000+00:00"
      } ],
      "status": "completed",
      "code": {
        "coding": [ {
          "system": "http://snomed.info/sct",
          "code": "4504004"
        } ]
      },
      "subject": {
        "reference": "Patient/663f65ef-8b51-4a5c-a18f-570677441fd1"
      },
      "performedPeriod": {
        "start": "2026-06-08T20:00:00.000+00:00",
        "end": "2026-06-09T20:00:00.000+00:00"
      }
    },
    "request": {
      "method": "PUT",
      "url": "Procedure/f80a02a9-5796-430f-8f3b-518ac2361f68"
    }
  }, {
    "fullUrl": "https://madie.cms.gov/Condition/7ab7ba8c-3fdd-4378-9a86-70584736a47a",
    "resource": {
      "resourceType": "Condition",
      "id": "7ab7ba8c-3fdd-4378-9a86-70584736a47a",
      "meta": {
        "profile": [ "http://hl7.org/fhir/us/qicore/StructureDefinition/qicore-condition-encounter-diagnosis" ]
      },
      "category": [ {
        "coding": [ {
          "system": "http://terminology.hl7.org/CodeSystem/condition-category",
          "code": "encounter-diagnosis",
          "display": "Encounter Diagnosis"
        } ]
      } ],
      "code": {
        "coding": [ {
          "system": "http://snomed.info/sct",
          "version": "2022-09",
          "code": "169826009",
          "display": "Single live birth (finding)",
          "userSelected": true
        } ]
      },
      "subject": {
        "reference": "Patient/663f65ef-8b51-4a5c-a18f-570677441fd1"
      },
      "encounter": {
        "reference": "Encounter/bb5b30f5-4012-40e8-a1b3-7fc6ce857394"
      },
      "recordedDate": "2026-10-17T08:00:00.000+00:00"
    },
    "request": {
      "method": "PUT",
      "url": "Condition/7ab7ba8c-3fdd-4378-9a86-70584736a47a"
    }
  }, {
    "fullUrl": "https://madie.cms.gov/Condition/072fb6e8-6543-4e5c-9fb5-f38d5d65eae4",
    "resource": {
      "resourceType": "Condition",
      "id": "072fb6e8-6543-4e5c-9fb5-f38d5d65eae4",
      "meta": {
        "profile": [ "http://hl7.org/fhir/us/qicore/StructureDefinition/qicore-condition-encounter-diagnosis" ]
      },
      "category": [ {
        "coding": [ {
          "system": "http://terminology.hl7.org/CodeSystem/condition-category",
          "code": "encounter-diagnosis",
          "display": "Encounter Diagnosis"
        } ]
      } ],
      "code": {
        "coding": [ {
          "system": "http://snomed.info/sct",
          "version": "2022-09",
          "code": "18559007",
          "display": "Frank breech presentation (finding)",
          "userSelected": true
        } ]
      },
      "subject": {
        "reference": "Patient/663f65ef-8b51-4a5c-a18f-570677441fd1"
      },
      "encounter": {
        "reference": "Encounter/bb5b30f5-4012-40e8-a1b3-7fc6ce857394"
      },
      "recordedDate": "2026-10-17T08:00:00.000+00:00"
    },
    "request": {
      "method": "PUT",
      "url": "Condition/072fb6e8-6543-4e5c-9fb5-f38d5d65eae4"
    }
  }, {
    "fullUrl": "https://madie.cms.gov/Coverage/703002f7-b4a4-4960-9a9a-dd7a1d7ae3f4",
    "resource": {
      "resourceType": "Coverage",
      "id": "703002f7-b4a4-4960-9a9a-dd7a1d7ae3f4",
      "meta": {
        "profile": [ "http://hl7.org/fhir/us/qicore/StructureDefinition/qicore-coverage" ]
      },
      "status": "active",
      "subscriberId": "523435",
      "beneficiary": {
        "reference": "Patient/663f65ef-8b51-4a5c-a18f-570677441fd1"
      },
      "relationship": {
        "coding": [ {
          "system": "http://terminology.hl7.org/CodeSystem/subscriber-relationship",
          "code": "self"
        } ]
      },
      "payor": [ {
        "reference": "Organization/5b6d4862-1738-4046-ade8-0eec7f403e36"
      } ]
    },
    "request": {
      "method": "PUT",
      "url": "Coverage/703002f7-b4a4-4960-9a9a-dd7a1d7ae3f4"
    }
  }, {
    "fullUrl": "https://madie.cms.gov/Organization/5b6d4862-1738-4046-ade8-0eec7f403e36",
    "resource": {
      "resourceType": "Organization",
      "id": "5b6d4862-1738-4046-ade8-0eec7f403e36",
      "meta": {
        "profile": [ "http://hl7.org/fhir/us/qicore/StructureDefinition/qicore-organization" ]
      },
      "identifier": [ {
        "use": "temp",
        "system": "urn:oid:2.16.840.1.113883.4.4",
        "value": "21-3259825"
      } ],
      "active": true,
      "type": [ {
        "coding": [ {
          "system": "http://terminology.hl7.org/CodeSystem/organization-type",
          "code": "pay",
          "display": "Payer"
        } ]
      } ],
      "name": "Blue Cross Blue Shield of Texas",
      "telecom": [ {
        "system": "phone",
        "value": "(+1) 972-766-6900"
      } ],
      "address": [ {
        "use": "billing",
        "type": "postal",
        "line": [ "P.O. Box 660044" ],
        "city": "Dallas",
        "state": "TX",
        "postalCode": "75266-0044",
        "country": "USA"
      } ]
    },
    "request": {
      "method": "PUT",
      "url": "Organization/5b6d4862-1738-4046-ade8-0eec7f403e36"
    }
  }, {
    "fullUrl": "https://madie.cms.gov/Practitioner/7992a4c7-5980-43bb-b600-ac22b2fb2556",
    "resource": {
      "resourceType": "Practitioner",
      "id": "7992a4c7-5980-43bb-b600-ac22b2fb2556",
      "meta": {
        "profile": [ "http://hl7.org/fhir/us/qicore/StructureDefinition/qicore-practitioner" ]
      },
      "identifier": [ {
        "system": "http://hl7.org/fhir/sid/us-npi",
        "value": "1234567890"
      } ],
      "name": [ {
        "family": "Evil",
        "prefix": [ "Dr" ]
      } ]
    },
    "request": {
      "method": "PUT",
      "url": "Practitioner/7992a4c7-5980-43bb-b600-ac22b2fb2556"
    }
  }, {
    "fullUrl": "https://madie.cms.gov/MeasureReport/5f7f1c7e-daf3-4d8c-b768-31c05a8f129a",
    "resource": {
      "resourceType": "MeasureReport",
      "id": "5f7f1c7e-daf3-4d8c-b768-31c05a8f129a",
      "meta": {
        "profile": [ "http://hl7.org/fhir/us/cqfmeasures/StructureDefinition/test-case-cqfm" ]
      },
      "contained": [ {
        "resourceType": "Parameters",
        "id": "780838d6-a550-42d1-b4d8-f912b8670aa0-parameters",
        "parameter": [ {
          "name": "subject",
          "valueString": "663f65ef-8b51-4a5c-a18f-570677441fd1"
        } ]
      } ],
      "extension": [ {
        "url": "http://hl7.org/fhir/StructureDefinition/cqf-inputParameters",
        "valueReference": {
          "reference": "#780838d6-a550-42d1-b4d8-f912b8670aa0-parameters"
        }
      }, {
        "url": "http://hl7.org/fhir/us/cqfmeasures/StructureDefinition/cqfm-testCaseDescription",
        "valueMarkdown": "EGA 43 weeks; Enc Dx Abnormal presentation, gravida 1\n"
      } ],
      "modifierExtension": [ {
        "url": "http://hl7.org/fhir/us/cqfmeasures/StructureDefinition/cqfm-isTestCase",
        "valueBoolean": true
      } ],
      "status": "complete",
      "type": "individual",
      "measure": "https://madie.cms.gov/Measure/CMS0334FHIRPCCesareanBirth",
      "period": {
        "start": "2026-01-01",
        "end": "2026-12-31"
      },
      "group": [ {
        "id": "Group_1",
        "population": [ {
          "id": "InitialPopulation_1",
          "code": {
            "coding": [ {
              "system": "http://terminology.hl7.org/CodeSystem/measure-population",
              "code": "initial-population",
              "display": "Initial Population"
            } ]
          },
          "count": 1
        }, {
          "id": "Denominator_1",
          "code": {
            "coding": [ {
              "system": "http://terminology.hl7.org/CodeSystem/measure-population",
              "code": "denominator",
              "display": "Denominator"
            } ]
          },
          "count": 1
        }, {
          "id": "DenominatorExclusion_1",
          "code": {
            "coding": [ {
              "system": "http://terminology.hl7.org/CodeSystem/measure-population",
              "code": "denominator-exclusion",
              "display": "Denominator Exclusion"
            } ]
          },
          "count": 1
        }, {
          "id": "Numerator_1",
          "code": {
            "coding": [ {
              "system": "http://terminology.hl7.org/CodeSystem/measure-population",
              "code": "numerator",
              "display": "Numerator"
            } ]
          },
          "count": 0
        } ],
        "measureScore": {
          "value": 0.0
        }
      } ],
      "evaluatedResource": [ {
        "reference": "Patient/663f65ef-8b51-4a5c-a18f-570677441fd1"
      }, {
        "reference": "Observation/11160f34-fe3b-44ca-bbc7-1c2c5f825556"
      }, {
        "reference": "Observation/4720bff0-b21b-49eb-a8d4-89150564b60b"
      }, {
        "reference": "Observation/0538099e-758d-426c-b370-6ccc040e5dfb"
      }, {
        "reference": "Encounter/bb5b30f5-4012-40e8-a1b3-7fc6ce857394"
      }, {
        "reference": "Procedure/f80a02a9-5796-430f-8f3b-518ac2361f68"
      }, {
        "reference": "Condition/7ab7ba8c-3fdd-4378-9a86-70584736a47a"
      }, {
        "reference": "Condition/072fb6e8-6543-4e5c-9fb5-f38d5d65eae4"
      }, {
        "reference": "Coverage/703002f7-b4a4-4960-9a9a-dd7a1d7ae3f4"
      }, {
        "reference": "Organization/5b6d4862-1738-4046-ade8-0eec7f403e36"
      }, {
        "reference": "Practitioner/7992a4c7-5980-43bb-b600-ac22b2fb2556"
      } ]
    },
    "request": {
      "method": "PUT",
      "url": "MeasureReport/5f7f1c7e-daf3-4d8c-b768-31c05a8f129a"
    }
  } ]
}