{
  "resourceType": "Bundle",
  "id": "tests-RVwithRespRate",
  "type": "transaction",
  "entry": [ {
    "fullUrl": "https://madie.cms.gov/Patient/9e0ef8df-189b-40f1-9eac-724254bd86e2",
    "resource": {
      "resourceType": "Patient",
      "id": "9e0ef8df-189b-40f1-9eac-724254bd86e2",
      "meta": {
        "profile": [ "http://hl7.org/fhir/us/qicore/StructureDefinition/qicore-patient" ]
      },
      "extension": [ {
        "url": "http://hl7.org/fhir/us/core/StructureDefinition/us-core-race",
        "extension": [ {
          "url": "ombCategory",
          "valueCoding": {
            "system": "urn:oid:2.16.840.1.113883.6.238",
            "code": "1002-5",
            "display": "American Indian or Alaska Native",
            "userSelected": true
          }
        }, {
          "url": "text",
          "valueString": "American Indian or Alaska Native"
        }, {
          "url": "detailed",
          "valueCoding": {
            "system": "urn:oid:2.16.840.1.113883.6.238",
            "code": "1653-5",
            "display": "Tohono O'Odham"
          }
        } ]
      }, {
        "url": "http://hl7.org/fhir/us/core/StructureDefinition/us-core-ethnicity",
        "extension": [ {
          "url": "ombCategory",
          "valueCoding": {
            "system": "urn:oid:2.16.840.1.113883.6.238",
            "code": "2135-2",
            "display": "Hispanic or Latino",
            "userSelected": true
          }
        }, {
          "url": "text",
          "valueString": "Not Hispanic or Latino"
        }, {
          "url": "detailed",
          "valueCoding": {
            "system": "urn:oid:2.16.840.1.113883.6.238",
            "code": "2153-5",
            "display": "Mexican American Indian"
          }
        } ]
      }, {
        "url": "http://hl7.org/fhir/us/core/StructureDefinition/us-core-sex",
        "valueCode": "248153007"
      } ],
      "identifier": [ {
        "system": "http://hospital.smarthealthit.org",
        "value": "999999999"
      } ],
      "name": [ {
        "family": "Example",
        "given": [ "Patient" ]
      } ],
      "gender": "male",
      "birthDate": "1975-01-01"
    },
    "request": {
      "method": "PUT",
      "url": "Patient/9e0ef8df-189b-40f1-9eac-724254bd86e2"
    }
  }, {
    "fullUrl": "https://madie.cms.gov/Encounter/4731c424-0d10-4c1b-8abf-2735801bf5ac",
    "resource": {
      "resourceType": "Encounter",
      "id": "4731c424-0d10-4c1b-8abf-2735801bf5ac",
      "meta": {
        "profile": [ "http://hl7.org/fhir/us/qicore/StructureDefinition/qicore-encounter" ]
      },
      "status": "finished",
      "class": {
        "system": "http://terminology.hl7.org/CodeSystem/v3-ActCode",
        "code": "EMER",
        "display": "emergency"
      },
      "type": [ {
        "coding": [ {
          "system": "http://snomed.info/sct",
          "code": "4525004",
          "display": "Emergency department patient visit (procedure)"
        } ]
      } ],
      "subject": {
        "reference": "Patient/9e0ef8df-189b-40f1-9eac-724254bd86e2"
      },
      "period": {
        "start": "2026-09-29T08:00:00.000+00:00",
        "end": "2026-09-29T20:00:00.000+00:00"
      }
    },
    "request": {
      "method": "PUT",
      "url": "Encounter/4731c424-0d10-4c1b-8abf-2735801bf5ac"
    }
  }, {
    "fullUrl": "https://madie.cms.gov/Encounter/8d5f866f-c54f-480c-b95e-26695935563b",
    "resource": {
      "resourceType": "Encounter",
      "id": "8d5f866f-c54f-480c-b95e-26695935563b",
      "meta": {
        "profile": [ "http://hl7.org/fhir/us/qicore/StructureDefinition/qicore-encounter" ]
      },
      "status": "finished",
      "class": {
        "system": "http://terminology.hl7.org/CodeSystem/v3-ActCode",
        "code": "IMP",
        "display": "inpatient encounter"
      },
      "type": [ {
        "coding": [ {
          "system": "http://snomed.info/sct",
          "code": "183452005",
          "display": "Emergency hospital admission (procedure)"
        } ]
      } ],
      "subject": {
        "reference": "Patient/9e0ef8df-189b-40f1-9eac-724254bd86e2"
      },
      "period": {
        "start": "2026-09-29T20:01:00.000+00:00",
        "end": "2026-10-03T20:00:00.000+00:00"
      },
      "reasonReference": [ {
        "reference": "Condition/1e85ccdb-172c-4e2c-a5c3-437897934b95"
      } ]
    },
    "request": {
      "method": "PUT",
      "url": "Encounter/8d5f866f-c54f-480c-b95e-26695935563b"
    }
  }, {
    "fullUrl": "https://madie.cms.gov/Observation/c9d13ebb-06b3-477e-bcd4-a0bc9daee372",
    "resource": {
      "resourceType": "Observation",
      "id": "c9d13ebb-06b3-477e-bcd4-a0bc9daee372",
      "meta": {
        "profile": [ "http://hl7.org/fhir/us/qicore/StructureDefinition/qicore-observation-lab" ]
      },
      "status": "final",
      "category": [ {
        "coding": [ {
          "system": "http://terminology.hl7.org/CodeSystem/observation-category",
          "code": "laboratory",
          "display": "Laboratory"
        } ]
      } ],
      "code": {
        "coding": [ {
          "system": "http://loinc.org",
          "code": "21232-4",
          "display": "Creatinine [Mass/volume] in Serum or Plasma"
        } ]
      },
      "subject": {
        "reference": "Patient/9e0ef8df-189b-40f1-9eac-724254bd86e2"
      },
      "effectiveDateTime": "2026-10-01T08:01:00.000+00:00",
      "valueQuantity": {
        "value": 0.9,
        "unit": "mg/dL",
        "system": "http://unitsofmeasure.org",
        "code": "mg/dL"
      }
    },
    "request": {
      "method": "PUT",
      "url": "Observation/c9d13ebb-06b3-477e-bcd4-a0bc9daee372"
    }
  }, {
    "fullUrl": "https://madie.cms.gov/Observation/06eefceb-92d6-4866-8989-bd5ee2dde6a6",
    "resource": {
      "resourceType": "Observation",
      "id": "06eefceb-92d6-4866-8989-bd5ee2dde6a6",
      "meta": {
        "profile": [ "http://hl7.org/fhir/us/qicore/StructureDefinition/qicore-observation-lab" ]
      },
      "status": "final",
      "category": [ {
        "coding": [ {
          "system": "http://terminology.hl7.org/CodeSystem/observation-category",
          "code": "laboratory",
          "display": "Laboratory"
        } ]
      } ],
      "code": {
        "coding": [ {
          "system": "http://loinc.org",
          "code": "21232-4",
          "display": "Creatinine [Mass/volume] in Serum or Plasma"
        } ]
      },
      "subject": {
        "reference": "Patient/9e0ef8df-189b-40f1-9eac-724254bd86e2"
      },
      "effectiveDateTime": "2026-10-01T07:00:00.000+00:00",
      "valueQuantity": {
        "value": 0.91,
        "unit": "mg/dL",
        "system": "http://unitsofmeasure.org",
        "code": "mg/dL"
      }
    },
    "request": {
      "method": "PUT",
      "url": "Observation/06eefceb-92d6-4866-8989-bd5ee2dde6a6"
    }
  }, {
    "fullUrl": "https://madie.cms.gov/Condition/1e85ccdb-172c-4e2c-a5c3-437897934b95",
    "resource": {
      "resourceType": "Condition",
      "id": "1e85ccdb-172c-4e2c-a5c3-437897934b95",
      "meta": {
        "profile": [ "http://hl7.org/fhir/us/qicore/StructureDefinition/qicore-condition-encounter-diagnosis" ]
      },
      "clinicalStatus": {
        "coding": [ {
          "system": "http://terminology.hl7.org/CodeSystem/condition-clinical",
          "code": "active",
          "display": "Active"
        } ]
      },
      "verificationStatus": {
        "coding": [ {
          "system": "http://terminology.hl7.org/CodeSystem/condition-ver-status",
          "code": "confirmed",
          "display": "Confirmed"
        } ]
      },
      "code": {
        "coding": [ {
          "system": "http://hl7.org/fhir/sid/icd-10-cm",
          "code": "S37.061A",
          "display": "Major laceration of right kidney, initial encounter"
        } ],
        "text": "Major laceration of right kidney, initial encounter"
      },
      "subject": {
        "reference": "Patient/9e0ef8df-189b-40f1-9eac-724254bd86e2"
      },
      "encounter": {
        "reference": "Encounter/8d5f866f-c54f-480c-b95e-26695935563b"
      }
    },
    "request": {
      "method": "PUT",
      "url": "Condition/1e85ccdb-172c-4e2c-a5c3-437897934b95"
    }
  }, {
    "fullUrl": "https://madie.cms.gov/Observation/a5867aba-1fc7-4183-a04b-1a3e8e594c0d",
    "resource": {
      "resourceType": "Observation",
      "id": "a5867aba-1fc7-4183-a04b-1a3e8e594c0d",
      "meta": {
        "profile": [ "http://hl7.org/fhir/us/qicore/StructureDefinition/qicore-observation-lab" ]
      },
      "status": "final",
      "category": [ {
        "coding": [ {
          "system": "http://terminology.hl7.org/CodeSystem/observation-category",
          "code": "laboratory",
          "display": "Laboratory"
        } ]
      } ],
      "code": {
        "coding": [ {
          "system": "http://loinc.org",
          "code": "21232-4",
          "display": "Creatinine [Mass/volume] in Serum or Plasma"
        } ]
      },
      "subject": {
        "reference": "Patient/9e0ef8df-189b-40f1-9eac-724254bd86e2"
      },
      "effectiveDateTime": "2026-10-01T07:35:00.000+00:00",
      "valueQuantity": {
        "value": 0.91,
        "unit": "mg/dL",
        "system": "http://unitsofmeasure.org",
        "code": "mg/dL"
      }
    },
    "request": {
      "method": "PUT",
      "url": "Observation/a5867aba-1fc7-4183-a04b-1a3e8e594c0d"
    }
  }, {
    "fullUrl": "https://madie.cms.gov/Observation/18feac83-0b39-400c-9086-925353ba0dc0",
    "resource": {
      "resourceType": "Observation",
      "id": "18feac83-0b39-400c-9086-925353ba0dc0",
      "meta": {
        "profile": [ "http://hl7.org/fhir/us/core/StructureDefinition/us-core-respiratory-rate" ]
      },
      "status": "final",
      "category": [ {
        "coding": [ {
          "system": "http://terminology.hl7.org/CodeSystem/observation-category",
          "code": "vital-signs",
          "display": "Vital Signs"
        } ]
      } ],
      "code": {
        "coding": [ {
          "system": "http://loinc.org",
          "code": "9279-1",
          "display": "Respiratory rate"
        } ],
        "text": "Respiratory rate"
      },
      "subject": {
        "reference": "Patient/9e0ef8df-189b-40f1-9eac-724254bd86e2"
      },
      "effectiveDateTime": "2026-10-01T09:00:00.000+00:00",
      "valueQuantity": {
        "value": 18,
        "unit": "breaths/minute",
        "system": "http://unitsofmeasure.org",
        "code": "/min"
      }
    },
    "request": {
      "method": "PUT",
      "url": "Observation/18feac83-0b39-400c-9086-925353ba0dc0"
    }
  }, {
    "fullUrl": "https://madie.cms.gov/Observation/1ff3cae8-f000-4b82-8b11-4cf66ea75b1e",
    "resource": {
      "resourceType": "Observation",
      "id": "1ff3cae8-f000-4b82-8b11-4cf66ea75b1e",
      "meta": {
        "profile": [ "http://hl7.org/fhir/us/core/StructureDefinition/us-core-body-temperature" ]
      },
      "status": "final",
      "category": [ {
        "coding": [ {
          "system": "http://terminology.hl7.org/CodeSystem/observation-category",
          "code": "vital-signs",
          "display": "Vital Signs"
        } ]
      } ],
      "code": {
        "coding": [ {
          "system": "http://loinc.org",
          "code": "8310-5",
          "display": "Body temperature"
        } ],
        "text": "Body temperature"
      },
      "subject": {
        "reference": "Patient/9e0ef8df-189b-40f1-9eac-724254bd86e2"
      },
      "encounter": {
        "reference": "Encounter/8d5f866f-c54f-480c-b95e-26695935563b"
      },
      "effectiveDateTime": "2026-10-01T08:30:00.000+00:00",
      "valueQuantity": {
        "value": 98.6
      }
    },
    "request": {
      "method": "PUT",
      "url": "Observation/1ff3cae8-f000-4b82-8b11-4cf66ea75b1e"
    }
  }, {
    "fullUrl": "https://madie.cms.gov/MeasureReport/b0dfa18f-38fc-44fc-aa83-7f3f5671e9a7",
    "resource": {
      "resourceType": "MeasureReport",
      "id": "b0dfa18f-38fc-44fc-aa83-7f3f5671e9a7",
      "meta": {
        "profile": [ "http://hl7.org/fhir/us/cqfmeasures/StructureDefinition/test-case-cqfm" ]
      },
      "contained": [ {
        "resourceType": "Parameters",
        "id": "e9672832-848a-40f2-920e-84b1cdd6736e-parameters",
        "parameter": [ {
          "name": "subject",
          "valueString": "9e0ef8df-189b-40f1-9eac-724254bd86e2"
        } ]
      } ],
      "extension": [ {
        "url": "http://hl7.org/fhir/StructureDefinition/cqf-inputParameters",
        "valueReference": {
          "reference": "#e9672832-848a-40f2-920e-84b1cdd6736e-parameters"
        }
      }, {
        "url": "http://hl7.org/fhir/us/cqfmeasures/StructureDefinition/cqfm-testCaseDescription",
        "valueMarkdown": "RV Encounters that return the first Respiratory Rate"
      } ],
      "modifierExtension": [ {
        "url": "http://hl7.org/fhir/us/cqfmeasures/StructureDefinition/cqfm-isTestCase",
        "valueBoolean": true
      } ],
      "status": "complete",
      "type": "individual",
      "measure": "https://madie.cms.gov/Measure/CMS832HHAKIFHIR",
      "period": {
        "start": "2026-01-01",
        "end": "2026-12-31"
      },
      "group": [ {
        "id": "Group_1",
        "population": [ {
          "id": "InitialPopulation_1",
          "code": {
            "coding": [ {
              "system": "http://terminology.hl7.org/CodeSystem/measure-population",
              "code": "initial-population",
              "display": "Initial Population"
            } ]
          },
          "count": 1
        }, {
          "id": "Denominator_1",
          "code": {
            "coding": [ {
              "system": "http://terminology.hl7.org/CodeSystem/measure-population",
              "code": "denominator",
              "display": "Denominator"
            } ]
          },
          "count": 1
        }, {
          "id": "DenominatorExclusion_1",
          "code": {
            "coding": [ {
              "system": "http://terminology.hl7.org/CodeSystem/measure-population",
              "code": "denominator-exclusion",
              "display": "Denominator Exclusion"
            } ]
          },
          "count": 1
        }, {
          "id": "Numerator_1",
          "code": {
            "coding": [ {
              "system": "http://terminology.hl7.org/CodeSystem/measure-population",
              "code": "numerator",
              "display": "Numerator"
            } ]
          },
          "count": 0
        } ],
        "measureScore": {
          "value": 0.0
        }
      } ],
      "evaluatedResource": [ {
        "reference": "Patient/9e0ef8df-189b-40f1-9eac-724254bd86e2"
      }, {
        "reference": "Encounter/4731c424-0d10-4c1b-8abf-2735801bf5ac"
      }, {
        "reference": "Encounter/8d5f866f-c54f-480c-b95e-26695935563b"
      }, {
        "reference": "Observation/c9d13ebb-06b3-477e-bcd4-a0bc9daee372"
      }, {
        "reference": "Observation/06eefceb-92d6-4866-8989-bd5ee2dde6a6"
      }, {
        "reference": "Condition/1e85ccdb-172c-4e2c-a5c3-437897934b95"
      }, {
        "reference": "Observation/a5867aba-1fc7-4183-a04b-1a3e8e594c0d"
      }, {
        "reference": "Observation/18feac83-0b39-400c-9086-925353ba0dc0"
      }, {
        "reference": "Observation/1ff3cae8-f000-4b82-8b11-4cf66ea75b1e"
      } ]
    },
    "request": {
      "method": "PUT",
      "url": "MeasureReport/b0dfa18f-38fc-44fc-aa83-7f3f5671e9a7"
    }
  } ]
}