{
  "resourceType": "Bundle",
  "id": "tests-DENEXFail-HighRiskDx",
  "type": "transaction",
  "entry": [ {
    "fullUrl": "https://madie.cms.gov/Patient/658dcd87-1f28-4732-a464-bcfa5681f12f",
    "resource": {
      "resourceType": "Patient",
      "id": "658dcd87-1f28-4732-a464-bcfa5681f12f",
      "meta": {
        "profile": [ "http://hl7.org/fhir/us/qicore/StructureDefinition/qicore-patient" ]
      },
      "extension": [ {
        "url": "http://hl7.org/fhir/us/core/StructureDefinition/us-core-race",
        "extension": [ {
          "url": "ombCategory",
          "valueCoding": {
            "system": "urn:oid:2.16.840.1.113883.6.238",
            "code": "2106-3",
            "display": "White"
          }
        }, {
          "url": "text",
          "valueString": "White"
        } ]
      }, {
        "url": "http://hl7.org/fhir/us/core/StructureDefinition/us-core-ethnicity",
        "extension": [ {
          "url": "ombCategory",
          "valueCoding": {
            "system": "urn:oid:2.16.840.1.113883.6.238",
            "code": "2135-2",
            "display": "Hispanic or Latino"
          }
        }, {
          "url": "text",
          "valueString": "Hispanic or Latino"
        } ]
      }, {
        "url": "http://hl7.org/fhir/us/core/StructureDefinition/us-core-sex",
        "valueCode": "248153007"
      } ],
      "identifier": [ {
        "system": "http://hospital.smarthealthit.org",
        "value": "999999999"
      } ],
      "name": [ {
        "family": "Example",
        "given": [ "Patient" ]
      } ],
      "gender": "male",
      "birthDate": "1975-01-01"
    },
    "request": {
      "method": "PUT",
      "url": "Patient/658dcd87-1f28-4732-a464-bcfa5681f12f"
    }
  }, {
    "fullUrl": "https://madie.cms.gov/Encounter/ffc54c1b-697a-4748-8b90-b4ec760e21a1",
    "resource": {
      "resourceType": "Encounter",
      "id": "ffc54c1b-697a-4748-8b90-b4ec760e21a1",
      "meta": {
        "profile": [ "http://hl7.org/fhir/us/qicore/StructureDefinition/qicore-encounter" ]
      },
      "status": "finished",
      "class": {
        "system": "http://terminology.hl7.org/CodeSystem/v3-ActCode",
        "code": "EMER",
        "display": "emergency"
      },
      "type": [ {
        "coding": [ {
          "system": "http://snomed.info/sct",
          "code": "4525004",
          "display": "Emergency department patient visit (procedure)"
        } ]
      } ],
      "subject": {
        "reference": "Patient/658dcd87-1f28-4732-a464-bcfa5681f12f"
      },
      "period": {
        "start": "2026-09-29T08:00:00.000+00:00",
        "end": "2026-09-29T20:00:00.000+00:00"
      }
    },
    "request": {
      "method": "PUT",
      "url": "Encounter/ffc54c1b-697a-4748-8b90-b4ec760e21a1"
    }
  }, {
    "fullUrl": "https://madie.cms.gov/Encounter/d9912cd5-55b5-4129-bec0-cc7adfaa8272",
    "resource": {
      "resourceType": "Encounter",
      "id": "d9912cd5-55b5-4129-bec0-cc7adfaa8272",
      "meta": {
        "profile": [ "http://hl7.org/fhir/us/qicore/StructureDefinition/qicore-encounter" ]
      },
      "status": "finished",
      "class": {
        "system": "http://terminology.hl7.org/CodeSystem/v3-ActCode",
        "code": "IMP",
        "display": "inpatient encounter"
      },
      "type": [ {
        "coding": [ {
          "system": "http://snomed.info/sct",
          "code": "183452005",
          "display": "Emergency hospital admission (procedure)"
        } ]
      } ],
      "subject": {
        "reference": "Patient/658dcd87-1f28-4732-a464-bcfa5681f12f"
      },
      "period": {
        "start": "2026-09-29T20:01:00.000+00:00",
        "end": "2026-10-03T20:00:00.000+00:00"
      },
      "reasonReference": [ {
        "reference": "Condition/f03b9e28-b497-48d7-afaa-4457fe55a925"
      } ]
    },
    "request": {
      "method": "PUT",
      "url": "Encounter/d9912cd5-55b5-4129-bec0-cc7adfaa8272"
    }
  }, {
    "fullUrl": "https://madie.cms.gov/Observation/cfd9c2fa-584f-404c-860d-19a49781986d",
    "resource": {
      "resourceType": "Observation",
      "id": "cfd9c2fa-584f-404c-860d-19a49781986d",
      "meta": {
        "profile": [ "http://hl7.org/fhir/us/qicore/StructureDefinition/qicore-observation-lab" ]
      },
      "status": "final",
      "category": [ {
        "coding": [ {
          "system": "http://terminology.hl7.org/CodeSystem/observation-category",
          "code": "laboratory",
          "display": "Laboratory"
        } ]
      } ],
      "code": {
        "coding": [ {
          "system": "http://loinc.org",
          "code": "21232-4",
          "display": "Creatinine [Mass/volume] in Serum or Plasma"
        } ]
      },
      "subject": {
        "reference": "Patient/658dcd87-1f28-4732-a464-bcfa5681f12f"
      },
      "effectiveDateTime": "2026-10-01T08:01:00.000+00:00",
      "valueQuantity": {
        "value": 0.9,
        "unit": "mg/dL",
        "system": "http://unitsofmeasure.org",
        "code": "mg/dL"
      }
    },
    "request": {
      "method": "PUT",
      "url": "Observation/cfd9c2fa-584f-404c-860d-19a49781986d"
    }
  }, {
    "fullUrl": "https://madie.cms.gov/Observation/67e98c2a-23d2-4702-a4e8-dea9582658b5",
    "resource": {
      "resourceType": "Observation",
      "id": "67e98c2a-23d2-4702-a4e8-dea9582658b5",
      "meta": {
        "profile": [ "http://hl7.org/fhir/us/qicore/StructureDefinition/qicore-observation-lab" ]
      },
      "status": "final",
      "category": [ {
        "coding": [ {
          "system": "http://terminology.hl7.org/CodeSystem/observation-category",
          "code": "laboratory",
          "display": "Laboratory"
        } ]
      } ],
      "code": {
        "coding": [ {
          "system": "http://loinc.org",
          "code": "21232-4",
          "display": "Creatinine [Mass/volume] in Serum or Plasma"
        } ]
      },
      "subject": {
        "reference": "Patient/658dcd87-1f28-4732-a464-bcfa5681f12f"
      },
      "effectiveDateTime": "2026-10-01T07:00:00.000+00:00",
      "valueQuantity": {
        "value": 0.91,
        "unit": "mg/dL",
        "system": "http://unitsofmeasure.org",
        "code": "mg/dL"
      }
    },
    "request": {
      "method": "PUT",
      "url": "Observation/67e98c2a-23d2-4702-a4e8-dea9582658b5"
    }
  }, {
    "fullUrl": "https://madie.cms.gov/Condition/f03b9e28-b497-48d7-afaa-4457fe55a925",
    "resource": {
      "resourceType": "Condition",
      "id": "f03b9e28-b497-48d7-afaa-4457fe55a925",
      "meta": {
        "profile": [ "http://hl7.org/fhir/us/qicore/StructureDefinition/qicore-condition-encounter-diagnosis" ]
      },
      "clinicalStatus": {
        "coding": [ {
          "system": "http://terminology.hl7.org/CodeSystem/condition-clinical",
          "code": "active",
          "display": "Active"
        } ]
      },
      "verificationStatus": {
        "coding": [ {
          "system": "http://terminology.hl7.org/CodeSystem/condition-ver-status",
          "code": "confirmed",
          "display": "Confirmed"
        } ]
      },
      "code": {
        "coding": [ {
          "system": "http://hl7.org/fhir/sid/icd-10-cm",
          "code": "S37.061A",
          "display": "Major laceration of right kidney, initial encounter"
        } ],
        "text": "Major laceration of right kidney, initial encounter"
      },
      "subject": {
        "reference": "Patient/658dcd87-1f28-4732-a464-bcfa5681f12f"
      },
      "encounter": {
        "reference": "Encounter/d9912cd5-55b5-4129-bec0-cc7adfaa8272"
      }
    },
    "request": {
      "method": "PUT",
      "url": "Condition/f03b9e28-b497-48d7-afaa-4457fe55a925"
    }
  }, {
    "fullUrl": "https://madie.cms.gov/Observation/e84f8b10-d65a-4b38-a7f7-f33b13499466",
    "resource": {
      "resourceType": "Observation",
      "id": "e84f8b10-d65a-4b38-a7f7-f33b13499466",
      "meta": {
        "profile": [ "http://hl7.org/fhir/us/qicore/StructureDefinition/qicore-observation-lab" ]
      },
      "status": "final",
      "category": [ {
        "coding": [ {
          "system": "http://terminology.hl7.org/CodeSystem/observation-category",
          "code": "laboratory",
          "display": "Laboratory"
        } ]
      } ],
      "code": {
        "coding": [ {
          "system": "http://loinc.org",
          "code": "21232-4",
          "display": "Creatinine [Mass/volume] in Serum or Plasma"
        } ]
      },
      "subject": {
        "reference": "Patient/658dcd87-1f28-4732-a464-bcfa5681f12f"
      },
      "effectiveDateTime": "2026-10-01T07:35:00.000+00:00",
      "valueQuantity": {
        "value": 0.91,
        "unit": "mg/dL",
        "system": "http://unitsofmeasure.org",
        "code": "mg/dL"
      }
    },
    "request": {
      "method": "PUT",
      "url": "Observation/e84f8b10-d65a-4b38-a7f7-f33b13499466"
    }
  }, {
    "fullUrl": "https://madie.cms.gov/MeasureReport/e1523bd8-b8d1-406c-9ade-95ad441a1b87",
    "resource": {
      "resourceType": "MeasureReport",
      "id": "e1523bd8-b8d1-406c-9ade-95ad441a1b87",
      "meta": {
        "profile": [ "http://hl7.org/fhir/us/cqfmeasures/StructureDefinition/test-case-cqfm" ]
      },
      "contained": [ {
        "resourceType": "Parameters",
        "id": "b959bbd0-21ed-49dc-a786-00535f9384b0-parameters",
        "parameter": [ {
          "name": "subject",
          "valueString": "658dcd87-1f28-4732-a464-bcfa5681f12f"
        } ]
      } ],
      "extension": [ {
        "url": "http://hl7.org/fhir/StructureDefinition/cqf-inputParameters",
        "valueReference": {
          "reference": "#b959bbd0-21ed-49dc-a786-00535f9384b0-parameters"
        }
      }, {
        "url": "http://hl7.org/fhir/us/cqfmeasures/StructureDefinition/cqfm-testCaseDescription",
        "valueMarkdown": "Patient is High Risk Diagnosis of AKI"
      } ],
      "modifierExtension": [ {
        "url": "http://hl7.org/fhir/us/cqfmeasures/StructureDefinition/cqfm-isTestCase",
        "valueBoolean": true
      } ],
      "status": "complete",
      "type": "individual",
      "measure": "https://madie.cms.gov/Measure/CMS832HHAKIFHIR",
      "period": {
        "start": "2026-01-01",
        "end": "2026-12-31"
      },
      "group": [ {
        "id": "Group_1",
        "population": [ {
          "id": "InitialPopulation_1",
          "code": {
            "coding": [ {
              "system": "http://terminology.hl7.org/CodeSystem/measure-population",
              "code": "initial-population",
              "display": "Initial Population"
            } ]
          },
          "count": 1
        }, {
          "id": "Denominator_1",
          "code": {
            "coding": [ {
              "system": "http://terminology.hl7.org/CodeSystem/measure-population",
              "code": "denominator",
              "display": "Denominator"
            } ]
          },
          "count": 1
        }, {
          "id": "DenominatorExclusion_1",
          "code": {
            "coding": [ {
              "system": "http://terminology.hl7.org/CodeSystem/measure-population",
              "code": "denominator-exclusion",
              "display": "Denominator Exclusion"
            } ]
          },
          "count": 1
        }, {
          "id": "Numerator_1",
          "code": {
            "coding": [ {
              "system": "http://terminology.hl7.org/CodeSystem/measure-population",
              "code": "numerator",
              "display": "Numerator"
            } ]
          },
          "count": 0
        } ],
        "measureScore": {
          "value": 0.0
        }
      } ],
      "evaluatedResource": [ {
        "reference": "Patient/658dcd87-1f28-4732-a464-bcfa5681f12f"
      }, {
        "reference": "Encounter/ffc54c1b-697a-4748-8b90-b4ec760e21a1"
      }, {
        "reference": "Encounter/d9912cd5-55b5-4129-bec0-cc7adfaa8272"
      }, {
        "reference": "Observation/cfd9c2fa-584f-404c-860d-19a49781986d"
      }, {
        "reference": "Observation/67e98c2a-23d2-4702-a4e8-dea9582658b5"
      }, {
        "reference": "Condition/f03b9e28-b497-48d7-afaa-4457fe55a925"
      }, {
        "reference": "Observation/e84f8b10-d65a-4b38-a7f7-f33b13499466"
      } ]
    },
    "request": {
      "method": "PUT",
      "url": "MeasureReport/e1523bd8-b8d1-406c-9ade-95ad441a1b87"
    }
  } ]
}