{"resourceType":"Bundle","id":"tests-8f0e795e-1f12-4389-91b8-e50036da96d0-bundle","type":"transaction","entry":[{"resource":{"resourceType":"Patient","id":"8f0e795e-1f12-4389-91b8-e50036da96d0","meta":{"profile":["http://hl7.org/fhir/us/qicore/StructureDefinition/qicore-patient"]},"extension":[{"url":"http://hl7.org/fhir/us/core/StructureDefinition/us-core-race","extension":[{"url":"ombCategory","valueCoding":{"system":"urn:oid:2.16.840.1.113883.6.238","code":"1002-5","display":"American Indian or Alaska Native","userSelected":true}},{"url":"text","valueString":"American Indian or Alaska Native"},{"url":"detailed","valueCoding":{"system":"urn:oid:2.16.840.1.113883.6.238","code":"1653-5","display":"Tohono O'Odham"}}]},{"url":"http://hl7.org/fhir/us/core/StructureDefinition/us-core-ethnicity","extension":[{"url":"ombCategory","valueCoding":{"system":"urn:oid:2.16.840.1.113883.6.238","code":"2135-2","display":"Hispanic or Latino","userSelected":true}},{"url":"text","valueString":"Not Hispanic or Latino"},{"url":"detailed","valueCoding":{"system":"urn:oid:2.16.840.1.113883.6.238","code":"2153-5","display":"Mexican American Indian"}}]},{"url":"http://hl7.org/fhir/us/core/StructureDefinition/us-core-sex","valueCode":"248153007"}],"identifier":[{"system":"http://hospital.smarthealthit.org","value":"999999999"}],"name":[{"family":"Example","given":["Patient"]}],"gender":"male","birthDate":"1975-01-01"},"request":{"method":"PUT","url":"Patient/8f0e795e-1f12-4389-91b8-e50036da96d0"}},{"resource":{"resourceType":"Observation","id":"7731cff5-6177-457e-84d4-3fd197aacef4","meta":{"profile":["http://hl7.org/fhir/us/core/StructureDefinition/us-core-blood-pressure"]},"status":"final","category":[{"coding":[{"system":"http://terminology.hl7.org/CodeSystem/observation-category","code":"vital-signs","display":"Vital Signs"}]}],"code":{"coding":[{"system":"http://loinc.org","code":"85354-9","display":"Blood pressure panel with all children optional"}],"text":"Blood pressure systolic and diastolic"},"subject":{"reference":"Patient/8f0e795e-1f12-4389-91b8-e50036da96d0"},"encounter":{"reference":"Encounter/f84acc8c-cfb5-4f97-bb18-871dcbc226f8"},"effectiveDateTime":"2026-10-01T08:35:00.000+00:00","component":[{"code":{"coding":[{"system":"http://loinc.org","code":"8480-6","display":"Systolic blood pressure"}],"text":"Systolic Blood Pressure"},"valueQuantity":{"value":120,"unit":"mmHg","system":"http://unitsofmeasure.org","code":"mm[Hg]"}},{"code":{"coding":[{"system":"http://loinc.org","code":"8462-4","display":"Diastolic blood pressure"}],"text":"Diastolic Blood Pressure"},"valueQuantity":{"value":80,"unit":"mmHg","system":"http://unitsofmeasure.org","code":"mm[Hg]"}}]},"request":{"method":"PUT","url":"Observation/7731cff5-6177-457e-84d4-3fd197aacef4"}},{"resource":{"resourceType":"Bundle","id":"tests-RVwithSysBP","type":"transaction","entry":[{"fullUrl":"https://madie.cms.gov/Patient/8f0e795e-1f12-4389-91b8-e50036da96d0","resource":{"resourceType":"Patient","id":"8f0e795e-1f12-4389-91b8-e50036da96d0","meta":{"profile":["http://hl7.org/fhir/us/qicore/StructureDefinition/qicore-patient"]},"extension":[{"url":"http://hl7.org/fhir/us/core/StructureDefinition/us-core-race","extension":[{"url":"ombCategory","valueCoding":{"system":"urn:oid:2.16.840.1.113883.6.238","code":"1002-5","display":"American Indian or Alaska Native","userSelected":true}},{"url":"text","valueString":"American Indian or Alaska Native"},{"url":"detailed","valueCoding":{"system":"urn:oid:2.16.840.1.113883.6.238","code":"1653-5","display":"Tohono O'Odham"}}]},{"url":"http://hl7.org/fhir/us/core/StructureDefinition/us-core-ethnicity","extension":[{"url":"ombCategory","valueCoding":{"system":"urn:oid:2.16.840.1.113883.6.238","code":"2135-2","display":"Hispanic or Latino","userSelected":true}},{"url":"text","valueString":"Not Hispanic or Latino"},{"url":"detailed","valueCoding":{"system":"urn:oid:2.16.840.1.113883.6.238","code":"2153-5","display":"Mexican American Indian"}}]},{"url":"http://hl7.org/fhir/us/core/StructureDefinition/us-core-sex","valueCode":"248153007"}],"identifier":[{"system":"http://hospital.smarthealthit.org","value":"999999999"}],"name":[{"family":"Example","given":["Patient"]}],"gender":"male","birthDate":"1975-01-01"},"request":{"method":"PUT","url":"Patient/8f0e795e-1f12-4389-91b8-e50036da96d0"}},{"fullUrl":"https://madie.cms.gov/Encounter/4008cfac-b432-40ff-8fae-728b2bf1b8ac","resource":{"resourceType":"Encounter","id":"4008cfac-b432-40ff-8fae-728b2bf1b8ac","meta":{"profile":["http://hl7.org/fhir/us/qicore/StructureDefinition/qicore-encounter"]},"status":"finished","class":{"system":"http://terminology.hl7.org/CodeSystem/v3-ActCode","code":"EMER","display":"emergency"},"type":[{"coding":[{"system":"http://snomed.info/sct","code":"4525004","display":"Emergency department patient visit (procedure)"}]}],"subject":{"reference":"Patient/8f0e795e-1f12-4389-91b8-e50036da96d0"},"period":{"start":"2026-09-29T08:00:00.000+00:00","end":"2026-09-29T20:00:00.000+00:00"}},"request":{"method":"PUT","url":"Encounter/4008cfac-b432-40ff-8fae-728b2bf1b8ac"}},{"fullUrl":"https://madie.cms.gov/Encounter/f84acc8c-cfb5-4f97-bb18-871dcbc226f8","resource":{"resourceType":"Encounter","id":"f84acc8c-cfb5-4f97-bb18-871dcbc226f8","meta":{"profile":["http://hl7.org/fhir/us/qicore/StructureDefinition/qicore-encounter"]},"status":"finished","class":{"system":"http://terminology.hl7.org/CodeSystem/v3-ActCode","code":"IMP","display":"inpatient encounter"},"type":[{"coding":[{"system":"http://snomed.info/sct","code":"183452005","display":"Emergency hospital admission (procedure)"}]}],"subject":{"reference":"Patient/8f0e795e-1f12-4389-91b8-e50036da96d0"},"period":{"start":"2026-09-29T20:01:00.000+00:00","end":"2026-10-03T20:00:00.000+00:00"},"reasonReference":[{"reference":"Condition/8c8a0482-a343-4f10-b69a-1079da9c078f"}]},"request":{"method":"PUT","url":"Encounter/f84acc8c-cfb5-4f97-bb18-871dcbc226f8"}},{"fullUrl":"https://madie.cms.gov/Observation/ad88b48e-210b-438c-bbfd-ff46fb384853","resource":{"resourceType":"Observation","id":"ad88b48e-210b-438c-bbfd-ff46fb384853","meta":{"profile":["http://hl7.org/fhir/us/qicore/StructureDefinition/qicore-observation-lab"]},"status":"final","category":[{"coding":[{"system":"http://terminology.hl7.org/CodeSystem/observation-category","code":"laboratory","display":"Laboratory"}]}],"code":{"coding":[{"system":"http://loinc.org","code":"21232-4","display":"Creatinine [Mass/volume] in Serum or Plasma"}]},"subject":{"reference":"Patient/8f0e795e-1f12-4389-91b8-e50036da96d0"},"effectiveDateTime":"2026-10-01T08:01:00.000+00:00","valueQuantity":{"value":0.9,"unit":"mg/dL","system":"http://unitsofmeasure.org","code":"mg/dL"}},"request":{"method":"PUT","url":"Observation/ad88b48e-210b-438c-bbfd-ff46fb384853"}},{"fullUrl":"https://madie.cms.gov/Observation/6cca7478-d1ee-4910-8999-6d23a6227b7f","resource":{"resourceType":"Observation","id":"6cca7478-d1ee-4910-8999-6d23a6227b7f","meta":{"profile":["http://hl7.org/fhir/us/qicore/StructureDefinition/qicore-observation-lab"]},"status":"final","category":[{"coding":[{"system":"http://terminology.hl7.org/CodeSystem/observation-category","code":"laboratory","display":"Laboratory"}]}],"code":{"coding":[{"system":"http://loinc.org","code":"21232-4","display":"Creatinine [Mass/volume] in Serum or Plasma"}]},"subject":{"reference":"Patient/8f0e795e-1f12-4389-91b8-e50036da96d0"},"effectiveDateTime":"2026-10-01T07:00:00.000+00:00","valueQuantity":{"value":0.91,"unit":"mg/dL","system":"http://unitsofmeasure.org","code":"mg/dL"}},"request":{"method":"PUT","url":"Observation/6cca7478-d1ee-4910-8999-6d23a6227b7f"}},{"fullUrl":"https://madie.cms.gov/Condition/8c8a0482-a343-4f10-b69a-1079da9c078f","resource":{"resourceType":"Condition","id":"8c8a0482-a343-4f10-b69a-1079da9c078f","meta":{"profile":["http://hl7.org/fhir/us/qicore/StructureDefinition/qicore-condition-encounter-diagnosis"]},"clinicalStatus":{"coding":[{"system":"http://terminology.hl7.org/CodeSystem/condition-clinical","code":"active","display":"Active"}]},"verificationStatus":{"coding":[{"system":"http://terminology.hl7.org/CodeSystem/condition-ver-status","code":"confirmed","display":"Confirmed"}]},"code":{"coding":[{"system":"http://hl7.org/fhir/sid/icd-10-cm","code":"S37.061A","display":"Major laceration of right kidney, initial encounter"}],"text":"Major laceration of right kidney, initial encounter"},"subject":{"reference":"Patient/8f0e795e-1f12-4389-91b8-e50036da96d0"},"encounter":{"reference":"Encounter/f84acc8c-cfb5-4f97-bb18-871dcbc226f8"}},"request":{"method":"PUT","url":"Condition/8c8a0482-a343-4f10-b69a-1079da9c078f"}},{"fullUrl":"https://madie.cms.gov/Observation/fa4e0fb0-2695-4917-9125-b3be304d63d5","resource":{"resourceType":"Observation","id":"fa4e0fb0-2695-4917-9125-b3be304d63d5","meta":{"profile":["http://hl7.org/fhir/us/qicore/StructureDefinition/qicore-observation-lab"]},"status":"final","category":[{"coding":[{"system":"http://terminology.hl7.org/CodeSystem/observation-category","code":"laboratory","display":"Laboratory"}]}],"code":{"coding":[{"system":"http://loinc.org","code":"21232-4","display":"Creatinine [Mass/volume] in Serum or Plasma"}]},"subject":{"reference":"Patient/8f0e795e-1f12-4389-91b8-e50036da96d0"},"effectiveDateTime":"2026-10-01T07:35:00.000+00:00","valueQuantity":{"value":0.91,"unit":"mg/dL","system":"http://unitsofmeasure.org","code":"mg/dL"}},"request":{"method":"PUT","url":"Observation/fa4e0fb0-2695-4917-9125-b3be304d63d5"}},{"fullUrl":"https://madie.cms.gov/Observation/7731cff5-6177-457e-84d4-3fd197aacef4","resource":{"resourceType":"Observation","id":"7731cff5-6177-457e-84d4-3fd197aacef4","meta":{"profile":["http://hl7.org/fhir/us/core/StructureDefinition/us-core-blood-pressure"]},"status":"final","category":[{"coding":[{"system":"http://terminology.hl7.org/CodeSystem/observation-category","code":"vital-signs","display":"Vital Signs"}]}],"code":{"coding":[{"system":"http://loinc.org","code":"85354-9","display":"Blood pressure panel with all children optional"}],"text":"Blood pressure systolic and diastolic"},"subject":{"reference":"Patient/8f0e795e-1f12-4389-91b8-e50036da96d0"},"encounter":{"reference":"Encounter/f84acc8c-cfb5-4f97-bb18-871dcbc226f8"},"effectiveDateTime":"2026-10-01T08:35:00.000+00:00","component":[{"code":{"coding":[{"system":"http://loinc.org","code":"8480-6","display":"Systolic blood pressure"}],"text":"Systolic Blood Pressure"},"valueQuantity":{"value":120,"unit":"mmHg","system":"http://unitsofmeasure.org","code":"mm[Hg]"}},{"code":{"coding":[{"system":"http://loinc.org","code":"8462-4","display":"Diastolic blood pressure"}],"text":"Diastolic Blood Pressure"},"valueQuantity":{"value":80,"unit":"mmHg","system":"http://unitsofmeasure.org","code":"mm[Hg]"}}]},"request":{"method":"PUT","url":"Observation/7731cff5-6177-457e-84d4-3fd197aacef4"}},{"fullUrl":"https://madie.cms.gov/MeasureReport/d42da1f3-1208-4487-8400-6e3ad44c8b2d","resource":{"resourceType":"MeasureReport","id":"d42da1f3-1208-4487-8400-6e3ad44c8b2d","meta":{"profile":["http://hl7.org/fhir/us/cqfmeasures/StructureDefinition/test-case-cqfm"]},"contained":[{"resourceType":"Parameters","id":"53b6bc7d-740f-40df-b5d2-9d1089e2e5d1-parameters","parameter":[{"name":"subject","valueString":"8f0e795e-1f12-4389-91b8-e50036da96d0"}]}],"extension":[{"url":"http://hl7.org/fhir/StructureDefinition/cqf-inputParameters","valueReference":{"reference":"#53b6bc7d-740f-40df-b5d2-9d1089e2e5d1-parameters"}},{"url":"http://hl7.org/fhir/us/cqfmeasures/StructureDefinition/cqfm-testCaseDescription","valueMarkdown":"RV Encounters that return the first Systolic Blood Pressure"}],"modifierExtension":[{"url":"http://hl7.org/fhir/us/cqfmeasures/StructureDefinition/cqfm-isTestCase","valueBoolean":true}],"status":"complete","type":"individual","measure":"https://madie.cms.gov/Measure/CMS832HHAKIFHIR","period":{"start":"2026-01-01","end":"2026-12-31"},"group":[{"id":"Group_1","population":[{"id":"InitialPopulation_1","code":{"coding":[{"system":"http://terminology.hl7.org/CodeSystem/measure-population","code":"initial-population","display":"Initial Population"}]},"count":1},{"id":"Denominator_1","code":{"coding":[{"system":"http://terminology.hl7.org/CodeSystem/measure-population","code":"denominator","display":"Denominator"}]},"count":1},{"id":"DenominatorExclusion_1","code":{"coding":[{"system":"http://terminology.hl7.org/CodeSystem/measure-population","code":"denominator-exclusion","display":"Denominator Exclusion"}]},"count":1},{"id":"Numerator_1","code":{"coding":[{"system":"http://terminology.hl7.org/CodeSystem/measure-population","code":"numerator","display":"Numerator"}]},"count":0}],"measureScore":{"value":0.0}}],"evaluatedResource":[{"reference":"Patient/8f0e795e-1f12-4389-91b8-e50036da96d0"},{"reference":"Encounter/4008cfac-b432-40ff-8fae-728b2bf1b8ac"},{"reference":"Encounter/f84acc8c-cfb5-4f97-bb18-871dcbc226f8"},{"reference":"Observation/ad88b48e-210b-438c-bbfd-ff46fb384853"},{"reference":"Observation/6cca7478-d1ee-4910-8999-6d23a6227b7f"},{"reference":"Condition/8c8a0482-a343-4f10-b69a-1079da9c078f"},{"reference":"Observation/fa4e0fb0-2695-4917-9125-b3be304d63d5"},{"reference":"Observation/7731cff5-6177-457e-84d4-3fd197aacef4"}]},"request":{"method":"PUT","url":"MeasureReport/d42da1f3-1208-4487-8400-6e3ad44c8b2d"}}]},"request":{"method":"PUT","url":"Bundle/tests-RVwithSysBP"}},{"resource":{"resourceType":"Observation","id":"6cca7478-d1ee-4910-8999-6d23a6227b7f","meta":{"profile":["http://hl7.org/fhir/us/qicore/StructureDefinition/qicore-observation-lab"]},"status":"final","category":[{"coding":[{"system":"http://terminology.hl7.org/CodeSystem/observation-category","code":"laboratory","display":"Laboratory"}]}],"code":{"coding":[{"system":"http://loinc.org","code":"21232-4","display":"Creatinine [Mass/volume] in Serum or Plasma"}]},"subject":{"reference":"Patient/8f0e795e-1f12-4389-91b8-e50036da96d0"},"effectiveDateTime":"2026-10-01T07:00:00.000+00:00","valueQuantity":{"value":0.91,"unit":"mg/dL","system":"http://unitsofmeasure.org","code":"mg/dL"}},"request":{"method":"PUT","url":"Observation/6cca7478-d1ee-4910-8999-6d23a6227b7f"}},{"resource":{"resourceType":"Encounter","id":"f84acc8c-cfb5-4f97-bb18-871dcbc226f8","meta":{"profile":["http://hl7.org/fhir/us/qicore/StructureDefinition/qicore-encounter"]},"status":"finished","class":{"system":"http://terminology.hl7.org/CodeSystem/v3-ActCode","code":"IMP","display":"inpatient encounter"},"type":[{"coding":[{"system":"http://snomed.info/sct","code":"183452005","display":"Emergency hospital admission (procedure)"}]}],"subject":{"reference":"Patient/8f0e795e-1f12-4389-91b8-e50036da96d0"},"period":{"start":"2026-09-29T20:01:00.000+00:00","end":"2026-10-03T20:00:00.000+00:00"},"reasonReference":[{"reference":"Condition/8c8a0482-a343-4f10-b69a-1079da9c078f"}]},"request":{"method":"PUT","url":"Encounter/f84acc8c-cfb5-4f97-bb18-871dcbc226f8"}},{"resource":{"resourceType":"MeasureReport","id":"d42da1f3-1208-4487-8400-6e3ad44c8b2d","meta":{"profile":["http://hl7.org/fhir/us/cqfmeasures/StructureDefinition/test-case-cqfm"]},"contained":[{"resourceType":"Parameters","id":"53b6bc7d-740f-40df-b5d2-9d1089e2e5d1-parameters","parameter":[{"name":"subject","valueString":"8f0e795e-1f12-4389-91b8-e50036da96d0"}]}],"extension":[{"url":"http://hl7.org/fhir/StructureDefinition/cqf-inputParameters","valueReference":{"reference":"#53b6bc7d-740f-40df-b5d2-9d1089e2e5d1-parameters"}},{"url":"http://hl7.org/fhir/us/cqfmeasures/StructureDefinition/cqfm-testCaseDescription","valueMarkdown":"RV Encounters that return the first Systolic Blood Pressure"}],"modifierExtension":[{"url":"http://hl7.org/fhir/us/cqfmeasures/StructureDefinition/cqfm-isTestCase","valueBoolean":true}],"status":"complete","type":"individual","measure":"https://madie.cms.gov/Measure/CMS832HHAKIFHIR","period":{"start":"2026-01-01","end":"2026-12-31"},"group":[{"id":"Group_1","population":[{"id":"InitialPopulation_1","code":{"coding":[{"system":"http://terminology.hl7.org/CodeSystem/measure-population","code":"initial-population","display":"Initial Population"}]},"count":1},{"id":"Denominator_1","code":{"coding":[{"system":"http://terminology.hl7.org/CodeSystem/measure-population","code":"denominator","display":"Denominator"}]},"count":1},{"id":"DenominatorExclusion_1","code":{"coding":[{"system":"http://terminology.hl7.org/CodeSystem/measure-population","code":"denominator-exclusion","display":"Denominator Exclusion"}]},"count":1},{"id":"Numerator_1","code":{"coding":[{"system":"http://terminology.hl7.org/CodeSystem/measure-population","code":"numerator","display":"Numerator"}]},"count":0}],"measureScore":{"value":0.0}}],"evaluatedResource":[{"reference":"Patient/8f0e795e-1f12-4389-91b8-e50036da96d0"},{"reference":"Encounter/4008cfac-b432-40ff-8fae-728b2bf1b8ac"},{"reference":"Encounter/f84acc8c-cfb5-4f97-bb18-871dcbc226f8"},{"reference":"Observation/ad88b48e-210b-438c-bbfd-ff46fb384853"},{"reference":"Observation/6cca7478-d1ee-4910-8999-6d23a6227b7f"},{"reference":"Condition/8c8a0482-a343-4f10-b69a-1079da9c078f"},{"reference":"Observation/fa4e0fb0-2695-4917-9125-b3be304d63d5"},{"reference":"Observation/7731cff5-6177-457e-84d4-3fd197aacef4"}]},"request":{"method":"PUT","url":"MeasureReport/d42da1f3-1208-4487-8400-6e3ad44c8b2d"}},{"resource":{"resourceType":"Encounter","id":"4008cfac-b432-40ff-8fae-728b2bf1b8ac","meta":{"profile":["http://hl7.org/fhir/us/qicore/StructureDefinition/qicore-encounter"]},"status":"finished","class":{"system":"http://terminology.hl7.org/CodeSystem/v3-ActCode","code":"EMER","display":"emergency"},"type":[{"coding":[{"system":"http://snomed.info/sct","code":"4525004","display":"Emergency department patient visit (procedure)"}]}],"subject":{"reference":"Patient/8f0e795e-1f12-4389-91b8-e50036da96d0"},"period":{"start":"2026-09-29T08:00:00.000+00:00","end":"2026-09-29T20:00:00.000+00:00"}},"request":{"method":"PUT","url":"Encounter/4008cfac-b432-40ff-8fae-728b2bf1b8ac"}},{"resource":{"resourceType":"Observation","id":"fa4e0fb0-2695-4917-9125-b3be304d63d5","meta":{"profile":["http://hl7.org/fhir/us/qicore/StructureDefinition/qicore-observation-lab"]},"status":"final","category":[{"coding":[{"system":"http://terminology.hl7.org/CodeSystem/observation-category","code":"laboratory","display":"Laboratory"}]}],"code":{"coding":[{"system":"http://loinc.org","code":"21232-4","display":"Creatinine [Mass/volume] in Serum or Plasma"}]},"subject":{"reference":"Patient/8f0e795e-1f12-4389-91b8-e50036da96d0"},"effectiveDateTime":"2026-10-01T07:35:00.000+00:00","valueQuantity":{"value":0.91,"unit":"mg/dL","system":"http://unitsofmeasure.org","code":"mg/dL"}},"request":{"method":"PUT","url":"Observation/fa4e0fb0-2695-4917-9125-b3be304d63d5"}},{"resource":{"resourceType":"Observation","id":"ad88b48e-210b-438c-bbfd-ff46fb384853","meta":{"profile":["http://hl7.org/fhir/us/qicore/StructureDefinition/qicore-observation-lab"]},"status":"final","category":[{"coding":[{"system":"http://terminology.hl7.org/CodeSystem/observation-category","code":"laboratory","display":"Laboratory"}]}],"code":{"coding":[{"system":"http://loinc.org","code":"21232-4","display":"Creatinine [Mass/volume] in Serum or Plasma"}]},"subject":{"reference":"Patient/8f0e795e-1f12-4389-91b8-e50036da96d0"},"effectiveDateTime":"2026-10-01T08:01:00.000+00:00","valueQuantity":{"value":0.9,"unit":"mg/dL","system":"http://unitsofmeasure.org","code":"mg/dL"}},"request":{"method":"PUT","url":"Observation/ad88b48e-210b-438c-bbfd-ff46fb384853"}},{"resource":{"resourceType":"Condition","id":"8c8a0482-a343-4f10-b69a-1079da9c078f","meta":{"profile":["http://hl7.org/fhir/us/qicore/StructureDefinition/qicore-condition-encounter-diagnosis"]},"clinicalStatus":{"coding":[{"system":"http://terminology.hl7.org/CodeSystem/condition-clinical","code":"active","display":"Active"}]},"verificationStatus":{"coding":[{"system":"http://terminology.hl7.org/CodeSystem/condition-ver-status","code":"confirmed","display":"Confirmed"}]},"code":{"coding":[{"system":"http://hl7.org/fhir/sid/icd-10-cm","code":"S37.061A","display":"Major laceration of right kidney, initial encounter"}],"text":"Major laceration of right kidney, initial encounter"},"subject":{"reference":"Patient/8f0e795e-1f12-4389-91b8-e50036da96d0"},"encounter":{"reference":"Encounter/f84acc8c-cfb5-4f97-bb18-871dcbc226f8"}},"request":{"method":"PUT","url":"Condition/8c8a0482-a343-4f10-b69a-1079da9c078f"}}]}