{"resourceType":"Bundle","id":"tests-9baac6c5-1826-4c06-a4a4-6ef5bfda76ba-bundle","type":"transaction","entry":[{"resource":{"resourceType":"Observation","id":"6dde80c7-6efa-4cb1-8854-a0079ce67938","meta":{"profile":["http://hl7.org/fhir/us/qicore/StructureDefinition/qicore-observation-lab"]},"status":"final","category":[{"coding":[{"system":"http://terminology.hl7.org/CodeSystem/observation-category","code":"laboratory","display":"Laboratory"}]}],"code":{"coding":[{"system":"http://loinc.org","version":"2.72","code":"2160-0","display":"Creatinine [Mass/volume] in Serum or Plasma","userSelected":true}]},"subject":{"reference":"Patient/9baac6c5-1826-4c06-a4a4-6ef5bfda76ba"},"effectiveDateTime":"2026-10-02T08:00:00.000+00:00","issued":"2026-10-02T08:30:00.000+00:00","valueQuantity":{"value":1.1,"unit":"mg/dL","system":"http://unitsofmeasure.org","code":"mg/dL"}},"request":{"method":"PUT","url":"Observation/6dde80c7-6efa-4cb1-8854-a0079ce67938"}},{"resource":{"resourceType":"MeasureReport","id":"8f51086f-eac8-4bd0-baf2-54e9601ae415","meta":{"profile":["http://hl7.org/fhir/us/cqfmeasures/StructureDefinition/test-case-cqfm"]},"contained":[{"resourceType":"Parameters","id":"2ca97858-8e5d-4ca9-825b-6a168c07076a-parameters","parameter":[{"name":"subject","valueString":"9baac6c5-1826-4c06-a4a4-6ef5bfda76ba"}]}],"extension":[{"url":"http://hl7.org/fhir/StructureDefinition/cqf-inputParameters","valueReference":{"reference":"#2ca97858-8e5d-4ca9-825b-6a168c07076a-parameters"}},{"url":"http://hl7.org/fhir/us/cqfmeasures/StructureDefinition/cqfm-testCaseDescription","valueMarkdown":"2TimeIncreaseInCreatUseRelevantPeriod FEMALE\nVScode: Numerator=[Encounter(id=NUMERPass-SCrIncrease2x-02)]\n"}],"modifierExtension":[{"url":"http://hl7.org/fhir/us/cqfmeasures/StructureDefinition/cqfm-isTestCase","valueBoolean":true}],"status":"complete","type":"individual","measure":"https://madie.cms.gov/Measure/CMS832HHAKIFHIR","period":{"start":"2026-01-01","end":"2026-12-31"},"group":[{"id":"Group_1","population":[{"id":"InitialPopulation_1","code":{"coding":[{"system":"http://terminology.hl7.org/CodeSystem/measure-population","code":"initial-population","display":"Initial Population"}]},"count":1},{"id":"Denominator_1","code":{"coding":[{"system":"http://terminology.hl7.org/CodeSystem/measure-population","code":"denominator","display":"Denominator"}]},"count":1},{"id":"DenominatorExclusion_1","code":{"coding":[{"system":"http://terminology.hl7.org/CodeSystem/measure-population","code":"denominator-exclusion","display":"Denominator Exclusion"}]},"count":0},{"id":"Numerator_1","code":{"coding":[{"system":"http://terminology.hl7.org/CodeSystem/measure-population","code":"numerator","display":"Numerator"}]},"count":1}],"measureScore":{"value":0.0}}],"evaluatedResource":[{"reference":"Encounter/20e40d93-2ba3-4655-a5cd-c92f083762b8"},{"reference":"Organization/71bb58b2-6c25-44d7-bc8d-17dcd23b80f0"},{"reference":"Observation/6dde80c7-6efa-4cb1-8854-a0079ce67938"},{"reference":"Encounter/1bab52a7-6974-4965-af43-49a94c830540"},{"reference":"MeasureReport/a876cf5c-843f-47a7-b677-b4748a79a6cb"},{"reference":"Observation/84dd3b27-bccc-4774-aeaa-09b68f68e771"},{"reference":"Observation/2612aaa9-b237-4b8c-a143-b25e46fb9897"},{"reference":"Observation/878b6489-f2e5-4c68-93f1-32d33815c344"},{"reference":"Coverage/0522e9b5-93b0-430a-870e-2117d29dc53f"},{"reference":"Patient/9baac6c5-1826-4c06-a4a4-6ef5bfda76ba"}]},"request":{"method":"PUT","url":"MeasureReport/8f51086f-eac8-4bd0-baf2-54e9601ae415"}},{"resource":{"resourceType":"Observation","id":"84dd3b27-bccc-4774-aeaa-09b68f68e771","meta":{"profile":["http://hl7.org/fhir/us/qicore/StructureDefinition/qicore-observation-lab"]},"status":"final","category":[{"coding":[{"system":"http://terminology.hl7.org/CodeSystem/observation-category","code":"laboratory","display":"Laboratory"}]}],"code":{"coding":[{"system":"http://loinc.org","version":"2.72","code":"2160-0","display":"Creatinine [Mass/volume] in Serum or Plasma","userSelected":true}]},"subject":{"reference":"Patient/9baac6c5-1826-4c06-a4a4-6ef5bfda76ba"},"effectiveDateTime":"2026-09-30T09:00:00.000+00:00","issued":"2026-09-30T09:30:00.000+00:00","valueQuantity":{"value":1.1,"unit":"mg/dL","system":"http://unitsofmeasure.org","code":"mg/dL"}},"request":{"method":"PUT","url":"Observation/84dd3b27-bccc-4774-aeaa-09b68f68e771"}},{"resource":{"resourceType":"MeasureReport","id":"a876cf5c-843f-47a7-b677-b4748a79a6cb","meta":{"profile":["http://hl7.org/fhir/us/cqfmeasures/StructureDefinition/test-case-cqfm"]},"contained":[{"resourceType":"Parameters","id":"e6a29411-8a79-446d-8a62-babe939e0b30-parameters","parameter":[{"name":"subject","valueString":"9baac6c5-1826-4c06-a4a4-6ef5bfda76ba"}]}],"extension":[{"url":"http://hl7.org/fhir/us/cqfmeasures/StructureDefinition/cqfm-inputParameters","valueReference":{"reference":"#e6a29411-8a79-446d-8a62-babe939e0b30-parameters"}},{"url":"http://hl7.org/fhir/us/cqfmeasures/StructureDefinition/cqfm-testCaseDescription","valueMarkdown":"2TimeIncreaseInCreatUseRelevantPeriod FEMALE\nVScode: Numerator=[Encounter(id=NUMERPass-SCrIncrease2x-02)]"}],"modifierExtension":[{"url":"http://hl7.org/fhir/us/cqfmeasures/StructureDefinition/cqfm-isTestCase","valueBoolean":true}],"status":"complete","type":"individual","measure":"https://madie.cms.gov/Measure/CMS832HHAKIFHIR","period":{"start":"2026-01-01","end":"2026-12-31"},"group":[{"id":"67b50f879214df46de2f1fdb","population":[{"id":"DA0D3694-7F57-4FB9-8410-1F64E44CA01E","code":{"coding":[{"system":"http://terminology.hl7.org/CodeSystem/measure-population","code":"initial-population","display":"Initial Population"}]},"count":1},{"id":"624D8554-9CB0-4BF0-882D-05C4F88BCC2C","code":{"coding":[{"system":"http://terminology.hl7.org/CodeSystem/measure-population","code":"denominator","display":"Denominator"}]},"count":1},{"id":"000FF050-D4A2-4C8B-8123-4538D35D5441","code":{"coding":[{"system":"http://terminology.hl7.org/CodeSystem/measure-population","code":"denominator-exclusion","display":"Denominator Exclusion"}]},"count":0},{"id":"01644D07-D9F8-403E-A66D-109ABA29BB6E","code":{"coding":[{"system":"http://terminology.hl7.org/CodeSystem/measure-population","code":"numerator","display":"Numerator"}]},"count":1}],"measureScore":{"value":0}}],"evaluatedResource":[{"reference":"Patient/9baac6c5-1826-4c06-a4a4-6ef5bfda76ba"},{"reference":"Encounter/20e40d93-2ba3-4655-a5cd-c92f083762b8"},{"reference":"Encounter/1bab52a7-6974-4965-af43-49a94c830540"},{"reference":"Observation/84dd3b27-bccc-4774-aeaa-09b68f68e771"},{"reference":"Observation/878b6489-f2e5-4c68-93f1-32d33815c344"},{"reference":"Observation/6dde80c7-6efa-4cb1-8854-a0079ce67938"},{"reference":"Observation/2612aaa9-b237-4b8c-a143-b25e46fb9897"},{"reference":"Coverage/0522e9b5-93b0-430a-870e-2117d29dc53f"},{"reference":"Organization/71bb58b2-6c25-44d7-bc8d-17dcd23b80f0"}]},"request":{"method":"PUT","url":"MeasureReport/a876cf5c-843f-47a7-b677-b4748a79a6cb"}},{"resource":{"resourceType":"Observation","id":"2612aaa9-b237-4b8c-a143-b25e46fb9897","meta":{"profile":["http://hl7.org/fhir/us/qicore/StructureDefinition/qicore-observation-lab"]},"status":"final","category":[{"coding":[{"system":"http://terminology.hl7.org/CodeSystem/observation-category","code":"laboratory","display":"Laboratory"}]}],"code":{"coding":[{"system":"http://loinc.org","code":"2160-0","display":"Creatinine [Mass/volume] in Serum or Plasma"}]},"subject":{"reference":"Patient/9baac6c5-1826-4c06-a4a4-6ef5bfda76ba"},"effectiveDateTime":"2026-10-03T08:00:00.000+00:00","issued":"2026-10-03T08:30:00.000+00:00","valueQuantity":{"value":2.2,"unit":"mg/dL","system":"http://unitsofmeasure.org","code":"mg/dL"}},"request":{"method":"PUT","url":"Observation/2612aaa9-b237-4b8c-a143-b25e46fb9897"}},{"resource":{"resourceType":"Organization","id":"71bb58b2-6c25-44d7-bc8d-17dcd23b80f0","meta":{"profile":["http://hl7.org/fhir/us/qicore/StructureDefinition/qicore-organization"]},"identifier":[{"use":"temp","system":"urn:oid:2.16.840.1.113883.4.4","value":"21-3259825"}],"active":true,"type":[{"coding":[{"system":"http://terminology.hl7.org/CodeSystem/organization-type","code":"pay","display":"Payer"}]}],"name":"Blue Cross Blue Shield of Texas","telecom":[{"system":"phone","value":"(+1) 972-766-6900"}],"address":[{"use":"billing","type":"postal","line":["P.O. Box 660044"],"city":"Dallas","state":"TX","postalCode":"75266-0044","country":"USA"}]},"request":{"method":"PUT","url":"Organization/71bb58b2-6c25-44d7-bc8d-17dcd23b80f0"}},{"resource":{"resourceType":"Observation","id":"878b6489-f2e5-4c68-93f1-32d33815c344","meta":{"profile":["http://hl7.org/fhir/us/qicore/StructureDefinition/qicore-observation-lab"]},"status":"final","category":[{"coding":[{"system":"http://terminology.hl7.org/CodeSystem/observation-category","code":"laboratory","display":"Laboratory"}]}],"code":{"coding":[{"system":"http://loinc.org","version":"2.72","code":"2160-0","display":"Creatinine [Mass/volume] in Serum or Plasma","userSelected":true}]},"subject":{"reference":"Patient/9baac6c5-1826-4c06-a4a4-6ef5bfda76ba"},"effectiveDateTime":"2026-09-30T08:00:00.000+00:00","issued":"2026-09-30T08:30:00.000+00:00","valueQuantity":{"value":1,"unit":"mg/dL","system":"http://unitsofmeasure.org","code":"mg/dL"}},"request":{"method":"PUT","url":"Observation/878b6489-f2e5-4c68-93f1-32d33815c344"}},{"resource":{"resourceType":"Encounter","id":"1bab52a7-6974-4965-af43-49a94c830540","meta":{"profile":["http://hl7.org/fhir/us/qicore/StructureDefinition/qicore-encounter"]},"status":"finished","class":{"system":"http://terminology.hl7.org/CodeSystem/v3-ActCode","code":"IMP","display":"inpatient encounter"},"type":[{"coding":[{"system":"http://snomed.info/sct","code":"183452005"}]}],"subject":{"reference":"Patient/9baac6c5-1826-4c06-a4a4-6ef5bfda76ba"},"period":{"start":"2026-09-29T20:00:00.000+00:00","end":"2026-10-04T08:15:00.000+00:00"}},"request":{"method":"PUT","url":"Encounter/1bab52a7-6974-4965-af43-49a94c830540"}},{"resource":{"resourceType":"Coverage","id":"0522e9b5-93b0-430a-870e-2117d29dc53f","meta":{"profile":["http://hl7.org/fhir/us/qicore/StructureDefinition/qicore-coverage"]},"status":"active","type":{"coding":[{"system":"https://nahdo.org/sopt","version":"9.2","code":"211","display":"Medicaid HMO"}]},"beneficiary":{"reference":"Patient/9baac6c5-1826-4c06-a4a4-6ef5bfda76ba"},"period":{"start":"2024-12-01T00:00:00.000+00:00"},"payor":[{"reference":"Organization/71bb58b2-6c25-44d7-bc8d-17dcd23b80f0"}]},"request":{"method":"PUT","url":"Coverage/0522e9b5-93b0-430a-870e-2117d29dc53f"}},{"resource":{"resourceType":"Patient","id":"9baac6c5-1826-4c06-a4a4-6ef5bfda76ba","meta":{"profile":["http://hl7.org/fhir/us/qicore/StructureDefinition/qicore-patient"]},"text":{"status":"generated","div":"<div xmlns=\"http://www.w3.org/1999/xhtml\"><div class=\"hapiHeaderText\">Turns 18 day of Encounter <b>NUMERPass </b></div><table class=\"hapiPropertyTable\"><tbody><tr><td>Identifier</td><td>f0eda1c9668fdacdcad3378589bf6e0a71e7dec1618f14fca4d442ec96e402b1</td></tr><tr><td>Date of birth</td><td><span>29 September 2006</span></td></tr></tbody></table></div>"},"extension":[{"url":"http://hl7.org/fhir/us/core/StructureDefinition/us-core-race","extension":[{"url":"ombCategory","valueCoding":{"system":"urn:oid:2.16.840.1.113883.6.238","code":"1002-5","display":"American Indian or Alaska Native","userSelected":true}},{"url":"text","valueString":"American Indian or Alaska Native"}]},{"url":"http://hl7.org/fhir/us/core/StructureDefinition/us-core-ethnicity","extension":[{"url":"ombCategory","valueCoding":{"system":"urn:oid:2.16.840.1.113883.6.238","code":"2135-2","display":"Hispanic or Latino","userSelected":true}},{"url":"text","valueString":"Hispanic or Latino"}]},{"url":"http://hl7.org/fhir/us/core/StructureDefinition/us-core-sex","valueCode":"248152002"}],"identifier":[{"type":{"coding":[{"system":"http://terminology.hl7.org/CodeSystem/v2-0203","code":"MR"}]},"system":"http://bonnie-fhir.healthit.gov/","value":"NUMERPass-SCrIncrease2x"}],"active":true,"name":[{"use":"usual","family":"NUMERPass","given":["SCrIncrease2x"]}],"gender":"female","birthDate":"1983-10-10"},"request":{"method":"PUT","url":"Patient/9baac6c5-1826-4c06-a4a4-6ef5bfda76ba"}},{"resource":{"resourceType":"Bundle","id":"tests-9baac6c5-1826-4c06-a4a4-6ef5bfda76ba-bundle","type":"transaction","entry":[{"fullUrl":"https://madie.cms.gov/Encounter/20e40d93-2ba3-4655-a5cd-c92f083762b8","resource":{"resourceType":"Encounter","id":"20e40d93-2ba3-4655-a5cd-c92f083762b8","meta":{"profile":["http://hl7.org/fhir/us/qicore/StructureDefinition/qicore-encounter"]},"status":"finished","class":{"system":"http://terminology.hl7.org/CodeSystem/v3-ActCode","code":"EMER","display":"emergency"},"type":[{"coding":[{"system":"http://snomed.info/sct","code":"4525004"}]}],"subject":{"reference":"Patient/9baac6c5-1826-4c06-a4a4-6ef5bfda76ba"},"period":{"start":"2026-09-29T08:00:00.000+00:00","end":"2026-09-30T20:00:00.000+00:00"}},"request":{"method":"PUT","url":"Encounter/20e40d93-2ba3-4655-a5cd-c92f083762b8"}},{"fullUrl":"https://madie.cms.gov/Organization/71bb58b2-6c25-44d7-bc8d-17dcd23b80f0","resource":{"resourceType":"Organization","id":"71bb58b2-6c25-44d7-bc8d-17dcd23b80f0","meta":{"profile":["http://hl7.org/fhir/us/qicore/StructureDefinition/qicore-organization"]},"identifier":[{"use":"temp","system":"urn:oid:2.16.840.1.113883.4.4","value":"21-3259825"}],"active":true,"type":[{"coding":[{"system":"http://terminology.hl7.org/CodeSystem/organization-type","code":"pay","display":"Payer"}]}],"name":"Blue Cross Blue Shield of Texas","telecom":[{"system":"phone","value":"(+1) 972-766-6900"}],"address":[{"use":"billing","type":"postal","line":["P.O. Box 660044"],"city":"Dallas","state":"TX","postalCode":"75266-0044","country":"USA"}]},"request":{"method":"PUT","url":"Organization/71bb58b2-6c25-44d7-bc8d-17dcd23b80f0"}},{"fullUrl":"https://madie.cms.gov/Observation/6dde80c7-6efa-4cb1-8854-a0079ce67938","resource":{"resourceType":"Observation","id":"6dde80c7-6efa-4cb1-8854-a0079ce67938","meta":{"profile":["http://hl7.org/fhir/us/qicore/StructureDefinition/qicore-observation-lab"]},"status":"final","category":[{"coding":[{"system":"http://terminology.hl7.org/CodeSystem/observation-category","code":"laboratory","display":"Laboratory"}]}],"code":{"coding":[{"system":"http://loinc.org","version":"2.72","code":"2160-0","display":"Creatinine [Mass/volume] in Serum or Plasma","userSelected":true}]},"subject":{"reference":"Patient/9baac6c5-1826-4c06-a4a4-6ef5bfda76ba"},"effectiveDateTime":"2026-10-02T08:00:00.000+00:00","issued":"2026-10-02T08:30:00.000+00:00","valueQuantity":{"value":1.1,"unit":"mg/dL","system":"http://unitsofmeasure.org","code":"mg/dL"}},"request":{"method":"PUT","url":"Observation/6dde80c7-6efa-4cb1-8854-a0079ce67938"}},{"fullUrl":"https://madie.cms.gov/Encounter/1bab52a7-6974-4965-af43-49a94c830540","resource":{"resourceType":"Encounter","id":"1bab52a7-6974-4965-af43-49a94c830540","meta":{"profile":["http://hl7.org/fhir/us/qicore/StructureDefinition/qicore-encounter"]},"status":"finished","class":{"system":"http://terminology.hl7.org/CodeSystem/v3-ActCode","code":"IMP","display":"inpatient encounter"},"type":[{"coding":[{"system":"http://snomed.info/sct","code":"183452005"}]}],"subject":{"reference":"Patient/9baac6c5-1826-4c06-a4a4-6ef5bfda76ba"},"period":{"start":"2026-09-29T20:00:00.000+00:00","end":"2026-10-04T08:15:00.000+00:00"}},"request":{"method":"PUT","url":"Encounter/1bab52a7-6974-4965-af43-49a94c830540"}},{"fullUrl":"https://madie.cms.gov/MeasureReport/a876cf5c-843f-47a7-b677-b4748a79a6cb","resource":{"resourceType":"MeasureReport","id":"a876cf5c-843f-47a7-b677-b4748a79a6cb","meta":{"profile":["http://hl7.org/fhir/us/cqfmeasures/StructureDefinition/test-case-cqfm"]},"contained":[{"resourceType":"Parameters","id":"e6a29411-8a79-446d-8a62-babe939e0b30-parameters","parameter":[{"name":"subject","valueString":"9baac6c5-1826-4c06-a4a4-6ef5bfda76ba"}]}],"extension":[{"url":"http://hl7.org/fhir/us/cqfmeasures/StructureDefinition/cqfm-inputParameters","valueReference":{"reference":"#e6a29411-8a79-446d-8a62-babe939e0b30-parameters"}},{"url":"http://hl7.org/fhir/us/cqfmeasures/StructureDefinition/cqfm-testCaseDescription","valueMarkdown":"2TimeIncreaseInCreatUseRelevantPeriod FEMALE\nVScode: Numerator=[Encounter(id=NUMERPass-SCrIncrease2x-02)]"}],"modifierExtension":[{"url":"http://hl7.org/fhir/us/cqfmeasures/StructureDefinition/cqfm-isTestCase","valueBoolean":true}],"status":"complete","type":"individual","measure":"https://madie.cms.gov/Measure/CMS832HHAKIFHIR","period":{"start":"2026-01-01","end":"2026-12-31"},"group":[{"id":"67b50f879214df46de2f1fdb","population":[{"id":"DA0D3694-7F57-4FB9-8410-1F64E44CA01E","code":{"coding":[{"system":"http://terminology.hl7.org/CodeSystem/measure-population","code":"initial-population","display":"Initial Population"}]},"count":1},{"id":"624D8554-9CB0-4BF0-882D-05C4F88BCC2C","code":{"coding":[{"system":"http://terminology.hl7.org/CodeSystem/measure-population","code":"denominator","display":"Denominator"}]},"count":1},{"id":"000FF050-D4A2-4C8B-8123-4538D35D5441","code":{"coding":[{"system":"http://terminology.hl7.org/CodeSystem/measure-population","code":"denominator-exclusion","display":"Denominator Exclusion"}]},"count":0},{"id":"01644D07-D9F8-403E-A66D-109ABA29BB6E","code":{"coding":[{"system":"http://terminology.hl7.org/CodeSystem/measure-population","code":"numerator","display":"Numerator"}]},"count":1}],"measureScore":{"value":0}}],"evaluatedResource":[{"reference":"Patient/9baac6c5-1826-4c06-a4a4-6ef5bfda76ba"},{"reference":"Encounter/20e40d93-2ba3-4655-a5cd-c92f083762b8"},{"reference":"Encounter/1bab52a7-6974-4965-af43-49a94c830540"},{"reference":"Observation/84dd3b27-bccc-4774-aeaa-09b68f68e771"},{"reference":"Observation/878b6489-f2e5-4c68-93f1-32d33815c344"},{"reference":"Observation/6dde80c7-6efa-4cb1-8854-a0079ce67938"},{"reference":"Observation/2612aaa9-b237-4b8c-a143-b25e46fb9897"},{"reference":"Coverage/0522e9b5-93b0-430a-870e-2117d29dc53f"},{"reference":"Organization/71bb58b2-6c25-44d7-bc8d-17dcd23b80f0"}]},"request":{"method":"PUT","url":"MeasureReport/a876cf5c-843f-47a7-b677-b4748a79a6cb"}},{"fullUrl":"https://madie.cms.gov/Observation/84dd3b27-bccc-4774-aeaa-09b68f68e771","resource":{"resourceType":"Observation","id":"84dd3b27-bccc-4774-aeaa-09b68f68e771","meta":{"profile":["http://hl7.org/fhir/us/qicore/StructureDefinition/qicore-observation-lab"]},"status":"final","category":[{"coding":[{"system":"http://terminology.hl7.org/CodeSystem/observation-category","code":"laboratory","display":"Laboratory"}]}],"code":{"coding":[{"system":"http://loinc.org","version":"2.72","code":"2160-0","display":"Creatinine [Mass/volume] in Serum or Plasma","userSelected":true}]},"subject":{"reference":"Patient/9baac6c5-1826-4c06-a4a4-6ef5bfda76ba"},"effectiveDateTime":"2026-09-30T09:00:00.000+00:00","issued":"2026-09-30T09:30:00.000+00:00","valueQuantity":{"value":1.1,"unit":"mg/dL","system":"http://unitsofmeasure.org","code":"mg/dL"}},"request":{"method":"PUT","url":"Observation/84dd3b27-bccc-4774-aeaa-09b68f68e771"}},{"fullUrl":"https://madie.cms.gov/Observation/2612aaa9-b237-4b8c-a143-b25e46fb9897","resource":{"resourceType":"Observation","id":"2612aaa9-b237-4b8c-a143-b25e46fb9897","meta":{"profile":["http://hl7.org/fhir/us/qicore/StructureDefinition/qicore-observation-lab"]},"status":"final","category":[{"coding":[{"system":"http://terminology.hl7.org/CodeSystem/observation-category","code":"laboratory","display":"Laboratory"}]}],"code":{"coding":[{"system":"http://loinc.org","code":"2160-0","display":"Creatinine [Mass/volume] in Serum or Plasma"}]},"subject":{"reference":"Patient/9baac6c5-1826-4c06-a4a4-6ef5bfda76ba"},"effectiveDateTime":"2026-10-03T08:00:00.000+00:00","issued":"2026-10-03T08:30:00.000+00:00","valueQuantity":{"value":2.2,"unit":"mg/dL","system":"http://unitsofmeasure.org","code":"mg/dL"}},"request":{"method":"PUT","url":"Observation/2612aaa9-b237-4b8c-a143-b25e46fb9897"}},{"fullUrl":"https://madie.cms.gov/Observation/878b6489-f2e5-4c68-93f1-32d33815c344","resource":{"resourceType":"Observation","id":"878b6489-f2e5-4c68-93f1-32d33815c344","meta":{"profile":["http://hl7.org/fhir/us/qicore/StructureDefinition/qicore-observation-lab"]},"status":"final","category":[{"coding":[{"system":"http://terminology.hl7.org/CodeSystem/observation-category","code":"laboratory","display":"Laboratory"}]}],"code":{"coding":[{"system":"http://loinc.org","version":"2.72","code":"2160-0","display":"Creatinine [Mass/volume] in Serum or Plasma","userSelected":true}]},"subject":{"reference":"Patient/9baac6c5-1826-4c06-a4a4-6ef5bfda76ba"},"effectiveDateTime":"2026-09-30T08:00:00.000+00:00","issued":"2026-09-30T08:30:00.000+00:00","valueQuantity":{"value":1,"unit":"mg/dL","system":"http://unitsofmeasure.org","code":"mg/dL"}},"request":{"method":"PUT","url":"Observation/878b6489-f2e5-4c68-93f1-32d33815c344"}},{"fullUrl":"https://madie.cms.gov/Coverage/0522e9b5-93b0-430a-870e-2117d29dc53f","resource":{"resourceType":"Coverage","id":"0522e9b5-93b0-430a-870e-2117d29dc53f","meta":{"profile":["http://hl7.org/fhir/us/qicore/StructureDefinition/qicore-coverage"]},"status":"active","type":{"coding":[{"system":"https://nahdo.org/sopt","version":"9.2","code":"211","display":"Medicaid HMO"}]},"beneficiary":{"reference":"Patient/9baac6c5-1826-4c06-a4a4-6ef5bfda76ba"},"period":{"start":"2024-12-01T00:00:00.000+00:00"},"payor":[{"reference":"Organization/71bb58b2-6c25-44d7-bc8d-17dcd23b80f0"}]},"request":{"method":"PUT","url":"Coverage/0522e9b5-93b0-430a-870e-2117d29dc53f"}},{"fullUrl":"https://madie.cms.gov/Patient/9baac6c5-1826-4c06-a4a4-6ef5bfda76ba","resource":{"resourceType":"Patient","id":"9baac6c5-1826-4c06-a4a4-6ef5bfda76ba","meta":{"profile":["http://hl7.org/fhir/us/qicore/StructureDefinition/qicore-patient"]},"text":{"status":"generated","div":"<div xmlns=\"http://www.w3.org/1999/xhtml\"><div class=\"hapiHeaderText\">Turns 18 day of Encounter <b>NUMERPass </b></div><table class=\"hapiPropertyTable\"><tbody><tr><td>Identifier</td><td>f0eda1c9668fdacdcad3378589bf6e0a71e7dec1618f14fca4d442ec96e402b1</td></tr><tr><td>Date of birth</td><td><span>29 September 2006</span></td></tr></tbody></table></div>"},"extension":[{"url":"http://hl7.org/fhir/us/core/StructureDefinition/us-core-race","extension":[{"url":"ombCategory","valueCoding":{"system":"urn:oid:2.16.840.1.113883.6.238","code":"1002-5","display":"American Indian or Alaska Native","userSelected":true}},{"url":"text","valueString":"American Indian or Alaska Native"}]},{"url":"http://hl7.org/fhir/us/core/StructureDefinition/us-core-ethnicity","extension":[{"url":"ombCategory","valueCoding":{"system":"urn:oid:2.16.840.1.113883.6.238","code":"2135-2","display":"Hispanic or Latino","userSelected":true}},{"url":"text","valueString":"Hispanic or Latino"}]},{"url":"http://hl7.org/fhir/us/core/StructureDefinition/us-core-sex","valueCode":"248152002"}],"identifier":[{"type":{"coding":[{"system":"http://terminology.hl7.org/CodeSystem/v2-0203","code":"MR"}]},"system":"http://bonnie-fhir.healthit.gov/","value":"NUMERPass-SCrIncrease2x"}],"active":true,"name":[{"use":"usual","family":"NUMERPass","given":["SCrIncrease2x"]}],"gender":"female","birthDate":"1983-10-10"},"request":{"method":"PUT","url":"Patient/9baac6c5-1826-4c06-a4a4-6ef5bfda76ba"}},{"fullUrl":"https://madie.cms.gov/MeasureReport/8f51086f-eac8-4bd0-baf2-54e9601ae415","resource":{"resourceType":"MeasureReport","id":"8f51086f-eac8-4bd0-baf2-54e9601ae415","meta":{"profile":["http://hl7.org/fhir/us/cqfmeasures/StructureDefinition/test-case-cqfm"]},"contained":[{"resourceType":"Parameters","id":"2ca97858-8e5d-4ca9-825b-6a168c07076a-parameters","parameter":[{"name":"subject","valueString":"9baac6c5-1826-4c06-a4a4-6ef5bfda76ba"}]}],"extension":[{"url":"http://hl7.org/fhir/StructureDefinition/cqf-inputParameters","valueReference":{"reference":"#2ca97858-8e5d-4ca9-825b-6a168c07076a-parameters"}},{"url":"http://hl7.org/fhir/us/cqfmeasures/StructureDefinition/cqfm-testCaseDescription","valueMarkdown":"2TimeIncreaseInCreatUseRelevantPeriod FEMALE\nVScode: Numerator=[Encounter(id=NUMERPass-SCrIncrease2x-02)]\n"}],"modifierExtension":[{"url":"http://hl7.org/fhir/us/cqfmeasures/StructureDefinition/cqfm-isTestCase","valueBoolean":true}],"status":"complete","type":"individual","measure":"https://madie.cms.gov/Measure/CMS832HHAKIFHIR","period":{"start":"2026-01-01","end":"2026-12-31"},"group":[{"id":"Group_1","population":[{"id":"InitialPopulation_1","code":{"coding":[{"system":"http://terminology.hl7.org/CodeSystem/measure-population","code":"initial-population","display":"Initial Population"}]},"count":1},{"id":"Denominator_1","code":{"coding":[{"system":"http://terminology.hl7.org/CodeSystem/measure-population","code":"denominator","display":"Denominator"}]},"count":1},{"id":"DenominatorExclusion_1","code":{"coding":[{"system":"http://terminology.hl7.org/CodeSystem/measure-population","code":"denominator-exclusion","display":"Denominator Exclusion"}]},"count":0},{"id":"Numerator_1","code":{"coding":[{"system":"http://terminology.hl7.org/CodeSystem/measure-population","code":"numerator","display":"Numerator"}]},"count":1}],"measureScore":{"value":0.0}}],"evaluatedResource":[{"reference":"Encounter/20e40d93-2ba3-4655-a5cd-c92f083762b8"},{"reference":"Organization/71bb58b2-6c25-44d7-bc8d-17dcd23b80f0"},{"reference":"Observation/6dde80c7-6efa-4cb1-8854-a0079ce67938"},{"reference":"Encounter/1bab52a7-6974-4965-af43-49a94c830540"},{"reference":"MeasureReport/a876cf5c-843f-47a7-b677-b4748a79a6cb"},{"reference":"Observation/84dd3b27-bccc-4774-aeaa-09b68f68e771"},{"reference":"Observation/2612aaa9-b237-4b8c-a143-b25e46fb9897"},{"reference":"Observation/878b6489-f2e5-4c68-93f1-32d33815c344"},{"reference":"Coverage/0522e9b5-93b0-430a-870e-2117d29dc53f"},{"reference":"Patient/9baac6c5-1826-4c06-a4a4-6ef5bfda76ba"}]},"request":{"method":"PUT","url":"MeasureReport/8f51086f-eac8-4bd0-baf2-54e9601ae415"}}]},"request":{"method":"PUT","url":"Bundle/tests-9baac6c5-1826-4c06-a4a4-6ef5bfda76ba-bundle"}},{"resource":{"resourceType":"Encounter","id":"20e40d93-2ba3-4655-a5cd-c92f083762b8","meta":{"profile":["http://hl7.org/fhir/us/qicore/StructureDefinition/qicore-encounter"]},"status":"finished","class":{"system":"http://terminology.hl7.org/CodeSystem/v3-ActCode","code":"EMER","display":"emergency"},"type":[{"coding":[{"system":"http://snomed.info/sct","code":"4525004"}]}],"subject":{"reference":"Patient/9baac6c5-1826-4c06-a4a4-6ef5bfda76ba"},"period":{"start":"2026-09-29T08:00:00.000+00:00","end":"2026-09-30T20:00:00.000+00:00"}},"request":{"method":"PUT","url":"Encounter/20e40d93-2ba3-4655-a5cd-c92f083762b8"}}]}