{"resourceType":"Bundle","id":"tests-91f208c6-920e-4093-9842-38ec89ae7197-bundle","type":"transaction","entry":[{"resource":{"resourceType":"Observation","id":"638ecdc4-6969-471e-9a34-949bafa70f1f","meta":{"profile":["http://hl7.org/fhir/us/qicore/StructureDefinition/qicore-observation-lab"]},"status":"final","category":[{"coding":[{"system":"http://terminology.hl7.org/CodeSystem/observation-category","code":"laboratory","display":"Laboratory"}]}],"code":{"coding":[{"system":"http://loinc.org","code":"21232-4","display":"Creatinine [Mass/volume] in Serum or Plasma"}]},"subject":{"reference":"Patient/91f208c6-920e-4093-9842-38ec89ae7197"},"effectiveDateTime":"2026-10-01T07:00:00.000+00:00","valueQuantity":{"value":1.13,"unit":"mg/dL","system":"http://unitsofmeasure.org","code":"mg/dL"}},"request":{"method":"PUT","url":"Observation/638ecdc4-6969-471e-9a34-949bafa70f1f"}},{"resource":{"resourceType":"MeasureReport","id":"e04e6c40-bacc-4ac5-984c-a6221069c605","meta":{"profile":["http://hl7.org/fhir/us/cqfmeasures/StructureDefinition/test-case-cqfm"]},"contained":[{"resourceType":"Parameters","id":"1287fc3e-7920-4c96-9fa6-edc37dd586fe-parameters","parameter":[{"name":"subject","valueString":"91f208c6-920e-4093-9842-38ec89ae7197"}]}],"extension":[{"url":"http://hl7.org/fhir/StructureDefinition/cqf-inputParameters","valueReference":{"reference":"#1287fc3e-7920-4c96-9fa6-edc37dd586fe-parameters"}},{"url":"http://hl7.org/fhir/us/cqfmeasures/StructureDefinition/cqfm-testCaseDescription","valueMarkdown":"Male IP Encounter with an eGFR calculation of greater than 60, based on SCr = 1.13. SCr is within first 24 hours. eGFR must be <60 so does not meet denominator exclusion. "}],"modifierExtension":[{"url":"http://hl7.org/fhir/us/cqfmeasures/StructureDefinition/cqfm-isTestCase","valueBoolean":true}],"status":"complete","type":"individual","measure":"https://madie.cms.gov/Measure/CMS832HHAKIFHIR","period":{"start":"2026-01-01","end":"2026-12-31"},"group":[{"id":"Group_1","population":[{"id":"InitialPopulation_1","code":{"coding":[{"system":"http://terminology.hl7.org/CodeSystem/measure-population","code":"initial-population","display":"Initial Population"}]},"count":1},{"id":"Denominator_1","code":{"coding":[{"system":"http://terminology.hl7.org/CodeSystem/measure-population","code":"denominator","display":"Denominator"}]},"count":1},{"id":"DenominatorExclusion_1","code":{"coding":[{"system":"http://terminology.hl7.org/CodeSystem/measure-population","code":"denominator-exclusion","display":"Denominator Exclusion"}]},"count":0},{"id":"Numerator_1","code":{"coding":[{"system":"http://terminology.hl7.org/CodeSystem/measure-population","code":"numerator","display":"Numerator"}]},"count":0}],"measureScore":{"value":0.0}}],"evaluatedResource":[{"reference":"Patient/91f208c6-920e-4093-9842-38ec89ae7197"},{"reference":"Encounter/a4c12d5e-a8e7-4fda-af36-87382c19ab8f"},{"reference":"Encounter/eb83929a-6c21-4958-a634-6647103600da"},{"reference":"Observation/dcbf199e-7a10-45ea-8f79-842e741fe4d9"},{"reference":"Observation/638ecdc4-6969-471e-9a34-949bafa70f1f"},{"reference":"Observation/45562a6f-5b81-48a2-bfdc-3cb612154836"}]},"request":{"method":"PUT","url":"MeasureReport/e04e6c40-bacc-4ac5-984c-a6221069c605"}},{"resource":{"resourceType":"Encounter","id":"eb83929a-6c21-4958-a634-6647103600da","meta":{"profile":["http://hl7.org/fhir/us/qicore/StructureDefinition/qicore-encounter"]},"status":"finished","class":{"system":"http://terminology.hl7.org/CodeSystem/v3-ActCode","code":"IMP","display":"inpatient encounter"},"type":[{"coding":[{"system":"http://snomed.info/sct","code":"183452005","display":"Emergency hospital admission (procedure)"}]}],"subject":{"reference":"Patient/91f208c6-920e-4093-9842-38ec89ae7197"},"period":{"start":"2026-09-29T20:01:00.000+00:00","end":"2026-10-03T20:00:00.000+00:00"}},"request":{"method":"PUT","url":"Encounter/eb83929a-6c21-4958-a634-6647103600da"}},{"resource":{"resourceType":"Encounter","id":"a4c12d5e-a8e7-4fda-af36-87382c19ab8f","meta":{"profile":["http://hl7.org/fhir/us/qicore/StructureDefinition/qicore-encounter"]},"status":"finished","class":{"system":"http://terminology.hl7.org/CodeSystem/v3-ActCode","code":"EMER","display":"emergency"},"type":[{"coding":[{"system":"http://snomed.info/sct","code":"4525004","display":"Emergency department patient visit (procedure)"}]}],"subject":{"reference":"Patient/91f208c6-920e-4093-9842-38ec89ae7197"},"period":{"start":"2026-09-29T08:00:00.000+00:00","end":"2026-09-29T20:00:00.000+00:00"}},"request":{"method":"PUT","url":"Encounter/a4c12d5e-a8e7-4fda-af36-87382c19ab8f"}},{"resource":{"resourceType":"Observation","id":"45562a6f-5b81-48a2-bfdc-3cb612154836","meta":{"profile":["http://hl7.org/fhir/us/qicore/StructureDefinition/qicore-observation-lab"]},"status":"final","category":[{"coding":[{"system":"http://terminology.hl7.org/CodeSystem/observation-category","code":"laboratory","display":"Laboratory"}]}],"code":{"coding":[{"system":"http://loinc.org","code":"21232-4","display":"Creatinine [Mass/volume] in Serum or Plasma"}]},"subject":{"reference":"Patient/91f208c6-920e-4093-9842-38ec89ae7197"},"effectiveDateTime":"2026-10-01T07:35:00.000+00:00","valueQuantity":{"value":1.13,"unit":"mg/dL","system":"http://unitsofmeasure.org","code":"mg/dL"}},"request":{"method":"PUT","url":"Observation/45562a6f-5b81-48a2-bfdc-3cb612154836"}},{"resource":{"resourceType":"Bundle","id":"tests-DENEXFail-MaleEncountereGFR76","type":"transaction","entry":[{"fullUrl":"https://madie.cms.gov/Patient/91f208c6-920e-4093-9842-38ec89ae7197","resource":{"resourceType":"Patient","id":"91f208c6-920e-4093-9842-38ec89ae7197","meta":{"profile":["http://hl7.org/fhir/us/qicore/StructureDefinition/qicore-patient"]},"extension":[{"url":"http://hl7.org/fhir/us/core/StructureDefinition/us-core-race","extension":[{"url":"ombCategory","valueCoding":{"system":"urn:oid:2.16.840.1.113883.6.238","code":"2106-3","display":"White"}},{"url":"text","valueString":"White"}]},{"url":"http://hl7.org/fhir/us/core/StructureDefinition/us-core-ethnicity","extension":[{"url":"ombCategory","valueCoding":{"system":"urn:oid:2.16.840.1.113883.6.238","code":"2135-2","display":"Hispanic or Latino"}},{"url":"text","valueString":"Hispanic or Latino"}]},{"url":"http://hl7.org/fhir/us/core/StructureDefinition/us-core-sex","valueCode":"248153007"}],"identifier":[{"system":"http://hospital.smarthealthit.org","value":"999999999"}],"name":[{"family":"Example","given":["Patient"]}],"gender":"male","birthDate":"1975-01-01"},"request":{"method":"PUT","url":"Patient/91f208c6-920e-4093-9842-38ec89ae7197"}},{"fullUrl":"https://madie.cms.gov/Encounter/a4c12d5e-a8e7-4fda-af36-87382c19ab8f","resource":{"resourceType":"Encounter","id":"a4c12d5e-a8e7-4fda-af36-87382c19ab8f","meta":{"profile":["http://hl7.org/fhir/us/qicore/StructureDefinition/qicore-encounter"]},"status":"finished","class":{"system":"http://terminology.hl7.org/CodeSystem/v3-ActCode","code":"EMER","display":"emergency"},"type":[{"coding":[{"system":"http://snomed.info/sct","code":"4525004","display":"Emergency department patient visit (procedure)"}]}],"subject":{"reference":"Patient/91f208c6-920e-4093-9842-38ec89ae7197"},"period":{"start":"2026-09-29T08:00:00.000+00:00","end":"2026-09-29T20:00:00.000+00:00"}},"request":{"method":"PUT","url":"Encounter/a4c12d5e-a8e7-4fda-af36-87382c19ab8f"}},{"fullUrl":"https://madie.cms.gov/Encounter/eb83929a-6c21-4958-a634-6647103600da","resource":{"resourceType":"Encounter","id":"eb83929a-6c21-4958-a634-6647103600da","meta":{"profile":["http://hl7.org/fhir/us/qicore/StructureDefinition/qicore-encounter"]},"status":"finished","class":{"system":"http://terminology.hl7.org/CodeSystem/v3-ActCode","code":"IMP","display":"inpatient encounter"},"type":[{"coding":[{"system":"http://snomed.info/sct","code":"183452005","display":"Emergency hospital admission (procedure)"}]}],"subject":{"reference":"Patient/91f208c6-920e-4093-9842-38ec89ae7197"},"period":{"start":"2026-09-29T20:01:00.000+00:00","end":"2026-10-03T20:00:00.000+00:00"}},"request":{"method":"PUT","url":"Encounter/eb83929a-6c21-4958-a634-6647103600da"}},{"fullUrl":"https://madie.cms.gov/Observation/dcbf199e-7a10-45ea-8f79-842e741fe4d9","resource":{"resourceType":"Observation","id":"dcbf199e-7a10-45ea-8f79-842e741fe4d9","meta":{"profile":["http://hl7.org/fhir/us/qicore/StructureDefinition/qicore-observation-lab"]},"status":"final","category":[{"coding":[{"system":"http://terminology.hl7.org/CodeSystem/observation-category","code":"laboratory","display":"Laboratory"}]}],"code":{"coding":[{"system":"http://loinc.org","code":"21232-4","display":"Creatinine [Mass/volume] in Serum or Plasma"}]},"subject":{"reference":"Patient/91f208c6-920e-4093-9842-38ec89ae7197"},"effectiveDateTime":"2026-10-01T08:01:00.000+00:00","valueQuantity":{"value":1.14,"unit":"mg/dL","system":"http://unitsofmeasure.org","code":"mg/dL"}},"request":{"method":"PUT","url":"Observation/dcbf199e-7a10-45ea-8f79-842e741fe4d9"}},{"fullUrl":"https://madie.cms.gov/Observation/638ecdc4-6969-471e-9a34-949bafa70f1f","resource":{"resourceType":"Observation","id":"638ecdc4-6969-471e-9a34-949bafa70f1f","meta":{"profile":["http://hl7.org/fhir/us/qicore/StructureDefinition/qicore-observation-lab"]},"status":"final","category":[{"coding":[{"system":"http://terminology.hl7.org/CodeSystem/observation-category","code":"laboratory","display":"Laboratory"}]}],"code":{"coding":[{"system":"http://loinc.org","code":"21232-4","display":"Creatinine [Mass/volume] in Serum or Plasma"}]},"subject":{"reference":"Patient/91f208c6-920e-4093-9842-38ec89ae7197"},"effectiveDateTime":"2026-10-01T07:00:00.000+00:00","valueQuantity":{"value":1.13,"unit":"mg/dL","system":"http://unitsofmeasure.org","code":"mg/dL"}},"request":{"method":"PUT","url":"Observation/638ecdc4-6969-471e-9a34-949bafa70f1f"}},{"fullUrl":"https://madie.cms.gov/Observation/45562a6f-5b81-48a2-bfdc-3cb612154836","resource":{"resourceType":"Observation","id":"45562a6f-5b81-48a2-bfdc-3cb612154836","meta":{"profile":["http://hl7.org/fhir/us/qicore/StructureDefinition/qicore-observation-lab"]},"status":"final","category":[{"coding":[{"system":"http://terminology.hl7.org/CodeSystem/observation-category","code":"laboratory","display":"Laboratory"}]}],"code":{"coding":[{"system":"http://loinc.org","code":"21232-4","display":"Creatinine [Mass/volume] in Serum or Plasma"}]},"subject":{"reference":"Patient/91f208c6-920e-4093-9842-38ec89ae7197"},"effectiveDateTime":"2026-10-01T07:35:00.000+00:00","valueQuantity":{"value":1.13,"unit":"mg/dL","system":"http://unitsofmeasure.org","code":"mg/dL"}},"request":{"method":"PUT","url":"Observation/45562a6f-5b81-48a2-bfdc-3cb612154836"}},{"fullUrl":"https://madie.cms.gov/MeasureReport/e04e6c40-bacc-4ac5-984c-a6221069c605","resource":{"resourceType":"MeasureReport","id":"e04e6c40-bacc-4ac5-984c-a6221069c605","meta":{"profile":["http://hl7.org/fhir/us/cqfmeasures/StructureDefinition/test-case-cqfm"]},"contained":[{"resourceType":"Parameters","id":"1287fc3e-7920-4c96-9fa6-edc37dd586fe-parameters","parameter":[{"name":"subject","valueString":"91f208c6-920e-4093-9842-38ec89ae7197"}]}],"extension":[{"url":"http://hl7.org/fhir/StructureDefinition/cqf-inputParameters","valueReference":{"reference":"#1287fc3e-7920-4c96-9fa6-edc37dd586fe-parameters"}},{"url":"http://hl7.org/fhir/us/cqfmeasures/StructureDefinition/cqfm-testCaseDescription","valueMarkdown":"Male IP Encounter with an eGFR calculation of greater than 60, based on SCr = 1.13. SCr is within first 24 hours. eGFR must be <60 so does not meet denominator exclusion. "}],"modifierExtension":[{"url":"http://hl7.org/fhir/us/cqfmeasures/StructureDefinition/cqfm-isTestCase","valueBoolean":true}],"status":"complete","type":"individual","measure":"https://madie.cms.gov/Measure/CMS832HHAKIFHIR","period":{"start":"2026-01-01","end":"2026-12-31"},"group":[{"id":"Group_1","population":[{"id":"InitialPopulation_1","code":{"coding":[{"system":"http://terminology.hl7.org/CodeSystem/measure-population","code":"initial-population","display":"Initial Population"}]},"count":1},{"id":"Denominator_1","code":{"coding":[{"system":"http://terminology.hl7.org/CodeSystem/measure-population","code":"denominator","display":"Denominator"}]},"count":1},{"id":"DenominatorExclusion_1","code":{"coding":[{"system":"http://terminology.hl7.org/CodeSystem/measure-population","code":"denominator-exclusion","display":"Denominator Exclusion"}]},"count":0},{"id":"Numerator_1","code":{"coding":[{"system":"http://terminology.hl7.org/CodeSystem/measure-population","code":"numerator","display":"Numerator"}]},"count":0}],"measureScore":{"value":0.0}}],"evaluatedResource":[{"reference":"Patient/91f208c6-920e-4093-9842-38ec89ae7197"},{"reference":"Encounter/a4c12d5e-a8e7-4fda-af36-87382c19ab8f"},{"reference":"Encounter/eb83929a-6c21-4958-a634-6647103600da"},{"reference":"Observation/dcbf199e-7a10-45ea-8f79-842e741fe4d9"},{"reference":"Observation/638ecdc4-6969-471e-9a34-949bafa70f1f"},{"reference":"Observation/45562a6f-5b81-48a2-bfdc-3cb612154836"}]},"request":{"method":"PUT","url":"MeasureReport/e04e6c40-bacc-4ac5-984c-a6221069c605"}}]},"request":{"method":"PUT","url":"Bundle/tests-DENEXFail-MaleEncountereGFR76"}},{"resource":{"resourceType":"Patient","id":"91f208c6-920e-4093-9842-38ec89ae7197","meta":{"profile":["http://hl7.org/fhir/us/qicore/StructureDefinition/qicore-patient"]},"extension":[{"url":"http://hl7.org/fhir/us/core/StructureDefinition/us-core-race","extension":[{"url":"ombCategory","valueCoding":{"system":"urn:oid:2.16.840.1.113883.6.238","code":"2106-3","display":"White"}},{"url":"text","valueString":"White"}]},{"url":"http://hl7.org/fhir/us/core/StructureDefinition/us-core-ethnicity","extension":[{"url":"ombCategory","valueCoding":{"system":"urn:oid:2.16.840.1.113883.6.238","code":"2135-2","display":"Hispanic or Latino"}},{"url":"text","valueString":"Hispanic or Latino"}]},{"url":"http://hl7.org/fhir/us/core/StructureDefinition/us-core-sex","valueCode":"248153007"}],"identifier":[{"system":"http://hospital.smarthealthit.org","value":"999999999"}],"name":[{"family":"Example","given":["Patient"]}],"gender":"male","birthDate":"1975-01-01"},"request":{"method":"PUT","url":"Patient/91f208c6-920e-4093-9842-38ec89ae7197"}},{"resource":{"resourceType":"Observation","id":"dcbf199e-7a10-45ea-8f79-842e741fe4d9","meta":{"profile":["http://hl7.org/fhir/us/qicore/StructureDefinition/qicore-observation-lab"]},"status":"final","category":[{"coding":[{"system":"http://terminology.hl7.org/CodeSystem/observation-category","code":"laboratory","display":"Laboratory"}]}],"code":{"coding":[{"system":"http://loinc.org","code":"21232-4","display":"Creatinine [Mass/volume] in Serum or Plasma"}]},"subject":{"reference":"Patient/91f208c6-920e-4093-9842-38ec89ae7197"},"effectiveDateTime":"2026-10-01T08:01:00.000+00:00","valueQuantity":{"value":1.14,"unit":"mg/dL","system":"http://unitsofmeasure.org","code":"mg/dL"}},"request":{"method":"PUT","url":"Observation/dcbf199e-7a10-45ea-8f79-842e741fe4d9"}}]}