{
  "resourceType": "Bundle",
  "id": "DENEXFail-HospiceObsValueIsNo",
  "type": "transaction",
  "entry": [ {
    "fullUrl": "https://madie.cms.gov/Patient/c57b8e40-b3be-484f-8874-8ccafa3d5a38",
    "resource": {
      "resourceType": "Patient",
      "id": "c57b8e40-b3be-484f-8874-8ccafa3d5a38",
      "meta": {
        "profile": [ "http://hl7.org/fhir/us/qicore/StructureDefinition/qicore-patient" ]
      },
      "extension": [ {
        "url": "http://hl7.org/fhir/us/core/StructureDefinition/us-core-race",
        "extension": [ {
          "url": "ombCategory",
          "valueCoding": {
            "system": "urn:oid:2.16.840.1.113883.6.238",
            "code": "2028-9",
            "display": "Asian"
          }
        }, {
          "url": "text",
          "valueString": "Asian"
        } ]
      }, {
        "url": "http://hl7.org/fhir/us/core/StructureDefinition/us-core-ethnicity",
        "extension": [ {
          "url": "ombCategory",
          "valueCoding": {
            "system": "urn:oid:2.16.840.1.113883.6.238",
            "code": "2135-2",
            "display": "Hispanic or Latino"
          }
        }, {
          "url": "text",
          "valueString": "Hispanic or Latino"
        } ]
      } ],
      "identifier": [ {
        "system": "http://hospital.smarthealthit.org",
        "value": "999999995"
      } ],
      "name": [ {
        "family": "IPFail",
        "given": [ "HospiceObsValueIsNo" ]
      } ],
      "gender": "female",
      "birthDate": "2007-12-31"
    },
    "request": {
      "method": "PUT",
      "url": "Patient/c57b8e40-b3be-484f-8874-8ccafa3d5a38"
    }
  }, {
    "fullUrl": "https://madie.cms.gov/Encounter/c9ec397c-5e82-479c-82e1-110aae0de6cc",
    "resource": {
      "resourceType": "Encounter",
      "id": "c9ec397c-5e82-479c-82e1-110aae0de6cc",
      "meta": {
        "profile": [ "http://hl7.org/fhir/us/qicore/StructureDefinition/qicore-encounter" ]
      },
      "status": "finished",
      "class": {
        "system": "http://terminology.hl7.org/CodeSystem/v3-ActCode",
        "code": "AMB",
        "display": "ambulatory"
      },
      "type": [ {
        "coding": [ {
          "system": "http://snomed.info/sct",
          "code": "3391000175108",
          "display": "Office visit for pediatric care and assessment (procedure)"
        } ]
      } ],
      "subject": {
        "reference": "Patient/c57b8e40-b3be-484f-8874-8ccafa3d5a38"
      },
      "period": {
        "start": "2026-01-01T00:00:00.000+00:00",
        "end": "2026-01-01T01:00:00.000+00:00"
      }
    },
    "request": {
      "method": "PUT",
      "url": "Encounter/c9ec397c-5e82-479c-82e1-110aae0de6cc"
    }
  }, {
    "fullUrl": "https://madie.cms.gov/Condition/b13ec76c-a88e-4aa8-a4f4-0c4bf9e3b5ac",
    "resource": {
      "resourceType": "Condition",
      "id": "b13ec76c-a88e-4aa8-a4f4-0c4bf9e3b5ac",
      "meta": {
        "profile": [ "http://hl7.org/fhir/us/qicore/StructureDefinition/qicore-condition-encounter-diagnosis" ]
      },
      "clinicalStatus": {
        "coding": [ {
          "system": "http://terminology.hl7.org/CodeSystem/condition-clinical",
          "code": "active"
        } ]
      },
      "category": [ {
        "coding": [ {
          "system": "http://terminology.hl7.org/CodeSystem/condition-category",
          "code": "encounter-diagnosis",
          "display": "Encounter Diagnosis"
        } ]
      } ],
      "code": {
        "coding": [ {
          "system": "http://snomed.info/sct",
          "code": "371125006",
          "display": "Labile essential hypertension (disorder)"
        } ]
      },
      "subject": {
        "reference": "Patient/c57b8e40-b3be-484f-8874-8ccafa3d5a38"
      },
      "onsetDateTime": "2026-06-30T23:59:59.000+00:00"
    },
    "request": {
      "method": "PUT",
      "url": "Condition/b13ec76c-a88e-4aa8-a4f4-0c4bf9e3b5ac"
    }
  }, {
    "fullUrl": "https://madie.cms.gov/Observation/eca6f445-5a82-4253-8894-35aebdaf1a7a",
    "resource": {
      "resourceType": "Observation",
      "id": "eca6f445-5a82-4253-8894-35aebdaf1a7a",
      "meta": {
        "profile": [ "http://hl7.org/fhir/us/qicore/StructureDefinition/qicore-observation" ]
      },
      "status": "final",
      "category": [ {
        "coding": [ {
          "system": "http://terminology.hl7.org/CodeSystem/observation-category",
          "code": "survey"
        } ]
      } ],
      "code": {
        "coding": [ {
          "system": "http://loinc.org",
          "code": "45755-6",
          "display": "Hospice care [Minimum Data Set]"
        } ]
      },
      "subject": {
        "reference": "Patient/c57b8e40-b3be-484f-8874-8ccafa3d5a38"
      },
      "effectivePeriod": {
        "start": "2025-12-31T00:00:00.000+00:00",
        "end": "2026-01-01T00:00:00.000+00:00"
      },
      "valueCodeableConcept": {
        "coding": [ {
          "system": "http://snomed.info/sct",
          "code": "373067005",
          "display": "No (qualifier value)"
        } ]
      }
    },
    "request": {
      "method": "PUT",
      "url": "Observation/eca6f445-5a82-4253-8894-35aebdaf1a7a"
    }
  }, {
    "fullUrl": "https://madie.cms.gov/MeasureReport/e3a0abcd-0246-4680-8be1-dcd6f644f7c0",
    "resource": {
      "resourceType": "MeasureReport",
      "id": "e3a0abcd-0246-4680-8be1-dcd6f644f7c0",
      "meta": {
        "profile": [ "http://hl7.org/fhir/us/cqfmeasures/StructureDefinition/test-case-cqfm" ]
      },
      "contained": [ {
        "resourceType": "Parameters",
        "id": "4468d259-848d-4a53-8f05-e73cf6294dce-parameters",
        "parameter": [ {
          "name": "subject",
          "valueString": "c57b8e40-b3be-484f-8874-8ccafa3d5a38"
        } ]
      } ],
      "extension": [ {
        "url": "http://hl7.org/fhir/StructureDefinition/cqf-inputParameters",
        "valueReference": {
          "reference": "#4468d259-848d-4a53-8f05-e73cf6294dce-parameters"
        }
      }, {
        "url": "http://hl7.org/fhir/us/cqfmeasures/StructureDefinition/cqfm-testCaseDescription",
        "valueMarkdown": "Hospice observation value is No"
      } ],
      "modifierExtension": [ {
        "url": "http://hl7.org/fhir/us/cqfmeasures/StructureDefinition/cqfm-isTestCase",
        "valueBoolean": true
      } ],
      "status": "complete",
      "type": "individual",
      "measure": "https://madie.cms.gov/Measure/CMS165FHIRControllingHighBloodPressure",
      "period": {
        "start": "2026-01-01",
        "end": "2026-12-31"
      },
      "group": [ {
        "id": "Group_1",
        "population": [ {
          "id": "InitialPopulation_1",
          "code": {
            "coding": [ {
              "system": "http://terminology.hl7.org/CodeSystem/measure-population",
              "code": "initial-population",
              "display": "Initial Population"
            } ]
          },
          "count": 1
        }, {
          "id": "Denominator_1",
          "code": {
            "coding": [ {
              "system": "http://terminology.hl7.org/CodeSystem/measure-population",
              "code": "denominator",
              "display": "Denominator"
            } ]
          },
          "count": 1
        }, {
          "id": "DenominatorExclusion_1",
          "code": {
            "coding": [ {
              "system": "http://terminology.hl7.org/CodeSystem/measure-population",
              "code": "denominator-exclusion",
              "display": "Denominator Exclusion"
            } ]
          },
          "count": 0
        }, {
          "id": "Numerator_1",
          "code": {
            "coding": [ {
              "system": "http://terminology.hl7.org/CodeSystem/measure-population",
              "code": "numerator",
              "display": "Numerator"
            } ]
          },
          "count": 0
        } ],
        "measureScore": {
          "value": 1.0
        }
      } ],
      "evaluatedResource": [ {
        "reference": "Patient/c57b8e40-b3be-484f-8874-8ccafa3d5a38"
      }, {
        "reference": "Encounter/c9ec397c-5e82-479c-82e1-110aae0de6cc"
      }, {
        "reference": "Condition/b13ec76c-a88e-4aa8-a4f4-0c4bf9e3b5ac"
      }, {
        "reference": "Observation/eca6f445-5a82-4253-8894-35aebdaf1a7a"
      } ]
    },
    "request": {
      "method": "PUT",
      "url": "MeasureReport/e3a0abcd-0246-4680-8be1-dcd6f644f7c0"
    }
  } ]
}