{
  "resourceType": "Bundle",
  "id": "612e6b5602c62a011f2ed5d3",
  "type": "transaction",
  "entry": [ {
    "fullUrl": "https://madie.cms.gov/Patient/23f1ece5-35ea-4446-8305-f6f023dfb1a3",
    "resource": {
      "resourceType": "Patient",
      "id": "23f1ece5-35ea-4446-8305-f6f023dfb1a3",
      "meta": {
        "profile": [ "http://hl7.org/fhir/us/qicore/StructureDefinition/qicore-patient" ]
      },
      "text": {
        "status": "generated",
        "div": "<div xmlns=\"http://www.w3.org/1999/xhtml\"><div class=\"hapiHeaderText\">MA_OralXa_apixabanWVTEdiagnosisAFProc <b>NUMERFAIL </b></div><table class=\"hapiPropertyTable\"><tbody><tr><td>Identifier</td><td>6c48d9c79b22e4d3ea2146a4520f69cf</td></tr><tr><td>Date of birth</td><td><span>01 December 1966</span></td></tr></tbody></table></div>"
      },
      "extension": [ {
        "url": "http://hl7.org/fhir/us/core/StructureDefinition/us-core-race",
        "extension": [ {
          "url": "ombCategory",
          "valueCoding": {
            "system": "urn:oid:2.16.840.1.113883.6.238",
            "code": "1002-5",
            "display": "American Indian or Alaska Native",
            "userSelected": true
          }
        }, {
          "url": "text",
          "valueString": "American Indian or Alaska Native"
        } ]
      }, {
        "url": "http://hl7.org/fhir/us/core/StructureDefinition/us-core-ethnicity",
        "extension": [ {
          "url": "ombCategory",
          "valueCoding": {
            "system": "urn:oid:2.16.840.1.113883.6.238",
            "code": "2135-2",
            "display": "Hispanic or Latino",
            "userSelected": true
          }
        }, {
          "url": "text",
          "valueString": "Hispanic or Latino"
        } ]
      } ],
      "identifier": [ {
        "type": {
          "coding": [ {
            "system": "http://terminology.hl7.org/CodeSystem/v2-0203",
            "code": "MR"
          } ]
        },
        "system": "https://bonnie-fhir.healthit.gov/",
        "value": "612e6b5602c62a011f2ed5d3"
      } ],
      "active": true,
      "name": [ {
        "use": "usual",
        "family": "NUMERFail",
        "given": [ "MAOralXaapixabanWVTEdiagnosisAFProc" ]
      } ],
      "gender": "male",
      "birthDate": "1967-12-01"
    },
    "request": {
      "method": "PUT",
      "url": "Patient/23f1ece5-35ea-4446-8305-f6f023dfb1a3"
    }
  }, {
    "fullUrl": "https://madie.cms.gov/Encounter/215ddb3a-57c3-4a31-838f-e0502e4847c5",
    "resource": {
      "resourceType": "Encounter",
      "id": "215ddb3a-57c3-4a31-838f-e0502e4847c5",
      "meta": {
        "profile": [ "http://hl7.org/fhir/us/qicore/StructureDefinition/qicore-encounter" ]
      },
      "status": "finished",
      "class": {
        "system": "http://terminology.hl7.org/CodeSystem/v3-ActCode",
        "code": "IMP",
        "display": "inpatient encounter"
      },
      "type": [ {
        "coding": [ {
          "system": "http://snomed.info/sct",
          "code": "8715000"
        } ]
      } ],
      "subject": {
        "reference": "Patient/23f1ece5-35ea-4446-8305-f6f023dfb1a3"
      },
      "period": {
        "start": "2026-11-01T08:00:00.000+00:00",
        "end": "2026-11-26T08:15:00.000+00:00"
      },
      "length": {
        "value": 25,
        "unit": "days"
      }
    },
    "request": {
      "method": "PUT",
      "url": "Encounter/215ddb3a-57c3-4a31-838f-e0502e4847c5"
    }
  }, {
    "fullUrl": "https://madie.cms.gov/Coverage/6f1122b1-d56c-42e1-8073-bc9f12ce08f9",
    "resource": {
      "resourceType": "Coverage",
      "id": "6f1122b1-d56c-42e1-8073-bc9f12ce08f9",
      "status": "active",
      "beneficiary": {
        "reference": "Patient/23f1ece5-35ea-4446-8305-f6f023dfb1a3"
      },
      "period": {
        "start": "1967-12-01T01:00:00.000+00:00"
      },
      "payor": [ {
        "reference": "Organization/67715b3c-1b3f-4c57-871e-e6bc91855908"
      } ]
    },
    "request": {
      "method": "PUT",
      "url": "Coverage/6f1122b1-d56c-42e1-8073-bc9f12ce08f9"
    }
  }, {
    "fullUrl": "https://madie.cms.gov/Condition/6b8258a1-f89f-4445-aaee-e1fbc260ad9b",
    "resource": {
      "resourceType": "Condition",
      "id": "6b8258a1-f89f-4445-aaee-e1fbc260ad9b",
      "meta": {
        "profile": [ "http://hl7.org/fhir/us/qicore/StructureDefinition/qicore-condition" ]
      },
      "category": [ {
        "coding": [ {
          "system": "http://terminology.hl7.org/CodeSystem/condition-category",
          "code": "problem-list-item",
          "display": "Problem List Item"
        } ]
      } ],
      "code": {
        "coding": [ {
          "system": "http://snomed.info/sct",
          "code": "1001000119102"
        } ]
      },
      "subject": {
        "reference": "Patient/23f1ece5-35ea-4446-8305-f6f023dfb1a3"
      },
      "onsetPeriod": {
        "start": "2026-11-02T08:00:00.000+00:00",
        "end": "2026-11-02T08:15:00.000+00:00"
      }
    },
    "request": {
      "method": "PUT",
      "url": "Condition/6b8258a1-f89f-4445-aaee-e1fbc260ad9b"
    }
  }, {
    "fullUrl": "https://madie.cms.gov/MedicationAdministration/94f096fe-4109-4d66-b70a-1ef177b8ccc2",
    "resource": {
      "resourceType": "MedicationAdministration",
      "id": "94f096fe-4109-4d66-b70a-1ef177b8ccc2",
      "meta": {
        "profile": [ "http://hl7.org/fhir/us/qicore/StructureDefinition/qicore-medicationadministration" ]
      },
      "status": "completed",
      "medicationCodeableConcept": {
        "coding": [ {
          "system": "http://www.nlm.nih.gov/research/umls/rxnorm",
          "code": "1364435"
        } ]
      },
      "subject": {
        "reference": "Patient/23f1ece5-35ea-4446-8305-f6f023dfb1a3"
      },
      "effectivePeriod": {
        "start": "2026-11-01T11:00:00.000+00:00"
      }
    },
    "request": {
      "method": "PUT",
      "url": "MedicationAdministration/94f096fe-4109-4d66-b70a-1ef177b8ccc2"
    }
  }, {
    "fullUrl": "https://madie.cms.gov/Procedure/1c78020a-b35f-40cc-85e8-841e4f161d1a",
    "resource": {
      "resourceType": "Procedure",
      "id": "1c78020a-b35f-40cc-85e8-841e4f161d1a",
      "meta": {
        "profile": [ "http://hl7.org/fhir/us/qicore/StructureDefinition/qicore-procedure" ]
      },
      "extension": [ {
        "url": "http://hl7.org/fhir/us/qicore/StructureDefinition/qicore-recorded",
        "valueDateTime": "2013-12-04T13:35:00.000+00:00"
      } ],
      "status": "completed",
      "code": {
        "coding": [ {
          "system": "http://www.icd10data.com/icd10pcs",
          "code": "3E030FZ"
        }, {
          "system": "http://snomed.info/sct",
          "code": "18946005"
        } ]
      },
      "subject": {
        "reference": "Patient/23f1ece5-35ea-4446-8305-f6f023dfb1a3"
      },
      "performedPeriod": {
        "start": "2026-11-01T09:00:00.000+00:00",
        "end": "2026-11-01T09:15:00.000+00:00"
      }
    },
    "request": {
      "method": "PUT",
      "url": "Procedure/1c78020a-b35f-40cc-85e8-841e4f161d1a"
    }
  }, {
    "fullUrl": "https://madie.cms.gov/Organization/67715b3c-1b3f-4c57-871e-e6bc91855908",
    "resource": {
      "resourceType": "Organization",
      "id": "67715b3c-1b3f-4c57-871e-e6bc91855908",
      "meta": {
        "profile": [ "http://hl7.org/fhir/us/qicore/StructureDefinition/qicore-organization" ]
      },
      "identifier": [ {
        "use": "temp",
        "system": "urn:oid:2.16.840.1.113883.4.4",
        "value": "21-3259825"
      } ],
      "active": true,
      "type": [ {
        "coding": [ {
          "system": "http://terminology.hl7.org/CodeSystem/organization-type",
          "code": "pay",
          "display": "Payer"
        } ]
      } ],
      "name": "Blue Cross Blue Shield of Texas",
      "telecom": [ {
        "system": "phone",
        "value": "(+1) 972-766-6900"
      } ],
      "address": [ {
        "use": "billing",
        "type": "postal",
        "line": [ "P.O. Box 660044" ],
        "city": "Dallas",
        "state": "TX",
        "postalCode": "75266-0044",
        "country": "USA"
      } ]
    },
    "request": {
      "method": "PUT",
      "url": "Organization/67715b3c-1b3f-4c57-871e-e6bc91855908"
    }
  }, {
    "fullUrl": "https://madie.cms.gov/Practitioner/ce8e380b-2e45-463e-a17b-31cad7e65aef",
    "resource": {
      "resourceType": "Practitioner",
      "id": "ce8e380b-2e45-463e-a17b-31cad7e65aef",
      "identifier": [ {
        "system": "http://hl7.org/fhir/sid/us-npi",
        "value": "123456"
      } ],
      "name": [ {
        "family": "Evil",
        "prefix": [ "Dr" ]
      } ]
    },
    "request": {
      "method": "PUT",
      "url": "Practitioner/ce8e380b-2e45-463e-a17b-31cad7e65aef"
    }
  }, {
    "fullUrl": "https://madie.cms.gov/MeasureReport/8c28050e-5f17-470d-8b46-f4b571e3448f",
    "resource": {
      "resourceType": "MeasureReport",
      "id": "8c28050e-5f17-470d-8b46-f4b571e3448f",
      "meta": {
        "profile": [ "http://hl7.org/fhir/us/cqfmeasures/StructureDefinition/test-case-cqfm" ]
      },
      "contained": [ {
        "resourceType": "Parameters",
        "id": "8ac72a01-50f6-4a31-812f-2a579c369ea5-parameters",
        "parameter": [ {
          "name": "subject",
          "valueString": "23f1ece5-35ea-4446-8305-f6f023dfb1a3"
        } ]
      } ],
      "extension": [ {
        "url": "http://hl7.org/fhir/StructureDefinition/cqf-inputParameters",
        "valueReference": {
          "reference": "#8ac72a01-50f6-4a31-812f-2a579c369ea5-parameters"
        }
      }, {
        "url": "http://hl7.org/fhir/us/cqfmeasures/StructureDefinition/cqfm-testCaseDescription",
        "valueMarkdown": ">18, LOS<120 day. Medication, Administered: Oral Factor Xa Inhibitor for VTE Prophylaxis with diagnosis of active VTE starts after end of surgery\n"
      } ],
      "modifierExtension": [ {
        "url": "http://hl7.org/fhir/us/cqfmeasures/StructureDefinition/cqfm-isTestCase",
        "valueBoolean": true
      } ],
      "status": "complete",
      "type": "individual",
      "measure": "https://madie.cms.gov/Measure/CMS108FHIRVTEProphylaxis",
      "period": {
        "start": "2026-01-01",
        "end": "2026-12-31"
      },
      "group": [ {
        "id": "Group_1",
        "population": [ {
          "id": "InitialPopulation_1",
          "code": {
            "coding": [ {
              "system": "http://terminology.hl7.org/CodeSystem/measure-population",
              "code": "initial-population",
              "display": "Initial Population"
            } ]
          },
          "count": 1
        }, {
          "id": "Denominator_1",
          "code": {
            "coding": [ {
              "system": "http://terminology.hl7.org/CodeSystem/measure-population",
              "code": "denominator",
              "display": "Denominator"
            } ]
          },
          "count": 1
        }, {
          "id": "DenominatorExclusion_1",
          "code": {
            "coding": [ {
              "system": "http://terminology.hl7.org/CodeSystem/measure-population",
              "code": "denominator-exclusion",
              "display": "Denominator Exclusion"
            } ]
          },
          "count": 0
        }, {
          "id": "Numerator_1",
          "code": {
            "coding": [ {
              "system": "http://terminology.hl7.org/CodeSystem/measure-population",
              "code": "numerator",
              "display": "Numerator"
            } ]
          },
          "count": 0
        } ],
        "measureScore": {
          "value": 0.0
        }
      } ],
      "evaluatedResource": [ {
        "reference": "Patient/23f1ece5-35ea-4446-8305-f6f023dfb1a3"
      }, {
        "reference": "Encounter/215ddb3a-57c3-4a31-838f-e0502e4847c5"
      }, {
        "reference": "Coverage/6f1122b1-d56c-42e1-8073-bc9f12ce08f9"
      }, {
        "reference": "Condition/6b8258a1-f89f-4445-aaee-e1fbc260ad9b"
      }, {
        "reference": "MedicationAdministration/94f096fe-4109-4d66-b70a-1ef177b8ccc2"
      }, {
        "reference": "Procedure/1c78020a-b35f-40cc-85e8-841e4f161d1a"
      }, {
        "reference": "Organization/67715b3c-1b3f-4c57-871e-e6bc91855908"
      }, {
        "reference": "Practitioner/ce8e380b-2e45-463e-a17b-31cad7e65aef"
      } ]
    },
    "request": {
      "method": "PUT",
      "url": "MeasureReport/8c28050e-5f17-470d-8b46-f4b571e3448f"
    }
  } ]
}