{
  "resourceType": "Bundle",
  "id": "633c9d040968f8012250fcb4",
  "type": "transaction",
  "entry": [ {
    "fullUrl": "https://madie.cms.gov/Patient/86d68293-66ae-425b-bc4a-9ce429f4621e",
    "resource": {
      "resourceType": "Patient",
      "id": "86d68293-66ae-425b-bc4a-9ce429f4621e",
      "meta": {
        "profile": [ "http://hl7.org/fhir/us/qicore/StructureDefinition/qicore-patient" ]
      },
      "text": {
        "status": "generated",
        "div": "<div xmlns=\"http://www.w3.org/1999/xhtml\"><div class=\"hapiHeaderText\">CMPdurEnc_NoEDNoObsBFEnc_DateTime <b>DENEXPASS </b></div><table class=\"hapiPropertyTable\"><tbody><tr><td>Identifier</td><td>669cd2691aaab3d70b8b307e64426a43</td></tr><tr><td>Date of birth</td><td><span>18 September 1985</span></td></tr></tbody></table></div>"
      },
      "extension": [ {
        "url": "http://hl7.org/fhir/us/core/StructureDefinition/us-core-race",
        "extension": [ {
          "url": "ombCategory",
          "valueCoding": {
            "system": "urn:oid:2.16.840.1.113883.6.238",
            "code": "1002-5",
            "display": "American Indian or Alaska Native",
            "userSelected": true
          }
        }, {
          "url": "text",
          "valueString": "American Indian or Alaska Native"
        } ]
      }, {
        "url": "http://hl7.org/fhir/us/core/StructureDefinition/us-core-ethnicity",
        "extension": [ {
          "url": "ombCategory",
          "valueCoding": {
            "system": "urn:oid:2.16.840.1.113883.6.238",
            "code": "2135-2",
            "display": "Hispanic or Latino",
            "userSelected": true
          }
        }, {
          "url": "text",
          "valueString": "Hispanic or Latino"
        } ]
      } ],
      "identifier": [ {
        "type": {
          "coding": [ {
            "system": "http://terminology.hl7.org/CodeSystem/v2-0203",
            "code": "MR"
          } ]
        },
        "system": "https://bonnie-fhir.healthit.gov/",
        "value": "633c9d040968f8012250fcb4"
      } ],
      "active": true,
      "name": [ {
        "use": "usual",
        "family": "DENEXPass",
        "given": [ "CMPdurEnc_NoEDNoObsBFEnc_DateTime" ]
      } ],
      "gender": "female",
      "birthDate": "1986-09-18"
    },
    "request": {
      "method": "PUT",
      "url": "Patient/86d68293-66ae-425b-bc4a-9ce429f4621e"
    }
  }, {
    "fullUrl": "https://madie.cms.gov/Condition/ade03644-084d-4672-9a25-25116be75419",
    "resource": {
      "resourceType": "Condition",
      "id": "ade03644-084d-4672-9a25-25116be75419",
      "meta": {
        "profile": [ "http://hl7.org/fhir/us/qicore/StructureDefinition/qicore-condition-problems-health-concerns" ]
      },
      "clinicalStatus": {
        "coding": [ {
          "system": "http://terminology.hl7.org/CodeSystem/condition-clinical",
          "code": "inactive"
        } ]
      },
      "verificationStatus": {
        "coding": [ {
          "system": "http://terminology.hl7.org/CodeSystem/condition-ver-status",
          "code": "confirmed"
        } ]
      },
      "category": [ {
        "coding": [ {
          "system": "http://terminology.hl7.org/CodeSystem/condition-category",
          "code": "encounter-diagnosis",
          "display": "Encounter Diagnosis"
        } ]
      } ],
      "code": {
        "coding": [ {
          "system": "http://hl7.org/fhir/sid/icd-10-cm",
          "code": "I48.20"
        }, {
          "system": "http://hl7.org/fhir/sid/icd-10-cm",
          "code": "I48.0"
        }, {
          "system": "http://snomed.info/sct",
          "code": "5370000"
        } ]
      },
      "subject": {
        "reference": "Patient/86d68293-66ae-425b-bc4a-9ce429f4621e"
      },
      "onsetDateTime": "2026-10-01T09:00:00Z",
      "abatementDateTime": "2026-10-12T00:15:00.000+00:00"
    },
    "request": {
      "method": "PUT",
      "url": "Condition/ade03644-084d-4672-9a25-25116be75419"
    }
  }, {
    "fullUrl": "https://madie.cms.gov/Encounter/e7139d0b-5fa8-4e1b-b6ed-25eeb0988a5b",
    "resource": {
      "resourceType": "Encounter",
      "id": "e7139d0b-5fa8-4e1b-b6ed-25eeb0988a5b",
      "meta": {
        "profile": [ "http://hl7.org/fhir/us/qicore/StructureDefinition/qicore-encounter" ]
      },
      "status": "finished",
      "class": {
        "system": "http://terminology.hl7.org/CodeSystem/v3-ActCode",
        "code": "IMP",
        "display": "inpatient encounter"
      },
      "type": [ {
        "coding": [ {
          "system": "http://snomed.info/sct",
          "code": "32485007"
        } ]
      } ],
      "subject": {
        "reference": "Patient/86d68293-66ae-425b-bc4a-9ce429f4621e"
      },
      "period": {
        "start": "2026-10-01T09:00:00Z",
        "end": "2026-10-12T00:15:00.000+00:00"
      },
      "length": {
        "value": 11,
        "unit": "days"
      },
      "reasonReference": [ {
        "reference": "Condition/ade03644-084d-4672-9a25-25116be75419"
      } ]
    },
    "request": {
      "method": "PUT",
      "url": "Encounter/e7139d0b-5fa8-4e1b-b6ed-25eeb0988a5b"
    }
  }, {
    "fullUrl": "https://madie.cms.gov/Procedure/ce52173f-b9c2-4427-adfd-81770c05116d",
    "resource": {
      "resourceType": "Procedure",
      "id": "ce52173f-b9c2-4427-adfd-81770c05116d",
      "meta": {
        "profile": [ "http://hl7.org/fhir/us/qicore/StructureDefinition/qicore-procedure" ]
      },
      "extension": [ {
        "url": "http://hl7.org/fhir/us/qicore/StructureDefinition/qicore-recorded",
        "valueDateTime": "2026-11-19T13:35:00Z"
      } ],
      "status": "completed",
      "code": {
        "coding": [ {
          "system": "http://snomed.info/sct",
          "code": "133918004"
        } ]
      },
      "subject": {
        "reference": "Patient/86d68293-66ae-425b-bc4a-9ce429f4621e"
      },
      "performedDateTime": "2026-10-01T09:01:00Z"
    },
    "request": {
      "method": "PUT",
      "url": "Procedure/ce52173f-b9c2-4427-adfd-81770c05116d"
    }
  }, {
    "fullUrl": "https://madie.cms.gov/Coverage/ff619a70-20da-44b7-97f5-a1943885332e",
    "resource": {
      "resourceType": "Coverage",
      "id": "ff619a70-20da-44b7-97f5-a1943885332e",
      "meta": {
        "profile": [ "http://hl7.org/fhir/us/qicore/StructureDefinition/qicore-coverage" ]
      },
      "status": "active",
      "subscriberId": "523435",
      "beneficiary": {
        "reference": "Patient/162a5913-9989-42f2-8d6a-ae460e245e4c"
      },
      "relationship": {
        "coding": [ {
          "system": "http://terminology.hl7.org/CodeSystem/subscriber-relationship",
          "code": "self"
        } ]
      },
      "payor": [ {
        "reference": "Organization/c5029a9d-85b7-4ac3-a956-4aaf1091f675"
      } ]
    },
    "request": {
      "method": "PUT",
      "url": "Coverage/ff619a70-20da-44b7-97f5-a1943885332e"
    }
  }, {
    "fullUrl": "https://madie.cms.gov/Condition/f81a79c6-41bd-4481-a603-5e3c37c262fb",
    "resource": {
      "resourceType": "Condition",
      "id": "f81a79c6-41bd-4481-a603-5e3c37c262fb",
      "meta": {
        "profile": [ "http://hl7.org/fhir/us/qicore/StructureDefinition/qicore-condition-problems-health-concerns" ]
      },
      "clinicalStatus": {
        "coding": [ {
          "system": "http://terminology.hl7.org/CodeSystem/condition-clinical",
          "code": "active"
        } ]
      },
      "verificationStatus": {
        "coding": [ {
          "system": "http://terminology.hl7.org/CodeSystem/condition-ver-status",
          "code": "confirmed"
        } ]
      },
      "category": [ {
        "coding": [ {
          "system": "http://terminology.hl7.org/CodeSystem/condition-category",
          "code": "encounter-diagnosis",
          "display": "Encounter Diagnosis"
        } ]
      } ],
      "code": {
        "coding": [ {
          "system": "http://snomed.info/sct",
          "version": "2021-09",
          "code": "111297002",
          "display": "Nonparalytic stroke (disorder)",
          "userSelected": true
        } ]
      },
      "subject": {
        "reference": "Patient/86d68293-66ae-425b-bc4a-9ce429f4621e"
      },
      "recordedDate": "2026-10-13T08:00:00Z"
    },
    "request": {
      "method": "PUT",
      "url": "Condition/f81a79c6-41bd-4481-a603-5e3c37c262fb"
    }
  }, {
    "fullUrl": "https://madie.cms.gov/claim/5ca62962b8484628b8de1ec5",
    "resource": {
      "resourceType": "Claim",
      "id": "5ca62962b8484628b8de1ec5",
      "meta": {
        "profile": [ "http://hl7.org/fhir/us/qicore/StructureDefinition/qicore-claim" ]
      },
      "status": "active",
      "type": {
        "coding": [ {
          "system": "http://terminology.hl7.org/CodeSystem/claim-type",
          "code": "institutional"
        } ]
      },
      "use": "claim",
      "patient": {
        "reference": "Patient/d170a0a8-b5ad-4303-b6df-e304dd5f92ad"
      },
      "created": "2026-12-01",
      "provider": {
        "reference": "Practitioner/9f17060f-de7d-4ac8-a3fa-88f32d5285f7"
      },
      "priority": {
        "coding": [ {
          "system": "http://terminology.hl7.org/CodeSystem/processpriority",
          "code": "normal"
        } ]
      },
      "diagnosis": [ {
        "sequence": 1,
        "diagnosisCodeableConcept": {
          "coding": [ {
            "system": "http://hl7.org/fhir/sid/icd-10-cm",
            "code": "I63.00"
          } ]
        },
        "type": [ {
          "coding": [ {
            "system": "http://terminology.hl7.org/CodeSystem/ex-diagnosistype",
            "code": "principal"
          } ]
        } ]
      } ],
      "insurance": [ {
        "sequence": 1,
        "focal": true,
        "coverage": {
          "reference": "Coverage/5fa041661c76ba66d9959367"
        }
      } ],
      "item": [ {
        "sequence": 1,
        "diagnosisSequence": [ 1 ],
        "productOrService": {
          "coding": [ {
            "system": "http://terminology.hl7.org/CodeSystem/ex-USCLS",
            "code": "99555"
          } ]
        },
        "encounter": [ {
          "reference": "Encounter/e7139d0b-5fa8-4e1b-b6ed-25eeb0988a5b"
        } ]
      } ]
    },
    "request": {
      "method": "PUT",
      "url": "Claim/5ca62962b8484628b8de1ec5"
    }
  }, {
    "fullUrl": "https://madie.cms.gov/Organization/c5029a9d-85b7-4ac3-a956-4aaf1091f675",
    "resource": {
      "resourceType": "Organization",
      "id": "c5029a9d-85b7-4ac3-a956-4aaf1091f675",
      "meta": {
        "profile": [ "http://hl7.org/fhir/us/qicore/StructureDefinition/qicore-organization" ]
      },
      "identifier": [ {
        "use": "temp",
        "system": "urn:oid:2.16.840.1.113883.4.4",
        "value": "21-3259825"
      } ],
      "active": true,
      "type": [ {
        "coding": [ {
          "system": "http://terminology.hl7.org/CodeSystem/organization-type",
          "code": "pay",
          "display": "Payer"
        } ]
      } ],
      "name": "Blue Cross Blue Shield of Texas",
      "telecom": [ {
        "system": "phone",
        "value": "(+1) 972-766-6900"
      } ],
      "address": [ {
        "use": "billing",
        "type": "postal",
        "line": [ "P.O. Box 660044" ],
        "city": "Dallas",
        "state": "TX",
        "postalCode": "75266-0044",
        "country": "USA"
      } ]
    },
    "request": {
      "method": "PUT",
      "url": "Organization/c5029a9d-85b7-4ac3-a956-4aaf1091f675"
    }
  }, {
    "fullUrl": "https://madie.cms.gov/Practitioner/9f17060f-de7d-4ac8-a3fa-88f32d5285f7",
    "resource": {
      "resourceType": "Practitioner",
      "id": "9f17060f-de7d-4ac8-a3fa-88f32d5285f7",
      "meta": {
        "profile": [ "http://hl7.org/fhir/us/qicore/StructureDefinition/qicore-practitioner" ]
      },
      "identifier": [ {
        "system": "http://hl7.org/fhir/sid/us-npi",
        "value": "9999999896"
      } ],
      "name": [ {
        "family": "Evil",
        "prefix": [ "Dr" ]
      } ]
    },
    "request": {
      "method": "PUT",
      "url": "Practitioner/9f17060f-de7d-4ac8-a3fa-88f32d5285f7"
    }
  }, {
    "fullUrl": "https://madie.cms.gov/MeasureReport/0a73572a-29d1-4ad6-9607-dad994f23016",
    "resource": {
      "resourceType": "MeasureReport",
      "id": "0a73572a-29d1-4ad6-9607-dad994f23016",
      "meta": {
        "profile": [ "http://hl7.org/fhir/us/cqfmeasures/StructureDefinition/test-case-cqfm" ]
      },
      "contained": [ {
        "resourceType": "Parameters",
        "id": "8c44d1bd-ac9e-468c-bce0-0a83958cd4a8-parameters",
        "parameter": [ {
          "name": "subject",
          "valueString": "86d68293-66ae-425b-bc4a-9ce429f4621e"
        } ]
      } ],
      "extension": [ {
        "url": "http://hl7.org/fhir/StructureDefinition/cqf-inputParameters",
        "valueReference": {
          "reference": "#8c44d1bd-ac9e-468c-bce0-0a83958cd4a8-parameters"
        }
      }, {
        "url": "http://hl7.org/fhir/us/cqfmeasures/StructureDefinition/cqfm-testCaseDescription",
        "valueMarkdown": "Patient receives CMP during inpatient encounter. No ED. No Obs. Testing HospitalizationWithObservation function\n"
      } ],
      "modifierExtension": [ {
        "url": "http://hl7.org/fhir/us/cqfmeasures/StructureDefinition/cqfm-isTestCase",
        "valueBoolean": true
      } ],
      "status": "complete",
      "type": "individual",
      "measure": "https://madie.cms.gov/Measure/CMS71FHIRSTKAnticoagAFFlutter",
      "period": {
        "start": "2026-01-01",
        "end": "2026-12-31"
      },
      "group": [ {
        "id": "Group_1",
        "population": [ {
          "id": "InitialPopulation_1",
          "code": {
            "coding": [ {
              "system": "http://terminology.hl7.org/CodeSystem/measure-population",
              "code": "initial-population",
              "display": "Initial Population"
            } ]
          },
          "count": 1
        }, {
          "id": "Denominator_1",
          "code": {
            "coding": [ {
              "system": "http://terminology.hl7.org/CodeSystem/measure-population",
              "code": "denominator",
              "display": "Denominator"
            } ]
          },
          "count": 1
        }, {
          "id": "DenominatorExclusion_1",
          "code": {
            "coding": [ {
              "system": "http://terminology.hl7.org/CodeSystem/measure-population",
              "code": "denominator-exclusion",
              "display": "Denominator Exclusion"
            } ]
          },
          "count": 1
        }, {
          "id": "Numerator_1",
          "code": {
            "coding": [ {
              "system": "http://terminology.hl7.org/CodeSystem/measure-population",
              "code": "numerator",
              "display": "Numerator"
            } ]
          },
          "count": 0
        }, {
          "id": "DenominatorException_1",
          "code": {
            "coding": [ {
              "system": "http://terminology.hl7.org/CodeSystem/measure-population",
              "code": "denominator-exception",
              "display": "Denominator Exception"
            } ]
          },
          "count": 0
        } ],
        "measureScore": {
          "value": 0.0
        }
      } ],
      "evaluatedResource": [ {
        "reference": "Patient/86d68293-66ae-425b-bc4a-9ce429f4621e"
      }, {
        "reference": "Condition/ade03644-084d-4672-9a25-25116be75419"
      }, {
        "reference": "Encounter/e7139d0b-5fa8-4e1b-b6ed-25eeb0988a5b"
      }, {
        "reference": "Procedure/ce52173f-b9c2-4427-adfd-81770c05116d"
      }, {
        "reference": "Coverage/ff619a70-20da-44b7-97f5-a1943885332e"
      }, {
        "reference": "Condition/f81a79c6-41bd-4481-a603-5e3c37c262fb"
      }, {
        "reference": "Claim/5ca62962b8484628b8de1ec5"
      }, {
        "reference": "Organization/c5029a9d-85b7-4ac3-a956-4aaf1091f675"
      }, {
        "reference": "Practitioner/9f17060f-de7d-4ac8-a3fa-88f32d5285f7"
      } ]
    },
    "request": {
      "method": "PUT",
      "url": "MeasureReport/0a73572a-29d1-4ad6-9607-dad994f23016"
    }
  } ]
}