{
  "resourceType": "Bundle",
  "id": "633b3fa00968f80122503d18",
  "type": "transaction",
  "entry": [ {
    "fullUrl": "https://madie.cms.gov/Patient/9818f17b-50f0-4ff1-8ff3-075723c80329",
    "resource": {
      "resourceType": "Patient",
      "id": "9818f17b-50f0-4ff1-8ff3-075723c80329",
      "meta": {
        "profile": [ "http://hl7.org/fhir/us/qicore/StructureDefinition/qicore-patient" ]
      },
      "text": {
        "status": "generated",
        "div": "<div xmlns=\"http://www.w3.org/1999/xhtml\"><div class=\"hapiHeaderText\">DelProcRelDtTmEQIPEnd <b>IPPASS </b></div><table class=\"hapiPropertyTable\"><tbody><tr><td>Date of birth</td><td><span>31 January 2004</span></td></tr></tbody></table></div>"
      },
      "extension": [ {
        "url": "http://hl7.org/fhir/us/core/StructureDefinition/us-core-race",
        "extension": [ {
          "url": "ombCategory",
          "valueCoding": {
            "system": "urn:oid:2.16.840.1.113883.6.238",
            "code": "1002-5",
            "display": "American Indian or Alaska Native",
            "userSelected": true
          }
        }, {
          "url": "text",
          "valueString": "American Indian or Alaska Native"
        } ]
      }, {
        "url": "http://hl7.org/fhir/us/core/StructureDefinition/us-core-ethnicity",
        "extension": [ {
          "url": "ombCategory",
          "valueCoding": {
            "system": "urn:oid:2.16.840.1.113883.6.238",
            "code": "2135-2",
            "display": "Hispanic or Latino",
            "userSelected": true
          }
        }, {
          "url": "text",
          "valueString": "Hispanic or Latino"
        } ]
      } ],
      "identifier": [ {
        "type": {
          "coding": [ {
            "system": "http://terminology.hl7.org/CodeSystem/v2-0203",
            "code": "MR"
          } ]
        },
        "system": "https://bonnie-fhir.healthit.gov/",
        "value": "633b3fa00968f80122503d18"
      } ],
      "active": true,
      "name": [ {
        "use": "usual",
        "family": "IPPass",
        "given": [ "DelProcRelDtTmEQIPEnd" ]
      } ],
      "gender": "female",
      "birthDate": "2005-01-31"
    },
    "request": {
      "method": "PUT",
      "url": "Patient/9818f17b-50f0-4ff1-8ff3-075723c80329"
    }
  }, {
    "fullUrl": "https://madie.cms.gov/Encounter/629f87bc-68da-4dda-aa30-d553904d32e9",
    "resource": {
      "resourceType": "Encounter",
      "id": "629f87bc-68da-4dda-aa30-d553904d32e9",
      "meta": {
        "profile": [ "http://hl7.org/fhir/us/qicore/StructureDefinition/qicore-encounter" ]
      },
      "status": "finished",
      "class": {
        "system": "http://terminology.hl7.org/CodeSystem/v3-ActCode",
        "code": "IMP",
        "display": "inpatient encounter"
      },
      "type": [ {
        "coding": [ {
          "system": "http://snomed.info/sct",
          "code": "183452005"
        } ]
      } ],
      "subject": {
        "reference": "Patient/9818f17b-50f0-4ff1-8ff3-075723c80329"
      },
      "period": {
        "start": "2026-02-01T09:00:00Z",
        "end": "2026-02-05T08:15:00.000+00:00"
      }
    },
    "request": {
      "method": "PUT",
      "url": "Encounter/629f87bc-68da-4dda-aa30-d553904d32e9"
    }
  }, {
    "fullUrl": "https://madie.cms.gov/Encounter/27f41bbe-e156-443c-a797-37029cf0d3af",
    "resource": {
      "resourceType": "Encounter",
      "id": "27f41bbe-e156-443c-a797-37029cf0d3af",
      "meta": {
        "profile": [ "http://hl7.org/fhir/us/qicore/StructureDefinition/qicore-encounter" ]
      },
      "status": "finished",
      "class": {
        "system": "http://terminology.hl7.org/CodeSystem/v3-ActCode",
        "code": "IMP",
        "display": "inpatient encounter"
      },
      "type": [ {
        "coding": [ {
          "system": "http://snomed.info/sct",
          "code": "448951000124107"
        } ]
      } ],
      "subject": {
        "reference": "Patient/9818f17b-50f0-4ff1-8ff3-075723c80329"
      },
      "period": {
        "start": "2026-02-01T08:00:00Z",
        "end": "2026-02-01T08:59:00.000+00:00"
      }
    },
    "request": {
      "method": "PUT",
      "url": "Encounter/27f41bbe-e156-443c-a797-37029cf0d3af"
    }
  }, {
    "fullUrl": "https://madie.cms.gov/Encounter/6e9f8fc7-1059-450a-a2c3-86d3e878ff07",
    "resource": {
      "resourceType": "Encounter",
      "id": "6e9f8fc7-1059-450a-a2c3-86d3e878ff07",
      "meta": {
        "profile": [ "http://hl7.org/fhir/us/qicore/StructureDefinition/qicore-encounter" ]
      },
      "status": "finished",
      "class": {
        "system": "http://terminology.hl7.org/CodeSystem/v3-ActCode",
        "code": "IMP",
        "display": "inpatient encounter"
      },
      "type": [ {
        "coding": [ {
          "system": "http://snomed.info/sct",
          "code": "4525004"
        } ]
      } ],
      "subject": {
        "reference": "Patient/9818f17b-50f0-4ff1-8ff3-075723c80329"
      },
      "period": {
        "start": "2026-02-01T07:00:00Z",
        "end": "2026-02-01T07:59:00.000+00:00"
      }
    },
    "request": {
      "method": "PUT",
      "url": "Encounter/6e9f8fc7-1059-450a-a2c3-86d3e878ff07"
    }
  }, {
    "fullUrl": "https://madie.cms.gov/Coverage/ca7a4a91-d85b-4537-8136-3799716d815d",
    "resource": {
      "resourceType": "Coverage",
      "id": "ca7a4a91-d85b-4537-8136-3799716d815d",
      "status": "active",
      "beneficiary": {
        "reference": "Patient/9818f17b-50f0-4ff1-8ff3-075723c80329"
      },
      "period": {
        "start": "2005-01-31T01:00:00Z"
      },
      "payor": [ {
        "reference": "Organization/9d9b5a99-46b5-494c-81be-4083bf9d2064"
      } ]
    },
    "request": {
      "method": "PUT",
      "url": "Coverage/ca7a4a91-d85b-4537-8136-3799716d815d"
    }
  }, {
    "fullUrl": "https://madie.cms.gov/Procedure/8c61a8c1-bf15-4b1d-9cba-5a6f4db5e69f",
    "resource": {
      "resourceType": "Procedure",
      "id": "8c61a8c1-bf15-4b1d-9cba-5a6f4db5e69f",
      "meta": {
        "profile": [ "http://hl7.org/fhir/us/qicore/StructureDefinition/qicore-procedure" ]
      },
      "extension": [ {
        "url": "http://hl7.org/fhir/us/qicore/StructureDefinition/qicore-recorded",
        "valueDateTime": "2014-04-05T13:35:00Z"
      } ],
      "status": "completed",
      "code": {
        "coding": [ {
          "system": "http://snomed.info/sct",
          "code": "10745001"
        } ]
      },
      "subject": {
        "reference": "Patient/9818f17b-50f0-4ff1-8ff3-075723c80329"
      },
      "performedDateTime": "2026-02-05T08:15:00Z"
    },
    "request": {
      "method": "PUT",
      "url": "Procedure/8c61a8c1-bf15-4b1d-9cba-5a6f4db5e69f"
    }
  }, {
    "fullUrl": "https://madie.cms.gov/Organization/9d9b5a99-46b5-494c-81be-4083bf9d2064",
    "resource": {
      "resourceType": "Organization",
      "id": "9d9b5a99-46b5-494c-81be-4083bf9d2064",
      "meta": {
        "profile": [ "http://hl7.org/fhir/us/qicore/StructureDefinition/qicore-organization" ]
      },
      "identifier": [ {
        "use": "temp",
        "system": "urn:oid:2.16.840.1.113883.4.4",
        "value": "21-3259825"
      } ],
      "active": true,
      "type": [ {
        "coding": [ {
          "system": "http://terminology.hl7.org/CodeSystem/organization-type",
          "code": "pay",
          "display": "Payer"
        } ]
      } ],
      "name": "Blue Cross Blue Shield of Texas",
      "telecom": [ {
        "system": "phone",
        "value": "(+1) 972-766-6900"
      } ],
      "address": [ {
        "use": "billing",
        "type": "postal",
        "line": [ "P.O. Box 660044" ],
        "city": "Dallas",
        "state": "TX",
        "postalCode": "75266-0044",
        "country": "USA"
      } ]
    },
    "request": {
      "method": "PUT",
      "url": "Organization/9d9b5a99-46b5-494c-81be-4083bf9d2064"
    }
  }, {
    "fullUrl": "https://madie.cms.gov/Practitioner/02d0b0fe-8cae-4af4-9de9-a70aa783716c",
    "resource": {
      "resourceType": "Practitioner",
      "id": "02d0b0fe-8cae-4af4-9de9-a70aa783716c",
      "identifier": [ {
        "system": "http://hl7.org/fhir/sid/us-npi",
        "value": "123456"
      } ],
      "name": [ {
        "family": "Evil",
        "prefix": [ "Dr" ]
      } ]
    },
    "request": {
      "method": "PUT",
      "url": "Practitioner/02d0b0fe-8cae-4af4-9de9-a70aa783716c"
    }
  }, {
    "fullUrl": "https://madie.cms.gov/MeasureReport/124dd582-8717-4ed8-b627-9ad714f1a507",
    "resource": {
      "resourceType": "MeasureReport",
      "id": "124dd582-8717-4ed8-b627-9ad714f1a507",
      "meta": {
        "profile": [ "http://hl7.org/fhir/us/cqfmeasures/StructureDefinition/test-case-cqfm" ]
      },
      "contained": [ {
        "resourceType": "Parameters",
        "id": "fe3c0288-4529-484b-b8a3-84798108cbaa-parameters",
        "parameter": [ {
          "name": "subject",
          "valueString": "9818f17b-50f0-4ff1-8ff3-075723c80329"
        } ]
      } ],
      "extension": [ {
        "url": "http://hl7.org/fhir/StructureDefinition/cqf-inputParameters",
        "valueReference": {
          "reference": "#fe3c0288-4529-484b-b8a3-84798108cbaa-parameters"
        }
      }, {
        "url": "http://hl7.org/fhir/us/cqfmeasures/StructureDefinition/cqfm-testCaseDescription",
        "valueMarkdown": "Delivery Procedure rel date/time = IP end.  ED/OBS/IP all meet global hospitalization criteria.\n"
      } ],
      "modifierExtension": [ {
        "url": "http://hl7.org/fhir/us/cqfmeasures/StructureDefinition/cqfm-isTestCase",
        "valueBoolean": true
      } ],
      "status": "complete",
      "type": "individual",
      "measure": "https://madie.cms.gov/Measure/CMS1028FHIRPCSevereOBComps",
      "period": {
        "start": "2026-01-01",
        "end": "2026-12-31"
      },
      "group": [ {
        "id": "Group_1",
        "population": [ {
          "id": "InitialPopulation_1",
          "code": {
            "coding": [ {
              "system": "http://terminology.hl7.org/CodeSystem/measure-population",
              "code": "initial-population",
              "display": "Initial Population"
            } ]
          },
          "count": 1
        }, {
          "id": "Denominator_1",
          "code": {
            "coding": [ {
              "system": "http://terminology.hl7.org/CodeSystem/measure-population",
              "code": "denominator",
              "display": "Denominator"
            } ]
          },
          "count": 0
        }, {
          "id": "Numerator_1",
          "code": {
            "coding": [ {
              "system": "http://terminology.hl7.org/CodeSystem/measure-population",
              "code": "numerator",
              "display": "Numerator"
            } ]
          },
          "count": 0
        }, {
          "id": "NumeratorExclusion_1",
          "code": {
            "coding": [ {
              "system": "http://terminology.hl7.org/CodeSystem/measure-population",
              "code": "numerator-exclusion",
              "display": "Numerator Exclusion"
            } ]
          },
          "count": 0
        } ],
        "measureScore": {
          "value": 0.0
        }
      }, {
        "id": "Group_2",
        "population": [ {
          "id": "InitialPopulation_2",
          "code": {
            "coding": [ {
              "system": "http://terminology.hl7.org/CodeSystem/measure-population",
              "code": "initial-population",
              "display": "Initial Population"
            } ]
          },
          "count": 1
        }, {
          "id": "Denominator_2",
          "code": {
            "coding": [ {
              "system": "http://terminology.hl7.org/CodeSystem/measure-population",
              "code": "denominator",
              "display": "Denominator"
            } ]
          },
          "count": 0
        }, {
          "id": "Numerator_2",
          "code": {
            "coding": [ {
              "system": "http://terminology.hl7.org/CodeSystem/measure-population",
              "code": "numerator",
              "display": "Numerator"
            } ]
          },
          "count": 0
        }, {
          "id": "NumeratorExclusion_2",
          "code": {
            "coding": [ {
              "system": "http://terminology.hl7.org/CodeSystem/measure-population",
              "code": "numerator-exclusion",
              "display": "Numerator Exclusion"
            } ]
          },
          "count": 0
        } ],
        "measureScore": {
          "value": 0.0
        }
      } ],
      "evaluatedResource": [ {
        "reference": "Patient/9818f17b-50f0-4ff1-8ff3-075723c80329"
      }, {
        "reference": "Encounter/629f87bc-68da-4dda-aa30-d553904d32e9"
      }, {
        "reference": "Encounter/27f41bbe-e156-443c-a797-37029cf0d3af"
      }, {
        "reference": "Encounter/6e9f8fc7-1059-450a-a2c3-86d3e878ff07"
      }, {
        "reference": "Coverage/ca7a4a91-d85b-4537-8136-3799716d815d"
      }, {
        "reference": "Procedure/8c61a8c1-bf15-4b1d-9cba-5a6f4db5e69f"
      }, {
        "reference": "Organization/9d9b5a99-46b5-494c-81be-4083bf9d2064"
      }, {
        "reference": "Practitioner/02d0b0fe-8cae-4af4-9de9-a70aa783716c"
      } ]
    },
    "request": {
      "method": "PUT",
      "url": "MeasureReport/124dd582-8717-4ed8-b627-9ad714f1a507"
    }
  } ]
}