{
  "resourceType": "Bundle",
  "id": "633b3f9e0968f80122503cbe",
  "type": "transaction",
  "entry": [ {
    "fullUrl": "https://madie.cms.gov/Patient/cf6df162-1d6f-4e12-bb7b-b0b910af62ce",
    "resource": {
      "resourceType": "Patient",
      "id": "cf6df162-1d6f-4e12-bb7b-b0b910af62ce",
      "meta": {
        "profile": [ "http://hl7.org/fhir/us/qicore/StructureDefinition/qicore-patient" ]
      },
      "text": {
        "status": "generated",
        "div": "<div xmlns=\"http://www.w3.org/1999/xhtml\"><div class=\"hapiHeaderText\">Age65OnDayOfEncStart<b>IPFAIL</b></div><table class=\"hapiPropertyTable\"><tbody><tr><td>Date of birth</td><td><span>01 February 1947</span></td></tr></tbody></table></div>"
      },
      "extension": [ {
        "url": "http://hl7.org/fhir/us/core/StructureDefinition/us-core-race",
        "extension": [ {
          "url": "ombCategory",
          "valueCoding": {
            "system": "urn:oid:2.16.840.1.113883.6.238",
            "code": "1002-5",
            "display": "American Indian or Alaska Native",
            "userSelected": true
          }
        }, {
          "url": "text",
          "valueString": "American Indian or Alaska Native"
        } ]
      }, {
        "url": "http://hl7.org/fhir/us/core/StructureDefinition/us-core-ethnicity",
        "extension": [ {
          "url": "ombCategory",
          "valueCoding": {
            "system": "urn:oid:2.16.840.1.113883.6.238",
            "code": "2135-2",
            "display": "Hispanic or Latino",
            "userSelected": true
          }
        }, {
          "url": "text",
          "valueString": "Hispanic or Latino"
        } ]
      } ],
      "identifier": [ {
        "type": {
          "coding": [ {
            "system": "http://terminology.hl7.org/CodeSystem/v2-0203",
            "code": "MR"
          } ]
        },
        "system": "https://bonnie-fhir.healthit.gov/",
        "value": "633b3f9e0968f80122503cbe"
      } ],
      "active": true,
      "name": [ {
        "use": "usual",
        "family": "IPFail",
        "given": [ "Age65OnDayOfEncStart" ]
      } ],
      "gender": "female",
      "birthDate": "1960-02-01"
    },
    "request": {
      "method": "PUT",
      "url": "Patient/cf6df162-1d6f-4e12-bb7b-b0b910af62ce"
    }
  }, {
    "fullUrl": "https://madie.cms.gov/Encounter/0b48609d-380f-42fa-ade7-679803be66f1",
    "resource": {
      "resourceType": "Encounter",
      "id": "0b48609d-380f-42fa-ade7-679803be66f1",
      "meta": {
        "profile": [ "http://hl7.org/fhir/us/qicore/StructureDefinition/qicore-encounter" ]
      },
      "status": "finished",
      "class": {
        "system": "http://terminology.hl7.org/CodeSystem/v3-ActCode",
        "code": "IMP",
        "display": "inpatient encounter"
      },
      "type": [ {
        "coding": [ {
          "system": "http://snomed.info/sct",
          "code": "183452005"
        } ]
      } ],
      "subject": {
        "reference": "Patient/cf6df162-1d6f-4e12-bb7b-b0b910af62ce"
      },
      "period": {
        "start": "2026-02-01T08:00:00Z",
        "end": "2026-02-05T08:15:00.000+00:00"
      },
      "diagnosis": [ {
        "condition": {
          "reference": "Condition/Condition-2"
        },
        "use": {
          "coding": [ {
            "system": "http://snomed.info/sct",
            "code": "169826009",
            "display": "Delivery of Singleton"
          } ]
        }
      } ]
    },
    "request": {
      "method": "PUT",
      "url": "Encounter/0b48609d-380f-42fa-ade7-679803be66f1"
    }
  }, {
    "fullUrl": "https://madie.cms.gov/Coverage/c537c41f-23be-4f94-be77-d35da12325c8",
    "resource": {
      "resourceType": "Coverage",
      "id": "c537c41f-23be-4f94-be77-d35da12325c8",
      "status": "active",
      "beneficiary": {
        "reference": "Patient/cf6df162-1d6f-4e12-bb7b-b0b910af62ce"
      },
      "period": {
        "start": "1948-02-01T01:00:00Z"
      },
      "payor": [ {
        "reference": "Organization/81d75c44-ea28-4532-8823-70f12526061b"
      } ]
    },
    "request": {
      "method": "PUT",
      "url": "Coverage/c537c41f-23be-4f94-be77-d35da12325c8"
    }
  }, {
    "fullUrl": "https://madie.cms.gov/Procedure/3f0301a0-0784-4ab7-bf5b-8f1ff91fed36",
    "resource": {
      "resourceType": "Procedure",
      "id": "3f0301a0-0784-4ab7-bf5b-8f1ff91fed36",
      "meta": {
        "profile": [ "http://hl7.org/fhir/us/qicore/StructureDefinition/qicore-procedure" ]
      },
      "extension": [ {
        "url": "http://hl7.org/fhir/us/qicore/StructureDefinition/qicore-recorded",
        "valueDateTime": "2014-04-05T13:35:00Z"
      } ],
      "status": "completed",
      "code": {
        "coding": [ {
          "system": "http://snomed.info/sct",
          "version": "2022-09",
          "code": "10745001",
          "display": "Delivery of transverse presentation (procedure)",
          "userSelected": true
        } ]
      },
      "subject": {
        "reference": "Patient/cf6df162-1d6f-4e12-bb7b-b0b910af62ce"
      },
      "performedPeriod": {
        "start": "2026-02-01T08:00:00Z",
        "end": "2026-02-05T08:15:00.000+00:00"
      }
    },
    "request": {
      "method": "PUT",
      "url": "Procedure/3f0301a0-0784-4ab7-bf5b-8f1ff91fed36"
    }
  }, {
    "fullUrl": "https://madie.cms.gov/Organization/81d75c44-ea28-4532-8823-70f12526061b",
    "resource": {
      "resourceType": "Organization",
      "id": "81d75c44-ea28-4532-8823-70f12526061b",
      "meta": {
        "profile": [ "http://hl7.org/fhir/us/qicore/StructureDefinition/qicore-organization" ]
      },
      "identifier": [ {
        "use": "temp",
        "system": "urn:oid:2.16.840.1.113883.4.4",
        "value": "21-3259825"
      } ],
      "active": true,
      "type": [ {
        "coding": [ {
          "system": "http://terminology.hl7.org/CodeSystem/organization-type",
          "code": "pay",
          "display": "Payer"
        } ]
      } ],
      "name": "Blue Cross Blue Shield of Texas",
      "telecom": [ {
        "system": "phone",
        "value": "(+1) 972-766-6900"
      } ],
      "address": [ {
        "use": "billing",
        "type": "postal",
        "line": [ "P.O. Box 660044" ],
        "city": "Dallas",
        "state": "TX",
        "postalCode": "75266-0044",
        "country": "USA"
      } ]
    },
    "request": {
      "method": "PUT",
      "url": "Organization/81d75c44-ea28-4532-8823-70f12526061b"
    }
  }, {
    "fullUrl": "https://madie.cms.gov/Practitioner/fe099d68-7851-4f2d-b025-ef90e22194a2",
    "resource": {
      "resourceType": "Practitioner",
      "id": "fe099d68-7851-4f2d-b025-ef90e22194a2",
      "identifier": [ {
        "system": "http://hl7.org/fhir/sid/us-npi",
        "value": "123456"
      } ],
      "name": [ {
        "family": "Evil",
        "prefix": [ "Dr" ]
      } ]
    },
    "request": {
      "method": "PUT",
      "url": "Practitioner/fe099d68-7851-4f2d-b025-ef90e22194a2"
    }
  }, {
    "fullUrl": "https://madie.cms.gov/MeasureReport/c2a57822-644a-453d-afa6-702cc02f8d92",
    "resource": {
      "resourceType": "MeasureReport",
      "id": "c2a57822-644a-453d-afa6-702cc02f8d92",
      "meta": {
        "profile": [ "http://hl7.org/fhir/us/cqfmeasures/StructureDefinition/test-case-cqfm" ]
      },
      "contained": [ {
        "resourceType": "Parameters",
        "id": "d8e89aa6-04d2-4b91-9eb9-b835fc60218f-parameters",
        "parameter": [ {
          "name": "subject",
          "valueString": "cf6df162-1d6f-4e12-bb7b-b0b910af62ce"
        } ]
      } ],
      "extension": [ {
        "url": "http://hl7.org/fhir/StructureDefinition/cqf-inputParameters",
        "valueReference": {
          "reference": "#d8e89aa6-04d2-4b91-9eb9-b835fc60218f-parameters"
        }
      }, {
        "url": "http://hl7.org/fhir/us/cqfmeasures/StructureDefinition/cqfm-testCaseDescription",
        "valueMarkdown": "Patient turns 65 years of age on day encounter starts.\n"
      } ],
      "modifierExtension": [ {
        "url": "http://hl7.org/fhir/us/cqfmeasures/StructureDefinition/cqfm-isTestCase",
        "valueBoolean": true
      } ],
      "status": "complete",
      "type": "individual",
      "measure": "https://madie.cms.gov/Measure/CMS1028FHIRPCSevereOBComps",
      "period": {
        "start": "2026-01-01",
        "end": "2026-12-31"
      },
      "group": [ {
        "id": "Group_1",
        "population": [ {
          "id": "InitialPopulation_1",
          "code": {
            "coding": [ {
              "system": "http://terminology.hl7.org/CodeSystem/measure-population",
              "code": "initial-population",
              "display": "Initial Population"
            } ]
          },
          "count": 0
        }, {
          "id": "Denominator_1",
          "code": {
            "coding": [ {
              "system": "http://terminology.hl7.org/CodeSystem/measure-population",
              "code": "denominator",
              "display": "Denominator"
            } ]
          },
          "count": 0
        }, {
          "id": "Numerator_1",
          "code": {
            "coding": [ {
              "system": "http://terminology.hl7.org/CodeSystem/measure-population",
              "code": "numerator",
              "display": "Numerator"
            } ]
          },
          "count": 0
        }, {
          "id": "NumeratorExclusion_1",
          "code": {
            "coding": [ {
              "system": "http://terminology.hl7.org/CodeSystem/measure-population",
              "code": "numerator-exclusion",
              "display": "Numerator Exclusion"
            } ]
          },
          "count": 0
        } ],
        "measureScore": {
          "value": 0.0
        }
      }, {
        "id": "Group_2",
        "population": [ {
          "id": "InitialPopulation_2",
          "code": {
            "coding": [ {
              "system": "http://terminology.hl7.org/CodeSystem/measure-population",
              "code": "initial-population",
              "display": "Initial Population"
            } ]
          },
          "count": 0
        }, {
          "id": "Denominator_2",
          "code": {
            "coding": [ {
              "system": "http://terminology.hl7.org/CodeSystem/measure-population",
              "code": "denominator",
              "display": "Denominator"
            } ]
          },
          "count": 0
        }, {
          "id": "Numerator_2",
          "code": {
            "coding": [ {
              "system": "http://terminology.hl7.org/CodeSystem/measure-population",
              "code": "numerator",
              "display": "Numerator"
            } ]
          },
          "count": 0
        }, {
          "id": "NumeratorExclusion_2",
          "code": {
            "coding": [ {
              "system": "http://terminology.hl7.org/CodeSystem/measure-population",
              "code": "numerator-exclusion",
              "display": "Numerator Exclusion"
            } ]
          },
          "count": 0
        } ],
        "measureScore": {
          "value": 0.0
        }
      } ],
      "evaluatedResource": [ {
        "reference": "Patient/cf6df162-1d6f-4e12-bb7b-b0b910af62ce"
      }, {
        "reference": "Encounter/0b48609d-380f-42fa-ade7-679803be66f1"
      }, {
        "reference": "Coverage/c537c41f-23be-4f94-be77-d35da12325c8"
      }, {
        "reference": "Procedure/3f0301a0-0784-4ab7-bf5b-8f1ff91fed36"
      }, {
        "reference": "Organization/81d75c44-ea28-4532-8823-70f12526061b"
      }, {
        "reference": "Practitioner/fe099d68-7851-4f2d-b025-ef90e22194a2"
      } ]
    },
    "request": {
      "method": "PUT",
      "url": "MeasureReport/c2a57822-644a-453d-afa6-702cc02f8d92"
    }
  } ]
}