{
  "resourceType": "Bundle",
  "id": "6129131b02c62a011f2e5c89",
  "type": "transaction",
  "entry": [ {
    "fullUrl": "https://madie.cms.gov/Patient/451b6853-3734-4c1c-b37e-5904629e0350",
    "resource": {
      "resourceType": "Patient",
      "id": "451b6853-3734-4c1c-b37e-5904629e0350",
      "meta": {
        "profile": [ "http://hl7.org/fhir/us/qicore/StructureDefinition/qicore-patient" ]
      },
      "text": {
        "status": "generated",
        "div": "<div xmlns=\"http://www.w3.org/1999/xhtml\"><div class=\"hapiHeaderText\">3Enc2WithAntithrombotic1WithExcep1Exclu <b>NUMER&amp;DENEXCEPPASS- LCG </b></div><table class=\"hapiPropertyTable\"><tbody><tr><td>Identifier</td><td>be14f222c0646cc5d7ac050774528f5e42a5a6df28c00c64454006e7ac2a1af3</td></tr><tr><td>Date of birth</td><td><span>31 May 1989</span></td></tr></tbody></table></div>"
      },
      "extension": [ {
        "url": "http://hl7.org/fhir/us/core/StructureDefinition/us-core-race",
        "extension": [ {
          "url": "ombCategory",
          "valueCoding": {
            "system": "urn:oid:2.16.840.1.113883.6.238",
            "code": "1002-5",
            "display": "American Indian or Alaska Native",
            "userSelected": true
          }
        }, {
          "url": "text",
          "valueString": "American Indian or Alaska Native"
        } ]
      }, {
        "url": "http://hl7.org/fhir/us/core/StructureDefinition/us-core-ethnicity",
        "extension": [ {
          "url": "ombCategory",
          "valueCoding": {
            "system": "urn:oid:2.16.840.1.113883.6.238",
            "code": "2135-2",
            "display": "Hispanic or Latino",
            "userSelected": true
          }
        }, {
          "url": "text",
          "valueString": "Hispanic or Latino"
        } ]
      } ],
      "identifier": [ {
        "type": {
          "coding": [ {
            "system": "http://terminology.hl7.org/CodeSystem/v2-0203",
            "code": "MR"
          } ]
        },
        "system": "https://bonnie-fhir.healthit.gov/",
        "value": "6129131b02c62a011f2e5c89"
      } ],
      "active": true,
      "name": [ {
        "use": "usual",
        "family": "NUMER&DENEXCEPPass- LCG",
        "given": [ "3Enc2WithAntithrombotic1WithExcep1Exclu" ]
      } ],
      "gender": "male",
      "birthDate": "1999-05-31"
    },
    "request": {
      "method": "PUT",
      "url": "Patient/451b6853-3734-4c1c-b37e-5904629e0350"
    }
  }, {
    "fullUrl": "https://madie.cms.gov/Encounter/dacb9744-20c3-4dc8-8adb-0f44e8234461",
    "resource": {
      "resourceType": "Encounter",
      "id": "dacb9744-20c3-4dc8-8adb-0f44e8234461",
      "meta": {
        "profile": [ "http://hl7.org/fhir/us/qicore/StructureDefinition/qicore-encounter" ]
      },
      "status": "finished",
      "class": {
        "system": "http://terminology.hl7.org/CodeSystem/v3-ActCode",
        "code": "IMP",
        "display": "inpatient encounter",
        "userSelected": true
      },
      "type": [ {
        "coding": [ {
          "system": "http://snomed.info/sct",
          "code": "183452005"
        } ]
      } ],
      "subject": {
        "reference": "Patient/451b6853-3734-4c1c-b37e-5904629e0350"
      },
      "period": {
        "start": "2026-06-14T09:30:00Z",
        "end": "2026-06-25T10:30:00.000+00:00"
      },
      "length": {
        "value": 0,
        "unit": "days"
      },
      "diagnosis": [ {
        "condition": {
          "reference": "Condition/60f8616d-e416-4041-b2ef-b94f1468e0e4"
        },
        "use": {
          "coding": [ {
            "system": "http://terminology.hl7.org/CodeSystem/diagnosis-role",
            "code": "billing",
            "display": "Billing"
          } ]
        },
        "rank": 1
      } ]
    },
    "request": {
      "method": "PUT",
      "url": "Encounter/dacb9744-20c3-4dc8-8adb-0f44e8234461"
    }
  }, {
    "fullUrl": "https://madie.cms.gov/Encounter/a3589c48-f232-4b0e-af67-603771c06691",
    "resource": {
      "resourceType": "Encounter",
      "id": "a3589c48-f232-4b0e-af67-603771c06691",
      "meta": {
        "profile": [ "http://hl7.org/fhir/us/qicore/StructureDefinition/qicore-encounter" ]
      },
      "status": "finished",
      "class": {
        "system": "http://terminology.hl7.org/CodeSystem/v3-ActCode",
        "code": "IMP",
        "display": "inpatient encounter",
        "userSelected": true
      },
      "type": [ {
        "coding": [ {
          "system": "http://snomed.info/sct",
          "code": "32485007"
        } ]
      } ],
      "subject": {
        "reference": "Patient/451b6853-3734-4c1c-b37e-5904629e0350"
      },
      "period": {
        "start": "2026-06-26T09:30:00Z",
        "end": "2026-10-12T10:30:00.000+00:00"
      },
      "length": {
        "value": 119,
        "unit": "days"
      },
      "diagnosis": [ {
        "condition": {
          "reference": "Condition/538f04ec-999e-4c2c-9d9d-05879cebd30f"
        },
        "use": {
          "coding": [ {
            "system": "http://terminology.hl7.org/CodeSystem/diagnosis-role",
            "code": "billing",
            "display": "Billing"
          } ]
        },
        "rank": 1
      } ],
      "hospitalization": {
        "dischargeDisposition": {
          "coding": [ {
            "system": "http://snomed.info/sct",
            "code": "428361000124107",
            "display": "Discharge to home for hospice care (procedure)"
          } ]
        }
      }
    },
    "request": {
      "method": "PUT",
      "url": "Encounter/a3589c48-f232-4b0e-af67-603771c06691"
    }
  }, {
    "fullUrl": "https://madie.cms.gov/Encounter/8e14d1db-1233-415a-b571-241f4382eeb4",
    "resource": {
      "resourceType": "Encounter",
      "id": "8e14d1db-1233-415a-b571-241f4382eeb4",
      "meta": {
        "profile": [ "http://hl7.org/fhir/us/qicore/StructureDefinition/qicore-encounter" ]
      },
      "status": "finished",
      "class": {
        "system": "http://terminology.hl7.org/CodeSystem/v3-ActCode",
        "code": "IMP",
        "display": "inpatient encounter",
        "userSelected": true
      },
      "type": [ {
        "coding": [ {
          "system": "http://snomed.info/sct",
          "code": "183452005"
        } ]
      } ],
      "subject": {
        "reference": "Patient/451b6853-3734-4c1c-b37e-5904629e0350"
      },
      "period": {
        "start": "2026-01-15T11:00:00Z",
        "end": "2026-01-20T22:15:00.000+00:00"
      },
      "diagnosis": [ {
        "condition": {
          "reference": "Condition/7bfe0c3b-b661-4d88-91f6-d6f37e99423b"
        },
        "use": {
          "coding": [ {
            "system": "http://terminology.hl7.org/CodeSystem/diagnosis-role",
            "code": "billing",
            "display": "Billing"
          } ]
        },
        "rank": 1
      } ]
    },
    "request": {
      "method": "PUT",
      "url": "Encounter/8e14d1db-1233-415a-b571-241f4382eeb4"
    }
  }, {
    "fullUrl": "https://madie.cms.gov/ServiceRequest/d52573d5-9df8-4fb1-b95c-e80e7edbf190",
    "resource": {
      "resourceType": "ServiceRequest",
      "id": "d52573d5-9df8-4fb1-b95c-e80e7edbf190",
      "meta": {
        "profile": [ "http://hl7.org/fhir/us/qicore/StructureDefinition/qicore-servicerequest" ]
      },
      "status": "active",
      "intent": "order",
      "code": {
        "coding": [ {
          "system": "http://snomed.info/sct",
          "code": "133918004"
        } ]
      },
      "subject": {
        "reference": "Patient/451b6853-3734-4c1c-b37e-5904629e0350"
      },
      "authoredOn": "2026-01-15T11:00:00Z"
    },
    "request": {
      "method": "PUT",
      "url": "ServiceRequest/d52573d5-9df8-4fb1-b95c-e80e7edbf190"
    }
  }, {
    "fullUrl": "https://madie.cms.gov/MedicationRequest/578d4c47-6f65-4ddf-a07b-80d8ca51fe66",
    "resource": {
      "resourceType": "MedicationRequest",
      "id": "578d4c47-6f65-4ddf-a07b-80d8ca51fe66",
      "meta": {
        "profile": [ "http://hl7.org/fhir/us/qicore/StructureDefinition/qicore-medicationrequest" ]
      },
      "status": "active",
      "intent": "order",
      "category": [ {
        "coding": [ {
          "system": "http://terminology.hl7.org/CodeSystem/medicationrequest-category",
          "code": "discharge",
          "display": "Discharge",
          "userSelected": true
        } ]
      } ],
      "medicationCodeableConcept": {
        "coding": [ {
          "system": "http://www.nlm.nih.gov/research/umls/rxnorm",
          "code": "1037045"
        } ]
      },
      "subject": {
        "reference": "Patient/451b6853-3734-4c1c-b37e-5904629e0350"
      },
      "authoredOn": "2026-10-10T10:00:00Z",
      "requester": {
        "reference": "Practitioner/example"
      }
    },
    "request": {
      "method": "PUT",
      "url": "MedicationRequest/578d4c47-6f65-4ddf-a07b-80d8ca51fe66"
    }
  }, {
    "fullUrl": "https://madie.cms.gov/MedicationRequest/6a87425e-cfde-407e-babc-dac7f945f81e",
    "resource": {
      "resourceType": "MedicationRequest",
      "id": "6a87425e-cfde-407e-babc-dac7f945f81e",
      "meta": {
        "profile": [ "http://hl7.org/fhir/us/qicore/StructureDefinition/qicore-medicationrequest" ]
      },
      "status": "active",
      "intent": "order",
      "category": [ {
        "coding": [ {
          "system": "http://terminology.hl7.org/CodeSystem/medicationrequest-category",
          "code": "discharge",
          "display": "Discharge",
          "userSelected": true
        } ]
      } ],
      "medicationCodeableConcept": {
        "coding": [ {
          "system": "http://www.nlm.nih.gov/research/umls/rxnorm",
          "code": "1037045"
        } ]
      },
      "subject": {
        "reference": "Patient/451b6853-3734-4c1c-b37e-5904629e0350"
      },
      "authoredOn": "2026-06-14T09:30:00Z",
      "requester": {
        "reference": "Practitioner/example"
      }
    },
    "request": {
      "method": "PUT",
      "url": "MedicationRequest/6a87425e-cfde-407e-babc-dac7f945f81e"
    }
  }, {
    "fullUrl": "https://madie.cms.gov/MedicationRequest/0e101935-33fd-44ab-8a02-af687645a941",
    "resource": {
      "resourceType": "MedicationRequest",
      "id": "0e101935-33fd-44ab-8a02-af687645a941",
      "meta": {
        "profile": [ "http://hl7.org/fhir/us/qicore/StructureDefinition/qicore-medicationrequest" ]
      },
      "status": "active",
      "intent": "order",
      "category": [ {
        "coding": [ {
          "system": "http://terminology.hl7.org/CodeSystem/medicationrequest-category",
          "code": "discharge",
          "display": "Discharge",
          "userSelected": true
        } ]
      } ],
      "medicationCodeableConcept": {
        "coding": [ {
          "system": "http://www.nlm.nih.gov/research/umls/rxnorm",
          "code": "1116635"
        } ]
      },
      "subject": {
        "reference": "Patient/451b6853-3734-4c1c-b37e-5904629e0350"
      },
      "authoredOn": "2026-06-14T09:30:00Z",
      "requester": {
        "reference": "Practitioner/example"
      }
    },
    "request": {
      "method": "PUT",
      "url": "MedicationRequest/0e101935-33fd-44ab-8a02-af687645a941"
    }
  }, {
    "fullUrl": "https://madie.cms.gov/Condition/60f8616d-e416-4041-b2ef-b94f1468e0e4",
    "resource": {
      "resourceType": "Condition",
      "id": "60f8616d-e416-4041-b2ef-b94f1468e0e4",
      "meta": {
        "profile": [ "http://hl7.org/fhir/us/qicore/StructureDefinition/qicore-condition" ]
      },
      "clinicalStatus": {
        "coding": [ {
          "system": "http://terminology.hl7.org/CodeSystem/condition-clinical",
          "code": "active"
        } ]
      },
      "verificationStatus": {
        "coding": [ {
          "system": "http://terminology.hl7.org/CodeSystem/condition-ver-status",
          "code": "confirmed"
        } ]
      },
      "category": [ {
        "coding": [ {
          "system": "http://terminology.hl7.org/CodeSystem/condition-category",
          "code": "encounter-diagnosis",
          "display": "Encounter Diagnosis"
        } ]
      } ],
      "code": {
        "coding": [ {
          "system": "http://snomed.info/sct",
          "version": "2020-09",
          "code": "111297002",
          "display": "Nonparalytic stroke (disorder)",
          "userSelected": true
        } ]
      },
      "subject": {
        "reference": "Patient/451b6853-3734-4c1c-b37e-5904629e0350"
      },
      "recordedDate": "2026-07-15T08:00:00Z"
    },
    "request": {
      "method": "PUT",
      "url": "Condition/60f8616d-e416-4041-b2ef-b94f1468e0e4"
    }
  }, {
    "fullUrl": "https://madie.cms.gov/Condition/538f04ec-999e-4c2c-9d9d-05879cebd30f",
    "resource": {
      "resourceType": "Condition",
      "id": "538f04ec-999e-4c2c-9d9d-05879cebd30f",
      "meta": {
        "profile": [ "http://hl7.org/fhir/us/qicore/StructureDefinition/qicore-condition" ]
      },
      "clinicalStatus": {
        "coding": [ {
          "system": "http://terminology.hl7.org/CodeSystem/condition-clinical",
          "code": "active"
        } ]
      },
      "verificationStatus": {
        "coding": [ {
          "system": "http://terminology.hl7.org/CodeSystem/condition-ver-status",
          "code": "confirmed"
        } ]
      },
      "category": [ {
        "coding": [ {
          "system": "http://terminology.hl7.org/CodeSystem/condition-category",
          "code": "encounter-diagnosis",
          "display": "Encounter Diagnosis"
        } ]
      } ],
      "code": {
        "coding": [ {
          "system": "http://snomed.info/sct",
          "version": "2020-09",
          "code": "111297002",
          "display": "Nonparalytic stroke (disorder)",
          "userSelected": true
        } ]
      },
      "subject": {
        "reference": "Patient/451b6853-3734-4c1c-b37e-5904629e0350"
      },
      "recordedDate": "2026-07-15T08:00:00Z"
    },
    "request": {
      "method": "PUT",
      "url": "Condition/538f04ec-999e-4c2c-9d9d-05879cebd30f"
    }
  }, {
    "fullUrl": "https://madie.cms.gov/Condition/7bfe0c3b-b661-4d88-91f6-d6f37e99423b",
    "resource": {
      "resourceType": "Condition",
      "id": "7bfe0c3b-b661-4d88-91f6-d6f37e99423b",
      "meta": {
        "profile": [ "http://hl7.org/fhir/us/qicore/StructureDefinition/qicore-condition" ]
      },
      "clinicalStatus": {
        "coding": [ {
          "system": "http://terminology.hl7.org/CodeSystem/condition-clinical",
          "code": "active"
        } ]
      },
      "verificationStatus": {
        "coding": [ {
          "system": "http://terminology.hl7.org/CodeSystem/condition-ver-status",
          "code": "confirmed"
        } ]
      },
      "category": [ {
        "coding": [ {
          "system": "http://terminology.hl7.org/CodeSystem/condition-category",
          "code": "encounter-diagnosis",
          "display": "Encounter Diagnosis"
        } ]
      } ],
      "code": {
        "coding": [ {
          "system": "http://snomed.info/sct",
          "version": "2020-09",
          "code": "111297002",
          "display": "Nonparalytic stroke (disorder)",
          "userSelected": true
        } ]
      },
      "subject": {
        "reference": "Patient/451b6853-3734-4c1c-b37e-5904629e0350"
      },
      "recordedDate": "2026-07-15T08:00:00Z"
    },
    "request": {
      "method": "PUT",
      "url": "Condition/7bfe0c3b-b661-4d88-91f6-d6f37e99423b"
    }
  }, {
    "fullUrl": "https://madie.cms.gov/claim/5ca62962b8484628b8de1ec5",
    "resource": {
      "resourceType": "Claim",
      "id": "5ca62962b8484628b8de1ec5",
      "meta": {
        "profile": [ "http://hl7.org/fhir/us/qicore/StructureDefinition/qicore-claim" ]
      },
      "status": "active",
      "type": {
        "coding": [ {
          "system": "http://terminology.hl7.org/CodeSystem/claim-type",
          "code": "institutional"
        } ]
      },
      "use": "claim",
      "patient": {
        "reference": "Patient/d170a0a8-b5ad-4303-b6df-e304dd5f92ad"
      },
      "created": "2026-12-01",
      "provider": {
        "reference": "Practitioner/practitioner-123456"
      },
      "priority": {
        "coding": [ {
          "system": "http://terminology.hl7.org/CodeSystem/processpriority",
          "code": "normal"
        } ]
      },
      "diagnosis": [ {
        "sequence": 1,
        "diagnosisCodeableConcept": {
          "coding": [ {
            "system": "http://hl7.org/fhir/sid/icd-10-cm",
            "code": "I63.00"
          } ]
        },
        "type": [ {
          "coding": [ {
            "system": "http://terminology.hl7.org/CodeSystem/ex-diagnosistype",
            "code": "principal"
          } ]
        } ]
      } ],
      "insurance": [ {
        "sequence": 1,
        "focal": true,
        "coverage": {
          "reference": "Coverage/5fa041661c76ba66d9959367"
        }
      } ],
      "item": [ {
        "sequence": 1,
        "diagnosisSequence": [ 1 ],
        "productOrService": {
          "coding": [ {
            "system": "http://terminology.hl7.org/CodeSystem/ex-USCLS",
            "code": "99555"
          } ]
        },
        "encounter": [ {
          "reference": "Encounter/dacb9744-20c3-4dc8-8adb-0f44e8234461"
        } ]
      } ]
    },
    "request": {
      "method": "PUT",
      "url": "Claim/5ca62962b8484628b8de1ec5"
    }
  }, {
    "fullUrl": "https://madie.cms.gov/claim/5ca62962b8484628b8de1ec5",
    "resource": {
      "resourceType": "Claim",
      "id": "5ca62962b8484628b8de1ec5",
      "meta": {
        "profile": [ "http://hl7.org/fhir/us/qicore/StructureDefinition/qicore-claim" ]
      },
      "status": "active",
      "type": {
        "coding": [ {
          "system": "http://terminology.hl7.org/CodeSystem/claim-type",
          "code": "institutional"
        } ]
      },
      "use": "claim",
      "patient": {
        "reference": "Patient/d170a0a8-b5ad-4303-b6df-e304dd5f92ad"
      },
      "created": "2026-12-01",
      "provider": {
        "reference": "Practitioner/practitioner-123456"
      },
      "priority": {
        "coding": [ {
          "system": "http://terminology.hl7.org/CodeSystem/processpriority",
          "code": "normal"
        } ]
      },
      "diagnosis": [ {
        "sequence": 1,
        "diagnosisCodeableConcept": {
          "coding": [ {
            "system": "http://hl7.org/fhir/sid/icd-10-cm",
            "code": "I63.00"
          } ]
        },
        "type": [ {
          "coding": [ {
            "system": "http://terminology.hl7.org/CodeSystem/ex-diagnosistype",
            "code": "principal"
          } ]
        } ]
      } ],
      "insurance": [ {
        "sequence": 1,
        "focal": true,
        "coverage": {
          "reference": "Coverage/5fa041661c76ba66d9959367"
        }
      } ],
      "item": [ {
        "sequence": 1,
        "diagnosisSequence": [ 1 ],
        "productOrService": {
          "coding": [ {
            "system": "http://terminology.hl7.org/CodeSystem/ex-USCLS",
            "code": "99555"
          } ]
        },
        "encounter": [ {
          "reference": "Encounter/a3589c48-f232-4b0e-af67-603771c06691"
        } ]
      } ]
    },
    "request": {
      "method": "PUT",
      "url": "Claim/5ca62962b8484628b8de1ec5"
    }
  }, {
    "fullUrl": "https://madie.cms.gov/claim/5ca62962b8484628b8de1ec5",
    "resource": {
      "resourceType": "Claim",
      "id": "5ca62962b8484628b8de1ec5",
      "meta": {
        "profile": [ "http://hl7.org/fhir/us/qicore/StructureDefinition/qicore-claim" ]
      },
      "status": "active",
      "type": {
        "coding": [ {
          "system": "http://terminology.hl7.org/CodeSystem/claim-type",
          "code": "institutional"
        } ]
      },
      "use": "claim",
      "patient": {
        "reference": "Patient/d170a0a8-b5ad-4303-b6df-e304dd5f92ad"
      },
      "created": "2026-12-01",
      "provider": {
        "reference": "Practitioner/practitioner-123456"
      },
      "priority": {
        "coding": [ {
          "system": "http://terminology.hl7.org/CodeSystem/processpriority",
          "code": "normal"
        } ]
      },
      "diagnosis": [ {
        "sequence": 1,
        "diagnosisCodeableConcept": {
          "coding": [ {
            "system": "http://hl7.org/fhir/sid/icd-10-cm",
            "code": "I63.00"
          } ]
        },
        "type": [ {
          "coding": [ {
            "system": "http://terminology.hl7.org/CodeSystem/ex-diagnosistype",
            "code": "principal"
          } ]
        } ]
      } ],
      "insurance": [ {
        "sequence": 1,
        "focal": true,
        "coverage": {
          "reference": "Coverage/5fa041661c76ba66d9959367"
        }
      } ],
      "item": [ {
        "sequence": 1,
        "diagnosisSequence": [ 1 ],
        "productOrService": {
          "coding": [ {
            "system": "http://terminology.hl7.org/CodeSystem/ex-USCLS",
            "code": "99555"
          } ]
        },
        "encounter": [ {
          "reference": "Encounter/8e14d1db-1233-415a-b571-241f4382eeb4"
        } ]
      } ]
    },
    "request": {
      "method": "PUT",
      "url": "Claim/5ca62962b8484628b8de1ec5"
    }
  }, {
    "fullUrl": "https://madie.cms.gov/Coverage/c2185580-5531-4802-bbb1-85cc7b6b3d73",
    "resource": {
      "resourceType": "Coverage",
      "id": "c2185580-5531-4802-bbb1-85cc7b6b3d73",
      "meta": {
        "profile": [ "http://hl7.org/fhir/us/qicore/StructureDefinition/qicore-coverage" ]
      },
      "status": "active",
      "beneficiary": {
        "reference": "Patient/451b6853-3734-4c1c-b37e-5904629e0350"
      },
      "payor": [ {
        "reference": "Organization/b52ca8fc-892d-44f7-b055-ba67663f6eaa"
      } ]
    },
    "request": {
      "method": "PUT",
      "url": "Coverage/c2185580-5531-4802-bbb1-85cc7b6b3d73"
    }
  }, {
    "fullUrl": "https://madie.cms.gov/Organization/b52ca8fc-892d-44f7-b055-ba67663f6eaa",
    "resource": {
      "resourceType": "Organization",
      "id": "b52ca8fc-892d-44f7-b055-ba67663f6eaa",
      "meta": {
        "profile": [ "http://hl7.org/fhir/us/qicore/StructureDefinition/qicore-organization" ]
      },
      "identifier": [ {
        "use": "temp",
        "system": "urn:oid:2.16.840.1.113883.4.4",
        "value": "21-3259825"
      } ],
      "active": true,
      "type": [ {
        "coding": [ {
          "system": "http://terminology.hl7.org/CodeSystem/organization-type",
          "code": "pay",
          "display": "Payer"
        } ]
      } ],
      "name": "Blue Cross Blue Shield of Texas",
      "telecom": [ {
        "system": "phone",
        "value": "(+1) 972-766-6900"
      } ],
      "address": [ {
        "use": "billing",
        "type": "postal",
        "line": [ "P.O. Box 660044" ],
        "city": "Dallas",
        "state": "TX",
        "postalCode": "75266-0044",
        "country": "USA"
      } ]
    },
    "request": {
      "method": "PUT",
      "url": "Organization/b52ca8fc-892d-44f7-b055-ba67663f6eaa"
    }
  }, {
    "fullUrl": "https://madie.cms.gov/MeasureReport/9fb161ea-fc87-449a-b6be-88f2420c08d3",
    "resource": {
      "resourceType": "MeasureReport",
      "id": "9fb161ea-fc87-449a-b6be-88f2420c08d3",
      "meta": {
        "profile": [ "http://hl7.org/fhir/us/cqfmeasures/StructureDefinition/test-case-cqfm" ]
      },
      "contained": [ {
        "resourceType": "Parameters",
        "id": "0e0aa5fd-c07f-46d2-a065-8ee08845488e-parameters",
        "parameter": [ {
          "name": "subject",
          "valueString": "451b6853-3734-4c1c-b37e-5904629e0350"
        } ]
      } ],
      "extension": [ {
        "url": "http://hl7.org/fhir/StructureDefinition/cqf-inputParameters",
        "valueReference": {
          "reference": "#0e0aa5fd-c07f-46d2-a065-8ee08845488e-parameters"
        }
      }, {
        "url": "http://hl7.org/fhir/us/cqfmeasures/StructureDefinition/cqfm-testCaseDescription",
        "valueMarkdown": "Multiple Episodes of Care:  NUMER, DENEX, DENEX\n"
      } ],
      "modifierExtension": [ {
        "url": "http://hl7.org/fhir/us/cqfmeasures/StructureDefinition/cqfm-isTestCase",
        "valueBoolean": true
      } ],
      "status": "complete",
      "type": "individual",
      "measure": "https://madie.cms.gov/Measure/CMS104FHIRSTKDCAntithrombotic",
      "period": {
        "start": "2026-01-01",
        "end": "2026-12-31"
      },
      "group": [ {
        "id": "Group_1",
        "population": [ {
          "id": "InitialPopulation_1",
          "code": {
            "coding": [ {
              "system": "http://terminology.hl7.org/CodeSystem/measure-population",
              "code": "initial-population",
              "display": "Initial Population"
            } ]
          },
          "count": 3
        }, {
          "id": "Denominator_1",
          "code": {
            "coding": [ {
              "system": "http://terminology.hl7.org/CodeSystem/measure-population",
              "code": "denominator",
              "display": "Denominator"
            } ]
          },
          "count": 3
        }, {
          "id": "DenominatorExclusion_1",
          "code": {
            "coding": [ {
              "system": "http://terminology.hl7.org/CodeSystem/measure-population",
              "code": "denominator-exclusion",
              "display": "Denominator Exclusion"
            } ]
          },
          "count": 2
        }, {
          "id": "Numerator_1",
          "code": {
            "coding": [ {
              "system": "http://terminology.hl7.org/CodeSystem/measure-population",
              "code": "numerator",
              "display": "Numerator"
            } ]
          },
          "count": 1
        }, {
          "id": "DenominatorException_1",
          "code": {
            "coding": [ {
              "system": "http://terminology.hl7.org/CodeSystem/measure-population",
              "code": "denominator-exception",
              "display": "Denominator Exception"
            } ]
          },
          "count": 0
        } ],
        "measureScore": {
          "value": 0.0
        }
      } ],
      "evaluatedResource": [ {
        "reference": "Patient/451b6853-3734-4c1c-b37e-5904629e0350"
      }, {
        "reference": "Encounter/dacb9744-20c3-4dc8-8adb-0f44e8234461"
      }, {
        "reference": "Encounter/a3589c48-f232-4b0e-af67-603771c06691"
      }, {
        "reference": "Encounter/8e14d1db-1233-415a-b571-241f4382eeb4"
      }, {
        "reference": "ServiceRequest/d52573d5-9df8-4fb1-b95c-e80e7edbf190"
      }, {
        "reference": "MedicationRequest/578d4c47-6f65-4ddf-a07b-80d8ca51fe66"
      }, {
        "reference": "MedicationRequest/6a87425e-cfde-407e-babc-dac7f945f81e"
      }, {
        "reference": "MedicationRequest/0e101935-33fd-44ab-8a02-af687645a941"
      }, {
        "reference": "Condition/60f8616d-e416-4041-b2ef-b94f1468e0e4"
      }, {
        "reference": "Condition/538f04ec-999e-4c2c-9d9d-05879cebd30f"
      }, {
        "reference": "Condition/7bfe0c3b-b661-4d88-91f6-d6f37e99423b"
      }, {
        "reference": "Claim/5ca62962b8484628b8de1ec5"
      }, {
        "reference": "Claim/5ca62962b8484628b8de1ec5"
      }, {
        "reference": "Claim/5ca62962b8484628b8de1ec5"
      }, {
        "reference": "Coverage/c2185580-5531-4802-bbb1-85cc7b6b3d73"
      }, {
        "reference": "Organization/b52ca8fc-892d-44f7-b055-ba67663f6eaa"
      } ]
    },
    "request": {
      "method": "PUT",
      "url": "MeasureReport/9fb161ea-fc87-449a-b6be-88f2420c08d3"
    }
  } ]
}