{
  "resourceType": "Bundle",
  "id": "tests-9baac6c5-1826-4c06-a4a4-6ef5bfda76ba-bundle",
  "type": "transaction",
  "entry": [ {
    "fullUrl": "https://madie.cms.gov/Encounter/e892294b-36a3-47a0-be3b-59d983f28120",
    "resource": {
      "resourceType": "Encounter",
      "id": "e892294b-36a3-47a0-be3b-59d983f28120",
      "meta": {
        "profile": [ "http://hl7.org/fhir/us/qicore/StructureDefinition/qicore-encounter" ]
      },
      "status": "finished",
      "class": {
        "system": "http://terminology.hl7.org/CodeSystem/v3-ActCode",
        "code": "EMER",
        "display": "emergency"
      },
      "type": [ {
        "coding": [ {
          "system": "http://snomed.info/sct",
          "code": "4525004"
        } ]
      } ],
      "subject": {
        "reference": "Patient/83920944-d004-4763-a21b-dbff77e4ef48"
      },
      "period": {
        "start": "2026-09-29T08:00:00.000+00:00",
        "end": "2026-09-30T20:00:00.000+00:00"
      }
    },
    "request": {
      "method": "PUT",
      "url": "Encounter/e892294b-36a3-47a0-be3b-59d983f28120"
    }
  }, {
    "fullUrl": "https://madie.cms.gov/Organization/da0fe3b7-409e-4e26-ab0f-843143a4fcc9",
    "resource": {
      "resourceType": "Organization",
      "id": "da0fe3b7-409e-4e26-ab0f-843143a4fcc9",
      "meta": {
        "profile": [ "http://hl7.org/fhir/us/qicore/StructureDefinition/qicore-organization" ]
      },
      "identifier": [ {
        "use": "temp",
        "system": "urn:oid:2.16.840.1.113883.4.4",
        "value": "21-3259825"
      } ],
      "active": true,
      "type": [ {
        "coding": [ {
          "system": "http://terminology.hl7.org/CodeSystem/organization-type",
          "code": "pay",
          "display": "Payer"
        } ]
      } ],
      "name": "Blue Cross Blue Shield of Texas",
      "telecom": [ {
        "system": "phone",
        "value": "(+1) 972-766-6900"
      } ],
      "address": [ {
        "use": "billing",
        "type": "postal",
        "line": [ "P.O. Box 660044" ],
        "city": "Dallas",
        "state": "TX",
        "postalCode": "75266-0044",
        "country": "USA"
      } ]
    },
    "request": {
      "method": "PUT",
      "url": "Organization/da0fe3b7-409e-4e26-ab0f-843143a4fcc9"
    }
  }, {
    "fullUrl": "https://madie.cms.gov/Observation/c6a67a31-e3f3-4856-93e2-9afb06dabb71",
    "resource": {
      "resourceType": "Observation",
      "id": "c6a67a31-e3f3-4856-93e2-9afb06dabb71",
      "meta": {
        "profile": [ "http://hl7.org/fhir/us/qicore/StructureDefinition/qicore-observation-lab" ]
      },
      "status": "final",
      "category": [ {
        "coding": [ {
          "system": "http://terminology.hl7.org/CodeSystem/observation-category",
          "code": "laboratory",
          "display": "Laboratory"
        } ]
      } ],
      "code": {
        "coding": [ {
          "system": "http://loinc.org",
          "version": "2.72",
          "code": "2160-0",
          "display": "Creatinine [Mass/volume] in Serum or Plasma",
          "userSelected": true
        } ]
      },
      "subject": {
        "reference": "Patient/83920944-d004-4763-a21b-dbff77e4ef48"
      },
      "effectiveDateTime": "2026-10-02T08:00:00.000+00:00",
      "issued": "2026-10-02T08:30:00.000+00:00",
      "valueQuantity": {
        "value": 1.1,
        "unit": "mg/dL",
        "system": "http://unitsofmeasure.org",
        "code": "mg/dL"
      }
    },
    "request": {
      "method": "PUT",
      "url": "Observation/c6a67a31-e3f3-4856-93e2-9afb06dabb71"
    }
  }, {
    "fullUrl": "https://madie.cms.gov/Encounter/620b9363-eeb8-4c84-8413-21ee10eceaa4",
    "resource": {
      "resourceType": "Encounter",
      "id": "620b9363-eeb8-4c84-8413-21ee10eceaa4",
      "meta": {
        "profile": [ "http://hl7.org/fhir/us/qicore/StructureDefinition/qicore-encounter" ]
      },
      "status": "finished",
      "class": {
        "system": "http://terminology.hl7.org/CodeSystem/v3-ActCode",
        "code": "IMP",
        "display": "inpatient encounter"
      },
      "type": [ {
        "coding": [ {
          "system": "http://snomed.info/sct",
          "code": "183452005"
        } ]
      } ],
      "subject": {
        "reference": "Patient/83920944-d004-4763-a21b-dbff77e4ef48"
      },
      "period": {
        "start": "2026-09-29T20:00:00.000+00:00",
        "end": "2026-10-04T08:15:00.000+00:00"
      }
    },
    "request": {
      "method": "PUT",
      "url": "Encounter/620b9363-eeb8-4c84-8413-21ee10eceaa4"
    }
  }, {
    "fullUrl": "https://madie.cms.gov/Observation/7187c306-959d-4d3d-9188-b150588bf1af",
    "resource": {
      "resourceType": "Observation",
      "id": "7187c306-959d-4d3d-9188-b150588bf1af",
      "meta": {
        "profile": [ "http://hl7.org/fhir/us/qicore/StructureDefinition/qicore-observation-lab" ]
      },
      "status": "final",
      "category": [ {
        "coding": [ {
          "system": "http://terminology.hl7.org/CodeSystem/observation-category",
          "code": "laboratory",
          "display": "Laboratory"
        } ]
      } ],
      "code": {
        "coding": [ {
          "system": "http://loinc.org",
          "version": "2.72",
          "code": "2160-0",
          "display": "Creatinine [Mass/volume] in Serum or Plasma",
          "userSelected": true
        } ]
      },
      "subject": {
        "reference": "Patient/83920944-d004-4763-a21b-dbff77e4ef48"
      },
      "effectiveDateTime": "2026-09-30T09:00:00.000+00:00",
      "issued": "2026-09-30T09:30:00.000+00:00",
      "valueQuantity": {
        "value": 1.1,
        "unit": "mg/dL",
        "system": "http://unitsofmeasure.org",
        "code": "mg/dL"
      }
    },
    "request": {
      "method": "PUT",
      "url": "Observation/7187c306-959d-4d3d-9188-b150588bf1af"
    }
  }, {
    "fullUrl": "https://madie.cms.gov/Observation/782152ef-5204-4de0-917f-51a70164fda0",
    "resource": {
      "resourceType": "Observation",
      "id": "782152ef-5204-4de0-917f-51a70164fda0",
      "meta": {
        "profile": [ "http://hl7.org/fhir/us/qicore/StructureDefinition/qicore-observation-lab" ]
      },
      "status": "final",
      "category": [ {
        "coding": [ {
          "system": "http://terminology.hl7.org/CodeSystem/observation-category",
          "code": "laboratory",
          "display": "Laboratory"
        } ]
      } ],
      "code": {
        "coding": [ {
          "system": "http://loinc.org",
          "code": "2160-0",
          "display": "Creatinine [Mass/volume] in Serum or Plasma"
        } ]
      },
      "subject": {
        "reference": "Patient/83920944-d004-4763-a21b-dbff77e4ef48"
      },
      "effectiveDateTime": "2026-10-03T08:00:00.000+00:00",
      "issued": "2026-10-03T08:30:00.000+00:00",
      "valueQuantity": {
        "value": 2,
        "unit": "mg/dL",
        "system": "http://unitsofmeasure.org",
        "code": "mg/dL"
      }
    },
    "request": {
      "method": "PUT",
      "url": "Observation/782152ef-5204-4de0-917f-51a70164fda0"
    }
  }, {
    "fullUrl": "https://madie.cms.gov/Observation/edbe9ea8-6dd7-4243-8fbc-7edf72986516",
    "resource": {
      "resourceType": "Observation",
      "id": "edbe9ea8-6dd7-4243-8fbc-7edf72986516",
      "meta": {
        "profile": [ "http://hl7.org/fhir/us/qicore/StructureDefinition/qicore-observation-lab" ]
      },
      "status": "final",
      "category": [ {
        "coding": [ {
          "system": "http://terminology.hl7.org/CodeSystem/observation-category",
          "code": "laboratory",
          "display": "Laboratory"
        } ]
      } ],
      "code": {
        "coding": [ {
          "system": "http://loinc.org",
          "version": "2.72",
          "code": "2160-0",
          "display": "Creatinine [Mass/volume] in Serum or Plasma",
          "userSelected": true
        } ]
      },
      "subject": {
        "reference": "Patient/83920944-d004-4763-a21b-dbff77e4ef48"
      },
      "effectiveDateTime": "2026-09-30T08:00:00.000+00:00",
      "issued": "2026-09-30T08:30:00.000+00:00",
      "valueQuantity": {
        "value": 1,
        "unit": "mg/dL",
        "system": "http://unitsofmeasure.org",
        "code": "mg/dL"
      }
    },
    "request": {
      "method": "PUT",
      "url": "Observation/edbe9ea8-6dd7-4243-8fbc-7edf72986516"
    }
  }, {
    "fullUrl": "https://madie.cms.gov/Coverage/37d5d155-882c-4e08-8a21-04e7101f4480",
    "resource": {
      "resourceType": "Coverage",
      "id": "37d5d155-882c-4e08-8a21-04e7101f4480",
      "meta": {
        "profile": [ "http://hl7.org/fhir/us/qicore/StructureDefinition/qicore-coverage" ]
      },
      "status": "active",
      "type": {
        "coding": [ {
          "system": "https://nahdo.org/sopt",
          "version": "9.2",
          "code": "211",
          "display": "Medicaid HMO"
        } ]
      },
      "beneficiary": {
        "reference": "Patient/83920944-d004-4763-a21b-dbff77e4ef48"
      },
      "period": {
        "start": "2024-12-01T00:00:00.000+00:00"
      },
      "payor": [ {
        "reference": "Organization/da0fe3b7-409e-4e26-ab0f-843143a4fcc9"
      } ]
    },
    "request": {
      "method": "PUT",
      "url": "Coverage/37d5d155-882c-4e08-8a21-04e7101f4480"
    }
  }, {
    "fullUrl": "https://madie.cms.gov/Procedure/caee197b-8125-4475-8a53-fd8b67b3ae82",
    "resource": {
      "resourceType": "Procedure",
      "id": "caee197b-8125-4475-8a53-fd8b67b3ae82",
      "meta": {
        "profile": [ "http://hl7.org/fhir/us/qicore/StructureDefinition/qicore-procedure" ]
      },
      "status": "completed",
      "code": {
        "coding": [ {
          "system": "http://snomed.info/sct",
          "code": "11932001"
        } ]
      },
      "subject": {
        "reference": "Patient/83920944-d004-4763-a21b-dbff77e4ef48"
      },
      "performedDateTime": "2026-09-30T08:30:00.000+00:00",
      "performer": [ {
        "actor": {
          "reference": "Organization/da0fe3b7-409e-4e26-ab0f-843143a4fcc9"
        }
      } ]
    },
    "request": {
      "method": "PUT",
      "url": "Procedure/caee197b-8125-4475-8a53-fd8b67b3ae82"
    }
  }, {
    "fullUrl": "https://madie.cms.gov/Patient/83920944-d004-4763-a21b-dbff77e4ef48",
    "resource": {
      "resourceType": "Patient",
      "id": "83920944-d004-4763-a21b-dbff77e4ef48",
      "meta": {
        "profile": [ "http://hl7.org/fhir/us/qicore/StructureDefinition/qicore-patient" ]
      },
      "text": {
        "status": "generated",
        "div": "<div xmlns=\"http://www.w3.org/1999/xhtml\"><div class=\"hapiHeaderText\">Turns 18 day of Encounter <b>NUMERPass </b></div><table class=\"hapiPropertyTable\"><tbody><tr><td>Identifier</td><td>f0eda1c9668fdacdcad3378589bf6e0a71e7dec1618f14fca4d442ec96e402b1</td></tr><tr><td>Date of birth</td><td><span>29 September 2006</span></td></tr></tbody></table></div>"
      },
      "extension": [ {
        "url": "http://hl7.org/fhir/us/core/StructureDefinition/us-core-race",
        "extension": [ {
          "url": "ombCategory",
          "valueCoding": {
            "system": "urn:oid:2.16.840.1.113883.6.238",
            "code": "1002-5",
            "display": "American Indian or Alaska Native",
            "userSelected": true
          }
        }, {
          "url": "text",
          "valueString": "American Indian or Alaska Native"
        } ]
      }, {
        "url": "http://hl7.org/fhir/us/core/StructureDefinition/us-core-ethnicity",
        "extension": [ {
          "url": "ombCategory",
          "valueCoding": {
            "system": "urn:oid:2.16.840.1.113883.6.238",
            "code": "2135-2",
            "display": "Hispanic or Latino",
            "userSelected": true
          }
        }, {
          "url": "text",
          "valueString": "Hispanic or Latino"
        } ]
      }, {
        "url": "http://hl7.org/fhir/us/core/StructureDefinition/us-core-sex",
        "valueCode": "248152002"
      } ],
      "identifier": [ {
        "type": {
          "coding": [ {
            "system": "http://terminology.hl7.org/CodeSystem/v2-0203",
            "code": "MR"
          } ]
        },
        "system": "http://bonnie-fhir.healthit.gov/",
        "value": "NUMERPass-SCrIncrease2x"
      } ],
      "active": true,
      "name": [ {
        "use": "usual",
        "family": "NUMERPass",
        "given": [ "SCrIncrease2x" ]
      } ],
      "gender": "female",
      "birthDate": "1983-10-10"
    },
    "request": {
      "method": "PUT",
      "url": "Patient/83920944-d004-4763-a21b-dbff77e4ef48"
    }
  }, {
    "fullUrl": "https://madie.cms.gov/MeasureReport/c5fb4bca-0801-4fb0-9bca-f4d7063720eb",
    "resource": {
      "resourceType": "MeasureReport",
      "id": "c5fb4bca-0801-4fb0-9bca-f4d7063720eb",
      "meta": {
        "profile": [ "http://hl7.org/fhir/us/cqfmeasures/StructureDefinition/test-case-cqfm" ]
      },
      "contained": [ {
        "resourceType": "Parameters",
        "id": "36faf8f7-ac9d-426d-80b4-56a2da86d762-parameters",
        "parameter": [ {
          "name": "subject",
          "valueString": "83920944-d004-4763-a21b-dbff77e4ef48"
        } ]
      } ],
      "extension": [ {
        "url": "http://hl7.org/fhir/StructureDefinition/cqf-inputParameters",
        "valueReference": {
          "reference": "#36faf8f7-ac9d-426d-80b4-56a2da86d762-parameters"
        }
      }, {
        "url": "http://hl7.org/fhir/us/cqfmeasures/StructureDefinition/cqfm-testCaseDescription",
        "valueMarkdown": "Encounter with multiple create with no 2x increase and dialysis less than 48hours\n\n"
      } ],
      "modifierExtension": [ {
        "url": "http://hl7.org/fhir/us/cqfmeasures/StructureDefinition/cqfm-isTestCase",
        "valueBoolean": true
      } ],
      "status": "complete",
      "type": "individual",
      "measure": "https://madie.cms.gov/Measure/CMS832HHAKIFHIR",
      "period": {
        "start": "2026-01-01",
        "end": "2026-12-31"
      },
      "group": [ {
        "id": "Group_1",
        "population": [ {
          "id": "InitialPopulation_1",
          "code": {
            "coding": [ {
              "system": "http://terminology.hl7.org/CodeSystem/measure-population",
              "code": "initial-population",
              "display": "Initial Population"
            } ]
          },
          "count": 1
        }, {
          "id": "Denominator_1",
          "code": {
            "coding": [ {
              "system": "http://terminology.hl7.org/CodeSystem/measure-population",
              "code": "denominator",
              "display": "Denominator"
            } ]
          },
          "count": 1
        }, {
          "id": "DenominatorExclusion_1",
          "code": {
            "coding": [ {
              "system": "http://terminology.hl7.org/CodeSystem/measure-population",
              "code": "denominator-exclusion",
              "display": "Denominator Exclusion"
            } ]
          },
          "count": 0
        }, {
          "id": "Numerator_1",
          "code": {
            "coding": [ {
              "system": "http://terminology.hl7.org/CodeSystem/measure-population",
              "code": "numerator",
              "display": "Numerator"
            } ]
          },
          "count": 1
        } ],
        "measureScore": {
          "value": 0.0
        }
      } ],
      "evaluatedResource": [ {
        "reference": "Encounter/e892294b-36a3-47a0-be3b-59d983f28120"
      }, {
        "reference": "Organization/da0fe3b7-409e-4e26-ab0f-843143a4fcc9"
      }, {
        "reference": "Observation/c6a67a31-e3f3-4856-93e2-9afb06dabb71"
      }, {
        "reference": "Encounter/620b9363-eeb8-4c84-8413-21ee10eceaa4"
      }, {
        "reference": "Observation/7187c306-959d-4d3d-9188-b150588bf1af"
      }, {
        "reference": "Observation/782152ef-5204-4de0-917f-51a70164fda0"
      }, {
        "reference": "Observation/edbe9ea8-6dd7-4243-8fbc-7edf72986516"
      }, {
        "reference": "Coverage/37d5d155-882c-4e08-8a21-04e7101f4480"
      }, {
        "reference": "Procedure/caee197b-8125-4475-8a53-fd8b67b3ae82"
      }, {
        "reference": "Patient/83920944-d004-4763-a21b-dbff77e4ef48"
      } ]
    },
    "request": {
      "method": "PUT",
      "url": "MeasureReport/c5fb4bca-0801-4fb0-9bca-f4d7063720eb"
    }
  } ]
}