{
  "resourceType": "Bundle",
  "id": "62b1e15a3968556e5150cf3b",
  "type": "transaction",
  "entry": [ {
    "fullUrl": "https://madie.cms.gov/Patient/7009a1c3-93a8-4028-b42a-0bd9953f6ebb",
    "resource": {
      "resourceType": "Patient",
      "id": "7009a1c3-93a8-4028-b42a-0bd9953f6ebb",
      "meta": {
        "profile": [ "http://hl7.org/fhir/us/qicore/StructureDefinition/qicore-patient" ]
      },
      "extension": [ {
        "url": "http://hl7.org/fhir/us/core/StructureDefinition/us-core-race",
        "extension": [ {
          "url": "ombCategory",
          "valueCoding": {
            "system": "urn:oid:2.16.840.1.113883.6.238",
            "code": "1002-5",
            "display": "American Indian or Alaska Native",
            "userSelected": true
          }
        }, {
          "url": "text",
          "valueString": "American Indian or Alaska Native"
        } ]
      }, {
        "url": "http://hl7.org/fhir/us/core/StructureDefinition/us-core-ethnicity",
        "extension": [ {
          "url": "ombCategory",
          "valueCoding": {
            "system": "urn:oid:2.16.840.1.113883.6.238",
            "code": "2135-2",
            "display": "Hispanic or Latino",
            "userSelected": true
          }
        }, {
          "url": "text",
          "valueString": "Hispanic or Latino"
        } ]
      } ],
      "identifier": [ {
        "type": {
          "coding": [ {
            "system": "http://terminology.hl7.org/CodeSystem/v2-0203",
            "code": "MR"
          } ]
        },
        "system": "https://bonnie-fhir.healthit.gov/",
        "value": "62b1e15a3968556e5150cf3b"
      } ],
      "name": [ {
        "family": "DENOMEXPass",
        "given": [ "AdultHistoryOfBipolarRecurrence" ]
      } ],
      "gender": "male",
      "birthDate": "2008-01-01"
    },
    "request": {
      "method": "PUT",
      "url": "Patient/7009a1c3-93a8-4028-b42a-0bd9953f6ebb"
    }
  }, {
    "fullUrl": "https://madie.cms.gov/Encounter/5a3a466a-a00b-44e6-9a3a-75e53cd09606",
    "resource": {
      "resourceType": "Encounter",
      "id": "5a3a466a-a00b-44e6-9a3a-75e53cd09606",
      "meta": {
        "profile": [ "http://hl7.org/fhir/us/qicore/StructureDefinition/qicore-encounter" ]
      },
      "status": "finished",
      "class": {
        "system": "http://terminology.hl7.org/CodeSystem/v3-ActCode",
        "code": "AMB",
        "display": "ambulatory"
      },
      "type": [ {
        "coding": [ {
          "system": "http://snomed.info/sct",
          "code": "10197000",
          "display": "Psychiatric interview and evaluation (procedure)",
          "userSelected": true
        } ]
      } ],
      "subject": {
        "reference": "Patient/7009a1c3-93a8-4028-b42a-0bd9953f6ebb"
      },
      "period": {
        "start": "2026-06-21T08:00:00.000+00:00",
        "end": "2026-06-21T08:15:00.000+00:00"
      }
    },
    "request": {
      "method": "PUT",
      "url": "Encounter/5a3a466a-a00b-44e6-9a3a-75e53cd09606"
    }
  }, {
    "fullUrl": "https://madie.cms.gov/Condition/03f68fae-7c54-4076-8feb-43027e59f814",
    "resource": {
      "resourceType": "Condition",
      "id": "03f68fae-7c54-4076-8feb-43027e59f814",
      "meta": {
        "profile": [ "http://hl7.org/fhir/us/qicore/StructureDefinition/qicore-condition-problems-health-concerns" ]
      },
      "clinicalStatus": {
        "coding": [ {
          "system": "http://terminology.hl7.org/CodeSystem/condition-clinical",
          "code": "recurrence",
          "display": "recurrence",
          "userSelected": true
        } ]
      },
      "category": [ {
        "coding": [ {
          "system": "http://terminology.hl7.org/CodeSystem/condition-category",
          "code": "problem-list-item",
          "display": "Problem List Item"
        } ]
      } ],
      "code": {
        "coding": [ {
          "system": "http://snomed.info/sct",
          "code": "10875004",
          "display": "Severe mixed bipolar I disorder with psychotic features, mood-incongruent (disorder)",
          "userSelected": true
        } ]
      },
      "subject": {
        "reference": "Patient/7009a1c3-93a8-4028-b42a-0bd9953f6ebb"
      },
      "onsetDateTime": "2026-06-15T08:00:00.000+00:00"
    },
    "request": {
      "method": "PUT",
      "url": "Condition/03f68fae-7c54-4076-8feb-43027e59f814"
    }
  }, {
    "fullUrl": "https://madie.cms.gov/Coverage/27b2fd1d-127b-4043-a63a-4fd8d4ecc8e5",
    "resource": {
      "resourceType": "Coverage",
      "id": "27b2fd1d-127b-4043-a63a-4fd8d4ecc8e5",
      "meta": {
        "profile": [ "http://hl7.org/fhir/us/qicore/StructureDefinition/qicore-coverage" ]
      },
      "status": "active",
      "subscriberId": "123456789",
      "beneficiary": {
        "reference": "Patient/7009a1c3-93a8-4028-b42a-0bd9953f6ebb"
      },
      "relationship": {
        "coding": [ {
          "system": "http://terminology.hl7.org/CodeSystem/subscriber-relationship",
          "code": "self",
          "display": "Self",
          "userSelected": true
        } ]
      },
      "payor": [ {
        "reference": "Organization/ba25654b-b174-467f-ad25-398c43ae5828"
      } ]
    },
    "request": {
      "method": "PUT",
      "url": "Coverage/27b2fd1d-127b-4043-a63a-4fd8d4ecc8e5"
    }
  }, {
    "fullUrl": "https://madie.cms.gov/Organization/ba25654b-b174-467f-ad25-398c43ae5828",
    "resource": {
      "resourceType": "Organization",
      "id": "ba25654b-b174-467f-ad25-398c43ae5828",
      "meta": {
        "profile": [ "http://hl7.org/fhir/us/qicore/StructureDefinition/qicore-organization" ]
      },
      "identifier": [ {
        "use": "temp",
        "system": "urn:oid:2.16.840.1.113883.4.4",
        "value": "21-3259825"
      } ],
      "active": true,
      "type": [ {
        "coding": [ {
          "system": "http://terminology.hl7.org/CodeSystem/organization-type",
          "code": "pay",
          "display": "Payer"
        } ]
      } ],
      "name": "Blue Cross Blue Shield of Texas",
      "telecom": [ {
        "system": "phone",
        "value": "(+1) 972-766-6900"
      } ],
      "address": [ {
        "use": "billing",
        "type": "postal",
        "line": [ "P.O. Box 660044" ],
        "city": "Dallas",
        "state": "TX",
        "postalCode": "75266-0044",
        "country": "USA"
      } ]
    },
    "request": {
      "method": "PUT",
      "url": "Organization/ba25654b-b174-467f-ad25-398c43ae5828"
    }
  }, {
    "fullUrl": "https://madie.cms.gov/Practitioner/66fa9243-3fcb-402d-990d-2457d76492d7",
    "resource": {
      "resourceType": "Practitioner",
      "id": "66fa9243-3fcb-402d-990d-2457d76492d7",
      "meta": {
        "profile": [ "http://hl7.org/fhir/us/qicore/StructureDefinition/qicore-practitioner" ]
      },
      "identifier": [ {
        "system": "http://hl7.org/fhir/sid/us-npi",
        "value": "1234567893"
      } ],
      "name": [ {
        "family": "Evil",
        "prefix": [ "Dr" ]
      } ]
    },
    "request": {
      "method": "PUT",
      "url": "Practitioner/66fa9243-3fcb-402d-990d-2457d76492d7"
    }
  }, {
    "fullUrl": "https://madie.cms.gov/MeasureReport/b2156f5e-0881-4fbb-8339-64204bb5e0e6",
    "resource": {
      "resourceType": "MeasureReport",
      "id": "b2156f5e-0881-4fbb-8339-64204bb5e0e6",
      "meta": {
        "profile": [ "http://hl7.org/fhir/us/cqfmeasures/StructureDefinition/test-case-cqfm" ]
      },
      "contained": [ {
        "resourceType": "Parameters",
        "id": "e15b053a-81cb-473c-a386-cce2e8fe81bc-parameters",
        "parameter": [ {
          "name": "subject",
          "valueString": "7009a1c3-93a8-4028-b42a-0bd9953f6ebb"
        } ]
      } ],
      "extension": [ {
        "url": "http://hl7.org/fhir/StructureDefinition/cqf-inputParameters",
        "valueReference": {
          "reference": "#e15b053a-81cb-473c-a386-cce2e8fe81bc-parameters"
        }
      }, {
        "url": "http://hl7.org/fhir/us/cqfmeasures/StructureDefinition/cqfm-testCaseDescription",
        "valueMarkdown": "18 yo patient with history of bipolar - recurrence"
      } ],
      "modifierExtension": [ {
        "url": "http://hl7.org/fhir/us/cqfmeasures/StructureDefinition/cqfm-isTestCase",
        "valueBoolean": true
      } ],
      "status": "complete",
      "type": "individual",
      "measure": "https://madie.cms.gov/Measure/CMS2FHIRPCSDepressionScreenAndFollowUp",
      "period": {
        "start": "2026-01-01",
        "end": "2026-12-31"
      },
      "group": [ {
        "id": "Group_1",
        "population": [ {
          "id": "InitialPopulation_1",
          "code": {
            "coding": [ {
              "system": "http://terminology.hl7.org/CodeSystem/measure-population",
              "code": "initial-population",
              "display": "Initial Population"
            } ]
          },
          "count": 1
        }, {
          "id": "Denominator_1",
          "code": {
            "coding": [ {
              "system": "http://terminology.hl7.org/CodeSystem/measure-population",
              "code": "denominator",
              "display": "Denominator"
            } ]
          },
          "count": 1
        }, {
          "id": "DenominatorExclusion_1",
          "code": {
            "coding": [ {
              "system": "http://terminology.hl7.org/CodeSystem/measure-population",
              "code": "denominator-exclusion",
              "display": "Denominator Exclusion"
            } ]
          },
          "count": 1
        }, {
          "id": "Numerator_1",
          "code": {
            "coding": [ {
              "system": "http://terminology.hl7.org/CodeSystem/measure-population",
              "code": "numerator",
              "display": "Numerator"
            } ]
          },
          "count": 0
        }, {
          "id": "DenominatorException_1",
          "code": {
            "coding": [ {
              "system": "http://terminology.hl7.org/CodeSystem/measure-population",
              "code": "denominator-exception",
              "display": "Denominator Exception"
            } ]
          },
          "count": 0
        } ],
        "measureScore": {
          "value": 1.0
        }
      } ],
      "evaluatedResource": [ {
        "reference": "Patient/7009a1c3-93a8-4028-b42a-0bd9953f6ebb"
      }, {
        "reference": "Encounter/5a3a466a-a00b-44e6-9a3a-75e53cd09606"
      }, {
        "reference": "Condition/03f68fae-7c54-4076-8feb-43027e59f814"
      }, {
        "reference": "Coverage/27b2fd1d-127b-4043-a63a-4fd8d4ecc8e5"
      }, {
        "reference": "Organization/ba25654b-b174-467f-ad25-398c43ae5828"
      }, {
        "reference": "Practitioner/66fa9243-3fcb-402d-990d-2457d76492d7"
      } ]
    },
    "request": {
      "method": "PUT",
      "url": "MeasureReport/b2156f5e-0881-4fbb-8339-64204bb5e0e6"
    }
  } ]
}