{
    "entry": [
        {
            "request": {
                "method": "PUT",
                "url": "Patient/7009a1c3-93a8-4028-b42a-0bd9953f6ebb"
            },
            "resource": {
                "identifier": [{
                    "system": "https://bonnie-fhir.healthit.gov/",
                    "type": {"coding": [{
                        "system": "http://terminology.hl7.org/CodeSystem/v2-0203",
                        "code": "MR"
                    }]},
                    "value": "62b1e15a3968556e5150cf3b"
                }],
                "extension": [
                    {
                        "extension": [
                            {
                                "valueCoding": {
                                    "system": "urn:oid:2.16.840.1.113883.6.238",
                                    "code": "1002-5",
                                    "userSelected": true,
                                    "display": "American Indian or Alaska Native"
                                },
                                "url": "ombCategory"
                            },
                            {
                                "valueString": "American Indian or Alaska Native",
                                "url": "text"
                            }
                        ],
                        "url": "http://hl7.org/fhir/us/core/StructureDefinition/us-core-race"
                    },
                    {
                        "extension": [
                            {
                                "valueCoding": {
                                    "system": "urn:oid:2.16.840.1.113883.6.238",
                                    "code": "2135-2",
                                    "userSelected": true,
                                    "display": "Hispanic or Latino"
                                },
                                "url": "ombCategory"
                            },
                            {
                                "valueString": "Hispanic or Latino",
                                "url": "text"
                            }
                        ],
                        "url": "http://hl7.org/fhir/us/core/StructureDefinition/us-core-ethnicity"
                    }
                ],
                "gender": "male",
                "meta": {"profile": ["http://hl7.org/fhir/us/qicore/StructureDefinition/qicore-patient"]},
                "name": [{
                    "given": ["AdultHistoryOfBipolarRecurrence"],
                    "family": "DENOMEXPass"
                }],
                "id": "7009a1c3-93a8-4028-b42a-0bd9953f6ebb",
                "birthDate": "2008-01-01",
                "resourceType": "Patient"
            },
            "fullUrl": "https://madie.cms.gov/Patient/7009a1c3-93a8-4028-b42a-0bd9953f6ebb"
        },
        {
            "request": {
                "method": "PUT",
                "url": "Encounter/b48b39a7-cbe9-4ee4-a6ed-598e0bc84c86"
            },
            "resource": {
                "period": {
                    "start": "2026-06-21T08:00:00.000+00:00",
                    "end": "2026-06-21T08:15:00.000+00:00"
                },
                "meta": {"profile": ["http://hl7.org/fhir/us/qicore/StructureDefinition/qicore-encounter"]},
                "subject": {"reference": "Patient/7009a1c3-93a8-4028-b42a-0bd9953f6ebb"},
                "id": "b48b39a7-cbe9-4ee4-a6ed-598e0bc84c86",
                "type": [{"coding": [{
                    "system": "http://snomed.info/sct",
                    "code": "10197000",
                    "userSelected": true,
                    "display": "Psychiatric interview and evaluation (procedure)",
                    "version": "2021-09"
                }]}],
                "class": {
                    "system": "http://terminology.hl7.org/CodeSystem/v3-ActCode",
                    "code": "AMB",
                    "display": "ambulatory"
                },
                "resourceType": "Encounter",
                "status": "finished"
            },
            "fullUrl": "https://madie.cms.gov/Encounter/b48b39a7-cbe9-4ee4-a6ed-598e0bc84c86"
        },
        {
            "request": {
                "method": "PUT",
                "url": "Condition/62954aaa-9651-485e-b2d6-b5872aab3eab"
            },
            "resource": {
                "code": {"coding": [{
                    "system": "http://snomed.info/sct",
                    "code": "10875004",
                    "userSelected": true,
                    "display": "Severe mixed bipolar I disorder with psychotic features, mood-incongruent (disorder)",
                    "version": "2021-09"
                }]},
                "meta": {"profile": ["http://hl7.org/fhir/us/qicore/StructureDefinition/qicore-condition-problems-health-concerns"]},
                "subject": {"reference": "Patient/7009a1c3-93a8-4028-b42a-0bd9953f6ebb"},
                "id": "62954aaa-9651-485e-b2d6-b5872aab3eab",
                "clinicalStatus": {"coding": [{
                    "system": "http://terminology.hl7.org/CodeSystem/condition-clinical",
                    "code": "recurrence",
                    "userSelected": true,
                    "display": "recurrence"
                }]},
                "category": [{"coding": [{
                    "system": "http://terminology.hl7.org/CodeSystem/condition-category",
                    "code": "problem-list-item",
                    "display": "Problem List Item"
                }]}],
                "onsetDateTime": "2026-06-15T08:00:00.000+00:00",
                "resourceType": "Condition"
            },
            "fullUrl": "https://madie.cms.gov/Condition/62954aaa-9651-485e-b2d6-b5872aab3eab"
        },
        {
            "request": {
                "method": "PUT",
                "url": "Coverage/d992bac5-1765-4d7d-a1c9-4537900a4824"
            },
            "resource": {
                "payor": [{"reference": "Organization/0073a170-7b3e-4886-a1e3-2fcfcf78d48c"}],
                "beneficiary": {"reference": "Patient/7009a1c3-93a8-4028-b42a-0bd9953f6ebb"},
                "meta": {"profile": ["http://hl7.org/fhir/us/qicore/StructureDefinition/qicore-coverage"]},
                "id": "d992bac5-1765-4d7d-a1c9-4537900a4824",
                "resourceType": "Coverage",
                "status": "active"
            },
            "fullUrl": "https://madie.cms.gov/Coverage/d992bac5-1765-4d7d-a1c9-4537900a4824"
        },
        {
            "request": {
                "method": "PUT",
                "url": "Organization/0073a170-7b3e-4886-a1e3-2fcfcf78d48c"
            },
            "resource": {
                "identifier": [{
                    "system": "urn:oid:2.16.840.1.113883.4.4",
                    "use": "temp",
                    "value": "21-3259825"
                }],
                "address": [{
                    "country": "USA",
                    "city": "Dallas",
                    "use": "billing",
                    "line": ["P.O. Box 660044"],
                    "postalCode": "75266-0044",
                    "state": "TX",
                    "type": "postal"
                }],
                "meta": {"profile": ["http://hl7.org/fhir/us/qicore/StructureDefinition/qicore-organization"]},
                "name": "Blue Cross Blue Shield of Texas",
                "active": true,
                "telecom": [{
                    "system": "phone",
                    "value": "(+1) 972-766-6900"
                }],
                "id": "0073a170-7b3e-4886-a1e3-2fcfcf78d48c",
                "type": [{"coding": [{
                    "system": "http://terminology.hl7.org/CodeSystem/organization-type",
                    "code": "pay",
                    "display": "Payer"
                }]}],
                "resourceType": "Organization"
            },
            "fullUrl": "https://madie.cms.gov/Organization/0073a170-7b3e-4886-a1e3-2fcfcf78d48c"
        },
        {
            "request": {
                "method": "PUT",
                "url": "Practitioner/294da0fa-9839-4788-864b-a4b11b13869e"
            },
            "resource": {
                "identifier": [{
                    "system": "http://hl7.org/fhir/sid/us-npi",
                    "value": "123456"
                }],
                "meta": {"profile": ["http://hl7.org/fhir/us/qicore/StructureDefinition/qicore-practitioner"]},
                "name": [{
                    "prefix": ["Dr"],
                    "family": "Evil"
                }],
                "id": "294da0fa-9839-4788-864b-a4b11b13869e",
                "resourceType": "Practitioner"
            },
            "fullUrl": "https://madie.cms.gov/Practitioner/294da0fa-9839-4788-864b-a4b11b13869e"
        },
        {
            "request": {
                "method": "PUT",
                "url": "MeasureReport/3c83841d-45b2-4039-b7ad-5ad662d4d0ef"
            },
            "resource": {
                "contained": [{
                    "parameter": [{
                        "valueString": "7009a1c3-93a8-4028-b42a-0bd9953f6ebb",
                        "name": "subject"
                    }],
                    "id": "3003757f-d080-4c40-8ba8-21e02316afc1-parameters",
                    "resourceType": "Parameters"
                }],
                "extension": [
                    {
                        "valueReference": {"reference": "#3003757f-d080-4c40-8ba8-21e02316afc1-parameters"},
                        "url": "http://hl7.org/fhir/StructureDefinition/cqf-inputParameters"
                    },
                    {
                        "valueMarkdown": "18 yo patient with history of bipolar - recurrence",
                        "url": "http://hl7.org/fhir/us/cqfmeasures/StructureDefinition/cqfm-testCaseDescription"
                    }
                ],
                "period": {
                    "start": "2026-01-01",
                    "end": "2026-12-31"
                },
                "measure": "https://madie.cms.gov/Measure/CMS2FHIRPCSDepressionScreenAndFollowUp",
                "meta": {"profile": ["http://hl7.org/fhir/us/cqfmeasures/StructureDefinition/test-case-cqfm"]},
                "modifierExtension": [{
                    "valueBoolean": true,
                    "url": "http://hl7.org/fhir/us/cqfmeasures/StructureDefinition/cqfm-isTestCase"
                }],
                "id": "3c83841d-45b2-4039-b7ad-5ad662d4d0ef",
                "evaluatedResource": [
                    {"reference": "Patient/7009a1c3-93a8-4028-b42a-0bd9953f6ebb"},
                    {"reference": "Encounter/b48b39a7-cbe9-4ee4-a6ed-598e0bc84c86"},
                    {"reference": "Condition/62954aaa-9651-485e-b2d6-b5872aab3eab"},
                    {"reference": "Coverage/d992bac5-1765-4d7d-a1c9-4537900a4824"},
                    {"reference": "Organization/0073a170-7b3e-4886-a1e3-2fcfcf78d48c"},
                    {"reference": "Practitioner/294da0fa-9839-4788-864b-a4b11b13869e"}
                ],
                "type": "individual",
                "resourceType": "MeasureReport",
                "status": "complete",
                "group": [{
                    "id": "Group_1",
                    "measureScore": {"value": 1},
                    "population": [
                        {
                            "code": {"coding": [{
                                "system": "http://terminology.hl7.org/CodeSystem/measure-population",
                                "code": "initial-population",
                                "display": "Initial Population"
                            }]},
                            "count": 1,
                            "id": "InitialPopulation_1"
                        },
                        {
                            "code": {"coding": [{
                                "system": "http://terminology.hl7.org/CodeSystem/measure-population",
                                "code": "denominator",
                                "display": "Denominator"
                            }]},
                            "count": 1,
                            "id": "Denominator_1"
                        },
                        {
                            "code": {"coding": [{
                                "system": "http://terminology.hl7.org/CodeSystem/measure-population",
                                "code": "denominator-exclusion",
                                "display": "Denominator Exclusion"
                            }]},
                            "count": 1,
                            "id": "DenominatorExclusion_1"
                        },
                        {
                            "code": {"coding": [{
                                "system": "http://terminology.hl7.org/CodeSystem/measure-population",
                                "code": "numerator",
                                "display": "Numerator"
                            }]},
                            "count": 0,
                            "id": "Numerator_1"
                        },
                        {
                            "code": {"coding": [{
                                "system": "http://terminology.hl7.org/CodeSystem/measure-population",
                                "code": "denominator-exception",
                                "display": "Denominator Exception"
                            }]},
                            "count": 0,
                            "id": "DenominatorException_1"
                        }
                    ]
                }]
            },
            "fullUrl": "https://madie.cms.gov/MeasureReport/3c83841d-45b2-4039-b7ad-5ad662d4d0ef"
        }
    ],
    "id": "62b1e15a3968556e5150cf3b",
    "type": "transaction",
    "resourceType": "Bundle"
}