{
  "resourceType": "Bundle",
  "id": "633c9d030968f8012250fc7e",
  "type": "transaction",
  "entry": [ {
    "fullUrl": "https://madie.cms.gov/Patient/5704cb0f-a88b-4df3-b3d3-5438d3de4f6d",
    "resource": {
      "resourceType": "Patient",
      "id": "5704cb0f-a88b-4df3-b3d3-5438d3de4f6d",
      "meta": {
        "profile": [ "http://hl7.org/fhir/us/qicore/StructureDefinition/qicore-patient" ]
      },
      "text": {
        "status": "generated",
        "div": "<div xmlns=\"http://www.w3.org/1999/xhtml\"><div class=\"hapiHeaderText\"> CMOdurObs_ED&lt;1hrObs&gt;1hrBFEnc <b>DENEXFAIL </b></div><table class=\"hapiPropertyTable\"><tbody><tr><td>Identifier</td><td>0320cf57e9b83d932334af8e2d508abe</td></tr><tr><td>Date of birth</td><td><span>18 September 1985</span></td></tr></tbody></table></div>"
      },
      "extension": [ {
        "url": "http://hl7.org/fhir/us/core/StructureDefinition/us-core-race",
        "extension": [ {
          "url": "ombCategory",
          "valueCoding": {
            "system": "urn:oid:2.16.840.1.113883.6.238",
            "code": "1002-5",
            "display": "American Indian or Alaska Native",
            "userSelected": true
          }
        }, {
          "url": "text",
          "valueString": "American Indian or Alaska Native"
        } ]
      }, {
        "url": "http://hl7.org/fhir/us/core/StructureDefinition/us-core-ethnicity",
        "extension": [ {
          "url": "ombCategory",
          "valueCoding": {
            "system": "urn:oid:2.16.840.1.113883.6.238",
            "code": "2135-2",
            "display": "Hispanic or Latino",
            "userSelected": true
          }
        }, {
          "url": "text",
          "valueString": "Hispanic or Latino"
        } ]
      } ],
      "identifier": [ {
        "type": {
          "coding": [ {
            "system": "http://terminology.hl7.org/CodeSystem/v2-0203",
            "code": "MR"
          } ]
        },
        "system": "https://bonnie-fhir.healthit.gov/",
        "value": "633c9d030968f8012250fc7e"
      } ],
      "active": true,
      "name": [ {
        "use": "usual",
        "family": "DENEXFail",
        "given": [ "CMOdurObs_ED<1hrObs>1hrBFEnc" ]
      } ],
      "gender": "female",
      "birthDate": "1986-09-18"
    },
    "request": {
      "method": "PUT",
      "url": "Patient/5704cb0f-a88b-4df3-b3d3-5438d3de4f6d"
    }
  }, {
    "fullUrl": "https://madie.cms.gov/Condition/8246da82-3de2-490a-9326-f9dffe02ed33",
    "resource": {
      "resourceType": "Condition",
      "id": "8246da82-3de2-490a-9326-f9dffe02ed33",
      "meta": {
        "profile": [ "http://hl7.org/fhir/us/qicore/StructureDefinition/qicore-condition-problems-health-concerns" ]
      },
      "clinicalStatus": {
        "coding": [ {
          "system": "http://terminology.hl7.org/CodeSystem/condition-clinical",
          "code": "inactive",
          "display": "InActive"
        } ]
      },
      "verificationStatus": {
        "coding": [ {
          "system": "http://terminology.hl7.org/CodeSystem/condition-ver-status",
          "code": "confirmed",
          "display": "Confirmed"
        } ]
      },
      "category": [ {
        "coding": [ {
          "system": "http://terminology.hl7.org/CodeSystem/condition-category",
          "code": "encounter-diagnosis",
          "display": "Encounter Diagnosis"
        } ]
      } ],
      "code": {
        "coding": [ {
          "system": "http://hl7.org/fhir/sid/icd-10-cm",
          "code": "I48.0"
        }, {
          "system": "http://snomed.info/sct",
          "code": "5370000"
        } ]
      },
      "subject": {
        "reference": "Patient/5704cb0f-a88b-4df3-b3d3-5438d3de4f6d"
      },
      "onsetDateTime": "2026-02-11T08:00:00Z",
      "abatementDateTime": "2026-02-11T08:15:00.000+00:00"
    },
    "request": {
      "method": "PUT",
      "url": "Condition/8246da82-3de2-490a-9326-f9dffe02ed33"
    }
  }, {
    "fullUrl": "https://madie.cms.gov/Condition/f6ba5bc0-5206-44ed-8fda-238544c3bed3",
    "resource": {
      "resourceType": "Condition",
      "id": "f6ba5bc0-5206-44ed-8fda-238544c3bed3",
      "meta": {
        "profile": [ "http://hl7.org/fhir/us/qicore/StructureDefinition/qicore-condition-problems-health-concerns" ]
      },
      "clinicalStatus": {
        "coding": [ {
          "system": "http://terminology.hl7.org/CodeSystem/condition-clinical",
          "code": "inactive",
          "display": "Inactive"
        } ]
      },
      "verificationStatus": {
        "coding": [ {
          "system": "http://terminology.hl7.org/CodeSystem/condition-ver-status",
          "code": "confirmed",
          "display": "Confirmed"
        } ]
      },
      "category": [ {
        "coding": [ {
          "system": "http://terminology.hl7.org/CodeSystem/condition-category",
          "code": "encounter-diagnosis",
          "display": "Encounter Diagnosis"
        } ]
      } ],
      "code": {
        "coding": [ {
          "system": "http://hl7.org/fhir/sid/icd-10-cm",
          "code": "I48.0"
        }, {
          "system": "http://snomed.info/sct",
          "code": "5370000"
        } ]
      },
      "subject": {
        "reference": "Patient/5704cb0f-a88b-4df3-b3d3-5438d3de4f6d"
      },
      "onsetDateTime": "2026-10-01T09:00:00Z",
      "abatementDateTime": "2026-10-12T08:15:00.000+00:00"
    },
    "request": {
      "method": "PUT",
      "url": "Condition/f6ba5bc0-5206-44ed-8fda-238544c3bed3"
    }
  }, {
    "fullUrl": "https://madie.cms.gov/Encounter/ce7fb17c-ebee-460e-af7c-b5387afc52ee",
    "resource": {
      "resourceType": "Encounter",
      "id": "ce7fb17c-ebee-460e-af7c-b5387afc52ee",
      "meta": {
        "profile": [ "http://hl7.org/fhir/us/qicore/StructureDefinition/qicore-encounter" ]
      },
      "status": "finished",
      "class": {
        "system": "http://terminology.hl7.org/CodeSystem/v3-ActCode",
        "code": "EMER",
        "display": "emergency"
      },
      "type": [ {
        "coding": [ {
          "system": "http://snomed.info/sct",
          "code": "4525004"
        } ]
      } ],
      "subject": {
        "reference": "Patient/5704cb0f-a88b-4df3-b3d3-5438d3de4f6d"
      },
      "period": {
        "start": "2026-10-01T09:00:00Z",
        "end": "2026-10-01T09:15:00.000+00:00"
      },
      "length": {
        "value": 0,
        "unit": "days"
      }
    },
    "request": {
      "method": "PUT",
      "url": "Encounter/ce7fb17c-ebee-460e-af7c-b5387afc52ee"
    }
  }, {
    "fullUrl": "https://madie.cms.gov/Encounter/c3cd9686-fe92-4bda-9bef-ceeff5d2a83b",
    "resource": {
      "resourceType": "Encounter",
      "id": "c3cd9686-fe92-4bda-9bef-ceeff5d2a83b",
      "meta": {
        "profile": [ "http://hl7.org/fhir/us/qicore/StructureDefinition/qicore-encounter" ]
      },
      "status": "finished",
      "class": {
        "system": "http://terminology.hl7.org/CodeSystem/v3-ActCode",
        "code": "OBSENC",
        "display": "observation encounter"
      },
      "type": [ {
        "coding": [ {
          "system": "http://snomed.info/sct",
          "code": "448851000124103"
        } ]
      } ],
      "subject": {
        "reference": "Patient/5704cb0f-a88b-4df3-b3d3-5438d3de4f6d"
      },
      "period": {
        "start": "2026-10-01T09:16:00Z",
        "end": "2026-10-01T09:30:00.000+00:00"
      },
      "length": {
        "value": 0,
        "unit": "days"
      }
    },
    "request": {
      "method": "PUT",
      "url": "Encounter/c3cd9686-fe92-4bda-9bef-ceeff5d2a83b"
    }
  }, {
    "fullUrl": "https://madie.cms.gov/Encounter/3004c5a6-52a6-49c2-aada-c228c02f8fd0",
    "resource": {
      "resourceType": "Encounter",
      "id": "3004c5a6-52a6-49c2-aada-c228c02f8fd0",
      "meta": {
        "profile": [ "http://hl7.org/fhir/us/qicore/StructureDefinition/qicore-encounter" ]
      },
      "status": "finished",
      "class": {
        "system": "http://terminology.hl7.org/CodeSystem/v3-ActCode",
        "code": "IMP",
        "display": "inpatient encounter"
      },
      "type": [ {
        "coding": [ {
          "system": "http://snomed.info/sct",
          "code": "32485007"
        } ]
      } ],
      "subject": {
        "reference": "Patient/5704cb0f-a88b-4df3-b3d3-5438d3de4f6d"
      },
      "period": {
        "start": "2026-10-01T10:31:00Z",
        "end": "2026-10-12T08:15:00.000+00:00"
      },
      "length": {
        "value": 11,
        "unit": "days"
      },
      "reasonReference": [ {
        "reference": "Condition/f6ba5bc0-5206-44ed-8fda-238544c3bed3"
      } ]
    },
    "request": {
      "method": "PUT",
      "url": "Encounter/3004c5a6-52a6-49c2-aada-c228c02f8fd0"
    }
  }, {
    "fullUrl": "https://madie.cms.gov/ServiceRequest/a8870448-46df-425c-8ed8-4234a0c49a63",
    "resource": {
      "resourceType": "ServiceRequest",
      "id": "a8870448-46df-425c-8ed8-4234a0c49a63",
      "meta": {
        "profile": [ "http://hl7.org/fhir/us/qicore/StructureDefinition/qicore-servicerequest" ]
      },
      "status": "active",
      "intent": "order",
      "code": {
        "coding": [ {
          "system": "http://snomed.info/sct",
          "code": "133918004"
        } ]
      },
      "subject": {
        "reference": "Patient/5704cb0f-a88b-4df3-b3d3-5438d3de4f6d"
      },
      "authoredOn": "2026-10-01T09:17:00Z"
    },
    "request": {
      "method": "PUT",
      "url": "ServiceRequest/a8870448-46df-425c-8ed8-4234a0c49a63"
    }
  }, {
    "fullUrl": "https://madie.cms.gov/Coverage/86d10f65-4acd-4b01-84f7-c3175f2af408",
    "resource": {
      "resourceType": "Coverage",
      "id": "86d10f65-4acd-4b01-84f7-c3175f2af408",
      "meta": {
        "profile": [ "http://hl7.org/fhir/us/qicore/StructureDefinition/qicore-coverage" ]
      },
      "status": "active",
      "subscriberId": "523435",
      "beneficiary": {
        "reference": "Patient/162a5913-9989-42f2-8d6a-ae460e245e4c"
      },
      "relationship": {
        "coding": [ {
          "system": "http://terminology.hl7.org/CodeSystem/subscriber-relationship",
          "code": "self"
        } ]
      },
      "payor": [ {
        "reference": "Organization/290f8256-b752-4124-a9e5-181a35d2d4c2"
      } ]
    },
    "request": {
      "method": "PUT",
      "url": "Coverage/86d10f65-4acd-4b01-84f7-c3175f2af408"
    }
  }, {
    "fullUrl": "https://madie.cms.gov/Condition/5c3bcd8c-bf69-412f-9d9b-a23313ccd943",
    "resource": {
      "resourceType": "Condition",
      "id": "5c3bcd8c-bf69-412f-9d9b-a23313ccd943",
      "meta": {
        "profile": [ "http://hl7.org/fhir/us/qicore/StructureDefinition/qicore-condition-problems-health-concerns" ]
      },
      "clinicalStatus": {
        "coding": [ {
          "system": "http://terminology.hl7.org/CodeSystem/condition-clinical",
          "code": "active"
        } ]
      },
      "verificationStatus": {
        "coding": [ {
          "system": "http://terminology.hl7.org/CodeSystem/condition-ver-status",
          "code": "confirmed"
        } ]
      },
      "category": [ {
        "coding": [ {
          "system": "http://terminology.hl7.org/CodeSystem/condition-category",
          "code": "encounter-diagnosis",
          "display": "Encounter Diagnosis"
        } ]
      } ],
      "code": {
        "coding": [ {
          "system": "http://snomed.info/sct",
          "version": "2021-09",
          "code": "111297002",
          "display": "Nonparalytic stroke (disorder)",
          "userSelected": true
        } ]
      },
      "subject": {
        "reference": "Patient/5704cb0f-a88b-4df3-b3d3-5438d3de4f6d"
      },
      "recordedDate": "2026-10-13T08:00:00Z"
    },
    "request": {
      "method": "PUT",
      "url": "Condition/5c3bcd8c-bf69-412f-9d9b-a23313ccd943"
    }
  }, {
    "fullUrl": "https://madie.cms.gov/claim/5ca62962b8484628b8de1ec5",
    "resource": {
      "resourceType": "Claim",
      "id": "5ca62962b8484628b8de1ec5",
      "meta": {
        "profile": [ "http://hl7.org/fhir/us/qicore/StructureDefinition/qicore-claim" ]
      },
      "status": "active",
      "type": {
        "coding": [ {
          "system": "http://terminology.hl7.org/CodeSystem/claim-type",
          "code": "institutional"
        } ]
      },
      "use": "claim",
      "patient": {
        "reference": "Patient/d170a0a8-b5ad-4303-b6df-e304dd5f92ad"
      },
      "created": "2026-12-01",
      "provider": {
        "reference": "Practitioner/practitioner-123456"
      },
      "priority": {
        "coding": [ {
          "system": "http://terminology.hl7.org/CodeSystem/processpriority",
          "code": "normal"
        } ]
      },
      "diagnosis": [ {
        "sequence": 1,
        "diagnosisCodeableConcept": {
          "coding": [ {
            "system": "http://hl7.org/fhir/sid/icd-10-cm",
            "code": "I63.00"
          } ]
        },
        "type": [ {
          "coding": [ {
            "system": "http://terminology.hl7.org/CodeSystem/ex-diagnosistype",
            "code": "principal"
          } ]
        } ]
      } ],
      "insurance": [ {
        "sequence": 1,
        "focal": true,
        "coverage": {
          "reference": "Coverage/5fa041661c76ba66d9959367"
        }
      } ],
      "item": [ {
        "sequence": 1,
        "diagnosisSequence": [ 1 ],
        "productOrService": {
          "coding": [ {
            "system": "http://terminology.hl7.org/CodeSystem/ex-USCLS",
            "code": "99555"
          } ]
        },
        "encounter": [ {
          "reference": "Encounter/3004c5a6-52a6-49c2-aada-c228c02f8fd0"
        } ]
      } ]
    },
    "request": {
      "method": "PUT",
      "url": "Claim/5ca62962b8484628b8de1ec5"
    }
  }, {
    "fullUrl": "https://madie.cms.gov/Organization/290f8256-b752-4124-a9e5-181a35d2d4c2",
    "resource": {
      "resourceType": "Organization",
      "id": "290f8256-b752-4124-a9e5-181a35d2d4c2",
      "meta": {
        "profile": [ "http://hl7.org/fhir/us/qicore/StructureDefinition/qicore-organization" ]
      },
      "identifier": [ {
        "use": "temp",
        "system": "urn:oid:2.16.840.1.113883.4.4",
        "value": "21-3259825"
      } ],
      "active": true,
      "type": [ {
        "coding": [ {
          "system": "http://terminology.hl7.org/CodeSystem/organization-type",
          "code": "pay",
          "display": "Payer"
        } ]
      } ],
      "name": "Blue Cross Blue Shield of Texas",
      "telecom": [ {
        "system": "phone",
        "value": "(+1) 972-766-6900"
      } ],
      "address": [ {
        "use": "billing",
        "type": "postal",
        "line": [ "P.O. Box 660044" ],
        "city": "Dallas",
        "state": "TX",
        "postalCode": "75266-0044",
        "country": "USA"
      } ]
    },
    "request": {
      "method": "PUT",
      "url": "Organization/290f8256-b752-4124-a9e5-181a35d2d4c2"
    }
  }, {
    "fullUrl": "https://madie.cms.gov/MeasureReport/cb110955-294d-4e8e-a12f-96da67b09156",
    "resource": {
      "resourceType": "MeasureReport",
      "id": "cb110955-294d-4e8e-a12f-96da67b09156",
      "meta": {
        "profile": [ "http://hl7.org/fhir/us/cqfmeasures/StructureDefinition/test-case-cqfm" ]
      },
      "contained": [ {
        "resourceType": "Parameters",
        "id": "271f294e-65ce-4904-b89d-e93be5aff1ca-parameters",
        "parameter": [ {
          "name": "subject",
          "valueString": "5704cb0f-a88b-4df3-b3d3-5438d3de4f6d"
        } ]
      } ],
      "extension": [ {
        "url": "http://hl7.org/fhir/StructureDefinition/cqf-inputParameters",
        "valueReference": {
          "reference": "#271f294e-65ce-4904-b89d-e93be5aff1ca-parameters"
        }
      }, {
        "url": "http://hl7.org/fhir/us/cqfmeasures/StructureDefinition/cqfm-testCaseDescription",
        "valueMarkdown": "Patient receives CMO during Observation. ED ends 1 min before Obs start and Obs ends 61 min before inpatient encounter start. Testing HospitalizationWithObservation function.\n"
      } ],
      "modifierExtension": [ {
        "url": "http://hl7.org/fhir/us/cqfmeasures/StructureDefinition/cqfm-isTestCase",
        "valueBoolean": true
      } ],
      "status": "complete",
      "type": "individual",
      "measure": "https://madie.cms.gov/Measure/CMS71FHIRSTKAnticoagAFFlutter",
      "period": {
        "start": "2026-01-01",
        "end": "2026-12-31"
      },
      "group": [ {
        "id": "Group_1",
        "population": [ {
          "id": "InitialPopulation_1",
          "code": {
            "coding": [ {
              "system": "http://terminology.hl7.org/CodeSystem/measure-population",
              "code": "initial-population",
              "display": "Initial Population"
            } ]
          },
          "count": 1
        }, {
          "id": "Denominator_1",
          "code": {
            "coding": [ {
              "system": "http://terminology.hl7.org/CodeSystem/measure-population",
              "code": "denominator",
              "display": "Denominator"
            } ]
          },
          "count": 1
        }, {
          "id": "DenominatorExclusion_1",
          "code": {
            "coding": [ {
              "system": "http://terminology.hl7.org/CodeSystem/measure-population",
              "code": "denominator-exclusion",
              "display": "Denominator Exclusion"
            } ]
          },
          "count": 0
        }, {
          "id": "Numerator_1",
          "code": {
            "coding": [ {
              "system": "http://terminology.hl7.org/CodeSystem/measure-population",
              "code": "numerator",
              "display": "Numerator"
            } ]
          },
          "count": 0
        }, {
          "id": "DenominatorException_1",
          "code": {
            "coding": [ {
              "system": "http://terminology.hl7.org/CodeSystem/measure-population",
              "code": "denominator-exception",
              "display": "Denominator Exception"
            } ]
          },
          "count": 0
        } ],
        "measureScore": {
          "value": 0.0
        }
      } ],
      "evaluatedResource": [ {
        "reference": "Patient/5704cb0f-a88b-4df3-b3d3-5438d3de4f6d"
      }, {
        "reference": "Condition/8246da82-3de2-490a-9326-f9dffe02ed33"
      }, {
        "reference": "Condition/f6ba5bc0-5206-44ed-8fda-238544c3bed3"
      }, {
        "reference": "Encounter/ce7fb17c-ebee-460e-af7c-b5387afc52ee"
      }, {
        "reference": "Encounter/c3cd9686-fe92-4bda-9bef-ceeff5d2a83b"
      }, {
        "reference": "Encounter/3004c5a6-52a6-49c2-aada-c228c02f8fd0"
      }, {
        "reference": "ServiceRequest/a8870448-46df-425c-8ed8-4234a0c49a63"
      }, {
        "reference": "Coverage/86d10f65-4acd-4b01-84f7-c3175f2af408"
      }, {
        "reference": "Condition/5c3bcd8c-bf69-412f-9d9b-a23313ccd943"
      }, {
        "reference": "Claim/5ca62962b8484628b8de1ec5"
      }, {
        "reference": "Organization/290f8256-b752-4124-a9e5-181a35d2d4c2"
      } ]
    },
    "request": {
      "method": "PUT",
      "url": "MeasureReport/cb110955-294d-4e8e-a12f-96da67b09156"
    }
  } ]
}