{
  "resourceType": "Bundle",
  "id": "617be79c1619a529957d62b6",
  "type": "transaction",
  "entry": [ {
    "fullUrl": "https://madie.cms.gov/Patient/245b418f-e6d6-4567-a32d-37187a90738d",
    "resource": {
      "resourceType": "Patient",
      "id": "245b418f-e6d6-4567-a32d-37187a90738d",
      "meta": {
        "profile": [ "http://hl7.org/fhir/us/qicore/StructureDefinition/qicore-patient" ]
      },
      "extension": [ {
        "url": "http://hl7.org/fhir/us/core/StructureDefinition/us-core-race",
        "extension": [ {
          "url": "ombCategory",
          "valueCoding": {
            "system": "urn:oid:2.16.840.1.113883.6.238",
            "code": "2106-3",
            "display": "White",
            "userSelected": true
          }
        }, {
          "url": "text",
          "valueString": "White"
        } ]
      }, {
        "url": "http://hl7.org/fhir/us/core/StructureDefinition/us-core-ethnicity",
        "extension": [ {
          "url": "ombCategory",
          "valueCoding": {
            "system": "urn:oid:2.16.840.1.113883.6.238",
            "code": "2186-5",
            "display": "Not Hispanic or Latino",
            "userSelected": true
          }
        }, {
          "url": "text",
          "valueString": "Not Hispanic or Latino"
        } ]
      }, {
        "url": "http://hl7.org/fhir/us/core/StructureDefinition/us-core-sex",
        "valueCode": "248152002"
      } ],
      "identifier": [ {
        "type": {
          "coding": [ {
            "system": "http://terminology.hl7.org/CodeSystem/v2-0203",
            "code": "MR"
          } ]
        },
        "system": "https://bonnie-fhir.healthit.gov/",
        "value": "617be79c1619a529957d62b6"
      } ],
      "name": [ {
        "family": "DenExcl6Fail",
        "given": [ "MedStarts91DBeforeED" ]
      } ],
      "gender": "female",
      "birthDate": "1985-12-02"
    },
    "request": {
      "method": "PUT",
      "url": "Patient/245b418f-e6d6-4567-a32d-37187a90738d"
    }
  }, {
    "fullUrl": "https://madie.cms.gov/Encounter/8869f4fe-a4db-4b98-b359-5162120a3b0d",
    "resource": {
      "resourceType": "Encounter",
      "id": "8869f4fe-a4db-4b98-b359-5162120a3b0d",
      "meta": {
        "profile": [ "http://hl7.org/fhir/us/qicore/StructureDefinition/qicore-encounter" ]
      },
      "status": "finished",
      "class": {
        "system": "http://terminology.hl7.org/CodeSystem/v3-ActCode",
        "code": "EMER",
        "display": "emergency",
        "userSelected": true
      },
      "type": [ {
        "coding": [ {
          "system": "http://snomed.info/sct",
          "version": "2020-09",
          "code": "4525004",
          "display": "Emergency department patient visit (procedure)",
          "userSelected": true
        } ]
      } ],
      "subject": {
        "reference": "Patient/245b418f-e6d6-4567-a32d-37187a90738d"
      },
      "period": {
        "start": "2026-10-09T08:05:00.000+00:00",
        "end": "2026-10-10T07:15:00.000+00:00"
      },
      "reasonCode": [ {
        "coding": [ {
          "system": "http://hl7.org/fhir/sid/icd-10-cm",
          "version": "2021",
          "code": "I21.02",
          "display": "ST elevation (STEMI) myocardial infarction involving left anterior descending coronary artery",
          "userSelected": true
        } ]
      } ]
    },
    "request": {
      "method": "PUT",
      "url": "Encounter/8869f4fe-a4db-4b98-b359-5162120a3b0d"
    }
  }, {
    "fullUrl": "https://madie.cms.gov/MedicationRequest/26c6b2c2-2ba5-4c5e-a0a4-a794e56c80f7",
    "resource": {
      "resourceType": "MedicationRequest",
      "id": "26c6b2c2-2ba5-4c5e-a0a4-a794e56c80f7",
      "meta": {
        "profile": [ "http://hl7.org/fhir/us/qicore/StructureDefinition/qicore-medicationrequest" ]
      },
      "status": "active",
      "intent": "order",
      "category": [ {
        "coding": [ {
          "system": "http://terminology.hl7.org/CodeSystem/medicationrequest-category",
          "code": "inpatient",
          "display": "Inpatient",
          "userSelected": true
        } ]
      } ],
      "medicationCodeableConcept": {
        "coding": [ {
          "system": "http://www.nlm.nih.gov/research/umls/rxnorm",
          "code": "1037045",
          "display": "dabigatran etexilate 150 MG Oral Capsule",
          "userSelected": true
        } ]
      },
      "subject": {
        "reference": "Patient/245b418f-e6d6-4567-a32d-37187a90738d"
      },
      "authoredOn": "2026-07-11T08:00:00.000+00:00",
      "requester": {
        "reference": "Practitioner/5612cb7e-95e6-4360-9cb1-aca21e0a7bec"
      }
    },
    "request": {
      "method": "PUT",
      "url": "MedicationRequest/26c6b2c2-2ba5-4c5e-a0a4-a794e56c80f7"
    }
  }, {
    "fullUrl": "https://madie.cms.gov/Practitioner/5612cb7e-95e6-4360-9cb1-aca21e0a7bec",
    "resource": {
      "resourceType": "Practitioner",
      "id": "5612cb7e-95e6-4360-9cb1-aca21e0a7bec",
      "meta": {
        "profile": [ "http://hl7.org/fhir/us/qicore/StructureDefinition/qicore-practitioner" ]
      },
      "identifier": [ {
        "system": "http://hl7.org/fhir/sid/us-npi",
        "value": "9999999896"
      } ],
      "name": [ {
        "family": "Evil",
        "prefix": [ "Dr" ]
      } ]
    },
    "request": {
      "method": "PUT",
      "url": "Practitioner/5612cb7e-95e6-4360-9cb1-aca21e0a7bec"
    }
  }, {
    "fullUrl": "https://madie.cms.gov/MeasureReport/c9dadd5b-3301-40d5-a9b0-7057bd9fb968",
    "resource": {
      "resourceType": "MeasureReport",
      "id": "c9dadd5b-3301-40d5-a9b0-7057bd9fb968",
      "meta": {
        "profile": [ "http://hl7.org/fhir/us/cqfmeasures/StructureDefinition/test-case-cqfm" ]
      },
      "contained": [ {
        "resourceType": "Parameters",
        "id": "eaf9b445-9ee9-4e96-bc9a-2a7676215ab0-parameters",
        "parameter": [ {
          "name": "subject",
          "valueString": "245b418f-e6d6-4567-a32d-37187a90738d"
        } ]
      } ],
      "extension": [ {
        "url": "http://hl7.org/fhir/StructureDefinition/cqf-inputParameters",
        "valueReference": {
          "reference": "#eaf9b445-9ee9-4e96-bc9a-2a7676215ab0-parameters"
        }
      }, {
        "url": "http://hl7.org/fhir/us/cqfmeasures/StructureDefinition/cqfm-testCaseDescription",
        "valueMarkdown": "Patient has anticoagulant medication starts 91D before ED"
      } ],
      "modifierExtension": [ {
        "url": "http://hl7.org/fhir/us/cqfmeasures/StructureDefinition/cqfm-isTestCase",
        "valueBoolean": true
      } ],
      "status": "complete",
      "type": "individual",
      "measure": "https://madie.cms.gov/Measure/CMS996FHIRAptTxforSTEMI",
      "period": {
        "start": "2026-01-01",
        "end": "2026-12-31"
      },
      "group": [ {
        "id": "Group_1",
        "population": [ {
          "id": "InitialPopulation_1",
          "code": {
            "coding": [ {
              "system": "http://terminology.hl7.org/CodeSystem/measure-population",
              "code": "initial-population",
              "display": "Initial Population"
            } ]
          },
          "count": 1
        }, {
          "id": "Denominator_1",
          "code": {
            "coding": [ {
              "system": "http://terminology.hl7.org/CodeSystem/measure-population",
              "code": "denominator",
              "display": "Denominator"
            } ]
          },
          "count": 1
        }, {
          "id": "DenominatorExclusion_1",
          "code": {
            "coding": [ {
              "system": "http://terminology.hl7.org/CodeSystem/measure-population",
              "code": "denominator-exclusion",
              "display": "Denominator Exclusion"
            } ]
          },
          "count": 0
        }, {
          "id": "Numerator_1",
          "code": {
            "coding": [ {
              "system": "http://terminology.hl7.org/CodeSystem/measure-population",
              "code": "numerator",
              "display": "Numerator"
            } ]
          },
          "count": 0
        }, {
          "id": "DenominatorException_1",
          "code": {
            "coding": [ {
              "system": "http://terminology.hl7.org/CodeSystem/measure-population",
              "code": "denominator-exception",
              "display": "Denominator Exception"
            } ]
          },
          "count": 0
        } ],
        "measureScore": {
          "value": 0.0
        }
      } ],
      "evaluatedResource": [ {
        "reference": "Patient/245b418f-e6d6-4567-a32d-37187a90738d"
      }, {
        "reference": "Encounter/8869f4fe-a4db-4b98-b359-5162120a3b0d"
      }, {
        "reference": "MedicationRequest/26c6b2c2-2ba5-4c5e-a0a4-a794e56c80f7"
      }, {
        "reference": "Practitioner/5612cb7e-95e6-4360-9cb1-aca21e0a7bec"
      } ]
    },
    "request": {
      "method": "PUT",
      "url": "MeasureReport/c9dadd5b-3301-40d5-a9b0-7057bd9fb968"
    }
  } ]
}