{
  "resourceType": "Bundle",
  "id": "6356dca654e383debade75aa",
  "type": "transaction",
  "entry": [ {
    "fullUrl": "https://madie.cms.gov/Patient/e3df2e40-9fb8-4400-805e-7c504c8f88c2",
    "resource": {
      "resourceType": "Patient",
      "id": "e3df2e40-9fb8-4400-805e-7c504c8f88c2",
      "meta": {
        "profile": [ "http://hl7.org/fhir/us/qicore/StructureDefinition/qicore-patient" ]
      },
      "text": {
        "status": "generated",
        "div": "<div xmlns=\"http://www.w3.org/1999/xhtml\"><div class=\"hapiHeaderText\">1ENCMeets1EncDoesNotMeet <b>NUMERPass</b></div><table class=\"hapiPropertyTable\"><tbody><tr><td>Date of birth</td><td><span>01 February 2004</span></td></tr></tbody></table></div>"
      },
      "extension": [ {
        "url": "http://hl7.org/fhir/us/core/StructureDefinition/us-core-race",
        "extension": [ {
          "url": "ombCategory",
          "valueCoding": {
            "system": "urn:oid:2.16.840.1.113883.6.238",
            "code": "1002-5",
            "display": "American Indian or Alaska Native",
            "userSelected": true
          }
        }, {
          "url": "text",
          "valueString": "American Indian or Alaska Native"
        } ]
      }, {
        "url": "http://hl7.org/fhir/us/core/StructureDefinition/us-core-ethnicity",
        "extension": [ {
          "url": "ombCategory",
          "valueCoding": {
            "system": "urn:oid:2.16.840.1.113883.6.238",
            "code": "2135-2",
            "display": "Hispanic or Latino",
            "userSelected": true
          }
        }, {
          "url": "text",
          "valueString": "Hispanic or Latino"
        } ]
      } ],
      "identifier": [ {
        "type": {
          "coding": [ {
            "system": "http://terminology.hl7.org/CodeSystem/v2-0203",
            "code": "MR"
          } ]
        },
        "system": "https://bonnie-fhir.healthit.gov/",
        "value": "6356dca654e383debade75aa"
      } ],
      "active": true,
      "name": [ {
        "use": "usual",
        "family": "NUMERPass",
        "given": [ "1ENCMeets1EncDoesNotMeet" ]
      } ],
      "gender": "female",
      "birthDate": "2005-02-01"
    },
    "request": {
      "method": "PUT",
      "url": "Patient/e3df2e40-9fb8-4400-805e-7c504c8f88c2"
    }
  }, {
    "fullUrl": "https://madie.cms.gov/Observation/476cc97e-f048-48e0-aee9-3e5eec82e182",
    "resource": {
      "resourceType": "Observation",
      "id": "476cc97e-f048-48e0-aee9-3e5eec82e182",
      "meta": {
        "profile": [ "http://hl7.org/fhir/us/qicore/StructureDefinition/qicore-simple-observation" ]
      },
      "status": "final",
      "category": [ {
        "coding": [ {
          "system": "http://terminology.hl7.org/CodeSystem/observation-category",
          "code": "exam",
          "display": "exam",
          "userSelected": true
        } ]
      } ],
      "code": {
        "coding": [ {
          "system": "http://loinc.org",
          "code": "93857-1"
        } ]
      },
      "subject": {
        "reference": "Patient/e3df2e40-9fb8-4400-805e-7c504c8f88c2"
      },
      "effectiveDateTime": "2026-02-01T08:00:00Z",
      "performer": [ {
        "reference": "Organization/example1",
        "display": "Hendricks Country Hospital"
      } ],
      "valueDateTime": "2026-02-01T08:00:00Z"
    },
    "request": {
      "method": "PUT",
      "url": "Observation/476cc97e-f048-48e0-aee9-3e5eec82e182"
    }
  }, {
    "fullUrl": "https://madie.cms.gov/Observation/22560f22-9083-418b-ab04-b56ac44d7486",
    "resource": {
      "resourceType": "Observation",
      "id": "22560f22-9083-418b-ab04-b56ac44d7486",
      "meta": {
        "profile": [ "http://hl7.org/fhir/us/qicore/StructureDefinition/qicore-simple-observation" ]
      },
      "status": "final",
      "category": [ {
        "coding": [ {
          "system": "http://terminology.hl7.org/CodeSystem/observation-category",
          "code": "exam",
          "display": "exam",
          "userSelected": true
        } ]
      } ],
      "code": {
        "coding": [ {
          "system": "http://loinc.org",
          "code": "93857-1"
        } ]
      },
      "subject": {
        "reference": "Patient/e3df2e40-9fb8-4400-805e-7c504c8f88c2"
      },
      "effectiveDateTime": "2026-11-10T08:00:00Z",
      "performer": [ {
        "reference": "Organization/example1",
        "display": "Hendricks Country Hospital"
      } ],
      "valueDateTime": "2026-11-10T08:00:00Z"
    },
    "request": {
      "method": "PUT",
      "url": "Observation/22560f22-9083-418b-ab04-b56ac44d7486"
    }
  }, {
    "fullUrl": "https://madie.cms.gov/Observation/63969393-351b-4c38-9c21-c12623e942e0",
    "resource": {
      "resourceType": "Observation",
      "id": "63969393-351b-4c38-9c21-c12623e942e0",
      "meta": {
        "profile": [ "http://hl7.org/fhir/us/qicore/StructureDefinition/qicore-simple-observation" ]
      },
      "status": "final",
      "category": [ {
        "coding": [ {
          "system": "http://terminology.hl7.org/CodeSystem/observation-category",
          "code": "exam",
          "display": "exam",
          "userSelected": true
        } ]
      } ],
      "code": {
        "coding": [ {
          "system": "http://loinc.org",
          "code": "11884-4"
        } ]
      },
      "subject": {
        "reference": "Patient/e3df2e40-9fb8-4400-805e-7c504c8f88c2"
      },
      "effectiveDateTime": "2026-02-01T08:00:00Z",
      "performer": [ {
        "reference": "Organization/example1",
        "display": "Hendricks Country Hospital"
      } ],
      "valueQuantity": {
        "value": 21,
        "system": "http://unitsofmeasure.org",
        "code": "wk"
      }
    },
    "request": {
      "method": "PUT",
      "url": "Observation/63969393-351b-4c38-9c21-c12623e942e0"
    }
  }, {
    "fullUrl": "https://madie.cms.gov/Observation/dcc61010-8344-4410-88f3-0f5ee0bcdcc3",
    "resource": {
      "resourceType": "Observation",
      "id": "dcc61010-8344-4410-88f3-0f5ee0bcdcc3",
      "meta": {
        "profile": [ "http://hl7.org/fhir/us/qicore/StructureDefinition/qicore-simple-observation" ]
      },
      "status": "final",
      "category": [ {
        "coding": [ {
          "system": "http://terminology.hl7.org/CodeSystem/observation-category",
          "code": "exam",
          "display": "exam",
          "userSelected": true
        } ]
      } ],
      "code": {
        "coding": [ {
          "system": "http://loinc.org",
          "code": "11884-4"
        } ]
      },
      "subject": {
        "reference": "Patient/e3df2e40-9fb8-4400-805e-7c504c8f88c2"
      },
      "effectiveDateTime": "2026-11-10T08:00:00Z",
      "performer": [ {
        "reference": "Organization/example1",
        "display": "Hendricks Country Hospital"
      } ],
      "valueQuantity": {
        "value": 23,
        "system": "http://unitsofmeasure.org",
        "code": "wk"
      }
    },
    "request": {
      "method": "PUT",
      "url": "Observation/dcc61010-8344-4410-88f3-0f5ee0bcdcc3"
    }
  }, {
    "fullUrl": "https://madie.cms.gov/Encounter/65ddbd54-6fa4-407d-82b1-2d5788c2b34e",
    "resource": {
      "resourceType": "Encounter",
      "id": "65ddbd54-6fa4-407d-82b1-2d5788c2b34e",
      "meta": {
        "profile": [ "http://hl7.org/fhir/us/qicore/StructureDefinition/qicore-encounter" ]
      },
      "status": "finished",
      "class": {
        "system": "http://terminology.hl7.org/CodeSystem/v3-ActCode",
        "code": "IMP",
        "display": "inpatient encounter"
      },
      "type": [ {
        "coding": [ {
          "system": "http://snomed.info/sct",
          "code": "183452005"
        } ]
      } ],
      "subject": {
        "reference": "Patient/e3df2e40-9fb8-4400-805e-7c504c8f88c2"
      },
      "period": {
        "start": "2026-02-01T08:00:00Z",
        "end": "2026-02-05T08:15:00Z"
      }
    },
    "request": {
      "method": "PUT",
      "url": "Encounter/65ddbd54-6fa4-407d-82b1-2d5788c2b34e"
    }
  }, {
    "fullUrl": "https://madie.cms.gov/Encounter/9a0b9b70-fb59-4694-aa55-1cf10e47c854",
    "resource": {
      "resourceType": "Encounter",
      "id": "9a0b9b70-fb59-4694-aa55-1cf10e47c854",
      "meta": {
        "profile": [ "http://hl7.org/fhir/us/qicore/StructureDefinition/qicore-encounter" ]
      },
      "status": "finished",
      "class": {
        "system": "http://terminology.hl7.org/CodeSystem/v3-ActCode",
        "code": "IMP",
        "display": "inpatient encounter"
      },
      "type": [ {
        "coding": [ {
          "system": "http://snomed.info/sct",
          "code": "183452005"
        } ]
      } ],
      "subject": {
        "reference": "Patient/e3df2e40-9fb8-4400-805e-7c504c8f88c2"
      },
      "period": {
        "start": "2026-11-10T08:00:00Z",
        "end": "2026-11-15T08:15:00Z"
      },
      "diagnosis": [ {
        "extension": [ {
          "url": "http://hl7.org/fhir/us/qicore/StructureDefinition/qicore-encounter-diagnosisPresentOnAdmission",
          "valueCodeableConcept": {
            "coding": [ {
              "system": "https://www.cms.gov/Medicare/Medicare-Fee-for-Service-Payment/HospitalAcqCond/Coding",
              "code": "N"
            } ]
          }
        } ],
        "condition": {
          "reference": "Condition/0d4edbc1-aaa0-4de2-a17d-c690c55ace5d"
        }
      } ]
    },
    "request": {
      "method": "PUT",
      "url": "Encounter/9a0b9b70-fb59-4694-aa55-1cf10e47c854"
    }
  }, {
    "fullUrl": "https://madie.cms.gov/Procedure/b57c7284-70ee-400a-9101-7fb41d973236",
    "resource": {
      "resourceType": "Procedure",
      "id": "b57c7284-70ee-400a-9101-7fb41d973236",
      "meta": {
        "profile": [ "http://hl7.org/fhir/us/qicore/StructureDefinition/qicore-procedure" ]
      },
      "extension": [ {
        "url": "http://hl7.org/fhir/us/qicore/StructureDefinition/qicore-recorded",
        "valueDateTime": "2014-04-05T13:35:00Z"
      } ],
      "status": "completed",
      "code": {
        "coding": [ {
          "system": "http://snomed.info/sct",
          "code": "10745001"
        } ]
      },
      "subject": {
        "reference": "Patient/e3df2e40-9fb8-4400-805e-7c504c8f88c2"
      },
      "performedPeriod": {
        "start": "2026-02-01T08:00:00Z",
        "end": "2026-02-05T08:15:00Z"
      }
    },
    "request": {
      "method": "PUT",
      "url": "Procedure/b57c7284-70ee-400a-9101-7fb41d973236"
    }
  }, {
    "fullUrl": "https://madie.cms.gov/Procedure/b57c7284-70ee-400a-9101-7fb41d9732362",
    "resource": {
      "resourceType": "Procedure",
      "id": "b57c7284-70ee-400a-9101-7fb41d9732362",
      "meta": {
        "profile": [ "http://hl7.org/fhir/us/qicore/StructureDefinition/qicore-procedure" ]
      },
      "extension": [ {
        "url": "http://hl7.org/fhir/us/qicore/StructureDefinition/qicore-recorded",
        "valueDateTime": "2014-04-05T13:35:00Z"
      } ],
      "status": "completed",
      "code": {
        "coding": [ {
          "system": "http://snomed.info/sct",
          "code": "10745001"
        } ]
      },
      "subject": {
        "reference": "Patient/e3df2e40-9fb8-4400-805e-7c504c8f88c2"
      },
      "performedPeriod": {
        "start": "2026-11-10T08:00:00Z",
        "end": "2026-11-10T08:15:00Z"
      }
    },
    "request": {
      "method": "PUT",
      "url": "Procedure/b57c7284-70ee-400a-9101-7fb41d9732362"
    }
  }, {
    "fullUrl": "https://madie.cms.gov/Condition/0d4edbc1-aaa0-4de2-a17d-c690c55ace5d",
    "resource": {
      "resourceType": "Condition",
      "id": "0d4edbc1-aaa0-4de2-a17d-c690c55ace5d",
      "meta": {
        "profile": [ "http://hl7.org/fhir/us/qicore/StructureDefinition/qicore-condition" ]
      },
      "category": [ {
        "coding": [ {
          "system": "http://terminology.hl7.org/CodeSystem/condition-category",
          "code": "encounter-diagnosis",
          "display": "Encounter Diagnosis"
        } ]
      } ],
      "code": {
        "coding": [ {
          "system": "http://hl7.org/fhir/sid/icd-10-cm",
          "version": "2023",
          "code": "A32.7",
          "display": "Listerial sepsis",
          "userSelected": true
        } ]
      },
      "subject": {
        "reference": "Patient/e3df2e40-9fb8-4400-805e-7c504c8f88c2"
      },
      "recordedDate": "2026-10-26T08:00:00Z"
    },
    "request": {
      "method": "PUT",
      "url": "Condition/0d4edbc1-aaa0-4de2-a17d-c690c55ace5d"
    }
  }, {
    "fullUrl": "https://madie.cms.gov/Claim/747b354e-4af3-4af6-98bd-87cca8e9d2b2",
    "resource": {
      "resourceType": "Claim",
      "id": "747b354e-4af3-4af6-98bd-87cca8e9d2b2",
      "meta": {
        "profile": [ "http://hl7.org/fhir/us/qicore/StructureDefinition/qicore-claim" ]
      },
      "status": "active",
      "type": {
        "coding": [ {
          "system": "http://terminology.hl7.org/CodeSystem/claim-type",
          "code": "institutional",
          "display": "Institutional"
        } ]
      },
      "use": "claim",
      "patient": {
        "reference": "Patient/e3df2e40-9fb8-4400-805e-7c504c8f88c2"
      },
      "created": "2026-11-16",
      "provider": {
        "reference": "Practitioner/07864ac8-8251-4667-908c-3a423d7e29f0"
      },
      "priority": {
        "coding": [ {
          "system": "http://terminology.hl7.org/CodeSystem/processpriority",
          "code": "normal"
        } ]
      },
      "diagnosis": [ {
        "sequence": 1,
        "diagnosisCodeableConcept": {
          "coding": [ {
            "system": "http://hl7.org/fhir/sid/icd-10-cm",
            "code": "J45.21",
            "display": "Mild intermittent asthma with (acute) exacerbation"
          } ]
        },
        "type": [ {
          "coding": [ {
            "system": "http://terminology.hl7.org/CodeSystem/ex-diagnosistype",
            "code": "discharge",
            "display": "Discharge Diagnosis"
          } ]
        } ],
        "onAdmission": {
          "coding": [ {
            "system": "https://www.cms.gov/Medicare/Medicare-Fee-for-Service-Payment/HospitalAcqCond/Coding",
            "code": "Y"
          } ]
        }
      }, {
        "sequence": 2,
        "diagnosisCodeableConcept": {
          "coding": [ {
            "system": "http://hl7.org/fhir/sid/icd-10-cm",
            "code": "A32.7",
            "display": "Listerial sepsis"
          } ]
        },
        "type": [ {
          "coding": [ {
            "system": "http://terminology.hl7.org/CodeSystem/ex-diagnosistype",
            "code": "discharge",
            "display": "Discharge Diagnosis"
          } ]
        } ],
        "onAdmission": {
          "coding": [ {
            "system": "https://www.cms.gov/Medicare/Medicare-Fee-for-Service-Payment/HospitalAcqCond/Coding",
            "code": "N"
          } ]
        }
      } ],
      "insurance": [ {
        "sequence": 1,
        "focal": true,
        "coverage": {
          "reference": "Coverage/Coverage-1"
        }
      } ],
      "item": [ {
        "sequence": 1,
        "careTeamSequence": [ 1 ],
        "diagnosisSequence": [ 1 ],
        "productOrService": {
          "coding": [ {
            "system": "http://www.ama-assn.org/go/cpt",
            "code": "99232"
          } ]
        },
        "encounter": [ {
          "reference": "Encounter/9a0b9b70-fb59-4694-aa55-1cf10e47c854"
        } ]
      }, {
        "sequence": 2,
        "careTeamSequence": [ 1 ],
        "diagnosisSequence": [ 2 ],
        "productOrService": {
          "coding": [ {
            "system": "http://www.ama-assn.org/go/cpt",
            "code": "99233"
          } ]
        },
        "encounter": [ {
          "reference": "Encounter/9a0b9b70-fb59-4694-aa55-1cf10e47c854"
        } ]
      } ],
      "total": {
        "value": 3800,
        "currency": "USD"
      }
    },
    "request": {
      "method": "PUT",
      "url": "Claim/747b354e-4af3-4af6-98bd-87cca8e9d2b2"
    }
  }, {
    "fullUrl": "https://madie.cms.gov/Coverage/3d7cf0b1-9983-45ee-baa9-fb94f854baf8",
    "resource": {
      "resourceType": "Coverage",
      "id": "3d7cf0b1-9983-45ee-baa9-fb94f854baf8",
      "meta": {
        "profile": [ "http://hl7.org/fhir/us/qicore/StructureDefinition/qicore-coverage" ]
      },
      "status": "active",
      "subscriberId": "523435",
      "beneficiary": {
        "reference": "Patient/e3df2e40-9fb8-4400-805e-7c504c8f88c2"
      },
      "relationship": {
        "coding": [ {
          "system": "http://terminology.hl7.org/CodeSystem/subscriber-relationship",
          "code": "self"
        } ]
      },
      "payor": [ {
        "reference": "Organization/ce67b590-7609-4291-ab32-64317402a2d8"
      } ]
    },
    "request": {
      "method": "PUT",
      "url": "Coverage/3d7cf0b1-9983-45ee-baa9-fb94f854baf8"
    }
  }, {
    "fullUrl": "https://madie.cms.gov/Organization/ce67b590-7609-4291-ab32-64317402a2d8",
    "resource": {
      "resourceType": "Organization",
      "id": "ce67b590-7609-4291-ab32-64317402a2d8",
      "meta": {
        "profile": [ "http://hl7.org/fhir/us/qicore/StructureDefinition/qicore-organization" ]
      },
      "identifier": [ {
        "use": "temp",
        "system": "urn:oid:2.16.840.1.113883.4.4",
        "value": "21-3259825"
      } ],
      "active": true,
      "type": [ {
        "coding": [ {
          "system": "http://terminology.hl7.org/CodeSystem/organization-type",
          "code": "pay",
          "display": "Payer"
        } ]
      } ],
      "name": "Blue Cross Blue Shield of Texas",
      "telecom": [ {
        "system": "phone",
        "value": "(+1) 972-766-6900"
      } ],
      "address": [ {
        "use": "billing",
        "type": "postal",
        "line": [ "P.O. Box 660044" ],
        "city": "Dallas",
        "state": "TX",
        "postalCode": "75266-0044",
        "country": "USA"
      } ]
    },
    "request": {
      "method": "PUT",
      "url": "Organization/ce67b590-7609-4291-ab32-64317402a2d8"
    }
  }, {
    "fullUrl": "https://madie.cms.gov/Practitioner/07864ac8-8251-4667-908c-3a423d7e29f0",
    "resource": {
      "resourceType": "Practitioner",
      "id": "07864ac8-8251-4667-908c-3a423d7e29f0",
      "meta": {
        "profile": [ "http://hl7.org/fhir/us/qicore/StructureDefinition/qicore-practitioner" ]
      },
      "identifier": [ {
        "system": "http://hl7.org/fhir/sid/us-npi",
        "value": "9999999896"
      } ],
      "name": [ {
        "family": "Evil",
        "prefix": [ "Dr" ]
      } ]
    },
    "request": {
      "method": "PUT",
      "url": "Practitioner/07864ac8-8251-4667-908c-3a423d7e29f0"
    }
  }, {
    "fullUrl": "https://madie.cms.gov/MeasureReport/661f5934-a9e0-495b-b813-c5ac7709bd91",
    "resource": {
      "resourceType": "MeasureReport",
      "id": "661f5934-a9e0-495b-b813-c5ac7709bd91",
      "meta": {
        "profile": [ "http://hl7.org/fhir/us/cqfmeasures/StructureDefinition/test-case-cqfm" ]
      },
      "contained": [ {
        "resourceType": "Parameters",
        "id": "4f504fc0-765a-4ffa-ab28-b7087d9968c0-parameters",
        "parameter": [ {
          "name": "subject",
          "valueString": "e3df2e40-9fb8-4400-805e-7c504c8f88c2"
        } ]
      } ],
      "extension": [ {
        "url": "http://hl7.org/fhir/StructureDefinition/cqf-inputParameters",
        "valueReference": {
          "reference": "#4f504fc0-765a-4ffa-ab28-b7087d9968c0-parameters"
        }
      }, {
        "url": "http://hl7.org/fhir/us/cqfmeasures/StructureDefinition/cqfm-testCaseDescription",
        "valueMarkdown": "No complications on 1st encounter.\nSepsis on second encounter\n"
      } ],
      "modifierExtension": [ {
        "url": "http://hl7.org/fhir/us/cqfmeasures/StructureDefinition/cqfm-isTestCase",
        "valueBoolean": true
      } ],
      "status": "complete",
      "type": "individual",
      "measure": "https://madie.cms.gov/Measure/CMS1028FHIRPCSevereOBComps",
      "period": {
        "start": "2026-01-01",
        "end": "2026-12-31"
      },
      "group": [ {
        "id": "Group_1",
        "population": [ {
          "id": "InitialPopulation_1",
          "code": {
            "coding": [ {
              "system": "http://terminology.hl7.org/CodeSystem/measure-population",
              "code": "initial-population",
              "display": "Initial Population"
            } ]
          },
          "count": 2
        }, {
          "id": "Denominator_1",
          "code": {
            "coding": [ {
              "system": "http://terminology.hl7.org/CodeSystem/measure-population",
              "code": "denominator",
              "display": "Denominator"
            } ]
          },
          "count": 2
        }, {
          "id": "Numerator_1",
          "code": {
            "coding": [ {
              "system": "http://terminology.hl7.org/CodeSystem/measure-population",
              "code": "numerator",
              "display": "Numerator"
            } ]
          },
          "count": 1
        }, {
          "id": "NumeratorExclusion_1",
          "code": {
            "coding": [ {
              "system": "http://terminology.hl7.org/CodeSystem/measure-population",
              "code": "numerator-exclusion",
              "display": "Numerator Exclusion"
            } ]
          },
          "count": 0
        } ],
        "measureScore": {
          "value": 0.0
        }
      }, {
        "id": "Group_2",
        "population": [ {
          "id": "InitialPopulation_2",
          "code": {
            "coding": [ {
              "system": "http://terminology.hl7.org/CodeSystem/measure-population",
              "code": "initial-population",
              "display": "Initial Population"
            } ]
          },
          "count": 2
        }, {
          "id": "Denominator_2",
          "code": {
            "coding": [ {
              "system": "http://terminology.hl7.org/CodeSystem/measure-population",
              "code": "denominator",
              "display": "Denominator"
            } ]
          },
          "count": 2
        }, {
          "id": "Numerator_2",
          "code": {
            "coding": [ {
              "system": "http://terminology.hl7.org/CodeSystem/measure-population",
              "code": "numerator",
              "display": "Numerator"
            } ]
          },
          "count": 1
        }, {
          "id": "NumeratorExclusion_2",
          "code": {
            "coding": [ {
              "system": "http://terminology.hl7.org/CodeSystem/measure-population",
              "code": "numerator-exclusion",
              "display": "Numerator Exclusion"
            } ]
          },
          "count": 0
        } ],
        "measureScore": {
          "value": 0.0
        }
      } ],
      "evaluatedResource": [ {
        "reference": "Patient/e3df2e40-9fb8-4400-805e-7c504c8f88c2"
      }, {
        "reference": "Observation/476cc97e-f048-48e0-aee9-3e5eec82e182"
      }, {
        "reference": "Observation/22560f22-9083-418b-ab04-b56ac44d7486"
      }, {
        "reference": "Observation/63969393-351b-4c38-9c21-c12623e942e0"
      }, {
        "reference": "Observation/dcc61010-8344-4410-88f3-0f5ee0bcdcc3"
      }, {
        "reference": "Encounter/65ddbd54-6fa4-407d-82b1-2d5788c2b34e"
      }, {
        "reference": "Encounter/9a0b9b70-fb59-4694-aa55-1cf10e47c854"
      }, {
        "reference": "Procedure/b57c7284-70ee-400a-9101-7fb41d973236"
      }, {
        "reference": "Procedure/b57c7284-70ee-400a-9101-7fb41d9732362"
      }, {
        "reference": "Condition/0d4edbc1-aaa0-4de2-a17d-c690c55ace5d"
      }, {
        "reference": "Claim/747b354e-4af3-4af6-98bd-87cca8e9d2b2"
      }, {
        "reference": "Coverage/3d7cf0b1-9983-45ee-baa9-fb94f854baf8"
      }, {
        "reference": "Organization/ce67b590-7609-4291-ab32-64317402a2d8"
      }, {
        "reference": "Practitioner/07864ac8-8251-4667-908c-3a423d7e29f0"
      } ]
    },
    "request": {
      "method": "PUT",
      "url": "MeasureReport/661f5934-a9e0-495b-b813-c5ac7709bd91"
    }
  } ]
}