{
  "resourceType": "Bundle",
  "id": "DENEXFail-PregnancyAfterMP",
  "type": "transaction",
  "entry": [ {
    "fullUrl": "https://madie.cms.gov/Patient/32edbb16-2029-425a-85e0-6ea9182d1d91",
    "resource": {
      "resourceType": "Patient",
      "id": "32edbb16-2029-425a-85e0-6ea9182d1d91",
      "meta": {
        "profile": [ "http://hl7.org/fhir/us/qicore/StructureDefinition/qicore-patient" ]
      },
      "extension": [ {
        "url": "http://hl7.org/fhir/us/core/StructureDefinition/us-core-race",
        "extension": [ {
          "url": "ombCategory",
          "valueCoding": {
            "system": "urn:oid:2.16.840.1.113883.6.238",
            "code": "2028-9",
            "display": "Asian"
          }
        }, {
          "url": "text",
          "valueString": "Asian"
        } ]
      }, {
        "url": "http://hl7.org/fhir/us/core/StructureDefinition/us-core-ethnicity",
        "extension": [ {
          "url": "ombCategory",
          "valueCoding": {
            "system": "urn:oid:2.16.840.1.113883.6.238",
            "code": "2135-2",
            "display": "Hispanic or Latino"
          }
        }, {
          "url": "text",
          "valueString": "Hispanic or Latino"
        } ]
      } ],
      "identifier": [ {
        "system": "http://hospital.smarthealthit.org",
        "value": "999999995"
      } ],
      "name": [ {
        "family": "DENEXFail",
        "given": [ "PregnancyAfterMP" ]
      } ],
      "gender": "female",
      "birthDate": "2007-12-31"
    },
    "request": {
      "method": "PUT",
      "url": "Patient/32edbb16-2029-425a-85e0-6ea9182d1d91"
    }
  }, {
    "fullUrl": "https://madie.cms.gov/Encounter/1ec0cce2-5a5c-437a-8ee6-670425d1342e",
    "resource": {
      "resourceType": "Encounter",
      "id": "1ec0cce2-5a5c-437a-8ee6-670425d1342e",
      "meta": {
        "profile": [ "http://hl7.org/fhir/us/qicore/StructureDefinition/qicore-encounter" ]
      },
      "status": "finished",
      "class": {
        "system": "http://terminology.hl7.org/CodeSystem/v3-ActCode",
        "code": "AMB",
        "display": "ambulatory"
      },
      "type": [ {
        "coding": [ {
          "system": "http://snomed.info/sct",
          "code": "3391000175108",
          "display": "Office visit for pediatric care and assessment (procedure)"
        } ]
      } ],
      "subject": {
        "reference": "Patient/32edbb16-2029-425a-85e0-6ea9182d1d91"
      },
      "period": {
        "start": "2026-01-01T00:00:00.000+00:00",
        "end": "2026-01-01T01:00:00.000+00:00"
      }
    },
    "request": {
      "method": "PUT",
      "url": "Encounter/1ec0cce2-5a5c-437a-8ee6-670425d1342e"
    }
  }, {
    "fullUrl": "https://madie.cms.gov/Condition/0b0eee06-e7f5-4cd2-9ce9-6a3f370d9388",
    "resource": {
      "resourceType": "Condition",
      "id": "0b0eee06-e7f5-4cd2-9ce9-6a3f370d9388",
      "meta": {
        "profile": [ "http://hl7.org/fhir/us/qicore/StructureDefinition/qicore-condition-problems-health-concerns" ]
      },
      "clinicalStatus": {
        "coding": [ {
          "system": "http://terminology.hl7.org/CodeSystem/condition-clinical",
          "code": "active"
        } ]
      },
      "category": [ {
        "coding": [ {
          "system": "http://terminology.hl7.org/CodeSystem/condition-category",
          "code": "problem-list-item",
          "display": "Problem List Item"
        } ]
      } ],
      "code": {
        "coding": [ {
          "system": "http://snomed.info/sct",
          "code": "371125006",
          "display": "Labile essential hypertension (disorder)"
        } ]
      },
      "subject": {
        "reference": "Patient/32edbb16-2029-425a-85e0-6ea9182d1d91"
      },
      "onsetDateTime": "2026-06-29T23:59:59.000+00:00"
    },
    "request": {
      "method": "PUT",
      "url": "Condition/0b0eee06-e7f5-4cd2-9ce9-6a3f370d9388"
    }
  }, {
    "fullUrl": "https://madie.cms.gov/Condition/b5fd8157-6013-48b5-bb89-8df1a24f1551",
    "resource": {
      "resourceType": "Condition",
      "id": "b5fd8157-6013-48b5-bb89-8df1a24f1551",
      "meta": {
        "profile": [ "http://hl7.org/fhir/us/qicore/StructureDefinition/qicore-condition-encounter-diagnosis" ]
      },
      "clinicalStatus": {
        "coding": [ {
          "system": "http://terminology.hl7.org/CodeSystem/condition-clinical",
          "code": "active"
        } ]
      },
      "category": [ {
        "coding": [ {
          "system": "http://terminology.hl7.org/CodeSystem/condition-category",
          "code": "encounter-diagnosis",
          "display": "Encounter Diagnosis"
        } ]
      } ],
      "code": {
        "coding": [ {
          "system": "http://snomed.info/sct",
          "code": "10231000132102",
          "display": "In-vitro fertilization pregnancy (finding)"
        } ]
      },
      "subject": {
        "reference": "Patient/32edbb16-2029-425a-85e0-6ea9182d1d91"
      },
      "onsetDateTime": "2027-01-01T00:00:00.000+00:00"
    },
    "request": {
      "method": "PUT",
      "url": "Condition/b5fd8157-6013-48b5-bb89-8df1a24f1551"
    }
  }, {
    "fullUrl": "https://madie.cms.gov/MeasureReport/5b5cc2a7-651e-40e1-aa83-5e925c4a7b03",
    "resource": {
      "resourceType": "MeasureReport",
      "id": "5b5cc2a7-651e-40e1-aa83-5e925c4a7b03",
      "meta": {
        "profile": [ "http://hl7.org/fhir/us/cqfmeasures/StructureDefinition/test-case-cqfm" ]
      },
      "contained": [ {
        "resourceType": "Parameters",
        "id": "c78b6fd3-869d-4542-b339-e93cb12c11ce-parameters",
        "parameter": [ {
          "name": "subject",
          "valueString": "32edbb16-2029-425a-85e0-6ea9182d1d91"
        } ]
      } ],
      "extension": [ {
        "url": "http://hl7.org/fhir/StructureDefinition/cqf-inputParameters",
        "valueReference": {
          "reference": "#c78b6fd3-869d-4542-b339-e93cb12c11ce-parameters"
        }
      }, {
        "url": "http://hl7.org/fhir/us/cqfmeasures/StructureDefinition/cqfm-testCaseDescription",
        "valueMarkdown": "Pregnancy starts 1/1 of next MP - ConditionEncounterDiagnosis"
      } ],
      "modifierExtension": [ {
        "url": "http://hl7.org/fhir/us/cqfmeasures/StructureDefinition/cqfm-isTestCase",
        "valueBoolean": true
      } ],
      "status": "complete",
      "type": "individual",
      "measure": "https://madie.cms.gov/Measure/CMS165FHIRControllingHighBloodPressure",
      "period": {
        "start": "2026-01-01",
        "end": "2026-12-31"
      },
      "group": [ {
        "id": "Group_1",
        "population": [ {
          "id": "InitialPopulation_1",
          "code": {
            "coding": [ {
              "system": "http://terminology.hl7.org/CodeSystem/measure-population",
              "code": "initial-population",
              "display": "Initial Population"
            } ]
          },
          "count": 1
        }, {
          "id": "Denominator_1",
          "code": {
            "coding": [ {
              "system": "http://terminology.hl7.org/CodeSystem/measure-population",
              "code": "denominator",
              "display": "Denominator"
            } ]
          },
          "count": 1
        }, {
          "id": "DenominatorExclusion_1",
          "code": {
            "coding": [ {
              "system": "http://terminology.hl7.org/CodeSystem/measure-population",
              "code": "denominator-exclusion",
              "display": "Denominator Exclusion"
            } ]
          },
          "count": 0
        }, {
          "id": "Numerator_1",
          "code": {
            "coding": [ {
              "system": "http://terminology.hl7.org/CodeSystem/measure-population",
              "code": "numerator",
              "display": "Numerator"
            } ]
          },
          "count": 0
        } ],
        "measureScore": {
          "value": 1.0
        }
      } ],
      "evaluatedResource": [ {
        "reference": "Patient/32edbb16-2029-425a-85e0-6ea9182d1d91"
      }, {
        "reference": "Encounter/1ec0cce2-5a5c-437a-8ee6-670425d1342e"
      }, {
        "reference": "Condition/0b0eee06-e7f5-4cd2-9ce9-6a3f370d9388"
      }, {
        "reference": "Condition/b5fd8157-6013-48b5-bb89-8df1a24f1551"
      } ]
    },
    "request": {
      "method": "PUT",
      "url": "MeasureReport/5b5cc2a7-651e-40e1-aa83-5e925c4a7b03"
    }
  } ]
}