{
  "resourceType": "Bundle",
  "id": "612e6f7102c62a011f2f1e30",
  "type": "transaction",
  "entry": [ {
    "fullUrl": "https://madie.cms.gov/Patient/7572464e-7191-4b5c-bad1-c7acd195178d",
    "resource": {
      "resourceType": "Patient",
      "id": "7572464e-7191-4b5c-bad1-c7acd195178d",
      "meta": {
        "profile": [ "http://hl7.org/fhir/us/qicore/StructureDefinition/qicore-patient" ]
      },
      "text": {
        "status": "generated",
        "div": "<div xmlns=\"http://www.w3.org/1999/xhtml\"><div class=\"hapiHeaderText\">TestMultipleOccur1inNum1inExcept <b>NUMERPASS </b></div><table class=\"hapiPropertyTable\"><tbody><tr><td>Identifier</td><td>7eb67ce98abae0db784097d37457cc127812e19c5da043ea7e60ae3fb3b930ef</td></tr><tr><td>Date of birth</td><td><span>03 March 1974</span></td></tr></tbody></table></div>"
      },
      "extension": [ {
        "url": "http://hl7.org/fhir/us/core/StructureDefinition/us-core-race",
        "extension": [ {
          "url": "ombCategory",
          "valueCoding": {
            "system": "urn:oid:2.16.840.1.113883.6.238",
            "code": "1002-5",
            "display": "American Indian or Alaska Native",
            "userSelected": true
          }
        }, {
          "url": "text",
          "valueString": "American Indian or Alaska Native"
        } ]
      }, {
        "url": "http://hl7.org/fhir/us/core/StructureDefinition/us-core-ethnicity",
        "extension": [ {
          "url": "ombCategory",
          "valueCoding": {
            "system": "urn:oid:2.16.840.1.113883.6.238",
            "code": "2135-2",
            "display": "Hispanic or Latino",
            "userSelected": true
          }
        }, {
          "url": "text",
          "valueString": "Hispanic or Latino"
        } ]
      } ],
      "identifier": [ {
        "type": {
          "coding": [ {
            "system": "http://terminology.hl7.org/CodeSystem/v2-0203",
            "code": "MR"
          } ]
        },
        "system": "https://bonnie-fhir.healthit.gov/",
        "value": "612e6f7102c62a011f2f1e30"
      } ],
      "active": true,
      "name": [ {
        "use": "usual",
        "family": "NUMERPass",
        "given": [ "TestMultipleOccur1inNum1inExcept" ]
      } ],
      "gender": "female",
      "birthDate": "1975-03-03"
    },
    "request": {
      "method": "PUT",
      "url": "Patient/7572464e-7191-4b5c-bad1-c7acd195178d"
    }
  }, {
    "fullUrl": "https://madie.cms.gov/Encounter/6d6b3014-226f-4198-897f-77e65d08e1c4",
    "resource": {
      "resourceType": "Encounter",
      "id": "6d6b3014-226f-4198-897f-77e65d08e1c4",
      "meta": {
        "profile": [ "http://hl7.org/fhir/us/qicore/StructureDefinition/qicore-encounter" ]
      },
      "status": "finished",
      "class": {
        "system": "http://terminology.hl7.org/CodeSystem/v3-ActCode",
        "code": "IMP",
        "display": "inpatient encounter"
      },
      "type": [ {
        "coding": [ {
          "system": "http://snomed.info/sct",
          "code": "183452005"
        } ]
      } ],
      "subject": {
        "reference": "Patient/7572464e-7191-4b5c-bad1-c7acd195178d"
      },
      "period": {
        "start": "2026-03-22T08:00:00.000+00:00",
        "end": "2026-03-26T08:15:00.000+00:00"
      },
      "length": {
        "value": 4.0,
        "unit": "days"
      },
      "location": [ {
        "location": {
          "reference": "Location/f77cf29a-4014-495c-91ba-d59bff257ebe"
        },
        "period": {
          "start": "2026-03-22T08:15:00.000+00:00",
          "end": "2026-03-24T08:00:00.000+00:00"
        }
      } ]
    },
    "request": {
      "method": "PUT",
      "url": "Encounter/6d6b3014-226f-4198-897f-77e65d08e1c4"
    }
  }, {
    "fullUrl": "https://madie.cms.gov/Encounter/4a7e554c-1d97-4859-9644-b0350b6a6237",
    "resource": {
      "resourceType": "Encounter",
      "id": "4a7e554c-1d97-4859-9644-b0350b6a6237",
      "meta": {
        "profile": [ "http://hl7.org/fhir/us/qicore/StructureDefinition/qicore-encounter" ]
      },
      "status": "finished",
      "class": {
        "system": "http://terminology.hl7.org/CodeSystem/v3-ActCode",
        "code": "OBSENC",
        "display": "observation encounter"
      },
      "type": [ {
        "coding": [ {
          "system": "http://snomed.info/sct",
          "code": "4525004"
        } ]
      } ],
      "subject": {
        "reference": "Patient/7572464e-7191-4b5c-bad1-c7acd195178d"
      },
      "period": {
        "start": "2026-12-06T02:00:00.000+00:00",
        "end": "2026-12-06T08:15:00.000+00:00"
      },
      "length": {
        "value": 0.0,
        "unit": "days"
      }
    },
    "request": {
      "method": "PUT",
      "url": "Encounter/4a7e554c-1d97-4859-9644-b0350b6a6237"
    }
  }, {
    "fullUrl": "https://madie.cms.gov/Encounter/bc2fadb8-6be9-43c5-a1f3-aaac0ac58cd7",
    "resource": {
      "resourceType": "Encounter",
      "id": "bc2fadb8-6be9-43c5-a1f3-aaac0ac58cd7",
      "meta": {
        "profile": [ "http://hl7.org/fhir/us/qicore/StructureDefinition/qicore-encounter" ]
      },
      "status": "finished",
      "class": {
        "system": "http://terminology.hl7.org/CodeSystem/v3-ActCode",
        "code": "IMP",
        "display": "inpatient encounter"
      },
      "type": [ {
        "coding": [ {
          "system": "http://snomed.info/sct",
          "code": "8715000"
        } ]
      } ],
      "subject": {
        "reference": "Patient/7572464e-7191-4b5c-bad1-c7acd195178d"
      },
      "period": {
        "start": "2026-12-06T08:45:00.000+00:00",
        "end": "2026-12-30T08:15:00.000+00:00"
      },
      "length": {
        "value": 24.0,
        "unit": "days"
      },
      "location": [ {
        "location": {
          "reference": "Location/cb7a87cb-d5c8-42da-b423-c23c82455054"
        },
        "period": {
          "start": "2026-12-07T08:45:00.000+00:00",
          "end": "2026-12-07T20:00:00.000+00:00"
        }
      } ]
    },
    "request": {
      "method": "PUT",
      "url": "Encounter/bc2fadb8-6be9-43c5-a1f3-aaac0ac58cd7"
    }
  }, {
    "fullUrl": "https://madie.cms.gov/Coverage/3c90fdc8-9d48-44db-836b-9a204bde2b00",
    "resource": {
      "resourceType": "Coverage",
      "id": "3c90fdc8-9d48-44db-836b-9a204bde2b00",
      "status": "active",
      "beneficiary": {
        "reference": "Patient/7572464e-7191-4b5c-bad1-c7acd195178d"
      },
      "period": {
        "start": "1975-03-03T08:00:00.000+00:00"
      },
      "payor": [ {
        "reference": "Organization/7b2cb476-a945-4813-ad35-c3b549968309"
      } ]
    },
    "request": {
      "method": "PUT",
      "url": "Coverage/3c90fdc8-9d48-44db-836b-9a204bde2b00"
    }
  }, {
    "fullUrl": "https://madie.cms.gov/Location/f77cf29a-4014-495c-91ba-d59bff257ebe",
    "resource": {
      "resourceType": "Location",
      "id": "f77cf29a-4014-495c-91ba-d59bff257ebe",
      "meta": {
        "profile": [ "http://hl7.org/fhir/us/qicore/StructureDefinition/qicore-location" ]
      },
      "identifier": [ {
        "use": "usual",
        "system": "http://exampleoflocation.com",
        "value": "B1-S.F2"
      } ],
      "name": "Medical Surgical East, first floor",
      "type": [ {
        "coding": [ {
          "system": "https://www.cdc.gov/nhsn/cdaportal/terminology/codesystem/hsloc.html",
          "code": "1025-6",
          "display": "Trauma Critical Care",
          "userSelected": true
        } ]
      } ]
    },
    "request": {
      "method": "PUT",
      "url": "Location/f77cf29a-4014-495c-91ba-d59bff257ebe"
    }
  }, {
    "fullUrl": "https://madie.cms.gov/Location/cb7a87cb-d5c8-42da-b423-c23c82455054",
    "resource": {
      "resourceType": "Location",
      "id": "cb7a87cb-d5c8-42da-b423-c23c82455054",
      "meta": {
        "profile": [ "http://hl7.org/fhir/us/qicore/StructureDefinition/qicore-location" ]
      },
      "identifier": [ {
        "use": "usual",
        "system": "http://exampleoflocation.com",
        "value": "B1-S.F2"
      } ],
      "name": "Medical Surgical East, first floor",
      "type": [ {
        "coding": [ {
          "system": "https://www.cdc.gov/nhsn/cdaportal/terminology/codesystem/hsloc.html",
          "code": "1025-6",
          "display": "Trauma Critical Care",
          "userSelected": true
        } ]
      } ]
    },
    "request": {
      "method": "PUT",
      "url": "Location/cb7a87cb-d5c8-42da-b423-c23c82455054"
    }
  }, {
    "fullUrl": "https://madie.cms.gov/Procedure/20d2b863-60a3-44a3-89b7-53025e20df42",
    "resource": {
      "resourceType": "Procedure",
      "id": "20d2b863-60a3-44a3-89b7-53025e20df42",
      "meta": {
        "profile": [ "http://hl7.org/fhir/us/qicore/StructureDefinition/qicore-procedure" ]
      },
      "extension": [ {
        "url": "http://hl7.org/fhir/us/qicore/StructureDefinition/qicore-recorded",
        "valueDateTime": "2026-03-26T13:35:00.000+00:00"
      } ],
      "status": "completed",
      "code": {
        "coding": [ {
          "system": "http://snomed.info/sct",
          "code": "229511001"
        } ]
      },
      "subject": {
        "reference": "Patient/7572464e-7191-4b5c-bad1-c7acd195178d"
      },
      "performedPeriod": {
        "start": "2026-03-22T08:05:00.000+00:00",
        "end": "2026-03-22T08:15:00.000+00:00"
      }
    },
    "request": {
      "method": "PUT",
      "url": "Procedure/20d2b863-60a3-44a3-89b7-53025e20df42"
    }
  }, {
    "fullUrl": "https://madie.cms.gov/Location/d219a4a1-9037-4e1e-89cf-e30a651406e2",
    "resource": {
      "resourceType": "Location",
      "id": "d219a4a1-9037-4e1e-89cf-e30a651406e2",
      "meta": {
        "profile": [ "http://hl7.org/fhir/us/qicore/StructureDefinition/qicore-location" ]
      },
      "identifier": [ {
        "use": "usual",
        "system": "http://exampleoflocation.com",
        "value": "B1-S.F2"
      } ],
      "name": "Medical Surgical East, first floor",
      "type": [ {
        "coding": [ {
          "system": "https://www.cdc.gov/nhsn/cdaportal/terminology/codesystem/hsloc.html",
          "code": "1025-6",
          "display": "Trauma Critical Care",
          "userSelected": true
        } ]
      } ]
    },
    "request": {
      "method": "PUT",
      "url": "Location/d219a4a1-9037-4e1e-89cf-e30a651406e2"
    }
  }, {
    "fullUrl": "https://madie.cms.gov/Organization/7b2cb476-a945-4813-ad35-c3b549968309",
    "resource": {
      "resourceType": "Organization",
      "id": "7b2cb476-a945-4813-ad35-c3b549968309",
      "meta": {
        "profile": [ "http://hl7.org/fhir/us/qicore/StructureDefinition/qicore-organization" ]
      },
      "identifier": [ {
        "use": "temp",
        "system": "urn:oid:2.16.840.1.113883.4.4",
        "value": "21-3259825"
      } ],
      "active": true,
      "type": [ {
        "coding": [ {
          "system": "http://terminology.hl7.org/CodeSystem/organization-type",
          "code": "pay",
          "display": "Payer"
        } ]
      } ],
      "name": "Blue Cross Blue Shield of Texas",
      "telecom": [ {
        "system": "phone",
        "value": "(+1) 972-766-6900"
      } ],
      "address": [ {
        "use": "billing",
        "type": "postal",
        "line": [ "P.O. Box 660044" ],
        "city": "Dallas",
        "state": "TX",
        "postalCode": "75266-0044",
        "country": "USA"
      } ]
    },
    "request": {
      "method": "PUT",
      "url": "Organization/7b2cb476-a945-4813-ad35-c3b549968309"
    }
  }, {
    "fullUrl": "https://madie.cms.gov/Practitioner/e8dc9594-011a-4e8f-8732-33d1771a0bbb",
    "resource": {
      "resourceType": "Practitioner",
      "id": "e8dc9594-011a-4e8f-8732-33d1771a0bbb",
      "identifier": [ {
        "system": "http://hl7.org/fhir/sid/us-npi",
        "value": "123456"
      } ],
      "name": [ {
        "family": "Evil",
        "prefix": [ "Dr" ]
      } ]
    },
    "request": {
      "method": "PUT",
      "url": "Practitioner/e8dc9594-011a-4e8f-8732-33d1771a0bbb"
    }
  }, {
    "fullUrl": "https://madie.cms.gov/MeasureReport/ffc11d4a-5994-4787-bb49-59a6a8a88dae",
    "resource": {
      "resourceType": "MeasureReport",
      "id": "ffc11d4a-5994-4787-bb49-59a6a8a88dae",
      "meta": {
        "profile": [ "http://hl7.org/fhir/us/cqfmeasures/StructureDefinition/test-case-cqfm" ]
      },
      "contained": [ {
        "resourceType": "Parameters",
        "id": "ed5cbe0b-c98a-4918-86cc-696aa4412021-parameters",
        "parameter": [ {
          "name": "subject",
          "valueString": "7572464e-7191-4b5c-bad1-c7acd195178d"
        } ]
      } ],
      "extension": [ {
        "url": "http://hl7.org/fhir/StructureDefinition/cqf-inputParameters",
        "valueReference": {
          "reference": "#ed5cbe0b-c98a-4918-86cc-696aa4412021-parameters"
        }
      }, {
        "url": "http://hl7.org/fhir/us/cqfmeasures/StructureDefinition/cqfm-testCaseDescription",
        "valueMarkdown": " Patient has 2 encounters, one pass Numerator one pass DenExceptions\n"
      } ],
      "modifierExtension": [ {
        "url": "http://hl7.org/fhir/us/cqfmeasures/StructureDefinition/cqfm-isTestCase",
        "valueBoolean": true
      } ],
      "status": "complete",
      "type": "individual",
      "measure": "https://madie.cms.gov/Measure/CMS190VTEProphylaxisICUFHIR",
      "period": {
        "start": "2026-01-01",
        "end": "2026-12-31"
      },
      "group": [ {
        "id": "Group_1",
        "population": [ {
          "id": "InitialPopulation_1",
          "code": {
            "coding": [ {
              "system": "http://terminology.hl7.org/CodeSystem/measure-population",
              "code": "initial-population",
              "display": "Initial Population"
            } ]
          },
          "count": 2
        }, {
          "id": "Denominator_1",
          "code": {
            "coding": [ {
              "system": "http://terminology.hl7.org/CodeSystem/measure-population",
              "code": "denominator",
              "display": "Denominator"
            } ]
          },
          "count": 2
        }, {
          "id": "DenominatorExclusion_1",
          "code": {
            "coding": [ {
              "system": "http://terminology.hl7.org/CodeSystem/measure-population",
              "code": "denominator-exclusion",
              "display": "Denominator Exclusion"
            } ]
          },
          "count": 0
        }, {
          "id": "Numerator_1",
          "code": {
            "coding": [ {
              "system": "http://terminology.hl7.org/CodeSystem/measure-population",
              "code": "numerator",
              "display": "Numerator"
            } ]
          },
          "count": 1
        }, {
          "id": "DenominatorException_1",
          "code": {
            "coding": [ {
              "system": "http://terminology.hl7.org/CodeSystem/measure-population",
              "code": "denominator-exception",
              "display": "Denominator Exception"
            } ]
          },
          "count": 1
        } ],
        "measureScore": {
          "value": 0.0
        }
      } ],
      "evaluatedResource": [ {
        "reference": "Patient/7572464e-7191-4b5c-bad1-c7acd195178d"
      }, {
        "reference": "Encounter/6d6b3014-226f-4198-897f-77e65d08e1c4"
      }, {
        "reference": "Encounter/4a7e554c-1d97-4859-9644-b0350b6a6237"
      }, {
        "reference": "Encounter/bc2fadb8-6be9-43c5-a1f3-aaac0ac58cd7"
      }, {
        "reference": "Coverage/3c90fdc8-9d48-44db-836b-9a204bde2b00"
      }, {
        "reference": "Location/f77cf29a-4014-495c-91ba-d59bff257ebe"
      }, {
        "reference": "Location/cb7a87cb-d5c8-42da-b423-c23c82455054"
      }, {
        "reference": "Procedure/20d2b863-60a3-44a3-89b7-53025e20df42"
      }, {
        "reference": "Location/d219a4a1-9037-4e1e-89cf-e30a651406e2"
      }, {
        "reference": "Organization/7b2cb476-a945-4813-ad35-c3b549968309"
      }, {
        "reference": "Practitioner/e8dc9594-011a-4e8f-8732-33d1771a0bbb"
      } ]
    },
    "request": {
      "method": "PUT",
      "url": "MeasureReport/ffc11d4a-5994-4787-bb49-59a6a8a88dae"
    }
  } ]
}