{
  "resourceType": "Bundle",
  "id": "DENEXFail-LastHousingStatusNotNursingHome",
  "type": "transaction",
  "entry": [ {
    "fullUrl": "https://madie.cms.gov/Patient/b378c30b-ebc2-4378-9a75-8a97711cac81",
    "resource": {
      "resourceType": "Patient",
      "id": "b378c30b-ebc2-4378-9a75-8a97711cac81",
      "meta": {
        "profile": [ "http://hl7.org/fhir/us/qicore/StructureDefinition/qicore-patient" ]
      },
      "extension": [ {
        "url": "http://hl7.org/fhir/us/core/StructureDefinition/us-core-race",
        "extension": [ {
          "url": "ombCategory",
          "valueCoding": {
            "system": "urn:oid:2.16.840.1.113883.6.238",
            "code": "2028-9",
            "display": "Asian"
          }
        }, {
          "url": "text",
          "valueString": "Asian"
        } ]
      }, {
        "url": "http://hl7.org/fhir/us/core/StructureDefinition/us-core-ethnicity",
        "extension": [ {
          "url": "ombCategory",
          "valueCoding": {
            "system": "urn:oid:2.16.840.1.113883.6.238",
            "code": "2135-2",
            "display": "Hispanic or Latino"
          }
        }, {
          "url": "text",
          "valueString": "Hispanic or Latino"
        } ]
      } ],
      "identifier": [ {
        "system": "http://hospital.smarthealthit.org",
        "value": "999999995"
      } ],
      "name": [ {
        "family": "DENEXFail",
        "given": [ "LastHousingStatusNotNursingHome" ]
      } ],
      "gender": "female",
      "birthDate": "1959-12-31"
    },
    "request": {
      "method": "PUT",
      "url": "Patient/b378c30b-ebc2-4378-9a75-8a97711cac81"
    }
  }, {
    "fullUrl": "https://madie.cms.gov/Encounter/152f90fb-6fb3-4669-a56a-18a013528ac5",
    "resource": {
      "resourceType": "Encounter",
      "id": "152f90fb-6fb3-4669-a56a-18a013528ac5",
      "meta": {
        "profile": [ "http://hl7.org/fhir/us/qicore/StructureDefinition/qicore-encounter" ]
      },
      "status": "finished",
      "class": {
        "system": "http://terminology.hl7.org/CodeSystem/v3-ActCode",
        "code": "AMB",
        "display": "ambulatory"
      },
      "type": [ {
        "coding": [ {
          "system": "http://snomed.info/sct",
          "code": "3391000175108",
          "display": "Office visit for pediatric care and assessment (procedure)"
        } ]
      } ],
      "subject": {
        "reference": "Patient/b378c30b-ebc2-4378-9a75-8a97711cac81"
      },
      "period": {
        "start": "2026-01-01T00:00:00.000Z",
        "end": "2026-01-01T01:00:00.000Z"
      }
    },
    "request": {
      "method": "PUT",
      "url": "Encounter/152f90fb-6fb3-4669-a56a-18a013528ac5"
    }
  }, {
    "fullUrl": "https://madie.cms.gov/Condition/53c2832d-2802-47fd-966d-0296fcbbe5bb",
    "resource": {
      "resourceType": "Condition",
      "id": "53c2832d-2802-47fd-966d-0296fcbbe5bb",
      "meta": {
        "profile": [ "http://hl7.org/fhir/us/qicore/StructureDefinition/qicore-condition-encounter-diagnosis" ]
      },
      "clinicalStatus": {
        "coding": [ {
          "system": "http://terminology.hl7.org/CodeSystem/condition-clinical",
          "code": "active"
        } ]
      },
      "category": [ {
        "coding": [ {
          "system": "http://terminology.hl7.org/CodeSystem/condition-category",
          "code": "problem-list-item",
          "display": "Problem List Item"
        } ]
      } ],
      "code": {
        "coding": [ {
          "system": "http://snomed.info/sct",
          "code": "371125006",
          "display": "Labile essential hypertension (disorder)"
        } ]
      },
      "subject": {
        "reference": "Patient/b378c30b-ebc2-4378-9a75-8a97711cac81"
      },
      "onsetDateTime": "2026-06-30T23:59:59.000Z"
    },
    "request": {
      "method": "PUT",
      "url": "Condition/53c2832d-2802-47fd-966d-0296fcbbe5bb"
    }
  }, {
    "fullUrl": "https://madie.cms.gov/Observation/df264834-375c-4453-88cd-4a14b1b4ac0f",
    "resource": {
      "resourceType": "Observation",
      "id": "df264834-375c-4453-88cd-4a14b1b4ac0f",
      "meta": {
        "profile": [ "http://hl7.org/fhir/us/qicore/StructureDefinition/qicore-observation-screening-assessment" ]
      },
      "status": "final",
      "category": [ {
        "coding": [ {
          "system": "http://terminology.hl7.org/CodeSystem/observation-category",
          "code": "survey"
        } ]
      } ],
      "code": {
        "coding": [ {
          "system": "http://loinc.org",
          "code": "71802-3",
          "display": "Housing status"
        } ]
      },
      "subject": {
        "reference": "Patient/b378c30b-ebc2-4378-9a75-8a97711cac81"
      },
      "effectivePeriod": {
        "start": "2025-12-31T00:00:00.000Z",
        "end": "2026-01-01T00:00:00.000Z"
      },
      "valueCodeableConcept": {
        "coding": [ {
          "system": "http://snomed.info/sct",
          "code": "160943002",
          "display": "Lives in own home"
        } ]
      }
    },
    "request": {
      "method": "PUT",
      "url": "Observation/df264834-375c-4453-88cd-4a14b1b4ac0f"
    }
  }, {
    "fullUrl": "https://madie.cms.gov/MeasureReport/8cbab208-6f33-41e5-bff8-e6e61776cea0",
    "resource": {
      "resourceType": "MeasureReport",
      "id": "8cbab208-6f33-41e5-bff8-e6e61776cea0",
      "meta": {
        "profile": [ "http://hl7.org/fhir/us/cqfmeasures/StructureDefinition/test-case-cqfm" ]
      },
      "contained": [ {
        "resourceType": "Parameters",
        "id": "5eef392c-985f-4625-9d27-9954f660a048-parameters",
        "parameter": [ {
          "name": "subject",
          "valueString": "b378c30b-ebc2-4378-9a75-8a97711cac81"
        } ]
      } ],
      "extension": [ {
        "url": "http://hl7.org/fhir/StructureDefinition/cqf-inputParameters",
        "valueReference": {
          "reference": "#5eef392c-985f-4625-9d27-9954f660a048-parameters"
        }
      }, {
        "url": "http://hl7.org/fhir/us/cqfmeasures/StructureDefinition/cqfm-testCaseDescription",
        "valueMarkdown": "Last housing status not nursing home"
      } ],
      "modifierExtension": [ {
        "url": "http://hl7.org/fhir/us/cqfmeasures/StructureDefinition/cqfm-isTestCase",
        "valueBoolean": true
      } ],
      "status": "complete",
      "type": "individual",
      "measure": "https://madie.cms.gov/Measure/CMS165FHIRControllingHighBloodPressure",
      "period": {
        "start": "2026-01-01",
        "end": "2026-12-31"
      },
      "group": [ {
        "id": "Group_1",
        "population": [ {
          "id": "InitialPopulation_1",
          "code": {
            "coding": [ {
              "system": "http://terminology.hl7.org/CodeSystem/measure-population",
              "code": "initial-population",
              "display": "Initial Population"
            } ]
          },
          "count": 1
        }, {
          "id": "Denominator_1",
          "code": {
            "coding": [ {
              "system": "http://terminology.hl7.org/CodeSystem/measure-population",
              "code": "denominator",
              "display": "Denominator"
            } ]
          },
          "count": 1
        }, {
          "id": "DenominatorExclusion_1",
          "code": {
            "coding": [ {
              "system": "http://terminology.hl7.org/CodeSystem/measure-population",
              "code": "denominator-exclusion",
              "display": "Denominator Exclusion"
            } ]
          },
          "count": 0
        }, {
          "id": "Numerator_1",
          "code": {
            "coding": [ {
              "system": "http://terminology.hl7.org/CodeSystem/measure-population",
              "code": "numerator",
              "display": "Numerator"
            } ]
          },
          "count": 0
        } ],
        "measureScore": {
          "value": 1.0
        }
      } ],
      "evaluatedResource": [ {
        "reference": "Patient/b378c30b-ebc2-4378-9a75-8a97711cac81"
      }, {
        "reference": "Encounter/152f90fb-6fb3-4669-a56a-18a013528ac5"
      }, {
        "reference": "Condition/53c2832d-2802-47fd-966d-0296fcbbe5bb"
      }, {
        "reference": "Observation/df264834-375c-4453-88cd-4a14b1b4ac0f"
      } ]
    },
    "request": {
      "method": "PUT",
      "url": "MeasureReport/8cbab208-6f33-41e5-bff8-e6e61776cea0"
    }
  } ]
}