{
  "resourceType": "Bundle",
  "id": "DENEXPass-KidneyTransplantProcedureDuringMP",
  "type": "transaction",
  "entry": [ {
    "fullUrl": "https://madie.cms.gov/Patient/7de4b027-eb4c-4a2e-958f-e6b7a3eb6309",
    "resource": {
      "resourceType": "Patient",
      "id": "7de4b027-eb4c-4a2e-958f-e6b7a3eb6309",
      "meta": {
        "profile": [ "http://hl7.org/fhir/us/qicore/StructureDefinition/qicore-patient" ]
      },
      "extension": [ {
        "url": "http://hl7.org/fhir/us/core/StructureDefinition/us-core-race",
        "extension": [ {
          "url": "ombCategory",
          "valueCoding": {
            "system": "urn:oid:2.16.840.1.113883.6.238",
            "code": "2028-9",
            "display": "Asian"
          }
        }, {
          "url": "text",
          "valueString": "Asian"
        } ]
      }, {
        "url": "http://hl7.org/fhir/us/core/StructureDefinition/us-core-ethnicity",
        "extension": [ {
          "url": "ombCategory",
          "valueCoding": {
            "system": "urn:oid:2.16.840.1.113883.6.238",
            "code": "2135-2",
            "display": "Hispanic or Latino"
          }
        }, {
          "url": "text",
          "valueString": "Hispanic or Latino"
        } ]
      } ],
      "identifier": [ {
        "system": "http://hospital.smarthealthit.org",
        "value": "999999995"
      } ],
      "name": [ {
        "family": "DENEXPass",
        "given": [ "KidneyTransplantProcedureDuringMP" ]
      } ],
      "gender": "female",
      "birthDate": "2007-12-31"
    },
    "request": {
      "method": "PUT",
      "url": "Patient/7de4b027-eb4c-4a2e-958f-e6b7a3eb6309"
    }
  }, {
    "fullUrl": "https://madie.cms.gov/Encounter/a9bf7ffb-c3bc-442d-bb90-146ca67d6ff0",
    "resource": {
      "resourceType": "Encounter",
      "id": "a9bf7ffb-c3bc-442d-bb90-146ca67d6ff0",
      "meta": {
        "profile": [ "http://hl7.org/fhir/us/qicore/StructureDefinition/qicore-encounter" ]
      },
      "status": "finished",
      "class": {
        "system": "http://terminology.hl7.org/CodeSystem/v3-ActCode",
        "code": "AMB",
        "display": "ambulatory"
      },
      "type": [ {
        "coding": [ {
          "system": "http://snomed.info/sct",
          "code": "3391000175108",
          "display": "Office visit for pediatric care and assessment (procedure)"
        } ]
      } ],
      "subject": {
        "reference": "Patient/7de4b027-eb4c-4a2e-958f-e6b7a3eb6309"
      },
      "period": {
        "start": "2026-01-01T00:00:00.000Z",
        "end": "2026-01-01T01:00:00.000Z"
      }
    },
    "request": {
      "method": "PUT",
      "url": "Encounter/a9bf7ffb-c3bc-442d-bb90-146ca67d6ff0"
    }
  }, {
    "fullUrl": "https://madie.cms.gov/Condition/a93c6702-d9d2-48e8-a8ae-c1a8a73a79ee",
    "resource": {
      "resourceType": "Condition",
      "id": "a93c6702-d9d2-48e8-a8ae-c1a8a73a79ee",
      "meta": {
        "profile": [ "http://hl7.org/fhir/us/qicore/StructureDefinition/qicore-condition-encounter-diagnosis" ]
      },
      "clinicalStatus": {
        "coding": [ {
          "system": "http://terminology.hl7.org/CodeSystem/condition-clinical",
          "code": "active"
        } ]
      },
      "category": [ {
        "coding": [ {
          "system": "http://terminology.hl7.org/CodeSystem/condition-category",
          "code": "problem-list-item",
          "display": "Problem List Item"
        } ]
      } ],
      "code": {
        "coding": [ {
          "system": "http://snomed.info/sct",
          "code": "371125006",
          "display": "Labile essential hypertension (disorder)"
        } ]
      },
      "subject": {
        "reference": "Patient/7de4b027-eb4c-4a2e-958f-e6b7a3eb6309"
      },
      "onsetDateTime": "2026-06-30T23:59:59.000Z"
    },
    "request": {
      "method": "PUT",
      "url": "Condition/a93c6702-d9d2-48e8-a8ae-c1a8a73a79ee"
    }
  }, {
    "fullUrl": "https://madie.cms.gov/Procedure/ba66e3b2-179f-4b10-a652-f14c758f7638",
    "resource": {
      "resourceType": "Procedure",
      "id": "ba66e3b2-179f-4b10-a652-f14c758f7638",
      "meta": {
        "profile": [ "http://hl7.org/fhir/us/qicore/StructureDefinition/qicore-procedure" ]
      },
      "extension": [ {
        "url": "http://hl7.org/fhir/us/qicore/StructureDefinition/qicore-recorded",
        "valueDateTime": "2025-12-31T00:00:00.000Z"
      } ],
      "status": "completed",
      "code": {
        "coding": [ {
          "system": "http://snomed.info/sct",
          "code": "70536003",
          "display": "Transplant of kidney (procedure)"
        } ]
      },
      "subject": {
        "reference": "Patient/7de4b027-eb4c-4a2e-958f-e6b7a3eb6309"
      },
      "performedPeriod": {
        "start": "2026-12-30T00:00:00.000Z",
        "end": "2026-12-30T23:59:59.000Z"
      }
    },
    "request": {
      "method": "PUT",
      "url": "Procedure/ba66e3b2-179f-4b10-a652-f14c758f7638"
    }
  }, {
    "fullUrl": "https://madie.cms.gov/MeasureReport/3a6c8b23-2815-4717-b3b9-5857431b0d1a",
    "resource": {
      "resourceType": "MeasureReport",
      "id": "3a6c8b23-2815-4717-b3b9-5857431b0d1a",
      "meta": {
        "profile": [ "http://hl7.org/fhir/us/cqfmeasures/StructureDefinition/test-case-cqfm" ]
      },
      "contained": [ {
        "resourceType": "Parameters",
        "id": "34f2f5dd-1a61-4516-ae3a-9d8fe7a737a3-parameters",
        "parameter": [ {
          "name": "subject",
          "valueString": "7de4b027-eb4c-4a2e-958f-e6b7a3eb6309"
        } ]
      } ],
      "extension": [ {
        "url": "http://hl7.org/fhir/StructureDefinition/cqf-inputParameters",
        "valueReference": {
          "reference": "#34f2f5dd-1a61-4516-ae3a-9d8fe7a737a3-parameters"
        }
      }, {
        "url": "http://hl7.org/fhir/us/cqfmeasures/StructureDefinition/cqfm-testCaseDescription",
        "valueMarkdown": "Kidney transplant procedure during MP"
      } ],
      "modifierExtension": [ {
        "url": "http://hl7.org/fhir/us/cqfmeasures/StructureDefinition/cqfm-isTestCase",
        "valueBoolean": true
      } ],
      "status": "complete",
      "type": "individual",
      "measure": "https://madie.cms.gov/Measure/CMS165FHIRControllingHighBloodPressure",
      "period": {
        "start": "2026-01-01",
        "end": "2026-12-31"
      },
      "group": [ {
        "id": "Group_1",
        "population": [ {
          "id": "InitialPopulation_1",
          "code": {
            "coding": [ {
              "system": "http://terminology.hl7.org/CodeSystem/measure-population",
              "code": "initial-population",
              "display": "Initial Population"
            } ]
          },
          "count": 1
        }, {
          "id": "Denominator_1",
          "code": {
            "coding": [ {
              "system": "http://terminology.hl7.org/CodeSystem/measure-population",
              "code": "denominator",
              "display": "Denominator"
            } ]
          },
          "count": 1
        }, {
          "id": "DenominatorExclusion_1",
          "code": {
            "coding": [ {
              "system": "http://terminology.hl7.org/CodeSystem/measure-population",
              "code": "denominator-exclusion",
              "display": "Denominator Exclusion"
            } ]
          },
          "count": 1
        }, {
          "id": "Numerator_1",
          "code": {
            "coding": [ {
              "system": "http://terminology.hl7.org/CodeSystem/measure-population",
              "code": "numerator",
              "display": "Numerator"
            } ]
          },
          "count": 0
        } ],
        "measureScore": {
          "value": 1.0
        }
      } ],
      "evaluatedResource": [ {
        "reference": "Patient/7de4b027-eb4c-4a2e-958f-e6b7a3eb6309"
      }, {
        "reference": "Encounter/a9bf7ffb-c3bc-442d-bb90-146ca67d6ff0"
      }, {
        "reference": "Condition/a93c6702-d9d2-48e8-a8ae-c1a8a73a79ee"
      }, {
        "reference": "Procedure/ba66e3b2-179f-4b10-a652-f14c758f7638"
      } ]
    },
    "request": {
      "method": "PUT",
      "url": "MeasureReport/3a6c8b23-2815-4717-b3b9-5857431b0d1a"
    }
  } ]
}