{"resourceType":"Bundle","id":"tests-4c814ca9-da50-43e3-9e31-dbe755ee5c5e-bundle","type":"transaction","entry":[{"resource":{"resourceType":"Bundle","id":"IPPPass-SDECoverage","type":"transaction","entry":[{"fullUrl":"https://madie.cms.gov/Patient/4c814ca9-da50-43e3-9e31-dbe755ee5c5e","resource":{"resourceType":"Patient","id":"4c814ca9-da50-43e3-9e31-dbe755ee5c5e","meta":{"profile":["http://hl7.org/fhir/us/qicore/StructureDefinition/qicore-patient"]},"extension":[{"url":"http://hl7.org/fhir/us/core/StructureDefinition/us-core-race","extension":[{"url":"ombCategory","valueCoding":{"system":"urn:oid:2.16.840.1.113883.6.238","code":"2028-9","display":"Asian","userSelected":true}},{"url":"text","valueString":"Asian"},{"url":"detailed","valueCoding":{"system":"urn:oid:2.16.840.1.113883.6.238","code":"1653-5","display":"Tohono O'Odham"}}]},{"url":"http://hl7.org/fhir/us/core/StructureDefinition/us-core-ethnicity","extension":[{"url":"ombCategory","valueCoding":{"system":"urn:oid:2.16.840.1.113883.6.238","code":"2135-2","display":"Hispanic or Latino","userSelected":true}},{"url":"text","valueString":"Hispanic or Latino"},{"url":"detailed","valueCoding":{"system":"urn:oid:2.16.840.1.113883.6.238","code":"2180-8","display":"Puerto Rican"}}]},{"url":"http://hl7.org/fhir/us/core/StructureDefinition/us-core-sex","valueCode":"248153007"}],"identifier":[{"system":"http://hospital.smarthealthit.org","value":"999999995"}],"name":[{"family":"SDE","given":["SDECoverage"]}],"gender":"male","birthDate":"1956-01-01"},"request":{"method":"PUT","url":"Patient/4c814ca9-da50-43e3-9e31-dbe755ee5c5e"}},{"fullUrl":"https://madie.cms.gov/Encounter/ea1d0e7d-8b29-4306-a050-938a2ffa3b3e","resource":{"resourceType":"Encounter","id":"ea1d0e7d-8b29-4306-a050-938a2ffa3b3e","meta":{"profile":["http://hl7.org/fhir/us/qicore/StructureDefinition/qicore-encounter"]},"status":"finished","class":{"system":"http://terminology.hl7.org/CodeSystem/v3-ActCode","code":"AMB","display":"ambulatory"},"type":[{"coding":[{"system":"http://snomed.info/sct","code":"401267002","display":"Telephone triage encounter (procedure)"}]}],"subject":{"reference":"Patient/4c814ca9-da50-43e3-9e31-dbe755ee5c5e"},"period":{"start":"2026-01-01T00:00:00.000+00:00","end":"2026-01-01T01:00:00.000+00:00"}},"request":{"method":"PUT","url":"Encounter/ea1d0e7d-8b29-4306-a050-938a2ffa3b3e"}},{"fullUrl":"https://madie.cms.gov/Coverage/1ba75d0c-13d4-4115-a21b-049cab6a267f","resource":{"resourceType":"Coverage","id":"1ba75d0c-13d4-4115-a21b-049cab6a267f","meta":{"profile":["http://hl7.org/fhir/us/qicore/StructureDefinition/qicore-coverage"]},"identifier":[{"system":"http://benefitsinc.com/certificate","value":"12345"}],"status":"active","type":{"coding":[{"system":"https://nahdo.org/sopt","code":"59","display":"Other Private Insurance"}]},"policyHolder":{"reference":"Patient/4c814ca9-da50-43e3-9e31-dbe755ee5c5e"},"subscriber":{"reference":"Patient/4c814ca9-da50-43e3-9e31-dbe755ee5c5e"},"subscriberId":"12191","beneficiary":{"reference":"Patient/4c814ca9-da50-43e3-9e31-dbe755ee5c5e"},"dependent":"0","relationship":{"coding":[{"system":"http://terminology.hl7.org/CodeSystem/subscriber-relationship","code":"self"}]},"period":{"start":"2023-01-01T06:00:00.000+00:00","end":"2023-01-01T11:06:01.000+00:00"},"payor":[{"reference":"Patient/4c814ca9-da50-43e3-9e31-dbe755ee5c5e"}],"order":9},"request":{"method":"PUT","url":"Coverage/1ba75d0c-13d4-4115-a21b-049cab6a267f"}},{"fullUrl":"https://madie.cms.gov/Condition/764fbc52-ad37-4efc-8e28-4dadacde9736","resource":{"resourceType":"Condition","id":"764fbc52-ad37-4efc-8e28-4dadacde9736","meta":{"profile":["http://hl7.org/fhir/us/qicore/StructureDefinition/qicore-condition-problems-health-concerns"]},"clinicalStatus":{"coding":[{"system":"http://terminology.hl7.org/CodeSystem/condition-clinical","code":"active"}]},"category":[{"coding":[{"system":"http://terminology.hl7.org/CodeSystem/condition-category","code":"problem-list-item","display":"Problem List Item"}]}],"code":{"coding":[{"system":"http://snomed.info/sct","code":"371125006","display":"Labile essential hypertension (disorder)"}]},"subject":{"reference":"Patient/4c814ca9-da50-43e3-9e31-dbe755ee5c5e"},"onsetDateTime":"2026-06-30T23:59:59.000+00:00"},"request":{"method":"PUT","url":"Condition/764fbc52-ad37-4efc-8e28-4dadacde9736"}},{"fullUrl":"https://madie.cms.gov/MeasureReport/8ec1abc2-9159-4f07-873a-286af18a1aae","resource":{"resourceType":"MeasureReport","id":"8ec1abc2-9159-4f07-873a-286af18a1aae","meta":{"profile":["http://hl7.org/fhir/us/cqfmeasures/StructureDefinition/test-case-cqfm"]},"contained":[{"resourceType":"Parameters","id":"04129aea-67ca-4b5b-bdb4-8891c9c27225-parameters","parameter":[{"name":"subject","valueString":"4c814ca9-da50-43e3-9e31-dbe755ee5c5e"}]}],"extension":[{"url":"http://hl7.org/fhir/StructureDefinition/cqf-inputParameters","valueReference":{"reference":"#04129aea-67ca-4b5b-bdb4-8891c9c27225-parameters"}},{"url":"http://hl7.org/fhir/us/cqfmeasures/StructureDefinition/cqfm-testCaseDescription","valueMarkdown":"For meeting SDE 100% coverage - patient gender male, sde payer coverage, ethnicity detailed, race detailed"}],"modifierExtension":[{"url":"http://hl7.org/fhir/us/cqfmeasures/StructureDefinition/cqfm-isTestCase","valueBoolean":true}],"status":"complete","type":"individual","measure":"https://madie.cms.gov/Measure/CMS165FHIRControllingHighBloodPressure","period":{"start":"2026-01-01","end":"2026-12-31"},"group":[{"id":"Group_1","population":[{"id":"InitialPopulation_1","code":{"coding":[{"system":"http://terminology.hl7.org/CodeSystem/measure-population","code":"initial-population","display":"Initial Population"}]},"count":1},{"id":"Denominator_1","code":{"coding":[{"system":"http://terminology.hl7.org/CodeSystem/measure-population","code":"denominator","display":"Denominator"}]},"count":1},{"id":"DenominatorExclusion_1","code":{"coding":[{"system":"http://terminology.hl7.org/CodeSystem/measure-population","code":"denominator-exclusion","display":"Denominator Exclusion"}]},"count":0},{"id":"Numerator_1","code":{"coding":[{"system":"http://terminology.hl7.org/CodeSystem/measure-population","code":"numerator","display":"Numerator"}]},"count":0}],"measureScore":{"value":1.0}}],"evaluatedResource":[{"reference":"Patient/4c814ca9-da50-43e3-9e31-dbe755ee5c5e"},{"reference":"Encounter/ea1d0e7d-8b29-4306-a050-938a2ffa3b3e"},{"reference":"Coverage/1ba75d0c-13d4-4115-a21b-049cab6a267f"},{"reference":"Condition/764fbc52-ad37-4efc-8e28-4dadacde9736"}]},"request":{"method":"PUT","url":"MeasureReport/8ec1abc2-9159-4f07-873a-286af18a1aae"}}]},"request":{"method":"PUT","url":"Bundle/IPPPass-SDECoverage"}},{"resource":{"resourceType":"Encounter","id":"ea1d0e7d-8b29-4306-a050-938a2ffa3b3e","meta":{"profile":["http://hl7.org/fhir/us/qicore/StructureDefinition/qicore-encounter"]},"status":"finished","class":{"system":"http://terminology.hl7.org/CodeSystem/v3-ActCode","code":"AMB","display":"ambulatory"},"type":[{"coding":[{"system":"http://snomed.info/sct","code":"401267002","display":"Telephone triage encounter (procedure)"}]}],"subject":{"reference":"Patient/4c814ca9-da50-43e3-9e31-dbe755ee5c5e"},"period":{"start":"2026-01-01T00:00:00.000+00:00","end":"2026-01-01T01:00:00.000+00:00"}},"request":{"method":"PUT","url":"Encounter/ea1d0e7d-8b29-4306-a050-938a2ffa3b3e"}},{"resource":{"resourceType":"MeasureReport","id":"8ec1abc2-9159-4f07-873a-286af18a1aae","meta":{"profile":["http://hl7.org/fhir/us/cqfmeasures/StructureDefinition/test-case-cqfm"]},"contained":[{"resourceType":"Parameters","id":"04129aea-67ca-4b5b-bdb4-8891c9c27225-parameters","parameter":[{"name":"subject","valueString":"4c814ca9-da50-43e3-9e31-dbe755ee5c5e"}]}],"extension":[{"url":"http://hl7.org/fhir/StructureDefinition/cqf-inputParameters","valueReference":{"reference":"#04129aea-67ca-4b5b-bdb4-8891c9c27225-parameters"}},{"url":"http://hl7.org/fhir/us/cqfmeasures/StructureDefinition/cqfm-testCaseDescription","valueMarkdown":"For meeting SDE 100% coverage - patient gender male, sde payer coverage, ethnicity detailed, race detailed"}],"modifierExtension":[{"url":"http://hl7.org/fhir/us/cqfmeasures/StructureDefinition/cqfm-isTestCase","valueBoolean":true}],"status":"complete","type":"individual","measure":"https://madie.cms.gov/Measure/CMS165FHIRControllingHighBloodPressure","period":{"start":"2026-01-01","end":"2026-12-31"},"group":[{"id":"Group_1","population":[{"id":"InitialPopulation_1","code":{"coding":[{"system":"http://terminology.hl7.org/CodeSystem/measure-population","code":"initial-population","display":"Initial Population"}]},"count":1},{"id":"Denominator_1","code":{"coding":[{"system":"http://terminology.hl7.org/CodeSystem/measure-population","code":"denominator","display":"Denominator"}]},"count":1},{"id":"DenominatorExclusion_1","code":{"coding":[{"system":"http://terminology.hl7.org/CodeSystem/measure-population","code":"denominator-exclusion","display":"Denominator Exclusion"}]},"count":0},{"id":"Numerator_1","code":{"coding":[{"system":"http://terminology.hl7.org/CodeSystem/measure-population","code":"numerator","display":"Numerator"}]},"count":0}],"measureScore":{"value":1.0}}],"evaluatedResource":[{"reference":"Patient/4c814ca9-da50-43e3-9e31-dbe755ee5c5e"},{"reference":"Encounter/ea1d0e7d-8b29-4306-a050-938a2ffa3b3e"},{"reference":"Coverage/1ba75d0c-13d4-4115-a21b-049cab6a267f"},{"reference":"Condition/764fbc52-ad37-4efc-8e28-4dadacde9736"}]},"request":{"method":"PUT","url":"MeasureReport/8ec1abc2-9159-4f07-873a-286af18a1aae"}},{"resource":{"resourceType":"Coverage","id":"1ba75d0c-13d4-4115-a21b-049cab6a267f","meta":{"profile":["http://hl7.org/fhir/us/qicore/StructureDefinition/qicore-coverage"]},"identifier":[{"system":"http://benefitsinc.com/certificate","value":"12345"}],"status":"active","type":{"coding":[{"system":"https://nahdo.org/sopt","code":"59","display":"Other Private Insurance"}]},"policyHolder":{"reference":"Patient/4c814ca9-da50-43e3-9e31-dbe755ee5c5e"},"subscriber":{"reference":"Patient/4c814ca9-da50-43e3-9e31-dbe755ee5c5e"},"subscriberId":"12191","beneficiary":{"reference":"Patient/4c814ca9-da50-43e3-9e31-dbe755ee5c5e"},"dependent":"0","relationship":{"coding":[{"system":"http://terminology.hl7.org/CodeSystem/subscriber-relationship","code":"self"}]},"period":{"start":"2023-01-01T06:00:00.000+00:00","end":"2023-01-01T11:06:01.000+00:00"},"payor":[{"reference":"Patient/4c814ca9-da50-43e3-9e31-dbe755ee5c5e"}],"order":9},"request":{"method":"PUT","url":"Coverage/1ba75d0c-13d4-4115-a21b-049cab6a267f"}},{"resource":{"resourceType":"Condition","id":"764fbc52-ad37-4efc-8e28-4dadacde9736","meta":{"profile":["http://hl7.org/fhir/us/qicore/StructureDefinition/qicore-condition-problems-health-concerns"]},"clinicalStatus":{"coding":[{"system":"http://terminology.hl7.org/CodeSystem/condition-clinical","code":"active"}]},"category":[{"coding":[{"system":"http://terminology.hl7.org/CodeSystem/condition-category","code":"problem-list-item","display":"Problem List Item"}]}],"code":{"coding":[{"system":"http://snomed.info/sct","code":"371125006","display":"Labile essential hypertension (disorder)"}]},"subject":{"reference":"Patient/4c814ca9-da50-43e3-9e31-dbe755ee5c5e"},"onsetDateTime":"2026-06-30T23:59:59.000+00:00"},"request":{"method":"PUT","url":"Condition/764fbc52-ad37-4efc-8e28-4dadacde9736"}},{"resource":{"resourceType":"Patient","id":"4c814ca9-da50-43e3-9e31-dbe755ee5c5e","meta":{"profile":["http://hl7.org/fhir/us/qicore/StructureDefinition/qicore-patient"]},"extension":[{"url":"http://hl7.org/fhir/us/core/StructureDefinition/us-core-race","extension":[{"url":"ombCategory","valueCoding":{"system":"urn:oid:2.16.840.1.113883.6.238","code":"2028-9","display":"Asian","userSelected":true}},{"url":"text","valueString":"Asian"},{"url":"detailed","valueCoding":{"system":"urn:oid:2.16.840.1.113883.6.238","code":"1653-5","display":"Tohono O'Odham"}}]},{"url":"http://hl7.org/fhir/us/core/StructureDefinition/us-core-ethnicity","extension":[{"url":"ombCategory","valueCoding":{"system":"urn:oid:2.16.840.1.113883.6.238","code":"2135-2","display":"Hispanic or Latino","userSelected":true}},{"url":"text","valueString":"Hispanic or Latino"},{"url":"detailed","valueCoding":{"system":"urn:oid:2.16.840.1.113883.6.238","code":"2180-8","display":"Puerto Rican"}}]},{"url":"http://hl7.org/fhir/us/core/StructureDefinition/us-core-sex","valueCode":"248153007"}],"identifier":[{"system":"http://hospital.smarthealthit.org","value":"999999995"}],"name":[{"family":"SDE","given":["SDECoverage"]}],"gender":"male","birthDate":"1956-01-01"},"request":{"method":"PUT","url":"Patient/4c814ca9-da50-43e3-9e31-dbe755ee5c5e"}}]}