{"resourceType":"Bundle","id":"tests-398e8703-6704-4c75-9887-41117761d2c7-bundle","type":"transaction","entry":[{"resource":{"resourceType":"Condition","id":"8bc946ee-9834-4639-850b-0e9534cd523a","meta":{"profile":["http://hl7.org/fhir/us/qicore/StructureDefinition/qicore-condition-problems-health-concerns"]},"clinicalStatus":{"coding":[{"system":"http://terminology.hl7.org/CodeSystem/condition-clinical","code":"active"}]},"category":[{"coding":[{"system":"http://terminology.hl7.org/CodeSystem/condition-category","code":"problem-list-item","display":"Problem List Item"}]}],"code":{"coding":[{"system":"http://snomed.info/sct","code":"10231000132102","display":"In-vitro fertilization pregnancy (finding)"}]},"subject":{"reference":"Patient/398e8703-6704-4c75-9887-41117761d2c7"},"onsetDateTime":"2026-06-30T23:59:59.000+00:00"},"request":{"method":"PUT","url":"Condition/8bc946ee-9834-4639-850b-0e9534cd523a"}},{"resource":{"resourceType":"Patient","id":"398e8703-6704-4c75-9887-41117761d2c7","meta":{"profile":["http://hl7.org/fhir/us/qicore/StructureDefinition/qicore-patient"]},"extension":[{"url":"http://hl7.org/fhir/us/core/StructureDefinition/us-core-race","extension":[{"url":"ombCategory","valueCoding":{"system":"urn:oid:2.16.840.1.113883.6.238","code":"2028-9","display":"Asian"}},{"url":"text","valueString":"Asian"}]},{"url":"http://hl7.org/fhir/us/core/StructureDefinition/us-core-ethnicity","extension":[{"url":"ombCategory","valueCoding":{"system":"urn:oid:2.16.840.1.113883.6.238","code":"2135-2","display":"Hispanic or Latino"}},{"url":"text","valueString":"Hispanic or Latino"}]}],"identifier":[{"system":"http://hospital.smarthealthit.org","value":"999999995"}],"name":[{"family":"DENEXPass","given":["PregnancyDuringMP"]}],"gender":"female","birthDate":"2007-12-31"},"request":{"method":"PUT","url":"Patient/398e8703-6704-4c75-9887-41117761d2c7"}},{"resource":{"resourceType":"Condition","id":"1bd391aa-6b5a-432d-8efc-be742016e18c","meta":{"profile":["http://hl7.org/fhir/us/qicore/StructureDefinition/qicore-condition-problems-health-concerns"]},"clinicalStatus":{"coding":[{"system":"http://terminology.hl7.org/CodeSystem/condition-clinical","code":"active"}]},"category":[{"coding":[{"system":"http://terminology.hl7.org/CodeSystem/condition-category","code":"problem-list-item","display":"Problem List Item"}]}],"code":{"coding":[{"system":"http://snomed.info/sct","code":"371125006","display":"Labile essential hypertension (disorder)"}]},"subject":{"reference":"Patient/398e8703-6704-4c75-9887-41117761d2c7"},"onsetDateTime":"2026-06-30T23:59:59.000+00:00"},"request":{"method":"PUT","url":"Condition/1bd391aa-6b5a-432d-8efc-be742016e18c"}},{"resource":{"resourceType":"Encounter","id":"15c000a2-f584-4746-aa79-c3d1b27b1425","meta":{"profile":["http://hl7.org/fhir/us/qicore/StructureDefinition/qicore-encounter"]},"status":"finished","class":{"system":"http://terminology.hl7.org/CodeSystem/v3-ActCode","code":"AMB","display":"ambulatory"},"type":[{"coding":[{"system":"http://snomed.info/sct","code":"3391000175108","display":"Office visit for pediatric care and assessment (procedure)"}]}],"subject":{"reference":"Patient/398e8703-6704-4c75-9887-41117761d2c7"},"period":{"start":"2026-01-01T00:00:00.000+00:00","end":"2026-01-01T01:00:00.000+00:00"}},"request":{"method":"PUT","url":"Encounter/15c000a2-f584-4746-aa79-c3d1b27b1425"}},{"resource":{"resourceType":"MeasureReport","id":"8c3dcfff-6cba-4060-9733-ca2422a15872","meta":{"profile":["http://hl7.org/fhir/us/cqfmeasures/StructureDefinition/test-case-cqfm"]},"contained":[{"resourceType":"Parameters","id":"39f3101f-39dd-4263-84a2-e2811168e290-parameters","parameter":[{"name":"subject","valueString":"398e8703-6704-4c75-9887-41117761d2c7"}]}],"extension":[{"url":"http://hl7.org/fhir/StructureDefinition/cqf-inputParameters","valueReference":{"reference":"#39f3101f-39dd-4263-84a2-e2811168e290-parameters"}},{"url":"http://hl7.org/fhir/us/cqfmeasures/StructureDefinition/cqfm-testCaseDescription","valueMarkdown":"Pregnancy starts 6/30 - ConditionProblemsHealthConcerns"}],"modifierExtension":[{"url":"http://hl7.org/fhir/us/cqfmeasures/StructureDefinition/cqfm-isTestCase","valueBoolean":true}],"status":"complete","type":"individual","measure":"https://madie.cms.gov/Measure/CMS165FHIRControllingHighBloodPressure","period":{"start":"2026-01-01","end":"2026-12-31"},"group":[{"id":"Group_1","population":[{"id":"InitialPopulation_1","code":{"coding":[{"system":"http://terminology.hl7.org/CodeSystem/measure-population","code":"initial-population","display":"Initial Population"}]},"count":1},{"id":"Denominator_1","code":{"coding":[{"system":"http://terminology.hl7.org/CodeSystem/measure-population","code":"denominator","display":"Denominator"}]},"count":1},{"id":"DenominatorExclusion_1","code":{"coding":[{"system":"http://terminology.hl7.org/CodeSystem/measure-population","code":"denominator-exclusion","display":"Denominator Exclusion"}]},"count":1},{"id":"Numerator_1","code":{"coding":[{"system":"http://terminology.hl7.org/CodeSystem/measure-population","code":"numerator","display":"Numerator"}]},"count":0}],"measureScore":{"value":1.0}}],"evaluatedResource":[{"reference":"Patient/398e8703-6704-4c75-9887-41117761d2c7"},{"reference":"Encounter/15c000a2-f584-4746-aa79-c3d1b27b1425"},{"reference":"Condition/1bd391aa-6b5a-432d-8efc-be742016e18c"},{"reference":"Condition/8bc946ee-9834-4639-850b-0e9534cd523a"}]},"request":{"method":"PUT","url":"MeasureReport/8c3dcfff-6cba-4060-9733-ca2422a15872"}},{"resource":{"resourceType":"Bundle","id":"DENEXPass-PregnancyDuringMP","type":"transaction","entry":[{"fullUrl":"https://madie.cms.gov/Patient/398e8703-6704-4c75-9887-41117761d2c7","resource":{"resourceType":"Patient","id":"398e8703-6704-4c75-9887-41117761d2c7","meta":{"profile":["http://hl7.org/fhir/us/qicore/StructureDefinition/qicore-patient"]},"extension":[{"url":"http://hl7.org/fhir/us/core/StructureDefinition/us-core-race","extension":[{"url":"ombCategory","valueCoding":{"system":"urn:oid:2.16.840.1.113883.6.238","code":"2028-9","display":"Asian"}},{"url":"text","valueString":"Asian"}]},{"url":"http://hl7.org/fhir/us/core/StructureDefinition/us-core-ethnicity","extension":[{"url":"ombCategory","valueCoding":{"system":"urn:oid:2.16.840.1.113883.6.238","code":"2135-2","display":"Hispanic or Latino"}},{"url":"text","valueString":"Hispanic or Latino"}]}],"identifier":[{"system":"http://hospital.smarthealthit.org","value":"999999995"}],"name":[{"family":"DENEXPass","given":["PregnancyDuringMP"]}],"gender":"female","birthDate":"2007-12-31"},"request":{"method":"PUT","url":"Patient/398e8703-6704-4c75-9887-41117761d2c7"}},{"fullUrl":"https://madie.cms.gov/Encounter/15c000a2-f584-4746-aa79-c3d1b27b1425","resource":{"resourceType":"Encounter","id":"15c000a2-f584-4746-aa79-c3d1b27b1425","meta":{"profile":["http://hl7.org/fhir/us/qicore/StructureDefinition/qicore-encounter"]},"status":"finished","class":{"system":"http://terminology.hl7.org/CodeSystem/v3-ActCode","code":"AMB","display":"ambulatory"},"type":[{"coding":[{"system":"http://snomed.info/sct","code":"3391000175108","display":"Office visit for pediatric care and assessment (procedure)"}]}],"subject":{"reference":"Patient/398e8703-6704-4c75-9887-41117761d2c7"},"period":{"start":"2026-01-01T00:00:00.000+00:00","end":"2026-01-01T01:00:00.000+00:00"}},"request":{"method":"PUT","url":"Encounter/15c000a2-f584-4746-aa79-c3d1b27b1425"}},{"fullUrl":"https://madie.cms.gov/Condition/1bd391aa-6b5a-432d-8efc-be742016e18c","resource":{"resourceType":"Condition","id":"1bd391aa-6b5a-432d-8efc-be742016e18c","meta":{"profile":["http://hl7.org/fhir/us/qicore/StructureDefinition/qicore-condition-problems-health-concerns"]},"clinicalStatus":{"coding":[{"system":"http://terminology.hl7.org/CodeSystem/condition-clinical","code":"active"}]},"category":[{"coding":[{"system":"http://terminology.hl7.org/CodeSystem/condition-category","code":"problem-list-item","display":"Problem List Item"}]}],"code":{"coding":[{"system":"http://snomed.info/sct","code":"371125006","display":"Labile essential hypertension (disorder)"}]},"subject":{"reference":"Patient/398e8703-6704-4c75-9887-41117761d2c7"},"onsetDateTime":"2026-06-30T23:59:59.000+00:00"},"request":{"method":"PUT","url":"Condition/1bd391aa-6b5a-432d-8efc-be742016e18c"}},{"fullUrl":"https://madie.cms.gov/Condition/8bc946ee-9834-4639-850b-0e9534cd523a","resource":{"resourceType":"Condition","id":"8bc946ee-9834-4639-850b-0e9534cd523a","meta":{"profile":["http://hl7.org/fhir/us/qicore/StructureDefinition/qicore-condition-problems-health-concerns"]},"clinicalStatus":{"coding":[{"system":"http://terminology.hl7.org/CodeSystem/condition-clinical","code":"active"}]},"category":[{"coding":[{"system":"http://terminology.hl7.org/CodeSystem/condition-category","code":"problem-list-item","display":"Problem List Item"}]}],"code":{"coding":[{"system":"http://snomed.info/sct","code":"10231000132102","display":"In-vitro fertilization pregnancy (finding)"}]},"subject":{"reference":"Patient/398e8703-6704-4c75-9887-41117761d2c7"},"onsetDateTime":"2026-06-30T23:59:59.000+00:00"},"request":{"method":"PUT","url":"Condition/8bc946ee-9834-4639-850b-0e9534cd523a"}},{"fullUrl":"https://madie.cms.gov/MeasureReport/8c3dcfff-6cba-4060-9733-ca2422a15872","resource":{"resourceType":"MeasureReport","id":"8c3dcfff-6cba-4060-9733-ca2422a15872","meta":{"profile":["http://hl7.org/fhir/us/cqfmeasures/StructureDefinition/test-case-cqfm"]},"contained":[{"resourceType":"Parameters","id":"39f3101f-39dd-4263-84a2-e2811168e290-parameters","parameter":[{"name":"subject","valueString":"398e8703-6704-4c75-9887-41117761d2c7"}]}],"extension":[{"url":"http://hl7.org/fhir/StructureDefinition/cqf-inputParameters","valueReference":{"reference":"#39f3101f-39dd-4263-84a2-e2811168e290-parameters"}},{"url":"http://hl7.org/fhir/us/cqfmeasures/StructureDefinition/cqfm-testCaseDescription","valueMarkdown":"Pregnancy starts 6/30 - ConditionProblemsHealthConcerns"}],"modifierExtension":[{"url":"http://hl7.org/fhir/us/cqfmeasures/StructureDefinition/cqfm-isTestCase","valueBoolean":true}],"status":"complete","type":"individual","measure":"https://madie.cms.gov/Measure/CMS165FHIRControllingHighBloodPressure","period":{"start":"2026-01-01","end":"2026-12-31"},"group":[{"id":"Group_1","population":[{"id":"InitialPopulation_1","code":{"coding":[{"system":"http://terminology.hl7.org/CodeSystem/measure-population","code":"initial-population","display":"Initial Population"}]},"count":1},{"id":"Denominator_1","code":{"coding":[{"system":"http://terminology.hl7.org/CodeSystem/measure-population","code":"denominator","display":"Denominator"}]},"count":1},{"id":"DenominatorExclusion_1","code":{"coding":[{"system":"http://terminology.hl7.org/CodeSystem/measure-population","code":"denominator-exclusion","display":"Denominator Exclusion"}]},"count":1},{"id":"Numerator_1","code":{"coding":[{"system":"http://terminology.hl7.org/CodeSystem/measure-population","code":"numerator","display":"Numerator"}]},"count":0}],"measureScore":{"value":1.0}}],"evaluatedResource":[{"reference":"Patient/398e8703-6704-4c75-9887-41117761d2c7"},{"reference":"Encounter/15c000a2-f584-4746-aa79-c3d1b27b1425"},{"reference":"Condition/1bd391aa-6b5a-432d-8efc-be742016e18c"},{"reference":"Condition/8bc946ee-9834-4639-850b-0e9534cd523a"}]},"request":{"method":"PUT","url":"MeasureReport/8c3dcfff-6cba-4060-9733-ca2422a15872"}}]},"request":{"method":"PUT","url":"Bundle/DENEXPass-PregnancyDuringMP"}}]}