{"resourceType":"Bundle","id":"tests-4f168366-f0a7-4aad-ab9e-b0bcbecda886-bundle","type":"transaction","entry":[{"resource":{"resourceType":"Condition","id":"0feac3d3-9860-4ac0-b97d-e086479091c9","meta":{"profile":["http://hl7.org/fhir/us/qicore/StructureDefinition/qicore-condition-problems-health-concerns"]},"clinicalStatus":{"coding":[{"system":"http://terminology.hl7.org/CodeSystem/condition-clinical","code":"active"}]},"category":[{"coding":[{"system":"http://terminology.hl7.org/CodeSystem/condition-category","code":"problem-list-item","display":"Problem List Item"}]}],"code":{"coding":[{"system":"http://snomed.info/sct","code":"371125006","display":"Labile essential hypertension (disorder)"}]},"subject":{"reference":"Patient/4f168366-f0a7-4aad-ab9e-b0bcbecda886"},"onsetDateTime":"2026-06-29T23:59:59.000+00:00"},"request":{"method":"PUT","url":"Condition/0feac3d3-9860-4ac0-b97d-e086479091c9"}},{"resource":{"resourceType":"Bundle","id":"DENEXPass-KidneyTransplantRecipientDuringMP","type":"transaction","entry":[{"fullUrl":"https://madie.cms.gov/Patient/4f168366-f0a7-4aad-ab9e-b0bcbecda886","resource":{"resourceType":"Patient","id":"4f168366-f0a7-4aad-ab9e-b0bcbecda886","meta":{"profile":["http://hl7.org/fhir/us/qicore/StructureDefinition/qicore-patient"]},"extension":[{"url":"http://hl7.org/fhir/us/core/StructureDefinition/us-core-race","extension":[{"url":"ombCategory","valueCoding":{"system":"urn:oid:2.16.840.1.113883.6.238","code":"2028-9","display":"Asian"}},{"url":"text","valueString":"Asian"}]},{"url":"http://hl7.org/fhir/us/core/StructureDefinition/us-core-ethnicity","extension":[{"url":"ombCategory","valueCoding":{"system":"urn:oid:2.16.840.1.113883.6.238","code":"2135-2","display":"Hispanic or Latino"}},{"url":"text","valueString":"Hispanic or Latino"}]}],"identifier":[{"system":"http://hospital.smarthealthit.org","value":"999999995"}],"name":[{"family":"DENEXPass","given":["KidneyTransplantRecipientDuringMP"]}],"gender":"female","birthDate":"2007-12-31"},"request":{"method":"PUT","url":"Patient/4f168366-f0a7-4aad-ab9e-b0bcbecda886"}},{"fullUrl":"https://madie.cms.gov/Encounter/c5d3703a-9e1b-4b54-83eb-0226406fde77","resource":{"resourceType":"Encounter","id":"c5d3703a-9e1b-4b54-83eb-0226406fde77","meta":{"profile":["http://hl7.org/fhir/us/qicore/StructureDefinition/qicore-encounter"]},"status":"finished","class":{"system":"http://terminology.hl7.org/CodeSystem/v3-ActCode","code":"AMB","display":"ambulatory"},"type":[{"coding":[{"system":"http://snomed.info/sct","code":"3391000175108","display":"Office visit for pediatric care and assessment (procedure)"}]}],"subject":{"reference":"Patient/4f168366-f0a7-4aad-ab9e-b0bcbecda886"},"period":{"start":"2026-01-01T00:00:00.000+00:00","end":"2026-01-01T01:00:00.000+00:00"}},"request":{"method":"PUT","url":"Encounter/c5d3703a-9e1b-4b54-83eb-0226406fde77"}},{"fullUrl":"https://madie.cms.gov/Condition/0feac3d3-9860-4ac0-b97d-e086479091c9","resource":{"resourceType":"Condition","id":"0feac3d3-9860-4ac0-b97d-e086479091c9","meta":{"profile":["http://hl7.org/fhir/us/qicore/StructureDefinition/qicore-condition-problems-health-concerns"]},"clinicalStatus":{"coding":[{"system":"http://terminology.hl7.org/CodeSystem/condition-clinical","code":"active"}]},"category":[{"coding":[{"system":"http://terminology.hl7.org/CodeSystem/condition-category","code":"problem-list-item","display":"Problem List Item"}]}],"code":{"coding":[{"system":"http://snomed.info/sct","code":"371125006","display":"Labile essential hypertension (disorder)"}]},"subject":{"reference":"Patient/4f168366-f0a7-4aad-ab9e-b0bcbecda886"},"onsetDateTime":"2026-06-29T23:59:59.000+00:00"},"request":{"method":"PUT","url":"Condition/0feac3d3-9860-4ac0-b97d-e086479091c9"}},{"fullUrl":"https://madie.cms.gov/Condition/10cb5bb7-6ef0-44ed-b5a5-b1c212fca219","resource":{"resourceType":"Condition","id":"10cb5bb7-6ef0-44ed-b5a5-b1c212fca219","meta":{"profile":["http://hl7.org/fhir/us/qicore/StructureDefinition/qicore-condition-encounter-diagnosis"]},"clinicalStatus":{"coding":[{"system":"http://terminology.hl7.org/CodeSystem/condition-clinical","code":"active"}]},"category":[{"coding":[{"system":"http://terminology.hl7.org/CodeSystem/condition-category","code":"encounter-diagnosis","display":"Encounter Diagnosis"}]}],"code":{"coding":[{"system":"http://hl7.org/fhir/sid/icd-10-cm","code":"Z94.0","display":"Kidney transplant status"}]},"subject":{"reference":"Patient/4f168366-f0a7-4aad-ab9e-b0bcbecda886"},"onsetDateTime":"2026-06-30T23:59:59.000+00:00"},"request":{"method":"PUT","url":"Condition/10cb5bb7-6ef0-44ed-b5a5-b1c212fca219"}},{"fullUrl":"https://madie.cms.gov/MeasureReport/83e58272-0809-424d-9d2d-f2e34d6369d4","resource":{"resourceType":"MeasureReport","id":"83e58272-0809-424d-9d2d-f2e34d6369d4","meta":{"profile":["http://hl7.org/fhir/us/cqfmeasures/StructureDefinition/test-case-cqfm"]},"contained":[{"resourceType":"Parameters","id":"ec3c1cfc-870f-4d66-9ff6-df003570d6be-parameters","parameter":[{"name":"subject","valueString":"4f168366-f0a7-4aad-ab9e-b0bcbecda886"}]}],"extension":[{"url":"http://hl7.org/fhir/StructureDefinition/cqf-inputParameters","valueReference":{"reference":"#ec3c1cfc-870f-4d66-9ff6-df003570d6be-parameters"}},{"url":"http://hl7.org/fhir/us/cqfmeasures/StructureDefinition/cqfm-testCaseDescription","valueMarkdown":"Kidney transplant recipient during MP - ConditionEncounterDiagnosis"}],"modifierExtension":[{"url":"http://hl7.org/fhir/us/cqfmeasures/StructureDefinition/cqfm-isTestCase","valueBoolean":true}],"status":"complete","type":"individual","measure":"https://madie.cms.gov/Measure/CMS165FHIRControllingHighBloodPressure","period":{"start":"2026-01-01","end":"2026-12-31"},"group":[{"id":"Group_1","population":[{"id":"InitialPopulation_1","code":{"coding":[{"system":"http://terminology.hl7.org/CodeSystem/measure-population","code":"initial-population","display":"Initial Population"}]},"count":1},{"id":"Denominator_1","code":{"coding":[{"system":"http://terminology.hl7.org/CodeSystem/measure-population","code":"denominator","display":"Denominator"}]},"count":1},{"id":"DenominatorExclusion_1","code":{"coding":[{"system":"http://terminology.hl7.org/CodeSystem/measure-population","code":"denominator-exclusion","display":"Denominator Exclusion"}]},"count":1},{"id":"Numerator_1","code":{"coding":[{"system":"http://terminology.hl7.org/CodeSystem/measure-population","code":"numerator","display":"Numerator"}]},"count":0}],"measureScore":{"value":1.0}}],"evaluatedResource":[{"reference":"Patient/4f168366-f0a7-4aad-ab9e-b0bcbecda886"},{"reference":"Encounter/c5d3703a-9e1b-4b54-83eb-0226406fde77"},{"reference":"Condition/0feac3d3-9860-4ac0-b97d-e086479091c9"},{"reference":"Condition/10cb5bb7-6ef0-44ed-b5a5-b1c212fca219"}]},"request":{"method":"PUT","url":"MeasureReport/83e58272-0809-424d-9d2d-f2e34d6369d4"}}]},"request":{"method":"PUT","url":"Bundle/DENEXPass-KidneyTransplantRecipientDuringMP"}},{"resource":{"resourceType":"Patient","id":"4f168366-f0a7-4aad-ab9e-b0bcbecda886","meta":{"profile":["http://hl7.org/fhir/us/qicore/StructureDefinition/qicore-patient"]},"extension":[{"url":"http://hl7.org/fhir/us/core/StructureDefinition/us-core-race","extension":[{"url":"ombCategory","valueCoding":{"system":"urn:oid:2.16.840.1.113883.6.238","code":"2028-9","display":"Asian"}},{"url":"text","valueString":"Asian"}]},{"url":"http://hl7.org/fhir/us/core/StructureDefinition/us-core-ethnicity","extension":[{"url":"ombCategory","valueCoding":{"system":"urn:oid:2.16.840.1.113883.6.238","code":"2135-2","display":"Hispanic or Latino"}},{"url":"text","valueString":"Hispanic or Latino"}]}],"identifier":[{"system":"http://hospital.smarthealthit.org","value":"999999995"}],"name":[{"family":"DENEXPass","given":["KidneyTransplantRecipientDuringMP"]}],"gender":"female","birthDate":"2007-12-31"},"request":{"method":"PUT","url":"Patient/4f168366-f0a7-4aad-ab9e-b0bcbecda886"}},{"resource":{"resourceType":"MeasureReport","id":"83e58272-0809-424d-9d2d-f2e34d6369d4","meta":{"profile":["http://hl7.org/fhir/us/cqfmeasures/StructureDefinition/test-case-cqfm"]},"contained":[{"resourceType":"Parameters","id":"ec3c1cfc-870f-4d66-9ff6-df003570d6be-parameters","parameter":[{"name":"subject","valueString":"4f168366-f0a7-4aad-ab9e-b0bcbecda886"}]}],"extension":[{"url":"http://hl7.org/fhir/StructureDefinition/cqf-inputParameters","valueReference":{"reference":"#ec3c1cfc-870f-4d66-9ff6-df003570d6be-parameters"}},{"url":"http://hl7.org/fhir/us/cqfmeasures/StructureDefinition/cqfm-testCaseDescription","valueMarkdown":"Kidney transplant recipient during MP - ConditionEncounterDiagnosis"}],"modifierExtension":[{"url":"http://hl7.org/fhir/us/cqfmeasures/StructureDefinition/cqfm-isTestCase","valueBoolean":true}],"status":"complete","type":"individual","measure":"https://madie.cms.gov/Measure/CMS165FHIRControllingHighBloodPressure","period":{"start":"2026-01-01","end":"2026-12-31"},"group":[{"id":"Group_1","population":[{"id":"InitialPopulation_1","code":{"coding":[{"system":"http://terminology.hl7.org/CodeSystem/measure-population","code":"initial-population","display":"Initial Population"}]},"count":1},{"id":"Denominator_1","code":{"coding":[{"system":"http://terminology.hl7.org/CodeSystem/measure-population","code":"denominator","display":"Denominator"}]},"count":1},{"id":"DenominatorExclusion_1","code":{"coding":[{"system":"http://terminology.hl7.org/CodeSystem/measure-population","code":"denominator-exclusion","display":"Denominator Exclusion"}]},"count":1},{"id":"Numerator_1","code":{"coding":[{"system":"http://terminology.hl7.org/CodeSystem/measure-population","code":"numerator","display":"Numerator"}]},"count":0}],"measureScore":{"value":1.0}}],"evaluatedResource":[{"reference":"Patient/4f168366-f0a7-4aad-ab9e-b0bcbecda886"},{"reference":"Encounter/c5d3703a-9e1b-4b54-83eb-0226406fde77"},{"reference":"Condition/0feac3d3-9860-4ac0-b97d-e086479091c9"},{"reference":"Condition/10cb5bb7-6ef0-44ed-b5a5-b1c212fca219"}]},"request":{"method":"PUT","url":"MeasureReport/83e58272-0809-424d-9d2d-f2e34d6369d4"}},{"resource":{"resourceType":"Condition","id":"10cb5bb7-6ef0-44ed-b5a5-b1c212fca219","meta":{"profile":["http://hl7.org/fhir/us/qicore/StructureDefinition/qicore-condition-encounter-diagnosis"]},"clinicalStatus":{"coding":[{"system":"http://terminology.hl7.org/CodeSystem/condition-clinical","code":"active"}]},"category":[{"coding":[{"system":"http://terminology.hl7.org/CodeSystem/condition-category","code":"encounter-diagnosis","display":"Encounter Diagnosis"}]}],"code":{"coding":[{"system":"http://hl7.org/fhir/sid/icd-10-cm","code":"Z94.0","display":"Kidney transplant status"}]},"subject":{"reference":"Patient/4f168366-f0a7-4aad-ab9e-b0bcbecda886"},"onsetDateTime":"2026-06-30T23:59:59.000+00:00"},"request":{"method":"PUT","url":"Condition/10cb5bb7-6ef0-44ed-b5a5-b1c212fca219"}},{"resource":{"resourceType":"Encounter","id":"c5d3703a-9e1b-4b54-83eb-0226406fde77","meta":{"profile":["http://hl7.org/fhir/us/qicore/StructureDefinition/qicore-encounter"]},"status":"finished","class":{"system":"http://terminology.hl7.org/CodeSystem/v3-ActCode","code":"AMB","display":"ambulatory"},"type":[{"coding":[{"system":"http://snomed.info/sct","code":"3391000175108","display":"Office visit for pediatric care and assessment (procedure)"}]}],"subject":{"reference":"Patient/4f168366-f0a7-4aad-ab9e-b0bcbecda886"},"period":{"start":"2026-01-01T00:00:00.000+00:00","end":"2026-01-01T01:00:00.000+00:00"}},"request":{"method":"PUT","url":"Encounter/c5d3703a-9e1b-4b54-83eb-0226406fde77"}}]}