{"resourceType":"Bundle","id":"tests-29d930b1-1bb6-4089-9ed6-aa2b7b77d5a4-bundle","type":"transaction","entry":[{"resource":{"resourceType":"MeasureReport","id":"a685995c-b37b-49eb-ac02-6e0098643459","meta":{"profile":["http://hl7.org/fhir/us/cqfmeasures/StructureDefinition/test-case-cqfm"]},"contained":[{"resourceType":"Parameters","id":"b3d20bd8-242f-4a54-96ac-46ef9a04c23d-parameters","parameter":[{"name":"subject","valueString":"29d930b1-1bb6-4089-9ed6-aa2b7b77d5a4"}]}],"extension":[{"url":"http://hl7.org/fhir/StructureDefinition/cqf-inputParameters","valueReference":{"reference":"#b3d20bd8-242f-4a54-96ac-46ef9a04c23d-parameters"}},{"url":"http://hl7.org/fhir/us/cqfmeasures/StructureDefinition/cqfm-testCaseDescription","valueMarkdown":"Hospice discharge to facility during MP"}],"modifierExtension":[{"url":"http://hl7.org/fhir/us/cqfmeasures/StructureDefinition/cqfm-isTestCase","valueBoolean":true}],"status":"complete","type":"individual","measure":"https://madie.cms.gov/Measure/CMS165FHIRControllingHighBloodPressure","period":{"start":"2026-01-01","end":"2026-12-31"},"group":[{"id":"Group_1","population":[{"id":"InitialPopulation_1","code":{"coding":[{"system":"http://terminology.hl7.org/CodeSystem/measure-population","code":"initial-population","display":"Initial Population"}]},"count":1},{"id":"Denominator_1","code":{"coding":[{"system":"http://terminology.hl7.org/CodeSystem/measure-population","code":"denominator","display":"Denominator"}]},"count":1},{"id":"DenominatorExclusion_1","code":{"coding":[{"system":"http://terminology.hl7.org/CodeSystem/measure-population","code":"denominator-exclusion","display":"Denominator Exclusion"}]},"count":1},{"id":"Numerator_1","code":{"coding":[{"system":"http://terminology.hl7.org/CodeSystem/measure-population","code":"numerator","display":"Numerator"}]},"count":0}],"measureScore":{"value":1.0}}],"evaluatedResource":[{"reference":"Patient/29d930b1-1bb6-4089-9ed6-aa2b7b77d5a4"},{"reference":"Encounter/34a6d587-871b-47bd-8479-697cb2736cba"},{"reference":"Condition/5e5a48ae-158f-419c-8102-7585f3750b48"},{"reference":"Encounter/c06faa94-e0d4-4fe6-ae48-b8094f95fb9f"}]},"request":{"method":"PUT","url":"MeasureReport/a685995c-b37b-49eb-ac02-6e0098643459"}},{"resource":{"resourceType":"Condition","id":"5e5a48ae-158f-419c-8102-7585f3750b48","meta":{"profile":["http://hl7.org/fhir/us/qicore/StructureDefinition/qicore-condition-problems-health-concerns"]},"clinicalStatus":{"coding":[{"system":"http://terminology.hl7.org/CodeSystem/condition-clinical","code":"active"}]},"category":[{"coding":[{"system":"http://terminology.hl7.org/CodeSystem/condition-category","code":"problem-list-item","display":"Problem List Item"}]}],"code":{"coding":[{"system":"http://snomed.info/sct","code":"371125006","display":"Labile essential hypertension (disorder)"}]},"subject":{"reference":"Patient/29d930b1-1bb6-4089-9ed6-aa2b7b77d5a4"},"onsetDateTime":"2026-06-30T23:59:59.000+00:00"},"request":{"method":"PUT","url":"Condition/5e5a48ae-158f-419c-8102-7585f3750b48"}},{"resource":{"resourceType":"Encounter","id":"34a6d587-871b-47bd-8479-697cb2736cba","meta":{"profile":["http://hl7.org/fhir/us/qicore/StructureDefinition/qicore-encounter"]},"status":"finished","class":{"system":"http://terminology.hl7.org/CodeSystem/v3-ActCode","code":"AMB","display":"ambulatory"},"type":[{"coding":[{"system":"http://snomed.info/sct","code":"3391000175108","display":"Office visit for pediatric care and assessment (procedure)"}]}],"subject":{"reference":"Patient/29d930b1-1bb6-4089-9ed6-aa2b7b77d5a4"},"period":{"start":"2026-01-01T00:00:00.000+00:00","end":"2026-01-01T01:00:00.000+00:00"}},"request":{"method":"PUT","url":"Encounter/34a6d587-871b-47bd-8479-697cb2736cba"}},{"resource":{"resourceType":"Encounter","id":"c06faa94-e0d4-4fe6-ae48-b8094f95fb9f","meta":{"profile":["http://hl7.org/fhir/us/qicore/StructureDefinition/qicore-encounter"]},"status":"finished","class":{"system":"http://terminology.hl7.org/CodeSystem/v3-ActCode","code":"AMB","display":"ambulatory"},"type":[{"coding":[{"system":"http://snomed.info/sct","code":"32485007","display":"Hospital admission (procedure)"}]}],"subject":{"reference":"Patient/29d930b1-1bb6-4089-9ed6-aa2b7b77d5a4"},"period":{"start":"2025-12-31T23:59:59.000+00:00","end":"2026-01-01T01:00:00.000+00:00"},"hospitalization":{"dischargeDisposition":{"coding":[{"system":"http://snomed.info/sct","code":"428371000124100","display":"Discharge to healthcare facility for hospice care (procedure)"}]}}},"request":{"method":"PUT","url":"Encounter/c06faa94-e0d4-4fe6-ae48-b8094f95fb9f"}},{"resource":{"resourceType":"Patient","id":"29d930b1-1bb6-4089-9ed6-aa2b7b77d5a4","meta":{"profile":["http://hl7.org/fhir/us/qicore/StructureDefinition/qicore-patient"]},"extension":[{"url":"http://hl7.org/fhir/us/core/StructureDefinition/us-core-race","extension":[{"url":"ombCategory","valueCoding":{"system":"urn:oid:2.16.840.1.113883.6.238","code":"2028-9","display":"Asian"}},{"url":"text","valueString":"Asian"}]},{"url":"http://hl7.org/fhir/us/core/StructureDefinition/us-core-ethnicity","extension":[{"url":"ombCategory","valueCoding":{"system":"urn:oid:2.16.840.1.113883.6.238","code":"2135-2","display":"Hispanic or Latino"}},{"url":"text","valueString":"Hispanic or Latino"}]}],"identifier":[{"system":"http://hospital.smarthealthit.org","value":"999999995"}],"name":[{"family":"DENEXPass","given":["HospiceDischargeToFacilityDuringMP"]}],"gender":"female","birthDate":"2007-12-31"},"request":{"method":"PUT","url":"Patient/29d930b1-1bb6-4089-9ed6-aa2b7b77d5a4"}},{"resource":{"resourceType":"Bundle","id":"DENEXPass-HospiceDischargeToFacilityDuringMP","type":"transaction","entry":[{"fullUrl":"https://madie.cms.gov/Patient/29d930b1-1bb6-4089-9ed6-aa2b7b77d5a4","resource":{"resourceType":"Patient","id":"29d930b1-1bb6-4089-9ed6-aa2b7b77d5a4","meta":{"profile":["http://hl7.org/fhir/us/qicore/StructureDefinition/qicore-patient"]},"extension":[{"url":"http://hl7.org/fhir/us/core/StructureDefinition/us-core-race","extension":[{"url":"ombCategory","valueCoding":{"system":"urn:oid:2.16.840.1.113883.6.238","code":"2028-9","display":"Asian"}},{"url":"text","valueString":"Asian"}]},{"url":"http://hl7.org/fhir/us/core/StructureDefinition/us-core-ethnicity","extension":[{"url":"ombCategory","valueCoding":{"system":"urn:oid:2.16.840.1.113883.6.238","code":"2135-2","display":"Hispanic or Latino"}},{"url":"text","valueString":"Hispanic or Latino"}]}],"identifier":[{"system":"http://hospital.smarthealthit.org","value":"999999995"}],"name":[{"family":"DENEXPass","given":["HospiceDischargeToFacilityDuringMP"]}],"gender":"female","birthDate":"2007-12-31"},"request":{"method":"PUT","url":"Patient/29d930b1-1bb6-4089-9ed6-aa2b7b77d5a4"}},{"fullUrl":"https://madie.cms.gov/Encounter/34a6d587-871b-47bd-8479-697cb2736cba","resource":{"resourceType":"Encounter","id":"34a6d587-871b-47bd-8479-697cb2736cba","meta":{"profile":["http://hl7.org/fhir/us/qicore/StructureDefinition/qicore-encounter"]},"status":"finished","class":{"system":"http://terminology.hl7.org/CodeSystem/v3-ActCode","code":"AMB","display":"ambulatory"},"type":[{"coding":[{"system":"http://snomed.info/sct","code":"3391000175108","display":"Office visit for pediatric care and assessment (procedure)"}]}],"subject":{"reference":"Patient/29d930b1-1bb6-4089-9ed6-aa2b7b77d5a4"},"period":{"start":"2026-01-01T00:00:00.000+00:00","end":"2026-01-01T01:00:00.000+00:00"}},"request":{"method":"PUT","url":"Encounter/34a6d587-871b-47bd-8479-697cb2736cba"}},{"fullUrl":"https://madie.cms.gov/Condition/5e5a48ae-158f-419c-8102-7585f3750b48","resource":{"resourceType":"Condition","id":"5e5a48ae-158f-419c-8102-7585f3750b48","meta":{"profile":["http://hl7.org/fhir/us/qicore/StructureDefinition/qicore-condition-problems-health-concerns"]},"clinicalStatus":{"coding":[{"system":"http://terminology.hl7.org/CodeSystem/condition-clinical","code":"active"}]},"category":[{"coding":[{"system":"http://terminology.hl7.org/CodeSystem/condition-category","code":"problem-list-item","display":"Problem List Item"}]}],"code":{"coding":[{"system":"http://snomed.info/sct","code":"371125006","display":"Labile essential hypertension (disorder)"}]},"subject":{"reference":"Patient/29d930b1-1bb6-4089-9ed6-aa2b7b77d5a4"},"onsetDateTime":"2026-06-30T23:59:59.000+00:00"},"request":{"method":"PUT","url":"Condition/5e5a48ae-158f-419c-8102-7585f3750b48"}},{"fullUrl":"https://madie.cms.gov/Encounter/c06faa94-e0d4-4fe6-ae48-b8094f95fb9f","resource":{"resourceType":"Encounter","id":"c06faa94-e0d4-4fe6-ae48-b8094f95fb9f","meta":{"profile":["http://hl7.org/fhir/us/qicore/StructureDefinition/qicore-encounter"]},"status":"finished","class":{"system":"http://terminology.hl7.org/CodeSystem/v3-ActCode","code":"AMB","display":"ambulatory"},"type":[{"coding":[{"system":"http://snomed.info/sct","code":"32485007","display":"Hospital admission (procedure)"}]}],"subject":{"reference":"Patient/29d930b1-1bb6-4089-9ed6-aa2b7b77d5a4"},"period":{"start":"2025-12-31T23:59:59.000+00:00","end":"2026-01-01T01:00:00.000+00:00"},"hospitalization":{"dischargeDisposition":{"coding":[{"system":"http://snomed.info/sct","code":"428371000124100","display":"Discharge to healthcare facility for hospice care (procedure)"}]}}},"request":{"method":"PUT","url":"Encounter/c06faa94-e0d4-4fe6-ae48-b8094f95fb9f"}},{"fullUrl":"https://madie.cms.gov/MeasureReport/a685995c-b37b-49eb-ac02-6e0098643459","resource":{"resourceType":"MeasureReport","id":"a685995c-b37b-49eb-ac02-6e0098643459","meta":{"profile":["http://hl7.org/fhir/us/cqfmeasures/StructureDefinition/test-case-cqfm"]},"contained":[{"resourceType":"Parameters","id":"b3d20bd8-242f-4a54-96ac-46ef9a04c23d-parameters","parameter":[{"name":"subject","valueString":"29d930b1-1bb6-4089-9ed6-aa2b7b77d5a4"}]}],"extension":[{"url":"http://hl7.org/fhir/StructureDefinition/cqf-inputParameters","valueReference":{"reference":"#b3d20bd8-242f-4a54-96ac-46ef9a04c23d-parameters"}},{"url":"http://hl7.org/fhir/us/cqfmeasures/StructureDefinition/cqfm-testCaseDescription","valueMarkdown":"Hospice discharge to facility during MP"}],"modifierExtension":[{"url":"http://hl7.org/fhir/us/cqfmeasures/StructureDefinition/cqfm-isTestCase","valueBoolean":true}],"status":"complete","type":"individual","measure":"https://madie.cms.gov/Measure/CMS165FHIRControllingHighBloodPressure","period":{"start":"2026-01-01","end":"2026-12-31"},"group":[{"id":"Group_1","population":[{"id":"InitialPopulation_1","code":{"coding":[{"system":"http://terminology.hl7.org/CodeSystem/measure-population","code":"initial-population","display":"Initial Population"}]},"count":1},{"id":"Denominator_1","code":{"coding":[{"system":"http://terminology.hl7.org/CodeSystem/measure-population","code":"denominator","display":"Denominator"}]},"count":1},{"id":"DenominatorExclusion_1","code":{"coding":[{"system":"http://terminology.hl7.org/CodeSystem/measure-population","code":"denominator-exclusion","display":"Denominator Exclusion"}]},"count":1},{"id":"Numerator_1","code":{"coding":[{"system":"http://terminology.hl7.org/CodeSystem/measure-population","code":"numerator","display":"Numerator"}]},"count":0}],"measureScore":{"value":1.0}}],"evaluatedResource":[{"reference":"Patient/29d930b1-1bb6-4089-9ed6-aa2b7b77d5a4"},{"reference":"Encounter/34a6d587-871b-47bd-8479-697cb2736cba"},{"reference":"Condition/5e5a48ae-158f-419c-8102-7585f3750b48"},{"reference":"Encounter/c06faa94-e0d4-4fe6-ae48-b8094f95fb9f"}]},"request":{"method":"PUT","url":"MeasureReport/a685995c-b37b-49eb-ac02-6e0098643459"}}]},"request":{"method":"PUT","url":"Bundle/DENEXPass-HospiceDischargeToFacilityDuringMP"}}]}