{"resourceType":"Bundle","id":"tests-f5b461d7-e382-4616-a763-d745867735d0-bundle","type":"transaction","entry":[{"resource":{"resourceType":"Encounter","id":"12be001c-2aa9-4be9-8faa-018f37edf53a","meta":{"profile":["http://hl7.org/fhir/us/qicore/StructureDefinition/qicore-encounter"]},"status":"finished","class":{"system":"http://terminology.hl7.org/CodeSystem/v3-ActCode","code":"AMB","display":"ambulatory"},"type":[{"coding":[{"system":"http://snomed.info/sct","code":"3391000175108","display":"Office visit for pediatric care and assessment (procedure)"}]}],"subject":{"reference":"Patient/f5b461d7-e382-4616-a763-d745867735d0"},"period":{"start":"2026-01-01T00:00:00.000+00:00","end":"2026-01-01T01:00:00.000+00:00"}},"request":{"method":"PUT","url":"Encounter/12be001c-2aa9-4be9-8faa-018f37edf53a"}},{"resource":{"resourceType":"Bundle","id":"DENEXPass-Age81FrailtyOnly","type":"transaction","entry":[{"fullUrl":"https://madie.cms.gov/Patient/f5b461d7-e382-4616-a763-d745867735d0","resource":{"resourceType":"Patient","id":"f5b461d7-e382-4616-a763-d745867735d0","meta":{"profile":["http://hl7.org/fhir/us/qicore/StructureDefinition/qicore-patient"]},"extension":[{"url":"http://hl7.org/fhir/us/core/StructureDefinition/us-core-race","extension":[{"url":"ombCategory","valueCoding":{"system":"urn:oid:2.16.840.1.113883.6.238","code":"2028-9","display":"Asian"}},{"url":"text","valueString":"Asian"}]},{"url":"http://hl7.org/fhir/us/core/StructureDefinition/us-core-ethnicity","extension":[{"url":"ombCategory","valueCoding":{"system":"urn:oid:2.16.840.1.113883.6.238","code":"2135-2","display":"Hispanic or Latino"}},{"url":"text","valueString":"Hispanic or Latino"}]}],"identifier":[{"system":"http://hospital.smarthealthit.org","value":"999999995"}],"name":[{"family":"DENEXPass","given":["Age81FrailtyOnly"]}],"gender":"female","birthDate":"1945-12-31"},"request":{"method":"PUT","url":"Patient/f5b461d7-e382-4616-a763-d745867735d0"}},{"fullUrl":"https://madie.cms.gov/Encounter/12be001c-2aa9-4be9-8faa-018f37edf53a","resource":{"resourceType":"Encounter","id":"12be001c-2aa9-4be9-8faa-018f37edf53a","meta":{"profile":["http://hl7.org/fhir/us/qicore/StructureDefinition/qicore-encounter"]},"status":"finished","class":{"system":"http://terminology.hl7.org/CodeSystem/v3-ActCode","code":"AMB","display":"ambulatory"},"type":[{"coding":[{"system":"http://snomed.info/sct","code":"3391000175108","display":"Office visit for pediatric care and assessment (procedure)"}]}],"subject":{"reference":"Patient/f5b461d7-e382-4616-a763-d745867735d0"},"period":{"start":"2026-01-01T00:00:00.000+00:00","end":"2026-01-01T01:00:00.000+00:00"}},"request":{"method":"PUT","url":"Encounter/12be001c-2aa9-4be9-8faa-018f37edf53a"}},{"fullUrl":"https://madie.cms.gov/Condition/f40f520c-17c1-4f99-a6f3-15a23155702f","resource":{"resourceType":"Condition","id":"f40f520c-17c1-4f99-a6f3-15a23155702f","meta":{"profile":["http://hl7.org/fhir/us/qicore/StructureDefinition/qicore-condition-problems-health-concerns"]},"clinicalStatus":{"coding":[{"system":"http://terminology.hl7.org/CodeSystem/condition-clinical","code":"active"}]},"category":[{"coding":[{"system":"http://terminology.hl7.org/CodeSystem/condition-category","code":"problem-list-item","display":"Problem List Item"}]}],"code":{"coding":[{"system":"http://snomed.info/sct","code":"371125006","display":"Labile essential hypertension (disorder)"}]},"subject":{"reference":"Patient/f5b461d7-e382-4616-a763-d745867735d0"},"onsetDateTime":"2026-06-30T23:59:59.000+00:00"},"request":{"method":"PUT","url":"Condition/f40f520c-17c1-4f99-a6f3-15a23155702f"}},{"fullUrl":"https://madie.cms.gov/DeviceRequest/292d8a0e-b087-43a1-b2c1-ab2202df340e","resource":{"resourceType":"DeviceRequest","id":"292d8a0e-b087-43a1-b2c1-ab2202df340e","meta":{"profile":["http://hl7.org/fhir/us/qicore/StructureDefinition/qicore-devicerequest"]},"modifierExtension":[{"url":"http://hl7.org/fhir/5.0/StructureDefinition/extension-DeviceRequest.doNotPerform","valueBoolean":false}],"status":"completed","intent":"order","codeCodeableConcept":{"coding":[{"system":"http://snomed.info/sct","code":"183240000","display":"Self-propelled wheelchair (physical object)"}]},"subject":{"reference":"Patient/f5b461d7-e382-4616-a763-d745867735d0"},"authoredOn":"2026-11-01T23:59:00.000+00:00"},"request":{"method":"PUT","url":"DeviceRequest/292d8a0e-b087-43a1-b2c1-ab2202df340e"}},{"fullUrl":"https://madie.cms.gov/MeasureReport/76d5a29a-71a7-4cf1-85be-7760f5b285c4","resource":{"resourceType":"MeasureReport","id":"76d5a29a-71a7-4cf1-85be-7760f5b285c4","meta":{"profile":["http://hl7.org/fhir/us/cqfmeasures/StructureDefinition/test-case-cqfm"]},"contained":[{"resourceType":"Parameters","id":"9edd3a4d-75d7-41ef-9803-a699ec8d1015-parameters","parameter":[{"name":"subject","valueString":"f5b461d7-e382-4616-a763-d745867735d0"}]}],"extension":[{"url":"http://hl7.org/fhir/StructureDefinition/cqf-inputParameters","valueReference":{"reference":"#9edd3a4d-75d7-41ef-9803-a699ec8d1015-parameters"}},{"url":"http://hl7.org/fhir/us/cqfmeasures/StructureDefinition/cqfm-testCaseDescription","valueMarkdown":"Age 81 with only frailty"}],"modifierExtension":[{"url":"http://hl7.org/fhir/us/cqfmeasures/StructureDefinition/cqfm-isTestCase","valueBoolean":true}],"status":"complete","type":"individual","measure":"https://madie.cms.gov/Measure/CMS165FHIRControllingHighBloodPressure","period":{"start":"2026-01-01","end":"2026-12-31"},"group":[{"id":"Group_1","population":[{"id":"InitialPopulation_1","code":{"coding":[{"system":"http://terminology.hl7.org/CodeSystem/measure-population","code":"initial-population","display":"Initial Population"}]},"count":1},{"id":"Denominator_1","code":{"coding":[{"system":"http://terminology.hl7.org/CodeSystem/measure-population","code":"denominator","display":"Denominator"}]},"count":1},{"id":"DenominatorExclusion_1","code":{"coding":[{"system":"http://terminology.hl7.org/CodeSystem/measure-population","code":"denominator-exclusion","display":"Denominator Exclusion"}]},"count":1},{"id":"Numerator_1","code":{"coding":[{"system":"http://terminology.hl7.org/CodeSystem/measure-population","code":"numerator","display":"Numerator"}]},"count":0}],"measureScore":{"value":1.0}}],"evaluatedResource":[{"reference":"Patient/f5b461d7-e382-4616-a763-d745867735d0"},{"reference":"Encounter/12be001c-2aa9-4be9-8faa-018f37edf53a"},{"reference":"Condition/f40f520c-17c1-4f99-a6f3-15a23155702f"},{"reference":"DeviceRequest/292d8a0e-b087-43a1-b2c1-ab2202df340e"}]},"request":{"method":"PUT","url":"MeasureReport/76d5a29a-71a7-4cf1-85be-7760f5b285c4"}}]},"request":{"method":"PUT","url":"Bundle/DENEXPass-Age81FrailtyOnly"}},{"resource":{"resourceType":"Condition","id":"f40f520c-17c1-4f99-a6f3-15a23155702f","meta":{"profile":["http://hl7.org/fhir/us/qicore/StructureDefinition/qicore-condition-problems-health-concerns"]},"clinicalStatus":{"coding":[{"system":"http://terminology.hl7.org/CodeSystem/condition-clinical","code":"active"}]},"category":[{"coding":[{"system":"http://terminology.hl7.org/CodeSystem/condition-category","code":"problem-list-item","display":"Problem List Item"}]}],"code":{"coding":[{"system":"http://snomed.info/sct","code":"371125006","display":"Labile essential hypertension (disorder)"}]},"subject":{"reference":"Patient/f5b461d7-e382-4616-a763-d745867735d0"},"onsetDateTime":"2026-06-30T23:59:59.000+00:00"},"request":{"method":"PUT","url":"Condition/f40f520c-17c1-4f99-a6f3-15a23155702f"}},{"resource":{"resourceType":"MeasureReport","id":"76d5a29a-71a7-4cf1-85be-7760f5b285c4","meta":{"profile":["http://hl7.org/fhir/us/cqfmeasures/StructureDefinition/test-case-cqfm"]},"contained":[{"resourceType":"Parameters","id":"9edd3a4d-75d7-41ef-9803-a699ec8d1015-parameters","parameter":[{"name":"subject","valueString":"f5b461d7-e382-4616-a763-d745867735d0"}]}],"extension":[{"url":"http://hl7.org/fhir/StructureDefinition/cqf-inputParameters","valueReference":{"reference":"#9edd3a4d-75d7-41ef-9803-a699ec8d1015-parameters"}},{"url":"http://hl7.org/fhir/us/cqfmeasures/StructureDefinition/cqfm-testCaseDescription","valueMarkdown":"Age 81 with only frailty"}],"modifierExtension":[{"url":"http://hl7.org/fhir/us/cqfmeasures/StructureDefinition/cqfm-isTestCase","valueBoolean":true}],"status":"complete","type":"individual","measure":"https://madie.cms.gov/Measure/CMS165FHIRControllingHighBloodPressure","period":{"start":"2026-01-01","end":"2026-12-31"},"group":[{"id":"Group_1","population":[{"id":"InitialPopulation_1","code":{"coding":[{"system":"http://terminology.hl7.org/CodeSystem/measure-population","code":"initial-population","display":"Initial Population"}]},"count":1},{"id":"Denominator_1","code":{"coding":[{"system":"http://terminology.hl7.org/CodeSystem/measure-population","code":"denominator","display":"Denominator"}]},"count":1},{"id":"DenominatorExclusion_1","code":{"coding":[{"system":"http://terminology.hl7.org/CodeSystem/measure-population","code":"denominator-exclusion","display":"Denominator Exclusion"}]},"count":1},{"id":"Numerator_1","code":{"coding":[{"system":"http://terminology.hl7.org/CodeSystem/measure-population","code":"numerator","display":"Numerator"}]},"count":0}],"measureScore":{"value":1.0}}],"evaluatedResource":[{"reference":"Patient/f5b461d7-e382-4616-a763-d745867735d0"},{"reference":"Encounter/12be001c-2aa9-4be9-8faa-018f37edf53a"},{"reference":"Condition/f40f520c-17c1-4f99-a6f3-15a23155702f"},{"reference":"DeviceRequest/292d8a0e-b087-43a1-b2c1-ab2202df340e"}]},"request":{"method":"PUT","url":"MeasureReport/76d5a29a-71a7-4cf1-85be-7760f5b285c4"}},{"resource":{"resourceType":"DeviceRequest","id":"292d8a0e-b087-43a1-b2c1-ab2202df340e","meta":{"profile":["http://hl7.org/fhir/us/qicore/StructureDefinition/qicore-devicerequest"]},"modifierExtension":[{"url":"http://hl7.org/fhir/5.0/StructureDefinition/extension-DeviceRequest.doNotPerform","valueBoolean":false}],"status":"completed","intent":"order","codeCodeableConcept":{"coding":[{"system":"http://snomed.info/sct","code":"183240000","display":"Self-propelled wheelchair (physical object)"}]},"subject":{"reference":"Patient/f5b461d7-e382-4616-a763-d745867735d0"},"authoredOn":"2026-11-01T23:59:00.000+00:00"},"request":{"method":"PUT","url":"DeviceRequest/292d8a0e-b087-43a1-b2c1-ab2202df340e"}},{"resource":{"resourceType":"Patient","id":"f5b461d7-e382-4616-a763-d745867735d0","meta":{"profile":["http://hl7.org/fhir/us/qicore/StructureDefinition/qicore-patient"]},"extension":[{"url":"http://hl7.org/fhir/us/core/StructureDefinition/us-core-race","extension":[{"url":"ombCategory","valueCoding":{"system":"urn:oid:2.16.840.1.113883.6.238","code":"2028-9","display":"Asian"}},{"url":"text","valueString":"Asian"}]},{"url":"http://hl7.org/fhir/us/core/StructureDefinition/us-core-ethnicity","extension":[{"url":"ombCategory","valueCoding":{"system":"urn:oid:2.16.840.1.113883.6.238","code":"2135-2","display":"Hispanic or Latino"}},{"url":"text","valueString":"Hispanic or Latino"}]}],"identifier":[{"system":"http://hospital.smarthealthit.org","value":"999999995"}],"name":[{"family":"DENEXPass","given":["Age81FrailtyOnly"]}],"gender":"female","birthDate":"1945-12-31"},"request":{"method":"PUT","url":"Patient/f5b461d7-e382-4616-a763-d745867735d0"}}]}