{"resourceType":"Bundle","id":"tests-a3deee90-5966-4309-b52f-c0a76046f680-bundle","type":"transaction","entry":[{"resource":{"resourceType":"Patient","id":"a3deee90-5966-4309-b52f-c0a76046f680","meta":{"profile":["http://hl7.org/fhir/us/qicore/StructureDefinition/qicore-patient"]},"extension":[{"url":"http://hl7.org/fhir/us/core/StructureDefinition/us-core-race","extension":[{"url":"ombCategory","valueCoding":{"system":"urn:oid:2.16.840.1.113883.6.238","code":"2028-9","display":"Asian"}},{"url":"text","valueString":"Asian"}]},{"url":"http://hl7.org/fhir/us/core/StructureDefinition/us-core-ethnicity","extension":[{"url":"ombCategory","valueCoding":{"system":"urn:oid:2.16.840.1.113883.6.238","code":"2135-2","display":"Hispanic or Latino"}},{"url":"text","valueString":"Hispanic or Latino"}]}],"identifier":[{"system":"http://hospital.smarthealthit.org","value":"999999995"}],"name":[{"family":"AnnualWellness","given":["IPPass"]}],"gender":"female","birthDate":"2007-12-31"},"request":{"method":"PUT","url":"Patient/a3deee90-5966-4309-b52f-c0a76046f680"}},{"resource":{"resourceType":"MeasureReport","id":"690ffd9c-133a-412c-b980-5529e66418c5","meta":{"profile":["http://hl7.org/fhir/us/cqfmeasures/StructureDefinition/test-case-cqfm"]},"contained":[{"resourceType":"Parameters","id":"11aaf8fc-d006-4424-a298-430be214f97d-parameters","parameter":[{"name":"subject","valueString":"a3deee90-5966-4309-b52f-c0a76046f680"}]}],"extension":[{"url":"http://hl7.org/fhir/StructureDefinition/cqf-inputParameters","valueReference":{"reference":"#11aaf8fc-d006-4424-a298-430be214f97d-parameters"}},{"url":"http://hl7.org/fhir/us/cqfmeasures/StructureDefinition/cqfm-testCaseDescription","valueMarkdown":"Annual wellness during MP"}],"modifierExtension":[{"url":"http://hl7.org/fhir/us/cqfmeasures/StructureDefinition/cqfm-isTestCase","valueBoolean":true}],"status":"complete","type":"individual","measure":"https://madie.cms.gov/Measure/CMS165FHIRControllingHighBloodPressure","period":{"start":"2026-01-01","end":"2026-12-31"},"group":[{"id":"Group_1","population":[{"id":"InitialPopulation_1","code":{"coding":[{"system":"http://terminology.hl7.org/CodeSystem/measure-population","code":"initial-population","display":"Initial Population"}]},"count":1},{"id":"Denominator_1","code":{"coding":[{"system":"http://terminology.hl7.org/CodeSystem/measure-population","code":"denominator","display":"Denominator"}]},"count":1},{"id":"DenominatorExclusion_1","code":{"coding":[{"system":"http://terminology.hl7.org/CodeSystem/measure-population","code":"denominator-exclusion","display":"Denominator Exclusion"}]},"count":0},{"id":"Numerator_1","code":{"coding":[{"system":"http://terminology.hl7.org/CodeSystem/measure-population","code":"numerator","display":"Numerator"}]},"count":0}],"measureScore":{"value":1.0}}],"evaluatedResource":[{"reference":"Patient/a3deee90-5966-4309-b52f-c0a76046f680"},{"reference":"Encounter/88a2ceea-d691-4cb5-a4aa-7e99b6f80d03"},{"reference":"Condition/7380176f-c8f2-4fee-bf3a-2bdee575f9ca"}]},"request":{"method":"PUT","url":"MeasureReport/690ffd9c-133a-412c-b980-5529e66418c5"}},{"resource":{"resourceType":"Encounter","id":"88a2ceea-d691-4cb5-a4aa-7e99b6f80d03","meta":{"profile":["http://hl7.org/fhir/us/qicore/StructureDefinition/qicore-encounter"]},"status":"finished","class":{"system":"http://terminology.hl7.org/CodeSystem/v3-ActCode","code":"AMB","display":"ambulatory"},"type":[{"coding":[{"system":"http://snomed.info/sct","code":"456201000124103","display":"Medicare annual wellness visit (procedure)"}]}],"subject":{"reference":"Patient/a3deee90-5966-4309-b52f-c0a76046f680"},"period":{"start":"2026-01-01T00:00:00.000+00:00","end":"2026-01-01T01:00:00.000+00:00"}},"request":{"method":"PUT","url":"Encounter/88a2ceea-d691-4cb5-a4aa-7e99b6f80d03"}},{"resource":{"resourceType":"Condition","id":"7380176f-c8f2-4fee-bf3a-2bdee575f9ca","meta":{"profile":["http://hl7.org/fhir/us/qicore/StructureDefinition/qicore-condition-encounter-diagnosis"]},"clinicalStatus":{"coding":[{"system":"http://terminology.hl7.org/CodeSystem/condition-clinical","code":"active"}]},"category":[{"coding":[{"system":"http://terminology.hl7.org/CodeSystem/condition-category","code":"encounter-diagnosis","display":"Encounter Diagnosis"}]}],"code":{"coding":[{"system":"http://snomed.info/sct","code":"371125006","display":"Labile essential hypertension (disorder)"}]},"subject":{"reference":"Patient/a3deee90-5966-4309-b52f-c0a76046f680"},"onsetDateTime":"2026-06-30T23:59:59.000+00:00"},"request":{"method":"PUT","url":"Condition/7380176f-c8f2-4fee-bf3a-2bdee575f9ca"}},{"resource":{"resourceType":"Bundle","id":"IPPPass-AnnualWellnessVisit","type":"transaction","entry":[{"fullUrl":"https://madie.cms.gov/Patient/a3deee90-5966-4309-b52f-c0a76046f680","resource":{"resourceType":"Patient","id":"a3deee90-5966-4309-b52f-c0a76046f680","meta":{"profile":["http://hl7.org/fhir/us/qicore/StructureDefinition/qicore-patient"]},"extension":[{"url":"http://hl7.org/fhir/us/core/StructureDefinition/us-core-race","extension":[{"url":"ombCategory","valueCoding":{"system":"urn:oid:2.16.840.1.113883.6.238","code":"2028-9","display":"Asian"}},{"url":"text","valueString":"Asian"}]},{"url":"http://hl7.org/fhir/us/core/StructureDefinition/us-core-ethnicity","extension":[{"url":"ombCategory","valueCoding":{"system":"urn:oid:2.16.840.1.113883.6.238","code":"2135-2","display":"Hispanic or Latino"}},{"url":"text","valueString":"Hispanic or Latino"}]}],"identifier":[{"system":"http://hospital.smarthealthit.org","value":"999999995"}],"name":[{"family":"AnnualWellness","given":["IPPass"]}],"gender":"female","birthDate":"2007-12-31"},"request":{"method":"PUT","url":"Patient/a3deee90-5966-4309-b52f-c0a76046f680"}},{"fullUrl":"https://madie.cms.gov/Encounter/88a2ceea-d691-4cb5-a4aa-7e99b6f80d03","resource":{"resourceType":"Encounter","id":"88a2ceea-d691-4cb5-a4aa-7e99b6f80d03","meta":{"profile":["http://hl7.org/fhir/us/qicore/StructureDefinition/qicore-encounter"]},"status":"finished","class":{"system":"http://terminology.hl7.org/CodeSystem/v3-ActCode","code":"AMB","display":"ambulatory"},"type":[{"coding":[{"system":"http://snomed.info/sct","code":"456201000124103","display":"Medicare annual wellness visit (procedure)"}]}],"subject":{"reference":"Patient/a3deee90-5966-4309-b52f-c0a76046f680"},"period":{"start":"2026-01-01T00:00:00.000+00:00","end":"2026-01-01T01:00:00.000+00:00"}},"request":{"method":"PUT","url":"Encounter/88a2ceea-d691-4cb5-a4aa-7e99b6f80d03"}},{"fullUrl":"https://madie.cms.gov/Condition/7380176f-c8f2-4fee-bf3a-2bdee575f9ca","resource":{"resourceType":"Condition","id":"7380176f-c8f2-4fee-bf3a-2bdee575f9ca","meta":{"profile":["http://hl7.org/fhir/us/qicore/StructureDefinition/qicore-condition-encounter-diagnosis"]},"clinicalStatus":{"coding":[{"system":"http://terminology.hl7.org/CodeSystem/condition-clinical","code":"active"}]},"category":[{"coding":[{"system":"http://terminology.hl7.org/CodeSystem/condition-category","code":"encounter-diagnosis","display":"Encounter Diagnosis"}]}],"code":{"coding":[{"system":"http://snomed.info/sct","code":"371125006","display":"Labile essential hypertension (disorder)"}]},"subject":{"reference":"Patient/a3deee90-5966-4309-b52f-c0a76046f680"},"onsetDateTime":"2026-06-30T23:59:59.000+00:00"},"request":{"method":"PUT","url":"Condition/7380176f-c8f2-4fee-bf3a-2bdee575f9ca"}},{"fullUrl":"https://madie.cms.gov/MeasureReport/690ffd9c-133a-412c-b980-5529e66418c5","resource":{"resourceType":"MeasureReport","id":"690ffd9c-133a-412c-b980-5529e66418c5","meta":{"profile":["http://hl7.org/fhir/us/cqfmeasures/StructureDefinition/test-case-cqfm"]},"contained":[{"resourceType":"Parameters","id":"11aaf8fc-d006-4424-a298-430be214f97d-parameters","parameter":[{"name":"subject","valueString":"a3deee90-5966-4309-b52f-c0a76046f680"}]}],"extension":[{"url":"http://hl7.org/fhir/StructureDefinition/cqf-inputParameters","valueReference":{"reference":"#11aaf8fc-d006-4424-a298-430be214f97d-parameters"}},{"url":"http://hl7.org/fhir/us/cqfmeasures/StructureDefinition/cqfm-testCaseDescription","valueMarkdown":"Annual wellness during MP"}],"modifierExtension":[{"url":"http://hl7.org/fhir/us/cqfmeasures/StructureDefinition/cqfm-isTestCase","valueBoolean":true}],"status":"complete","type":"individual","measure":"https://madie.cms.gov/Measure/CMS165FHIRControllingHighBloodPressure","period":{"start":"2026-01-01","end":"2026-12-31"},"group":[{"id":"Group_1","population":[{"id":"InitialPopulation_1","code":{"coding":[{"system":"http://terminology.hl7.org/CodeSystem/measure-population","code":"initial-population","display":"Initial Population"}]},"count":1},{"id":"Denominator_1","code":{"coding":[{"system":"http://terminology.hl7.org/CodeSystem/measure-population","code":"denominator","display":"Denominator"}]},"count":1},{"id":"DenominatorExclusion_1","code":{"coding":[{"system":"http://terminology.hl7.org/CodeSystem/measure-population","code":"denominator-exclusion","display":"Denominator Exclusion"}]},"count":0},{"id":"Numerator_1","code":{"coding":[{"system":"http://terminology.hl7.org/CodeSystem/measure-population","code":"numerator","display":"Numerator"}]},"count":0}],"measureScore":{"value":1.0}}],"evaluatedResource":[{"reference":"Patient/a3deee90-5966-4309-b52f-c0a76046f680"},{"reference":"Encounter/88a2ceea-d691-4cb5-a4aa-7e99b6f80d03"},{"reference":"Condition/7380176f-c8f2-4fee-bf3a-2bdee575f9ca"}]},"request":{"method":"PUT","url":"MeasureReport/690ffd9c-133a-412c-b980-5529e66418c5"}}]},"request":{"method":"PUT","url":"Bundle/IPPPass-AnnualWellnessVisit"}}]}