{"resourceType":"Bundle","id":"tests-59d7f239-7614-4e6e-a973-fe107aee5749-bundle","type":"transaction","entry":[{"resource":{"resourceType":"MeasureReport","id":"7337f7f2-9cba-4479-ad56-b5f86e790eb5","meta":{"profile":["http://hl7.org/fhir/us/cqfmeasures/StructureDefinition/test-case-cqfm"]},"contained":[{"resourceType":"Parameters","id":"04f144aa-9138-4c49-84b0-3eb4f518759d-parameters","parameter":[{"name":"subject","valueString":"59d7f239-7614-4e6e-a973-fe107aee5749"}]}],"extension":[{"url":"http://hl7.org/fhir/StructureDefinition/cqf-inputParameters","valueReference":{"reference":"#04f144aa-9138-4c49-84b0-3eb4f518759d-parameters"}},{"url":"http://hl7.org/fhir/us/cqfmeasures/StructureDefinition/cqfm-testCaseDescription","valueMarkdown":"Dementia medication request does not have doNotPerformed value. Value is fixed to false in the profile so passing."}],"modifierExtension":[{"url":"http://hl7.org/fhir/us/cqfmeasures/StructureDefinition/cqfm-isTestCase","valueBoolean":true}],"status":"complete","type":"individual","measure":"https://madie.cms.gov/Measure/CMS165FHIRControllingHighBloodPressure","period":{"start":"2026-01-01","end":"2026-12-31"},"group":[{"id":"Group_1","population":[{"id":"InitialPopulation_1","code":{"coding":[{"system":"http://terminology.hl7.org/CodeSystem/measure-population","code":"initial-population","display":"Initial Population"}]},"count":1},{"id":"Denominator_1","code":{"coding":[{"system":"http://terminology.hl7.org/CodeSystem/measure-population","code":"denominator","display":"Denominator"}]},"count":1},{"id":"DenominatorExclusion_1","code":{"coding":[{"system":"http://terminology.hl7.org/CodeSystem/measure-population","code":"denominator-exclusion","display":"Denominator Exclusion"}]},"count":1},{"id":"Numerator_1","code":{"coding":[{"system":"http://terminology.hl7.org/CodeSystem/measure-population","code":"numerator","display":"Numerator"}]},"count":0}],"measureScore":{"value":1.0}}],"evaluatedResource":[{"reference":"Patient/59d7f239-7614-4e6e-a973-fe107aee5749"},{"reference":"Encounter/f07104d9-5f8c-4028-a01d-b6c8ed9e52b2"},{"reference":"Condition/b33b0327-9724-4554-b847-a75b7d8f5f65"},{"reference":"MedicationRequest/1542a623-f13e-4c72-afa0-bec378d002c8"},{"reference":"DeviceRequest/d463ff31-706f-47fd-87c1-4e49c0dfed1b"}]},"request":{"method":"PUT","url":"MeasureReport/7337f7f2-9cba-4479-ad56-b5f86e790eb5"}},{"resource":{"resourceType":"Condition","id":"b33b0327-9724-4554-b847-a75b7d8f5f65","meta":{"profile":["http://hl7.org/fhir/us/qicore/StructureDefinition/qicore-condition-problems-health-concerns"]},"clinicalStatus":{"coding":[{"system":"http://terminology.hl7.org/CodeSystem/condition-clinical","code":"active"}]},"category":[{"coding":[{"system":"http://terminology.hl7.org/CodeSystem/condition-category","code":"problem-list-item","display":"Problem List Item"}]}],"code":{"coding":[{"system":"http://snomed.info/sct","code":"371125006","display":"Labile essential hypertension (disorder)"}]},"subject":{"reference":"Patient/59d7f239-7614-4e6e-a973-fe107aee5749"},"onsetDateTime":"2026-06-30T23:59:59.000+00:00"},"request":{"method":"PUT","url":"Condition/b33b0327-9724-4554-b847-a75b7d8f5f65"}},{"resource":{"resourceType":"Encounter","id":"f07104d9-5f8c-4028-a01d-b6c8ed9e52b2","meta":{"profile":["http://hl7.org/fhir/us/qicore/StructureDefinition/qicore-encounter"]},"status":"finished","class":{"system":"http://terminology.hl7.org/CodeSystem/v3-ActCode","code":"AMB","display":"ambulatory"},"type":[{"coding":[{"system":"http://snomed.info/sct","code":"3391000175108","display":"Office visit for pediatric care and assessment (procedure)"}]}],"subject":{"reference":"Patient/59d7f239-7614-4e6e-a973-fe107aee5749"},"period":{"start":"2026-01-01T00:00:00.000+00:00","end":"2026-01-01T01:00:00.000+00:00"}},"request":{"method":"PUT","url":"Encounter/f07104d9-5f8c-4028-a01d-b6c8ed9e52b2"}},{"resource":{"resourceType":"Patient","id":"59d7f239-7614-4e6e-a973-fe107aee5749","meta":{"profile":["http://hl7.org/fhir/us/qicore/StructureDefinition/qicore-patient"]},"extension":[{"url":"http://hl7.org/fhir/us/core/StructureDefinition/us-core-race","extension":[{"url":"ombCategory","valueCoding":{"system":"urn:oid:2.16.840.1.113883.6.238","code":"2028-9","display":"Asian"}},{"url":"text","valueString":"Asian"}]},{"url":"http://hl7.org/fhir/us/core/StructureDefinition/us-core-ethnicity","extension":[{"url":"ombCategory","valueCoding":{"system":"urn:oid:2.16.840.1.113883.6.238","code":"2135-2","display":"Hispanic or Latino"}},{"url":"text","valueString":"Hispanic or Latino"}]}],"identifier":[{"system":"http://hospital.smarthealthit.org","value":"999999995"}],"name":[{"family":"DENEXPass","given":["DementiaNoDoNotPerform"]}],"gender":"female","birthDate":"1959-12-31"},"request":{"method":"PUT","url":"Patient/59d7f239-7614-4e6e-a973-fe107aee5749"}},{"resource":{"resourceType":"MedicationRequest","id":"1542a623-f13e-4c72-afa0-bec378d002c8","meta":{"profile":["http://hl7.org/fhir/us/qicore/StructureDefinition/qicore-medicationrequest"]},"status":"active","intent":"order","medicationCodeableConcept":{"coding":[{"system":"http://www.nlm.nih.gov/research/umls/rxnorm","code":"312836","display":"rivastigmine 6 MG Oral Capsule"}]},"subject":{"reference":"Patient/59d7f239-7614-4e6e-a973-fe107aee5749"},"authoredOn":"2026-12-30T00:00:00.000+00:00","requester":{"reference":"Practitioner/example"},"dispenseRequest":{"expectedSupplyDuration":{"value":90,"system":"http://unitsofmeasure.org","code":"days"}}},"request":{"method":"PUT","url":"MedicationRequest/1542a623-f13e-4c72-afa0-bec378d002c8"}},{"resource":{"resourceType":"Bundle","id":"DENEXPass-DementiaNoDoNotPerform","type":"transaction","entry":[{"fullUrl":"https://madie.cms.gov/Patient/59d7f239-7614-4e6e-a973-fe107aee5749","resource":{"resourceType":"Patient","id":"59d7f239-7614-4e6e-a973-fe107aee5749","meta":{"profile":["http://hl7.org/fhir/us/qicore/StructureDefinition/qicore-patient"]},"extension":[{"url":"http://hl7.org/fhir/us/core/StructureDefinition/us-core-race","extension":[{"url":"ombCategory","valueCoding":{"system":"urn:oid:2.16.840.1.113883.6.238","code":"2028-9","display":"Asian"}},{"url":"text","valueString":"Asian"}]},{"url":"http://hl7.org/fhir/us/core/StructureDefinition/us-core-ethnicity","extension":[{"url":"ombCategory","valueCoding":{"system":"urn:oid:2.16.840.1.113883.6.238","code":"2135-2","display":"Hispanic or Latino"}},{"url":"text","valueString":"Hispanic or Latino"}]}],"identifier":[{"system":"http://hospital.smarthealthit.org","value":"999999995"}],"name":[{"family":"DENEXPass","given":["DementiaNoDoNotPerform"]}],"gender":"female","birthDate":"1959-12-31"},"request":{"method":"PUT","url":"Patient/59d7f239-7614-4e6e-a973-fe107aee5749"}},{"fullUrl":"https://madie.cms.gov/Encounter/f07104d9-5f8c-4028-a01d-b6c8ed9e52b2","resource":{"resourceType":"Encounter","id":"f07104d9-5f8c-4028-a01d-b6c8ed9e52b2","meta":{"profile":["http://hl7.org/fhir/us/qicore/StructureDefinition/qicore-encounter"]},"status":"finished","class":{"system":"http://terminology.hl7.org/CodeSystem/v3-ActCode","code":"AMB","display":"ambulatory"},"type":[{"coding":[{"system":"http://snomed.info/sct","code":"3391000175108","display":"Office visit for pediatric care and assessment (procedure)"}]}],"subject":{"reference":"Patient/59d7f239-7614-4e6e-a973-fe107aee5749"},"period":{"start":"2026-01-01T00:00:00.000+00:00","end":"2026-01-01T01:00:00.000+00:00"}},"request":{"method":"PUT","url":"Encounter/f07104d9-5f8c-4028-a01d-b6c8ed9e52b2"}},{"fullUrl":"https://madie.cms.gov/Condition/b33b0327-9724-4554-b847-a75b7d8f5f65","resource":{"resourceType":"Condition","id":"b33b0327-9724-4554-b847-a75b7d8f5f65","meta":{"profile":["http://hl7.org/fhir/us/qicore/StructureDefinition/qicore-condition-problems-health-concerns"]},"clinicalStatus":{"coding":[{"system":"http://terminology.hl7.org/CodeSystem/condition-clinical","code":"active"}]},"category":[{"coding":[{"system":"http://terminology.hl7.org/CodeSystem/condition-category","code":"problem-list-item","display":"Problem List Item"}]}],"code":{"coding":[{"system":"http://snomed.info/sct","code":"371125006","display":"Labile essential hypertension (disorder)"}]},"subject":{"reference":"Patient/59d7f239-7614-4e6e-a973-fe107aee5749"},"onsetDateTime":"2026-06-30T23:59:59.000+00:00"},"request":{"method":"PUT","url":"Condition/b33b0327-9724-4554-b847-a75b7d8f5f65"}},{"fullUrl":"https://madie.cms.gov/MedicationRequest/1542a623-f13e-4c72-afa0-bec378d002c8","resource":{"resourceType":"MedicationRequest","id":"1542a623-f13e-4c72-afa0-bec378d002c8","meta":{"profile":["http://hl7.org/fhir/us/qicore/StructureDefinition/qicore-medicationrequest"]},"status":"active","intent":"order","medicationCodeableConcept":{"coding":[{"system":"http://www.nlm.nih.gov/research/umls/rxnorm","code":"312836","display":"rivastigmine 6 MG Oral Capsule"}]},"subject":{"reference":"Patient/59d7f239-7614-4e6e-a973-fe107aee5749"},"authoredOn":"2026-12-30T00:00:00.000+00:00","requester":{"reference":"Practitioner/example"},"dispenseRequest":{"expectedSupplyDuration":{"value":90,"system":"http://unitsofmeasure.org","code":"days"}}},"request":{"method":"PUT","url":"MedicationRequest/1542a623-f13e-4c72-afa0-bec378d002c8"}},{"fullUrl":"https://madie.cms.gov/DeviceRequest/d463ff31-706f-47fd-87c1-4e49c0dfed1b","resource":{"resourceType":"DeviceRequest","id":"d463ff31-706f-47fd-87c1-4e49c0dfed1b","meta":{"profile":["http://hl7.org/fhir/us/qicore/StructureDefinition/qicore-devicerequest"]},"modifierExtension":[{"url":"http://hl7.org/fhir/5.0/StructureDefinition/extension-DeviceRequest.doNotPerform","valueBoolean":false}],"status":"completed","intent":"order","codeCodeableConcept":{"coding":[{"system":"http://snomed.info/sct","code":"183240000","display":"Self-propelled wheelchair (physical object)"}]},"subject":{"reference":"Patient/59d7f239-7614-4e6e-a973-fe107aee5749"},"authoredOn":"2026-11-01T23:59:00.000+00:00"},"request":{"method":"PUT","url":"DeviceRequest/d463ff31-706f-47fd-87c1-4e49c0dfed1b"}},{"fullUrl":"https://madie.cms.gov/MeasureReport/7337f7f2-9cba-4479-ad56-b5f86e790eb5","resource":{"resourceType":"MeasureReport","id":"7337f7f2-9cba-4479-ad56-b5f86e790eb5","meta":{"profile":["http://hl7.org/fhir/us/cqfmeasures/StructureDefinition/test-case-cqfm"]},"contained":[{"resourceType":"Parameters","id":"04f144aa-9138-4c49-84b0-3eb4f518759d-parameters","parameter":[{"name":"subject","valueString":"59d7f239-7614-4e6e-a973-fe107aee5749"}]}],"extension":[{"url":"http://hl7.org/fhir/StructureDefinition/cqf-inputParameters","valueReference":{"reference":"#04f144aa-9138-4c49-84b0-3eb4f518759d-parameters"}},{"url":"http://hl7.org/fhir/us/cqfmeasures/StructureDefinition/cqfm-testCaseDescription","valueMarkdown":"Dementia medication request does not have doNotPerformed value. Value is fixed to false in the profile so passing."}],"modifierExtension":[{"url":"http://hl7.org/fhir/us/cqfmeasures/StructureDefinition/cqfm-isTestCase","valueBoolean":true}],"status":"complete","type":"individual","measure":"https://madie.cms.gov/Measure/CMS165FHIRControllingHighBloodPressure","period":{"start":"2026-01-01","end":"2026-12-31"},"group":[{"id":"Group_1","population":[{"id":"InitialPopulation_1","code":{"coding":[{"system":"http://terminology.hl7.org/CodeSystem/measure-population","code":"initial-population","display":"Initial Population"}]},"count":1},{"id":"Denominator_1","code":{"coding":[{"system":"http://terminology.hl7.org/CodeSystem/measure-population","code":"denominator","display":"Denominator"}]},"count":1},{"id":"DenominatorExclusion_1","code":{"coding":[{"system":"http://terminology.hl7.org/CodeSystem/measure-population","code":"denominator-exclusion","display":"Denominator Exclusion"}]},"count":1},{"id":"Numerator_1","code":{"coding":[{"system":"http://terminology.hl7.org/CodeSystem/measure-population","code":"numerator","display":"Numerator"}]},"count":0}],"measureScore":{"value":1.0}}],"evaluatedResource":[{"reference":"Patient/59d7f239-7614-4e6e-a973-fe107aee5749"},{"reference":"Encounter/f07104d9-5f8c-4028-a01d-b6c8ed9e52b2"},{"reference":"Condition/b33b0327-9724-4554-b847-a75b7d8f5f65"},{"reference":"MedicationRequest/1542a623-f13e-4c72-afa0-bec378d002c8"},{"reference":"DeviceRequest/d463ff31-706f-47fd-87c1-4e49c0dfed1b"}]},"request":{"method":"PUT","url":"MeasureReport/7337f7f2-9cba-4479-ad56-b5f86e790eb5"}}]},"request":{"method":"PUT","url":"Bundle/DENEXPass-DementiaNoDoNotPerform"}},{"resource":{"resourceType":"DeviceRequest","id":"d463ff31-706f-47fd-87c1-4e49c0dfed1b","meta":{"profile":["http://hl7.org/fhir/us/qicore/StructureDefinition/qicore-devicerequest"]},"modifierExtension":[{"url":"http://hl7.org/fhir/5.0/StructureDefinition/extension-DeviceRequest.doNotPerform","valueBoolean":false}],"status":"completed","intent":"order","codeCodeableConcept":{"coding":[{"system":"http://snomed.info/sct","code":"183240000","display":"Self-propelled wheelchair (physical object)"}]},"subject":{"reference":"Patient/59d7f239-7614-4e6e-a973-fe107aee5749"},"authoredOn":"2026-11-01T23:59:00.000+00:00"},"request":{"method":"PUT","url":"DeviceRequest/d463ff31-706f-47fd-87c1-4e49c0dfed1b"}}]}