{"resourceType":"Bundle","id":"tests-821185af-e5b2-4552-a63c-36b64a9200a9-bundle","type":"transaction","entry":[{"resource":{"resourceType":"Condition","id":"31a988df-6665-4c21-b643-85a16707ddf8","meta":{"profile":["http://hl7.org/fhir/us/qicore/StructureDefinition/qicore-condition-problems-health-concerns"]},"clinicalStatus":{"coding":[{"system":"http://terminology.hl7.org/CodeSystem/condition-clinical","code":"active"}]},"category":[{"coding":[{"system":"http://terminology.hl7.org/CodeSystem/condition-category","code":"problem-list-item","display":"Problem List Item"}]}],"code":{"coding":[{"system":"http://snomed.info/sct","code":"371125006","display":"Labile essential hypertension (disorder)"}]},"subject":{"reference":"Patient/821185af-e5b2-4552-a63c-36b64a9200a9"},"onsetDateTime":"2026-06-30T23:59:59.000+00:00"},"request":{"method":"PUT","url":"Condition/31a988df-6665-4c21-b643-85a16707ddf8"}},{"resource":{"resourceType":"DeviceRequest","id":"1ac7b478-eb07-42a4-a492-ccaacf4d0ae2","meta":{"profile":["http://hl7.org/fhir/us/qicore/StructureDefinition/qicore-devicerequest"]},"status":"completed","intent":"order","codeCodeableConcept":{"coding":[{"system":"http://snomed.info/sct","code":"183240000","display":"Self-propelled wheelchair (physical object)"}]},"subject":{"reference":"Patient/821185af-e5b2-4552-a63c-36b64a9200a9"},"authoredOn":"2026-11-01T23:59:00.000+00:00"},"request":{"method":"PUT","url":"DeviceRequest/1ac7b478-eb07-42a4-a492-ccaacf4d0ae2"}},{"resource":{"resourceType":"Bundle","id":"DENEXPass-FrailtyDeviceRequestNoPerformedModExt","type":"transaction","entry":[{"fullUrl":"https://madie.cms.gov/Patient/821185af-e5b2-4552-a63c-36b64a9200a9","resource":{"resourceType":"Patient","id":"821185af-e5b2-4552-a63c-36b64a9200a9","meta":{"profile":["http://hl7.org/fhir/us/qicore/StructureDefinition/qicore-patient"]},"extension":[{"url":"http://hl7.org/fhir/us/core/StructureDefinition/us-core-race","extension":[{"url":"ombCategory","valueCoding":{"system":"urn:oid:2.16.840.1.113883.6.238","code":"2028-9","display":"Asian"}},{"url":"text","valueString":"Asian"}]},{"url":"http://hl7.org/fhir/us/core/StructureDefinition/us-core-ethnicity","extension":[{"url":"ombCategory","valueCoding":{"system":"urn:oid:2.16.840.1.113883.6.238","code":"2135-2","display":"Hispanic or Latino"}},{"url":"text","valueString":"Hispanic or Latino"}]}],"identifier":[{"system":"http://hospital.smarthealthit.org","value":"999999995"}],"name":[{"family":"DENEXPass","given":["FrailtyDeviceRequestNoDoNotPerformExtension"]}],"gender":"female","birthDate":"1959-12-31"},"request":{"method":"PUT","url":"Patient/821185af-e5b2-4552-a63c-36b64a9200a9"}},{"fullUrl":"https://madie.cms.gov/Encounter/7444e991-83da-4243-9775-44554a9f116a","resource":{"resourceType":"Encounter","id":"7444e991-83da-4243-9775-44554a9f116a","meta":{"profile":["http://hl7.org/fhir/us/qicore/StructureDefinition/qicore-encounter"]},"status":"finished","class":{"system":"http://terminology.hl7.org/CodeSystem/v3-ActCode","code":"AMB","display":"ambulatory"},"type":[{"coding":[{"system":"http://snomed.info/sct","code":"3391000175108","display":"Office visit for pediatric care and assessment (procedure)"}]}],"subject":{"reference":"Patient/821185af-e5b2-4552-a63c-36b64a9200a9"},"period":{"start":"2026-01-01T00:00:00.000+00:00","end":"2026-01-01T01:00:00.000+00:00"}},"request":{"method":"PUT","url":"Encounter/7444e991-83da-4243-9775-44554a9f116a"}},{"fullUrl":"https://madie.cms.gov/Condition/31a988df-6665-4c21-b643-85a16707ddf8","resource":{"resourceType":"Condition","id":"31a988df-6665-4c21-b643-85a16707ddf8","meta":{"profile":["http://hl7.org/fhir/us/qicore/StructureDefinition/qicore-condition-problems-health-concerns"]},"clinicalStatus":{"coding":[{"system":"http://terminology.hl7.org/CodeSystem/condition-clinical","code":"active"}]},"category":[{"coding":[{"system":"http://terminology.hl7.org/CodeSystem/condition-category","code":"problem-list-item","display":"Problem List Item"}]}],"code":{"coding":[{"system":"http://snomed.info/sct","code":"371125006","display":"Labile essential hypertension (disorder)"}]},"subject":{"reference":"Patient/821185af-e5b2-4552-a63c-36b64a9200a9"},"onsetDateTime":"2026-06-30T23:59:59.000+00:00"},"request":{"method":"PUT","url":"Condition/31a988df-6665-4c21-b643-85a16707ddf8"}},{"fullUrl":"https://madie.cms.gov/Encounter/b0e88e77-ecf6-4594-9c00-ba0dc1a37efc","resource":{"resourceType":"Encounter","id":"b0e88e77-ecf6-4594-9c00-ba0dc1a37efc","meta":{"profile":["http://hl7.org/fhir/us/qicore/StructureDefinition/qicore-encounter"]},"status":"finished","class":{"system":"http://terminology.hl7.org/CodeSystem/v3-ActCode","code":"AMB","display":"ambulatory"},"type":[{"coding":[{"system":"http://snomed.info/sct","code":"4525004","display":"Emergency department patient visit (procedure)"}]}],"subject":{"reference":"Patient/821185af-e5b2-4552-a63c-36b64a9200a9"},"period":{"start":"2025-12-31T00:00:00.000+00:00","end":"2026-01-01T01:00:00.000+00:00"},"diagnosis":[{"condition":{"reference":"Condition/4afdb100-1622-4319-9fe2-c1ebca69f5b1"}}]},"request":{"method":"PUT","url":"Encounter/b0e88e77-ecf6-4594-9c00-ba0dc1a37efc"}},{"fullUrl":"https://madie.cms.gov/Encounter/4c9dac8b-6260-4d3b-97f4-39279c21e09b","resource":{"resourceType":"Encounter","id":"4c9dac8b-6260-4d3b-97f4-39279c21e09b","meta":{"profile":["http://hl7.org/fhir/us/qicore/StructureDefinition/qicore-encounter"]},"status":"finished","class":{"system":"http://terminology.hl7.org/CodeSystem/v3-ActCode","code":"AMB","display":"ambulatory"},"type":[{"coding":[{"system":"http://snomed.info/sct","code":"4525004","display":"Emergency department patient visit (procedure)"}]}],"subject":{"reference":"Patient/821185af-e5b2-4552-a63c-36b64a9200a9"},"period":{"start":"2026-05-01T00:00:00.000+00:00","end":"2026-05-01T01:00:00.000+00:00"},"diagnosis":[{"condition":{"reference":"Condition/4afdb100-1622-4319-9fe2-c1ebca69f5b1"}}]},"request":{"method":"PUT","url":"Encounter/4c9dac8b-6260-4d3b-97f4-39279c21e09b"}},{"fullUrl":"https://madie.cms.gov/Condition/4afdb100-1622-4319-9fe2-c1ebca69f5b1","resource":{"resourceType":"Condition","id":"4afdb100-1622-4319-9fe2-c1ebca69f5b1","meta":{"profile":["http://hl7.org/fhir/us/qicore/StructureDefinition/qicore-condition-problems-health-concerns"]},"clinicalStatus":{"coding":[{"system":"http://terminology.hl7.org/CodeSystem/condition-clinical","code":"active"}]},"category":[{"coding":[{"system":"http://terminology.hl7.org/CodeSystem/condition-category","code":"problem-list-item","display":"Problem List Item"}]}],"code":{"coding":[{"system":"http://snomed.info/sct","code":"101421000119107","display":"Dementia due to Parkinson's disease (disorder)"}]},"subject":{"reference":"Patient/821185af-e5b2-4552-a63c-36b64a9200a9"},"onsetDateTime":"2025-12-31T23:59:00.000+00:00"},"request":{"method":"PUT","url":"Condition/4afdb100-1622-4319-9fe2-c1ebca69f5b1"}},{"fullUrl":"https://madie.cms.gov/DeviceRequest/1ac7b478-eb07-42a4-a492-ccaacf4d0ae2","resource":{"resourceType":"DeviceRequest","id":"1ac7b478-eb07-42a4-a492-ccaacf4d0ae2","meta":{"profile":["http://hl7.org/fhir/us/qicore/StructureDefinition/qicore-devicerequest"]},"status":"completed","intent":"order","codeCodeableConcept":{"coding":[{"system":"http://snomed.info/sct","code":"183240000","display":"Self-propelled wheelchair (physical object)"}]},"subject":{"reference":"Patient/821185af-e5b2-4552-a63c-36b64a9200a9"},"authoredOn":"2026-11-01T23:59:00.000+00:00"},"request":{"method":"PUT","url":"DeviceRequest/1ac7b478-eb07-42a4-a492-ccaacf4d0ae2"}},{"fullUrl":"https://madie.cms.gov/MeasureReport/1d630f36-4767-4ab1-8733-82e49c4c921b","resource":{"resourceType":"MeasureReport","id":"1d630f36-4767-4ab1-8733-82e49c4c921b","meta":{"profile":["http://hl7.org/fhir/us/cqfmeasures/StructureDefinition/test-case-cqfm"]},"contained":[{"resourceType":"Parameters","id":"35178cc8-de73-4c7a-9463-cdb82438d6f8-parameters","parameter":[{"name":"subject","valueString":"821185af-e5b2-4552-a63c-36b64a9200a9"}]}],"extension":[{"url":"http://hl7.org/fhir/StructureDefinition/cqf-inputParameters","valueReference":{"reference":"#35178cc8-de73-4c7a-9463-cdb82438d6f8-parameters"}},{"url":"http://hl7.org/fhir/us/cqfmeasures/StructureDefinition/cqfm-testCaseDescription","valueMarkdown":"Frailty device request with no doNotPerform extension value is still meeting DENEX because value is fixed to false in the profile."}],"modifierExtension":[{"url":"http://hl7.org/fhir/us/cqfmeasures/StructureDefinition/cqfm-isTestCase","valueBoolean":true}],"status":"complete","type":"individual","measure":"https://madie.cms.gov/Measure/CMS165FHIRControllingHighBloodPressure","period":{"start":"2026-01-01","end":"2026-12-31"},"group":[{"id":"Group_1","population":[{"id":"InitialPopulation_1","code":{"coding":[{"system":"http://terminology.hl7.org/CodeSystem/measure-population","code":"initial-population","display":"Initial Population"}]},"count":1},{"id":"Denominator_1","code":{"coding":[{"system":"http://terminology.hl7.org/CodeSystem/measure-population","code":"denominator","display":"Denominator"}]},"count":1},{"id":"DenominatorExclusion_1","code":{"coding":[{"system":"http://terminology.hl7.org/CodeSystem/measure-population","code":"denominator-exclusion","display":"Denominator Exclusion"}]},"count":1},{"id":"Numerator_1","code":{"coding":[{"system":"http://terminology.hl7.org/CodeSystem/measure-population","code":"numerator","display":"Numerator"}]},"count":0}],"measureScore":{"value":1.0}}],"evaluatedResource":[{"reference":"Patient/821185af-e5b2-4552-a63c-36b64a9200a9"},{"reference":"Encounter/7444e991-83da-4243-9775-44554a9f116a"},{"reference":"Condition/31a988df-6665-4c21-b643-85a16707ddf8"},{"reference":"Encounter/b0e88e77-ecf6-4594-9c00-ba0dc1a37efc"},{"reference":"Encounter/4c9dac8b-6260-4d3b-97f4-39279c21e09b"},{"reference":"Condition/4afdb100-1622-4319-9fe2-c1ebca69f5b1"},{"reference":"DeviceRequest/1ac7b478-eb07-42a4-a492-ccaacf4d0ae2"}]},"request":{"method":"PUT","url":"MeasureReport/1d630f36-4767-4ab1-8733-82e49c4c921b"}}]},"request":{"method":"PUT","url":"Bundle/DENEXPass-FrailtyDeviceRequestNoPerformedModExt"}},{"resource":{"resourceType":"Condition","id":"4afdb100-1622-4319-9fe2-c1ebca69f5b1","meta":{"profile":["http://hl7.org/fhir/us/qicore/StructureDefinition/qicore-condition-problems-health-concerns"]},"clinicalStatus":{"coding":[{"system":"http://terminology.hl7.org/CodeSystem/condition-clinical","code":"active"}]},"category":[{"coding":[{"system":"http://terminology.hl7.org/CodeSystem/condition-category","code":"problem-list-item","display":"Problem List Item"}]}],"code":{"coding":[{"system":"http://snomed.info/sct","code":"101421000119107","display":"Dementia due to Parkinson's disease (disorder)"}]},"subject":{"reference":"Patient/821185af-e5b2-4552-a63c-36b64a9200a9"},"onsetDateTime":"2025-12-31T23:59:00.000+00:00"},"request":{"method":"PUT","url":"Condition/4afdb100-1622-4319-9fe2-c1ebca69f5b1"}},{"resource":{"resourceType":"Encounter","id":"4c9dac8b-6260-4d3b-97f4-39279c21e09b","meta":{"profile":["http://hl7.org/fhir/us/qicore/StructureDefinition/qicore-encounter"]},"status":"finished","class":{"system":"http://terminology.hl7.org/CodeSystem/v3-ActCode","code":"AMB","display":"ambulatory"},"type":[{"coding":[{"system":"http://snomed.info/sct","code":"4525004","display":"Emergency department patient visit (procedure)"}]}],"subject":{"reference":"Patient/821185af-e5b2-4552-a63c-36b64a9200a9"},"period":{"start":"2026-05-01T00:00:00.000+00:00","end":"2026-05-01T01:00:00.000+00:00"},"diagnosis":[{"condition":{"reference":"Condition/4afdb100-1622-4319-9fe2-c1ebca69f5b1"}}]},"request":{"method":"PUT","url":"Encounter/4c9dac8b-6260-4d3b-97f4-39279c21e09b"}},{"resource":{"resourceType":"Encounter","id":"b0e88e77-ecf6-4594-9c00-ba0dc1a37efc","meta":{"profile":["http://hl7.org/fhir/us/qicore/StructureDefinition/qicore-encounter"]},"status":"finished","class":{"system":"http://terminology.hl7.org/CodeSystem/v3-ActCode","code":"AMB","display":"ambulatory"},"type":[{"coding":[{"system":"http://snomed.info/sct","code":"4525004","display":"Emergency department patient visit (procedure)"}]}],"subject":{"reference":"Patient/821185af-e5b2-4552-a63c-36b64a9200a9"},"period":{"start":"2025-12-31T00:00:00.000+00:00","end":"2026-01-01T01:00:00.000+00:00"},"diagnosis":[{"condition":{"reference":"Condition/4afdb100-1622-4319-9fe2-c1ebca69f5b1"}}]},"request":{"method":"PUT","url":"Encounter/b0e88e77-ecf6-4594-9c00-ba0dc1a37efc"}},{"resource":{"resourceType":"Encounter","id":"7444e991-83da-4243-9775-44554a9f116a","meta":{"profile":["http://hl7.org/fhir/us/qicore/StructureDefinition/qicore-encounter"]},"status":"finished","class":{"system":"http://terminology.hl7.org/CodeSystem/v3-ActCode","code":"AMB","display":"ambulatory"},"type":[{"coding":[{"system":"http://snomed.info/sct","code":"3391000175108","display":"Office visit for pediatric care and assessment (procedure)"}]}],"subject":{"reference":"Patient/821185af-e5b2-4552-a63c-36b64a9200a9"},"period":{"start":"2026-01-01T00:00:00.000+00:00","end":"2026-01-01T01:00:00.000+00:00"}},"request":{"method":"PUT","url":"Encounter/7444e991-83da-4243-9775-44554a9f116a"}},{"resource":{"resourceType":"MeasureReport","id":"1d630f36-4767-4ab1-8733-82e49c4c921b","meta":{"profile":["http://hl7.org/fhir/us/cqfmeasures/StructureDefinition/test-case-cqfm"]},"contained":[{"resourceType":"Parameters","id":"35178cc8-de73-4c7a-9463-cdb82438d6f8-parameters","parameter":[{"name":"subject","valueString":"821185af-e5b2-4552-a63c-36b64a9200a9"}]}],"extension":[{"url":"http://hl7.org/fhir/StructureDefinition/cqf-inputParameters","valueReference":{"reference":"#35178cc8-de73-4c7a-9463-cdb82438d6f8-parameters"}},{"url":"http://hl7.org/fhir/us/cqfmeasures/StructureDefinition/cqfm-testCaseDescription","valueMarkdown":"Frailty device request with no doNotPerform extension value is still meeting DENEX because value is fixed to false in the profile."}],"modifierExtension":[{"url":"http://hl7.org/fhir/us/cqfmeasures/StructureDefinition/cqfm-isTestCase","valueBoolean":true}],"status":"complete","type":"individual","measure":"https://madie.cms.gov/Measure/CMS165FHIRControllingHighBloodPressure","period":{"start":"2026-01-01","end":"2026-12-31"},"group":[{"id":"Group_1","population":[{"id":"InitialPopulation_1","code":{"coding":[{"system":"http://terminology.hl7.org/CodeSystem/measure-population","code":"initial-population","display":"Initial Population"}]},"count":1},{"id":"Denominator_1","code":{"coding":[{"system":"http://terminology.hl7.org/CodeSystem/measure-population","code":"denominator","display":"Denominator"}]},"count":1},{"id":"DenominatorExclusion_1","code":{"coding":[{"system":"http://terminology.hl7.org/CodeSystem/measure-population","code":"denominator-exclusion","display":"Denominator Exclusion"}]},"count":1},{"id":"Numerator_1","code":{"coding":[{"system":"http://terminology.hl7.org/CodeSystem/measure-population","code":"numerator","display":"Numerator"}]},"count":0}],"measureScore":{"value":1.0}}],"evaluatedResource":[{"reference":"Patient/821185af-e5b2-4552-a63c-36b64a9200a9"},{"reference":"Encounter/7444e991-83da-4243-9775-44554a9f116a"},{"reference":"Condition/31a988df-6665-4c21-b643-85a16707ddf8"},{"reference":"Encounter/b0e88e77-ecf6-4594-9c00-ba0dc1a37efc"},{"reference":"Encounter/4c9dac8b-6260-4d3b-97f4-39279c21e09b"},{"reference":"Condition/4afdb100-1622-4319-9fe2-c1ebca69f5b1"},{"reference":"DeviceRequest/1ac7b478-eb07-42a4-a492-ccaacf4d0ae2"}]},"request":{"method":"PUT","url":"MeasureReport/1d630f36-4767-4ab1-8733-82e49c4c921b"}},{"resource":{"resourceType":"Patient","id":"821185af-e5b2-4552-a63c-36b64a9200a9","meta":{"profile":["http://hl7.org/fhir/us/qicore/StructureDefinition/qicore-patient"]},"extension":[{"url":"http://hl7.org/fhir/us/core/StructureDefinition/us-core-race","extension":[{"url":"ombCategory","valueCoding":{"system":"urn:oid:2.16.840.1.113883.6.238","code":"2028-9","display":"Asian"}},{"url":"text","valueString":"Asian"}]},{"url":"http://hl7.org/fhir/us/core/StructureDefinition/us-core-ethnicity","extension":[{"url":"ombCategory","valueCoding":{"system":"urn:oid:2.16.840.1.113883.6.238","code":"2135-2","display":"Hispanic or Latino"}},{"url":"text","valueString":"Hispanic or Latino"}]}],"identifier":[{"system":"http://hospital.smarthealthit.org","value":"999999995"}],"name":[{"family":"DENEXPass","given":["FrailtyDeviceRequestNoDoNotPerformExtension"]}],"gender":"female","birthDate":"1959-12-31"},"request":{"method":"PUT","url":"Patient/821185af-e5b2-4552-a63c-36b64a9200a9"}}]}