{"resourceType":"Bundle","id":"tests-926b705a-b222-4c64-9d3f-ad64ead74295-bundle","type":"transaction","entry":[{"resource":{"resourceType":"Patient","id":"926b705a-b222-4c64-9d3f-ad64ead74295","meta":{"profile":["http://hl7.org/fhir/us/qicore/StructureDefinition/qicore-patient"]},"extension":[{"url":"http://hl7.org/fhir/us/core/StructureDefinition/us-core-race","extension":[{"url":"ombCategory","valueCoding":{"system":"urn:oid:2.16.840.1.113883.6.238","code":"2028-9","display":"Asian"}},{"url":"text","valueString":"Asian"}]},{"url":"http://hl7.org/fhir/us/core/StructureDefinition/us-core-ethnicity","extension":[{"url":"ombCategory","valueCoding":{"system":"urn:oid:2.16.840.1.113883.6.238","code":"2135-2","display":"Hispanic or Latino"}},{"url":"text","valueString":"Hispanic or Latino"}]}],"identifier":[{"system":"http://hospital.smarthealthit.org","value":"999999995"}],"name":[{"family":"DENEXPass","given":["PalliativeCareInterventionDuringMP"]}],"gender":"female","birthDate":"2007-12-31"},"request":{"method":"PUT","url":"Patient/926b705a-b222-4c64-9d3f-ad64ead74295"}},{"resource":{"resourceType":"Encounter","id":"effd174b-4108-4d9b-8d37-ffcae486e611","meta":{"profile":["http://hl7.org/fhir/us/qicore/StructureDefinition/qicore-encounter"]},"status":"finished","class":{"system":"http://terminology.hl7.org/CodeSystem/v3-ActCode","code":"AMB","display":"ambulatory"},"type":[{"coding":[{"system":"http://snomed.info/sct","code":"3391000175108","display":"Office visit for pediatric care and assessment (procedure)"}]}],"subject":{"reference":"Patient/926b705a-b222-4c64-9d3f-ad64ead74295"},"period":{"start":"2026-01-01T00:00:00.000+00:00","end":"2026-01-01T01:00:00.000+00:00"}},"request":{"method":"PUT","url":"Encounter/effd174b-4108-4d9b-8d37-ffcae486e611"}},{"resource":{"resourceType":"Procedure","id":"44ea79f6-c2dc-4a3d-ba11-a56fed0d0a29","meta":{"profile":["http://hl7.org/fhir/us/qicore/StructureDefinition/qicore-procedure"]},"extension":[{"url":"http://hl7.org/fhir/us/qicore/StructureDefinition/qicore-recorded","valueDateTime":"2026-12-31T00:00:00.000+00:00"}],"status":"completed","code":{"coding":[{"system":"http://snomed.info/sct","code":"395694002","display":"Specialist palliative care treatment - daycare (regime/therapy)"}]},"subject":{"reference":"Patient/926b705a-b222-4c64-9d3f-ad64ead74295"},"performedPeriod":{"start":"2026-12-31T00:00:00.000+00:00","end":"2026-12-31T23:59:59.000+00:00"}},"request":{"method":"PUT","url":"Procedure/44ea79f6-c2dc-4a3d-ba11-a56fed0d0a29"}},{"resource":{"resourceType":"MeasureReport","id":"f5f53a5b-984b-489c-8b88-e26f1794d79f","meta":{"profile":["http://hl7.org/fhir/us/cqfmeasures/StructureDefinition/test-case-cqfm"]},"contained":[{"resourceType":"Parameters","id":"1436360f-be98-48cd-a629-7ae0d42fb858-parameters","parameter":[{"name":"subject","valueString":"926b705a-b222-4c64-9d3f-ad64ead74295"}]}],"extension":[{"url":"http://hl7.org/fhir/StructureDefinition/cqf-inputParameters","valueReference":{"reference":"#1436360f-be98-48cd-a629-7ae0d42fb858-parameters"}},{"url":"http://hl7.org/fhir/us/cqfmeasures/StructureDefinition/cqfm-testCaseDescription","valueMarkdown":"Palliative care intervention during MP"}],"modifierExtension":[{"url":"http://hl7.org/fhir/us/cqfmeasures/StructureDefinition/cqfm-isTestCase","valueBoolean":true}],"status":"complete","type":"individual","measure":"https://madie.cms.gov/Measure/CMS165FHIRControllingHighBloodPressure","period":{"start":"2026-01-01","end":"2026-12-31"},"group":[{"id":"Group_1","population":[{"id":"InitialPopulation_1","code":{"coding":[{"system":"http://terminology.hl7.org/CodeSystem/measure-population","code":"initial-population","display":"Initial Population"}]},"count":1},{"id":"Denominator_1","code":{"coding":[{"system":"http://terminology.hl7.org/CodeSystem/measure-population","code":"denominator","display":"Denominator"}]},"count":1},{"id":"DenominatorExclusion_1","code":{"coding":[{"system":"http://terminology.hl7.org/CodeSystem/measure-population","code":"denominator-exclusion","display":"Denominator Exclusion"}]},"count":1},{"id":"Numerator_1","code":{"coding":[{"system":"http://terminology.hl7.org/CodeSystem/measure-population","code":"numerator","display":"Numerator"}]},"count":0}],"measureScore":{"value":1.0}}],"evaluatedResource":[{"reference":"Patient/926b705a-b222-4c64-9d3f-ad64ead74295"},{"reference":"Encounter/effd174b-4108-4d9b-8d37-ffcae486e611"},{"reference":"Condition/55cfd681-91dc-47da-b57d-0d68fecec6f7"},{"reference":"Procedure/44ea79f6-c2dc-4a3d-ba11-a56fed0d0a29"}]},"request":{"method":"PUT","url":"MeasureReport/f5f53a5b-984b-489c-8b88-e26f1794d79f"}},{"resource":{"resourceType":"Bundle","id":"DENEXPass-PalliativeCareInterventionDuringMP","type":"transaction","entry":[{"fullUrl":"https://madie.cms.gov/Patient/926b705a-b222-4c64-9d3f-ad64ead74295","resource":{"resourceType":"Patient","id":"926b705a-b222-4c64-9d3f-ad64ead74295","meta":{"profile":["http://hl7.org/fhir/us/qicore/StructureDefinition/qicore-patient"]},"extension":[{"url":"http://hl7.org/fhir/us/core/StructureDefinition/us-core-race","extension":[{"url":"ombCategory","valueCoding":{"system":"urn:oid:2.16.840.1.113883.6.238","code":"2028-9","display":"Asian"}},{"url":"text","valueString":"Asian"}]},{"url":"http://hl7.org/fhir/us/core/StructureDefinition/us-core-ethnicity","extension":[{"url":"ombCategory","valueCoding":{"system":"urn:oid:2.16.840.1.113883.6.238","code":"2135-2","display":"Hispanic or Latino"}},{"url":"text","valueString":"Hispanic or Latino"}]}],"identifier":[{"system":"http://hospital.smarthealthit.org","value":"999999995"}],"name":[{"family":"DENEXPass","given":["PalliativeCareInterventionDuringMP"]}],"gender":"female","birthDate":"2007-12-31"},"request":{"method":"PUT","url":"Patient/926b705a-b222-4c64-9d3f-ad64ead74295"}},{"fullUrl":"https://madie.cms.gov/Encounter/effd174b-4108-4d9b-8d37-ffcae486e611","resource":{"resourceType":"Encounter","id":"effd174b-4108-4d9b-8d37-ffcae486e611","meta":{"profile":["http://hl7.org/fhir/us/qicore/StructureDefinition/qicore-encounter"]},"status":"finished","class":{"system":"http://terminology.hl7.org/CodeSystem/v3-ActCode","code":"AMB","display":"ambulatory"},"type":[{"coding":[{"system":"http://snomed.info/sct","code":"3391000175108","display":"Office visit for pediatric care and assessment (procedure)"}]}],"subject":{"reference":"Patient/926b705a-b222-4c64-9d3f-ad64ead74295"},"period":{"start":"2026-01-01T00:00:00.000+00:00","end":"2026-01-01T01:00:00.000+00:00"}},"request":{"method":"PUT","url":"Encounter/effd174b-4108-4d9b-8d37-ffcae486e611"}},{"fullUrl":"https://madie.cms.gov/Condition/55cfd681-91dc-47da-b57d-0d68fecec6f7","resource":{"resourceType":"Condition","id":"55cfd681-91dc-47da-b57d-0d68fecec6f7","meta":{"profile":["http://hl7.org/fhir/us/qicore/StructureDefinition/qicore-condition-problems-health-concerns"]},"clinicalStatus":{"coding":[{"system":"http://terminology.hl7.org/CodeSystem/condition-clinical","code":"active"}]},"category":[{"coding":[{"system":"http://terminology.hl7.org/CodeSystem/condition-category","code":"problem-list-item","display":"Problem List Item"}]}],"code":{"coding":[{"system":"http://snomed.info/sct","code":"371125006","display":"Labile essential hypertension (disorder)"}]},"subject":{"reference":"Patient/926b705a-b222-4c64-9d3f-ad64ead74295"},"onsetDateTime":"2026-06-30T23:59:59.000+00:00"},"request":{"method":"PUT","url":"Condition/55cfd681-91dc-47da-b57d-0d68fecec6f7"}},{"fullUrl":"https://madie.cms.gov/Procedure/44ea79f6-c2dc-4a3d-ba11-a56fed0d0a29","resource":{"resourceType":"Procedure","id":"44ea79f6-c2dc-4a3d-ba11-a56fed0d0a29","meta":{"profile":["http://hl7.org/fhir/us/qicore/StructureDefinition/qicore-procedure"]},"extension":[{"url":"http://hl7.org/fhir/us/qicore/StructureDefinition/qicore-recorded","valueDateTime":"2026-12-31T00:00:00.000+00:00"}],"status":"completed","code":{"coding":[{"system":"http://snomed.info/sct","code":"395694002","display":"Specialist palliative care treatment - daycare (regime/therapy)"}]},"subject":{"reference":"Patient/926b705a-b222-4c64-9d3f-ad64ead74295"},"performedPeriod":{"start":"2026-12-31T00:00:00.000+00:00","end":"2026-12-31T23:59:59.000+00:00"}},"request":{"method":"PUT","url":"Procedure/44ea79f6-c2dc-4a3d-ba11-a56fed0d0a29"}},{"fullUrl":"https://madie.cms.gov/MeasureReport/f5f53a5b-984b-489c-8b88-e26f1794d79f","resource":{"resourceType":"MeasureReport","id":"f5f53a5b-984b-489c-8b88-e26f1794d79f","meta":{"profile":["http://hl7.org/fhir/us/cqfmeasures/StructureDefinition/test-case-cqfm"]},"contained":[{"resourceType":"Parameters","id":"1436360f-be98-48cd-a629-7ae0d42fb858-parameters","parameter":[{"name":"subject","valueString":"926b705a-b222-4c64-9d3f-ad64ead74295"}]}],"extension":[{"url":"http://hl7.org/fhir/StructureDefinition/cqf-inputParameters","valueReference":{"reference":"#1436360f-be98-48cd-a629-7ae0d42fb858-parameters"}},{"url":"http://hl7.org/fhir/us/cqfmeasures/StructureDefinition/cqfm-testCaseDescription","valueMarkdown":"Palliative care intervention during MP"}],"modifierExtension":[{"url":"http://hl7.org/fhir/us/cqfmeasures/StructureDefinition/cqfm-isTestCase","valueBoolean":true}],"status":"complete","type":"individual","measure":"https://madie.cms.gov/Measure/CMS165FHIRControllingHighBloodPressure","period":{"start":"2026-01-01","end":"2026-12-31"},"group":[{"id":"Group_1","population":[{"id":"InitialPopulation_1","code":{"coding":[{"system":"http://terminology.hl7.org/CodeSystem/measure-population","code":"initial-population","display":"Initial Population"}]},"count":1},{"id":"Denominator_1","code":{"coding":[{"system":"http://terminology.hl7.org/CodeSystem/measure-population","code":"denominator","display":"Denominator"}]},"count":1},{"id":"DenominatorExclusion_1","code":{"coding":[{"system":"http://terminology.hl7.org/CodeSystem/measure-population","code":"denominator-exclusion","display":"Denominator Exclusion"}]},"count":1},{"id":"Numerator_1","code":{"coding":[{"system":"http://terminology.hl7.org/CodeSystem/measure-population","code":"numerator","display":"Numerator"}]},"count":0}],"measureScore":{"value":1.0}}],"evaluatedResource":[{"reference":"Patient/926b705a-b222-4c64-9d3f-ad64ead74295"},{"reference":"Encounter/effd174b-4108-4d9b-8d37-ffcae486e611"},{"reference":"Condition/55cfd681-91dc-47da-b57d-0d68fecec6f7"},{"reference":"Procedure/44ea79f6-c2dc-4a3d-ba11-a56fed0d0a29"}]},"request":{"method":"PUT","url":"MeasureReport/f5f53a5b-984b-489c-8b88-e26f1794d79f"}}]},"request":{"method":"PUT","url":"Bundle/DENEXPass-PalliativeCareInterventionDuringMP"}},{"resource":{"resourceType":"Condition","id":"55cfd681-91dc-47da-b57d-0d68fecec6f7","meta":{"profile":["http://hl7.org/fhir/us/qicore/StructureDefinition/qicore-condition-problems-health-concerns"]},"clinicalStatus":{"coding":[{"system":"http://terminology.hl7.org/CodeSystem/condition-clinical","code":"active"}]},"category":[{"coding":[{"system":"http://terminology.hl7.org/CodeSystem/condition-category","code":"problem-list-item","display":"Problem List Item"}]}],"code":{"coding":[{"system":"http://snomed.info/sct","code":"371125006","display":"Labile essential hypertension (disorder)"}]},"subject":{"reference":"Patient/926b705a-b222-4c64-9d3f-ad64ead74295"},"onsetDateTime":"2026-06-30T23:59:59.000+00:00"},"request":{"method":"PUT","url":"Condition/55cfd681-91dc-47da-b57d-0d68fecec6f7"}}]}