{"resourceType":"Bundle","id":"tests-f9bf76c5-7b85-4fd7-b883-b7c14e8b1801-bundle","type":"transaction","entry":[{"resource":{"resourceType":"Patient","id":"f9bf76c5-7b85-4fd7-b883-b7c14e8b1801","meta":{"profile":["http://hl7.org/fhir/us/qicore/StructureDefinition/qicore-patient"]},"extension":[{"url":"http://hl7.org/fhir/us/core/StructureDefinition/us-core-race","extension":[{"url":"ombCategory","valueCoding":{"system":"urn:oid:2.16.840.1.113883.6.238","code":"2028-9","display":"Asian"}},{"url":"text","valueString":"Asian"}]},{"url":"http://hl7.org/fhir/us/core/StructureDefinition/us-core-ethnicity","extension":[{"url":"ombCategory","valueCoding":{"system":"urn:oid:2.16.840.1.113883.6.238","code":"2135-2","display":"Hispanic or Latino"}},{"url":"text","valueString":"Hispanic or Latino"}]}],"identifier":[{"system":"http://hospital.smarthealthit.org","value":"999999995"}],"name":[{"family":"DENEXPass","given":["LivingInNursingHome"]}],"gender":"female","birthDate":"1959-12-31"},"request":{"method":"PUT","url":"Patient/f9bf76c5-7b85-4fd7-b883-b7c14e8b1801"}},{"resource":{"resourceType":"Encounter","id":"0837a8c0-fc97-4fe3-8572-b2a0db20bb10","meta":{"profile":["http://hl7.org/fhir/us/qicore/StructureDefinition/qicore-encounter"]},"status":"finished","class":{"system":"http://terminology.hl7.org/CodeSystem/v3-ActCode","code":"AMB","display":"ambulatory"},"type":[{"coding":[{"system":"http://snomed.info/sct","code":"3391000175108","display":"Office visit for pediatric care and assessment (procedure)"}]}],"subject":{"reference":"Patient/f9bf76c5-7b85-4fd7-b883-b7c14e8b1801"},"period":{"start":"2026-01-01T00:00:00.000+00:00","end":"2026-01-01T01:00:00.000+00:00"}},"request":{"method":"PUT","url":"Encounter/0837a8c0-fc97-4fe3-8572-b2a0db20bb10"}},{"resource":{"resourceType":"Observation","id":"e2a6c715-8b9e-4392-a8a6-9874d3e1dfc4","meta":{"profile":["http://hl7.org/fhir/us/qicore/StructureDefinition/qicore-observation-screening-assessment"]},"status":"final","category":[{"coding":[{"system":"http://terminology.hl7.org/CodeSystem/observation-category","code":"survey"}]}],"code":{"coding":[{"system":"http://loinc.org","code":"71802-3","display":"Housing status"}]},"subject":{"reference":"Patient/f9bf76c5-7b85-4fd7-b883-b7c14e8b1801"},"effectivePeriod":{"start":"2025-12-31T00:00:00.000+00:00","end":"2026-01-01T00:00:00.000+00:00"},"valueCodeableConcept":{"coding":[{"system":"http://snomed.info/sct","code":"160734000","display":"Lives in nursing home (finding)"}]}},"request":{"method":"PUT","url":"Observation/e2a6c715-8b9e-4392-a8a6-9874d3e1dfc4"}},{"resource":{"resourceType":"Condition","id":"aed4bb77-317c-4f37-a1cf-a4dabf352544","meta":{"profile":["http://hl7.org/fhir/us/qicore/StructureDefinition/qicore-condition-problems-health-concerns"]},"clinicalStatus":{"coding":[{"system":"http://terminology.hl7.org/CodeSystem/condition-clinical","code":"active"}]},"category":[{"coding":[{"system":"http://terminology.hl7.org/CodeSystem/condition-category","code":"problem-list-item","display":"Problem List Item"}]}],"code":{"coding":[{"system":"http://snomed.info/sct","code":"371125006","display":"Labile essential hypertension (disorder)"}]},"subject":{"reference":"Patient/f9bf76c5-7b85-4fd7-b883-b7c14e8b1801"},"onsetDateTime":"2026-06-30T23:59:59.000+00:00"},"request":{"method":"PUT","url":"Condition/aed4bb77-317c-4f37-a1cf-a4dabf352544"}},{"resource":{"resourceType":"MeasureReport","id":"9758b518-5f06-4270-9788-081d58b6b5b7","meta":{"profile":["http://hl7.org/fhir/us/cqfmeasures/StructureDefinition/test-case-cqfm"]},"contained":[{"resourceType":"Parameters","id":"6025624d-7b0f-4eec-8a81-67c616cf2cb1-parameters","parameter":[{"name":"subject","valueString":"f9bf76c5-7b85-4fd7-b883-b7c14e8b1801"}]}],"extension":[{"url":"http://hl7.org/fhir/StructureDefinition/cqf-inputParameters","valueReference":{"reference":"#6025624d-7b0f-4eec-8a81-67c616cf2cb1-parameters"}},{"url":"http://hl7.org/fhir/us/cqfmeasures/StructureDefinition/cqfm-testCaseDescription","valueMarkdown":"Last housing status indicates living in nursing home"}],"modifierExtension":[{"url":"http://hl7.org/fhir/us/cqfmeasures/StructureDefinition/cqfm-isTestCase","valueBoolean":true}],"status":"complete","type":"individual","measure":"https://madie.cms.gov/Measure/CMS165FHIRControllingHighBloodPressure","period":{"start":"2026-01-01","end":"2026-12-31"},"group":[{"id":"Group_1","population":[{"id":"InitialPopulation_1","code":{"coding":[{"system":"http://terminology.hl7.org/CodeSystem/measure-population","code":"initial-population","display":"Initial Population"}]},"count":1},{"id":"Denominator_1","code":{"coding":[{"system":"http://terminology.hl7.org/CodeSystem/measure-population","code":"denominator","display":"Denominator"}]},"count":1},{"id":"DenominatorExclusion_1","code":{"coding":[{"system":"http://terminology.hl7.org/CodeSystem/measure-population","code":"denominator-exclusion","display":"Denominator Exclusion"}]},"count":1},{"id":"Numerator_1","code":{"coding":[{"system":"http://terminology.hl7.org/CodeSystem/measure-population","code":"numerator","display":"Numerator"}]},"count":0}],"measureScore":{"value":1.0}}],"evaluatedResource":[{"reference":"Patient/f9bf76c5-7b85-4fd7-b883-b7c14e8b1801"},{"reference":"Encounter/0837a8c0-fc97-4fe3-8572-b2a0db20bb10"},{"reference":"Condition/aed4bb77-317c-4f37-a1cf-a4dabf352544"},{"reference":"Observation/e2a6c715-8b9e-4392-a8a6-9874d3e1dfc4"}]},"request":{"method":"PUT","url":"MeasureReport/9758b518-5f06-4270-9788-081d58b6b5b7"}},{"resource":{"resourceType":"Bundle","id":"DENEXPass-LivingInNursingHome","type":"transaction","entry":[{"fullUrl":"https://madie.cms.gov/Patient/f9bf76c5-7b85-4fd7-b883-b7c14e8b1801","resource":{"resourceType":"Patient","id":"f9bf76c5-7b85-4fd7-b883-b7c14e8b1801","meta":{"profile":["http://hl7.org/fhir/us/qicore/StructureDefinition/qicore-patient"]},"extension":[{"url":"http://hl7.org/fhir/us/core/StructureDefinition/us-core-race","extension":[{"url":"ombCategory","valueCoding":{"system":"urn:oid:2.16.840.1.113883.6.238","code":"2028-9","display":"Asian"}},{"url":"text","valueString":"Asian"}]},{"url":"http://hl7.org/fhir/us/core/StructureDefinition/us-core-ethnicity","extension":[{"url":"ombCategory","valueCoding":{"system":"urn:oid:2.16.840.1.113883.6.238","code":"2135-2","display":"Hispanic or Latino"}},{"url":"text","valueString":"Hispanic or Latino"}]}],"identifier":[{"system":"http://hospital.smarthealthit.org","value":"999999995"}],"name":[{"family":"DENEXPass","given":["LivingInNursingHome"]}],"gender":"female","birthDate":"1959-12-31"},"request":{"method":"PUT","url":"Patient/f9bf76c5-7b85-4fd7-b883-b7c14e8b1801"}},{"fullUrl":"https://madie.cms.gov/Encounter/0837a8c0-fc97-4fe3-8572-b2a0db20bb10","resource":{"resourceType":"Encounter","id":"0837a8c0-fc97-4fe3-8572-b2a0db20bb10","meta":{"profile":["http://hl7.org/fhir/us/qicore/StructureDefinition/qicore-encounter"]},"status":"finished","class":{"system":"http://terminology.hl7.org/CodeSystem/v3-ActCode","code":"AMB","display":"ambulatory"},"type":[{"coding":[{"system":"http://snomed.info/sct","code":"3391000175108","display":"Office visit for pediatric care and assessment (procedure)"}]}],"subject":{"reference":"Patient/f9bf76c5-7b85-4fd7-b883-b7c14e8b1801"},"period":{"start":"2026-01-01T00:00:00.000+00:00","end":"2026-01-01T01:00:00.000+00:00"}},"request":{"method":"PUT","url":"Encounter/0837a8c0-fc97-4fe3-8572-b2a0db20bb10"}},{"fullUrl":"https://madie.cms.gov/Condition/aed4bb77-317c-4f37-a1cf-a4dabf352544","resource":{"resourceType":"Condition","id":"aed4bb77-317c-4f37-a1cf-a4dabf352544","meta":{"profile":["http://hl7.org/fhir/us/qicore/StructureDefinition/qicore-condition-problems-health-concerns"]},"clinicalStatus":{"coding":[{"system":"http://terminology.hl7.org/CodeSystem/condition-clinical","code":"active"}]},"category":[{"coding":[{"system":"http://terminology.hl7.org/CodeSystem/condition-category","code":"problem-list-item","display":"Problem List Item"}]}],"code":{"coding":[{"system":"http://snomed.info/sct","code":"371125006","display":"Labile essential hypertension (disorder)"}]},"subject":{"reference":"Patient/f9bf76c5-7b85-4fd7-b883-b7c14e8b1801"},"onsetDateTime":"2026-06-30T23:59:59.000+00:00"},"request":{"method":"PUT","url":"Condition/aed4bb77-317c-4f37-a1cf-a4dabf352544"}},{"fullUrl":"https://madie.cms.gov/Observation/e2a6c715-8b9e-4392-a8a6-9874d3e1dfc4","resource":{"resourceType":"Observation","id":"e2a6c715-8b9e-4392-a8a6-9874d3e1dfc4","meta":{"profile":["http://hl7.org/fhir/us/qicore/StructureDefinition/qicore-observation-screening-assessment"]},"status":"final","category":[{"coding":[{"system":"http://terminology.hl7.org/CodeSystem/observation-category","code":"survey"}]}],"code":{"coding":[{"system":"http://loinc.org","code":"71802-3","display":"Housing status"}]},"subject":{"reference":"Patient/f9bf76c5-7b85-4fd7-b883-b7c14e8b1801"},"effectivePeriod":{"start":"2025-12-31T00:00:00.000+00:00","end":"2026-01-01T00:00:00.000+00:00"},"valueCodeableConcept":{"coding":[{"system":"http://snomed.info/sct","code":"160734000","display":"Lives in nursing home (finding)"}]}},"request":{"method":"PUT","url":"Observation/e2a6c715-8b9e-4392-a8a6-9874d3e1dfc4"}},{"fullUrl":"https://madie.cms.gov/MeasureReport/9758b518-5f06-4270-9788-081d58b6b5b7","resource":{"resourceType":"MeasureReport","id":"9758b518-5f06-4270-9788-081d58b6b5b7","meta":{"profile":["http://hl7.org/fhir/us/cqfmeasures/StructureDefinition/test-case-cqfm"]},"contained":[{"resourceType":"Parameters","id":"6025624d-7b0f-4eec-8a81-67c616cf2cb1-parameters","parameter":[{"name":"subject","valueString":"f9bf76c5-7b85-4fd7-b883-b7c14e8b1801"}]}],"extension":[{"url":"http://hl7.org/fhir/StructureDefinition/cqf-inputParameters","valueReference":{"reference":"#6025624d-7b0f-4eec-8a81-67c616cf2cb1-parameters"}},{"url":"http://hl7.org/fhir/us/cqfmeasures/StructureDefinition/cqfm-testCaseDescription","valueMarkdown":"Last housing status indicates living in nursing home"}],"modifierExtension":[{"url":"http://hl7.org/fhir/us/cqfmeasures/StructureDefinition/cqfm-isTestCase","valueBoolean":true}],"status":"complete","type":"individual","measure":"https://madie.cms.gov/Measure/CMS165FHIRControllingHighBloodPressure","period":{"start":"2026-01-01","end":"2026-12-31"},"group":[{"id":"Group_1","population":[{"id":"InitialPopulation_1","code":{"coding":[{"system":"http://terminology.hl7.org/CodeSystem/measure-population","code":"initial-population","display":"Initial Population"}]},"count":1},{"id":"Denominator_1","code":{"coding":[{"system":"http://terminology.hl7.org/CodeSystem/measure-population","code":"denominator","display":"Denominator"}]},"count":1},{"id":"DenominatorExclusion_1","code":{"coding":[{"system":"http://terminology.hl7.org/CodeSystem/measure-population","code":"denominator-exclusion","display":"Denominator Exclusion"}]},"count":1},{"id":"Numerator_1","code":{"coding":[{"system":"http://terminology.hl7.org/CodeSystem/measure-population","code":"numerator","display":"Numerator"}]},"count":0}],"measureScore":{"value":1.0}}],"evaluatedResource":[{"reference":"Patient/f9bf76c5-7b85-4fd7-b883-b7c14e8b1801"},{"reference":"Encounter/0837a8c0-fc97-4fe3-8572-b2a0db20bb10"},{"reference":"Condition/aed4bb77-317c-4f37-a1cf-a4dabf352544"},{"reference":"Observation/e2a6c715-8b9e-4392-a8a6-9874d3e1dfc4"}]},"request":{"method":"PUT","url":"MeasureReport/9758b518-5f06-4270-9788-081d58b6b5b7"}}]},"request":{"method":"PUT","url":"Bundle/DENEXPass-LivingInNursingHome"}}]}