{"resourceType":"Bundle","id":"tests-bff7264b-35fc-402b-8a15-22c78e227064-bundle","type":"transaction","entry":[{"resource":{"resourceType":"Patient","id":"bff7264b-35fc-402b-8a15-22c78e227064","meta":{"profile":["http://hl7.org/fhir/us/qicore/StructureDefinition/qicore-patient"]},"extension":[{"url":"http://hl7.org/fhir/us/core/StructureDefinition/us-core-race","extension":[{"url":"ombCategory","valueCoding":{"system":"urn:oid:2.16.840.1.113883.6.238","code":"2028-9","display":"Asian"}},{"url":"text","valueString":"Asian"}]},{"url":"http://hl7.org/fhir/us/core/StructureDefinition/us-core-ethnicity","extension":[{"url":"ombCategory","valueCoding":{"system":"urn:oid:2.16.840.1.113883.6.238","code":"2135-2","display":"Hispanic or Latino"}},{"url":"text","valueString":"Hispanic or Latino"}]}],"identifier":[{"system":"http://hospital.smarthealthit.org","value":"999999995"}],"name":[{"family":"NUMERFail","given":["SBP140DBP89DuringMP"]}],"gender":"female","birthDate":"2007-12-31"},"request":{"method":"PUT","url":"Patient/bff7264b-35fc-402b-8a15-22c78e227064"}},{"resource":{"resourceType":"Condition","id":"350a58df-9eb0-4319-bdce-18e674a198d7","meta":{"profile":["http://hl7.org/fhir/us/qicore/StructureDefinition/qicore-condition-encounter-diagnosis"]},"clinicalStatus":{"coding":[{"system":"http://terminology.hl7.org/CodeSystem/condition-clinical","code":"active"}]},"category":[{"coding":[{"system":"http://terminology.hl7.org/CodeSystem/condition-category","code":"encounter-diagnosis","display":"Encounter Diagnosis"}]}],"code":{"coding":[{"system":"http://snomed.info/sct","code":"371125006","display":"Labile essential hypertension (disorder)"}]},"subject":{"reference":"Patient/bff7264b-35fc-402b-8a15-22c78e227064"},"onsetDateTime":"2026-06-30T23:59:59.000+00:00"},"request":{"method":"PUT","url":"Condition/350a58df-9eb0-4319-bdce-18e674a198d7"}},{"resource":{"resourceType":"Encounter","id":"6f54cadd-4ac7-4c37-a93d-d57380a5eb2a","meta":{"profile":["http://hl7.org/fhir/us/qicore/StructureDefinition/qicore-encounter"]},"status":"finished","class":{"system":"http://terminology.hl7.org/CodeSystem/v3-ActCode","code":"AMB","display":"ambulatory"},"type":[{"coding":[{"system":"http://snomed.info/sct","code":"3391000175108","display":"Office visit for pediatric care and assessment (procedure)"}]}],"subject":{"reference":"Patient/bff7264b-35fc-402b-8a15-22c78e227064"},"period":{"start":"2026-01-01T00:00:00.000+00:00","end":"2026-01-01T01:00:00.000+00:00"}},"request":{"method":"PUT","url":"Encounter/6f54cadd-4ac7-4c37-a93d-d57380a5eb2a"}},{"resource":{"resourceType":"MeasureReport","id":"9f02e690-249d-4ffb-931a-6a5ca338c85e","meta":{"profile":["http://hl7.org/fhir/us/cqfmeasures/StructureDefinition/test-case-cqfm"]},"contained":[{"resourceType":"Parameters","id":"4acb3198-1b28-447f-86e9-f6fcd8bc91f1-parameters","parameter":[{"name":"subject","valueString":"bff7264b-35fc-402b-8a15-22c78e227064"}]}],"extension":[{"url":"http://hl7.org/fhir/StructureDefinition/cqf-inputParameters","valueReference":{"reference":"#4acb3198-1b28-447f-86e9-f6fcd8bc91f1-parameters"}},{"url":"http://hl7.org/fhir/us/cqfmeasures/StructureDefinition/cqfm-testCaseDescription","valueMarkdown":"BP 140/89 during MP"}],"modifierExtension":[{"url":"http://hl7.org/fhir/us/cqfmeasures/StructureDefinition/cqfm-isTestCase","valueBoolean":true}],"status":"complete","type":"individual","measure":"https://madie.cms.gov/Measure/CMS165FHIRControllingHighBloodPressure","period":{"start":"2026-01-01","end":"2026-12-31"},"group":[{"id":"Group_1","population":[{"id":"InitialPopulation_1","code":{"coding":[{"system":"http://terminology.hl7.org/CodeSystem/measure-population","code":"initial-population","display":"Initial Population"}]},"count":1},{"id":"Denominator_1","code":{"coding":[{"system":"http://terminology.hl7.org/CodeSystem/measure-population","code":"denominator","display":"Denominator"}]},"count":1},{"id":"DenominatorExclusion_1","code":{"coding":[{"system":"http://terminology.hl7.org/CodeSystem/measure-population","code":"denominator-exclusion","display":"Denominator Exclusion"}]},"count":0},{"id":"Numerator_1","code":{"coding":[{"system":"http://terminology.hl7.org/CodeSystem/measure-population","code":"numerator","display":"Numerator"}]},"count":0}],"measureScore":{"value":1.0}}],"evaluatedResource":[{"reference":"Patient/bff7264b-35fc-402b-8a15-22c78e227064"},{"reference":"Encounter/6f54cadd-4ac7-4c37-a93d-d57380a5eb2a"},{"reference":"Condition/350a58df-9eb0-4319-bdce-18e674a198d7"},{"reference":"Observation/c32deab5-c238-41b3-99ea-cec686a9dc6a"},{"reference":"Encounter/6f54cadd-4ac7-4c37-a93d-d57380a5eb2a-1"}]},"request":{"method":"PUT","url":"MeasureReport/9f02e690-249d-4ffb-931a-6a5ca338c85e"}},{"resource":{"resourceType":"Observation","id":"c32deab5-c238-41b3-99ea-cec686a9dc6a","meta":{"profile":["http://hl7.org/fhir/us/core/StructureDefinition/us-core-blood-pressure"]},"status":"final","category":[{"coding":[{"system":"http://terminology.hl7.org/CodeSystem/observation-category","code":"vital-signs","display":"Vital Signs"}],"text":"Vital Signs"}],"code":{"coding":[{"system":"http://loinc.org","code":"85354-9","display":"Blood pressure panel with all children optional"}]},"subject":{"reference":"Patient/bff7264b-35fc-402b-8a15-22c78e227064"},"encounter":{"reference":"Encounter/6f54cadd-4ac7-4c37-a93d-d57380a5eb2a-1"},"effectiveDateTime":"2026-01-01T00:00:00.000+00:00","component":[{"code":{"coding":[{"system":"http://loinc.org","code":"8480-6","display":"Systolic blood pressure"}]},"valueQuantity":{"value":140,"unit":"mmHg","system":"http://unitsofmeasure.org","code":"mm[Hg]"}},{"code":{"coding":[{"system":"http://loinc.org","code":"8462-4","display":"Diastolic blood pressure"}]},"valueQuantity":{"value":89,"unit":"mmHg","system":"http://unitsofmeasure.org","code":"mm[Hg]"}}]},"request":{"method":"PUT","url":"Observation/c32deab5-c238-41b3-99ea-cec686a9dc6a"}},{"resource":{"resourceType":"Encounter","id":"6f54cadd-4ac7-4c37-a93d-d57380a5eb2a-1","meta":{"profile":["http://hl7.org/fhir/us/qicore/StructureDefinition/qicore-encounter"]},"status":"finished","class":{"system":"http://terminology.hl7.org/CodeSystem/v3-ActCode","code":"AMB","display":"ambulatory"},"type":[{"coding":[{"system":"http://snomed.info/sct","code":"3391000175108","display":"Office visit for pediatric care and assessment (procedure)"}]}],"subject":{"reference":"Patient/bff7264b-35fc-402b-8a15-22c78e227064"},"period":{"start":"2026-01-01T00:00:00.000+00:00","end":"2026-01-01T01:00:00.000+00:00"}},"request":{"method":"PUT","url":"Encounter/6f54cadd-4ac7-4c37-a93d-d57380a5eb2a-1"}},{"resource":{"resourceType":"Bundle","id":"NUMERFail-SBP140DBP89DuringMP","type":"transaction","entry":[{"fullUrl":"https://madie.cms.gov/Patient/bff7264b-35fc-402b-8a15-22c78e227064","resource":{"resourceType":"Patient","id":"bff7264b-35fc-402b-8a15-22c78e227064","meta":{"profile":["http://hl7.org/fhir/us/qicore/StructureDefinition/qicore-patient"]},"extension":[{"url":"http://hl7.org/fhir/us/core/StructureDefinition/us-core-race","extension":[{"url":"ombCategory","valueCoding":{"system":"urn:oid:2.16.840.1.113883.6.238","code":"2028-9","display":"Asian"}},{"url":"text","valueString":"Asian"}]},{"url":"http://hl7.org/fhir/us/core/StructureDefinition/us-core-ethnicity","extension":[{"url":"ombCategory","valueCoding":{"system":"urn:oid:2.16.840.1.113883.6.238","code":"2135-2","display":"Hispanic or Latino"}},{"url":"text","valueString":"Hispanic or Latino"}]}],"identifier":[{"system":"http://hospital.smarthealthit.org","value":"999999995"}],"name":[{"family":"NUMERFail","given":["SBP140DBP89DuringMP"]}],"gender":"female","birthDate":"2007-12-31"},"request":{"method":"PUT","url":"Patient/bff7264b-35fc-402b-8a15-22c78e227064"}},{"fullUrl":"https://madie.cms.gov/Encounter/6f54cadd-4ac7-4c37-a93d-d57380a5eb2a","resource":{"resourceType":"Encounter","id":"6f54cadd-4ac7-4c37-a93d-d57380a5eb2a","meta":{"profile":["http://hl7.org/fhir/us/qicore/StructureDefinition/qicore-encounter"]},"status":"finished","class":{"system":"http://terminology.hl7.org/CodeSystem/v3-ActCode","code":"AMB","display":"ambulatory"},"type":[{"coding":[{"system":"http://snomed.info/sct","code":"3391000175108","display":"Office visit for pediatric care and assessment (procedure)"}]}],"subject":{"reference":"Patient/bff7264b-35fc-402b-8a15-22c78e227064"},"period":{"start":"2026-01-01T00:00:00.000+00:00","end":"2026-01-01T01:00:00.000+00:00"}},"request":{"method":"PUT","url":"Encounter/6f54cadd-4ac7-4c37-a93d-d57380a5eb2a"}},{"fullUrl":"https://madie.cms.gov/Condition/350a58df-9eb0-4319-bdce-18e674a198d7","resource":{"resourceType":"Condition","id":"350a58df-9eb0-4319-bdce-18e674a198d7","meta":{"profile":["http://hl7.org/fhir/us/qicore/StructureDefinition/qicore-condition-encounter-diagnosis"]},"clinicalStatus":{"coding":[{"system":"http://terminology.hl7.org/CodeSystem/condition-clinical","code":"active"}]},"category":[{"coding":[{"system":"http://terminology.hl7.org/CodeSystem/condition-category","code":"encounter-diagnosis","display":"Encounter Diagnosis"}]}],"code":{"coding":[{"system":"http://snomed.info/sct","code":"371125006","display":"Labile essential hypertension (disorder)"}]},"subject":{"reference":"Patient/bff7264b-35fc-402b-8a15-22c78e227064"},"onsetDateTime":"2026-06-30T23:59:59.000+00:00"},"request":{"method":"PUT","url":"Condition/350a58df-9eb0-4319-bdce-18e674a198d7"}},{"fullUrl":"https://madie.cms.gov/Observation/c32deab5-c238-41b3-99ea-cec686a9dc6a","resource":{"resourceType":"Observation","id":"c32deab5-c238-41b3-99ea-cec686a9dc6a","meta":{"profile":["http://hl7.org/fhir/us/core/StructureDefinition/us-core-blood-pressure"]},"status":"final","category":[{"coding":[{"system":"http://terminology.hl7.org/CodeSystem/observation-category","code":"vital-signs","display":"Vital Signs"}],"text":"Vital Signs"}],"code":{"coding":[{"system":"http://loinc.org","code":"85354-9","display":"Blood pressure panel with all children optional"}]},"subject":{"reference":"Patient/bff7264b-35fc-402b-8a15-22c78e227064"},"encounter":{"reference":"Encounter/6f54cadd-4ac7-4c37-a93d-d57380a5eb2a-1"},"effectiveDateTime":"2026-01-01T00:00:00.000+00:00","component":[{"code":{"coding":[{"system":"http://loinc.org","code":"8480-6","display":"Systolic blood pressure"}]},"valueQuantity":{"value":140,"unit":"mmHg","system":"http://unitsofmeasure.org","code":"mm[Hg]"}},{"code":{"coding":[{"system":"http://loinc.org","code":"8462-4","display":"Diastolic blood pressure"}]},"valueQuantity":{"value":89,"unit":"mmHg","system":"http://unitsofmeasure.org","code":"mm[Hg]"}}]},"request":{"method":"PUT","url":"Observation/c32deab5-c238-41b3-99ea-cec686a9dc6a"}},{"fullUrl":"https://madie.cms.gov/Encounter/6f54cadd-4ac7-4c37-a93d-d57380a5eb2a-1","resource":{"resourceType":"Encounter","id":"6f54cadd-4ac7-4c37-a93d-d57380a5eb2a-1","meta":{"profile":["http://hl7.org/fhir/us/qicore/StructureDefinition/qicore-encounter"]},"status":"finished","class":{"system":"http://terminology.hl7.org/CodeSystem/v3-ActCode","code":"AMB","display":"ambulatory"},"type":[{"coding":[{"system":"http://snomed.info/sct","code":"3391000175108","display":"Office visit for pediatric care and assessment (procedure)"}]}],"subject":{"reference":"Patient/bff7264b-35fc-402b-8a15-22c78e227064"},"period":{"start":"2026-01-01T00:00:00.000+00:00","end":"2026-01-01T01:00:00.000+00:00"}},"request":{"method":"PUT","url":"Encounter/6f54cadd-4ac7-4c37-a93d-d57380a5eb2a-1"}},{"fullUrl":"https://madie.cms.gov/MeasureReport/9f02e690-249d-4ffb-931a-6a5ca338c85e","resource":{"resourceType":"MeasureReport","id":"9f02e690-249d-4ffb-931a-6a5ca338c85e","meta":{"profile":["http://hl7.org/fhir/us/cqfmeasures/StructureDefinition/test-case-cqfm"]},"contained":[{"resourceType":"Parameters","id":"4acb3198-1b28-447f-86e9-f6fcd8bc91f1-parameters","parameter":[{"name":"subject","valueString":"bff7264b-35fc-402b-8a15-22c78e227064"}]}],"extension":[{"url":"http://hl7.org/fhir/StructureDefinition/cqf-inputParameters","valueReference":{"reference":"#4acb3198-1b28-447f-86e9-f6fcd8bc91f1-parameters"}},{"url":"http://hl7.org/fhir/us/cqfmeasures/StructureDefinition/cqfm-testCaseDescription","valueMarkdown":"BP 140/89 during MP"}],"modifierExtension":[{"url":"http://hl7.org/fhir/us/cqfmeasures/StructureDefinition/cqfm-isTestCase","valueBoolean":true}],"status":"complete","type":"individual","measure":"https://madie.cms.gov/Measure/CMS165FHIRControllingHighBloodPressure","period":{"start":"2026-01-01","end":"2026-12-31"},"group":[{"id":"Group_1","population":[{"id":"InitialPopulation_1","code":{"coding":[{"system":"http://terminology.hl7.org/CodeSystem/measure-population","code":"initial-population","display":"Initial Population"}]},"count":1},{"id":"Denominator_1","code":{"coding":[{"system":"http://terminology.hl7.org/CodeSystem/measure-population","code":"denominator","display":"Denominator"}]},"count":1},{"id":"DenominatorExclusion_1","code":{"coding":[{"system":"http://terminology.hl7.org/CodeSystem/measure-population","code":"denominator-exclusion","display":"Denominator Exclusion"}]},"count":0},{"id":"Numerator_1","code":{"coding":[{"system":"http://terminology.hl7.org/CodeSystem/measure-population","code":"numerator","display":"Numerator"}]},"count":0}],"measureScore":{"value":1.0}}],"evaluatedResource":[{"reference":"Patient/bff7264b-35fc-402b-8a15-22c78e227064"},{"reference":"Encounter/6f54cadd-4ac7-4c37-a93d-d57380a5eb2a"},{"reference":"Condition/350a58df-9eb0-4319-bdce-18e674a198d7"},{"reference":"Observation/c32deab5-c238-41b3-99ea-cec686a9dc6a"},{"reference":"Encounter/6f54cadd-4ac7-4c37-a93d-d57380a5eb2a-1"}]},"request":{"method":"PUT","url":"MeasureReport/9f02e690-249d-4ffb-931a-6a5ca338c85e"}}]},"request":{"method":"PUT","url":"Bundle/NUMERFail-SBP140DBP89DuringMP"}}]}