{"resourceType":"Bundle","id":"tests-b378c30b-ebc2-4378-9a75-8a97711cac81-bundle","type":"transaction","entry":[{"resource":{"resourceType":"Patient","id":"b378c30b-ebc2-4378-9a75-8a97711cac81","meta":{"profile":["http://hl7.org/fhir/us/qicore/StructureDefinition/qicore-patient"]},"extension":[{"url":"http://hl7.org/fhir/us/core/StructureDefinition/us-core-race","extension":[{"url":"ombCategory","valueCoding":{"system":"urn:oid:2.16.840.1.113883.6.238","code":"2028-9","display":"Asian"}},{"url":"text","valueString":"Asian"}]},{"url":"http://hl7.org/fhir/us/core/StructureDefinition/us-core-ethnicity","extension":[{"url":"ombCategory","valueCoding":{"system":"urn:oid:2.16.840.1.113883.6.238","code":"2135-2","display":"Hispanic or Latino"}},{"url":"text","valueString":"Hispanic or Latino"}]}],"identifier":[{"system":"http://hospital.smarthealthit.org","value":"999999995"}],"name":[{"family":"DENEXFail","given":["LastHousingStatusNotNursingHome"]}],"gender":"female","birthDate":"1959-12-31"},"request":{"method":"PUT","url":"Patient/b378c30b-ebc2-4378-9a75-8a97711cac81"}},{"resource":{"resourceType":"Encounter","id":"1191d9ce-a5a5-4f2e-8875-dd6c1373b768","meta":{"profile":["http://hl7.org/fhir/us/qicore/StructureDefinition/qicore-encounter"]},"status":"finished","class":{"system":"http://terminology.hl7.org/CodeSystem/v3-ActCode","code":"AMB","display":"ambulatory"},"type":[{"coding":[{"system":"http://snomed.info/sct","code":"3391000175108","display":"Office visit for pediatric care and assessment (procedure)"}]}],"subject":{"reference":"Patient/b378c30b-ebc2-4378-9a75-8a97711cac81"},"period":{"start":"2026-01-01T00:00:00.000+00:00","end":"2026-01-01T01:00:00.000+00:00"}},"request":{"method":"PUT","url":"Encounter/1191d9ce-a5a5-4f2e-8875-dd6c1373b768"}},{"resource":{"resourceType":"Bundle","id":"DENEXFail-LastHousingStatusNotNursingHome","type":"transaction","entry":[{"fullUrl":"https://madie.cms.gov/Patient/b378c30b-ebc2-4378-9a75-8a97711cac81","resource":{"resourceType":"Patient","id":"b378c30b-ebc2-4378-9a75-8a97711cac81","meta":{"profile":["http://hl7.org/fhir/us/qicore/StructureDefinition/qicore-patient"]},"extension":[{"url":"http://hl7.org/fhir/us/core/StructureDefinition/us-core-race","extension":[{"url":"ombCategory","valueCoding":{"system":"urn:oid:2.16.840.1.113883.6.238","code":"2028-9","display":"Asian"}},{"url":"text","valueString":"Asian"}]},{"url":"http://hl7.org/fhir/us/core/StructureDefinition/us-core-ethnicity","extension":[{"url":"ombCategory","valueCoding":{"system":"urn:oid:2.16.840.1.113883.6.238","code":"2135-2","display":"Hispanic or Latino"}},{"url":"text","valueString":"Hispanic or Latino"}]}],"identifier":[{"system":"http://hospital.smarthealthit.org","value":"999999995"}],"name":[{"family":"DENEXFail","given":["LastHousingStatusNotNursingHome"]}],"gender":"female","birthDate":"1959-12-31"},"request":{"method":"PUT","url":"Patient/b378c30b-ebc2-4378-9a75-8a97711cac81"}},{"fullUrl":"https://madie.cms.gov/Encounter/1191d9ce-a5a5-4f2e-8875-dd6c1373b768","resource":{"resourceType":"Encounter","id":"1191d9ce-a5a5-4f2e-8875-dd6c1373b768","meta":{"profile":["http://hl7.org/fhir/us/qicore/StructureDefinition/qicore-encounter"]},"status":"finished","class":{"system":"http://terminology.hl7.org/CodeSystem/v3-ActCode","code":"AMB","display":"ambulatory"},"type":[{"coding":[{"system":"http://snomed.info/sct","code":"3391000175108","display":"Office visit for pediatric care and assessment (procedure)"}]}],"subject":{"reference":"Patient/b378c30b-ebc2-4378-9a75-8a97711cac81"},"period":{"start":"2026-01-01T00:00:00.000+00:00","end":"2026-01-01T01:00:00.000+00:00"}},"request":{"method":"PUT","url":"Encounter/1191d9ce-a5a5-4f2e-8875-dd6c1373b768"}},{"fullUrl":"https://madie.cms.gov/Condition/4db42f54-c99b-46ef-bd2f-5c29c28ff69b","resource":{"resourceType":"Condition","id":"4db42f54-c99b-46ef-bd2f-5c29c28ff69b","meta":{"profile":["http://hl7.org/fhir/us/qicore/StructureDefinition/qicore-condition-encounter-diagnosis"]},"clinicalStatus":{"coding":[{"system":"http://terminology.hl7.org/CodeSystem/condition-clinical","code":"active"}]},"category":[{"coding":[{"system":"http://terminology.hl7.org/CodeSystem/condition-category","code":"encounter-diagnosis","display":"Encounter Diagnosis"}]}],"code":{"coding":[{"system":"http://snomed.info/sct","code":"371125006","display":"Labile essential hypertension (disorder)"}]},"subject":{"reference":"Patient/b378c30b-ebc2-4378-9a75-8a97711cac81"},"onsetDateTime":"2026-06-30T23:59:59.000+00:00"},"request":{"method":"PUT","url":"Condition/4db42f54-c99b-46ef-bd2f-5c29c28ff69b"}},{"fullUrl":"https://madie.cms.gov/Observation/b042dfee-d08f-4fcf-8a05-9557391fa116","resource":{"resourceType":"Observation","id":"b042dfee-d08f-4fcf-8a05-9557391fa116","meta":{"profile":["http://hl7.org/fhir/us/qicore/StructureDefinition/qicore-observation-screening-assessment"]},"status":"final","category":[{"coding":[{"system":"http://terminology.hl7.org/CodeSystem/observation-category","code":"survey"}]}],"code":{"coding":[{"system":"http://loinc.org","code":"71802-3","display":"Housing status"}]},"subject":{"reference":"Patient/b378c30b-ebc2-4378-9a75-8a97711cac81"},"effectivePeriod":{"start":"2025-12-31T00:00:00.000+00:00","end":"2026-01-01T00:00:00.000+00:00"},"valueCodeableConcept":{"coding":[{"system":"http://snomed.info/sct","code":"160943002","display":"Lives in own home"}]}},"request":{"method":"PUT","url":"Observation/b042dfee-d08f-4fcf-8a05-9557391fa116"}},{"fullUrl":"https://madie.cms.gov/MeasureReport/9ccaa808-0a78-4d26-8eff-29b3130a1ede","resource":{"resourceType":"MeasureReport","id":"9ccaa808-0a78-4d26-8eff-29b3130a1ede","meta":{"profile":["http://hl7.org/fhir/us/cqfmeasures/StructureDefinition/test-case-cqfm"]},"contained":[{"resourceType":"Parameters","id":"047a7881-3842-4b55-82be-feb0dce456c2-parameters","parameter":[{"name":"subject","valueString":"b378c30b-ebc2-4378-9a75-8a97711cac81"}]}],"extension":[{"url":"http://hl7.org/fhir/StructureDefinition/cqf-inputParameters","valueReference":{"reference":"#047a7881-3842-4b55-82be-feb0dce456c2-parameters"}},{"url":"http://hl7.org/fhir/us/cqfmeasures/StructureDefinition/cqfm-testCaseDescription","valueMarkdown":"Last housing status not nursing home"}],"modifierExtension":[{"url":"http://hl7.org/fhir/us/cqfmeasures/StructureDefinition/cqfm-isTestCase","valueBoolean":true}],"status":"complete","type":"individual","measure":"https://madie.cms.gov/Measure/CMS165FHIRControllingHighBloodPressure","period":{"start":"2026-01-01","end":"2026-12-31"},"group":[{"id":"Group_1","population":[{"id":"InitialPopulation_1","code":{"coding":[{"system":"http://terminology.hl7.org/CodeSystem/measure-population","code":"initial-population","display":"Initial Population"}]},"count":1},{"id":"Denominator_1","code":{"coding":[{"system":"http://terminology.hl7.org/CodeSystem/measure-population","code":"denominator","display":"Denominator"}]},"count":1},{"id":"DenominatorExclusion_1","code":{"coding":[{"system":"http://terminology.hl7.org/CodeSystem/measure-population","code":"denominator-exclusion","display":"Denominator Exclusion"}]},"count":0},{"id":"Numerator_1","code":{"coding":[{"system":"http://terminology.hl7.org/CodeSystem/measure-population","code":"numerator","display":"Numerator"}]},"count":0}],"measureScore":{"value":1.0}}],"evaluatedResource":[{"reference":"Patient/b378c30b-ebc2-4378-9a75-8a97711cac81"},{"reference":"Encounter/1191d9ce-a5a5-4f2e-8875-dd6c1373b768"},{"reference":"Condition/4db42f54-c99b-46ef-bd2f-5c29c28ff69b"},{"reference":"Observation/b042dfee-d08f-4fcf-8a05-9557391fa116"}]},"request":{"method":"PUT","url":"MeasureReport/9ccaa808-0a78-4d26-8eff-29b3130a1ede"}}]},"request":{"method":"PUT","url":"Bundle/DENEXFail-LastHousingStatusNotNursingHome"}},{"resource":{"resourceType":"MeasureReport","id":"9ccaa808-0a78-4d26-8eff-29b3130a1ede","meta":{"profile":["http://hl7.org/fhir/us/cqfmeasures/StructureDefinition/test-case-cqfm"]},"contained":[{"resourceType":"Parameters","id":"047a7881-3842-4b55-82be-feb0dce456c2-parameters","parameter":[{"name":"subject","valueString":"b378c30b-ebc2-4378-9a75-8a97711cac81"}]}],"extension":[{"url":"http://hl7.org/fhir/StructureDefinition/cqf-inputParameters","valueReference":{"reference":"#047a7881-3842-4b55-82be-feb0dce456c2-parameters"}},{"url":"http://hl7.org/fhir/us/cqfmeasures/StructureDefinition/cqfm-testCaseDescription","valueMarkdown":"Last housing status not nursing home"}],"modifierExtension":[{"url":"http://hl7.org/fhir/us/cqfmeasures/StructureDefinition/cqfm-isTestCase","valueBoolean":true}],"status":"complete","type":"individual","measure":"https://madie.cms.gov/Measure/CMS165FHIRControllingHighBloodPressure","period":{"start":"2026-01-01","end":"2026-12-31"},"group":[{"id":"Group_1","population":[{"id":"InitialPopulation_1","code":{"coding":[{"system":"http://terminology.hl7.org/CodeSystem/measure-population","code":"initial-population","display":"Initial Population"}]},"count":1},{"id":"Denominator_1","code":{"coding":[{"system":"http://terminology.hl7.org/CodeSystem/measure-population","code":"denominator","display":"Denominator"}]},"count":1},{"id":"DenominatorExclusion_1","code":{"coding":[{"system":"http://terminology.hl7.org/CodeSystem/measure-population","code":"denominator-exclusion","display":"Denominator Exclusion"}]},"count":0},{"id":"Numerator_1","code":{"coding":[{"system":"http://terminology.hl7.org/CodeSystem/measure-population","code":"numerator","display":"Numerator"}]},"count":0}],"measureScore":{"value":1.0}}],"evaluatedResource":[{"reference":"Patient/b378c30b-ebc2-4378-9a75-8a97711cac81"},{"reference":"Encounter/1191d9ce-a5a5-4f2e-8875-dd6c1373b768"},{"reference":"Condition/4db42f54-c99b-46ef-bd2f-5c29c28ff69b"},{"reference":"Observation/b042dfee-d08f-4fcf-8a05-9557391fa116"}]},"request":{"method":"PUT","url":"MeasureReport/9ccaa808-0a78-4d26-8eff-29b3130a1ede"}},{"resource":{"resourceType":"Condition","id":"4db42f54-c99b-46ef-bd2f-5c29c28ff69b","meta":{"profile":["http://hl7.org/fhir/us/qicore/StructureDefinition/qicore-condition-encounter-diagnosis"]},"clinicalStatus":{"coding":[{"system":"http://terminology.hl7.org/CodeSystem/condition-clinical","code":"active"}]},"category":[{"coding":[{"system":"http://terminology.hl7.org/CodeSystem/condition-category","code":"encounter-diagnosis","display":"Encounter Diagnosis"}]}],"code":{"coding":[{"system":"http://snomed.info/sct","code":"371125006","display":"Labile essential hypertension (disorder)"}]},"subject":{"reference":"Patient/b378c30b-ebc2-4378-9a75-8a97711cac81"},"onsetDateTime":"2026-06-30T23:59:59.000+00:00"},"request":{"method":"PUT","url":"Condition/4db42f54-c99b-46ef-bd2f-5c29c28ff69b"}},{"resource":{"resourceType":"Observation","id":"b042dfee-d08f-4fcf-8a05-9557391fa116","meta":{"profile":["http://hl7.org/fhir/us/qicore/StructureDefinition/qicore-observation-screening-assessment"]},"status":"final","category":[{"coding":[{"system":"http://terminology.hl7.org/CodeSystem/observation-category","code":"survey"}]}],"code":{"coding":[{"system":"http://loinc.org","code":"71802-3","display":"Housing status"}]},"subject":{"reference":"Patient/b378c30b-ebc2-4378-9a75-8a97711cac81"},"effectivePeriod":{"start":"2025-12-31T00:00:00.000+00:00","end":"2026-01-01T00:00:00.000+00:00"},"valueCodeableConcept":{"coding":[{"system":"http://snomed.info/sct","code":"160943002","display":"Lives in own home"}]}},"request":{"method":"PUT","url":"Observation/b042dfee-d08f-4fcf-8a05-9557391fa116"}}]}