{"resourceType":"Bundle","id":"tests-aa1f02c0-ded0-4b30-9f0d-c8be54aa436b-bundle","type":"transaction","entry":[{"resource":{"resourceType":"Observation","id":"4b6b6941-522a-40eb-b744-a44db5c2926c","meta":{"profile":["http://hl7.org/fhir/us/qicore/StructureDefinition/qicore-observation-screening-assessment"]},"status":"final","category":[{"coding":[{"system":"http://terminology.hl7.org/CodeSystem/observation-category","code":"survey"}]}],"code":{"coding":[{"system":"http://loinc.org","code":"71007-9","display":"Functional Assessment of Chronic Illness Therapy - Palliative Care Questionnaire (FACIT-Pal)"}]},"subject":{"reference":"Patient/aa1f02c0-ded0-4b30-9f0d-c8be54aa436b"},"effectivePeriod":{"start":"2025-12-31T00:00:00.000+00:00","end":"2026-01-01T00:00:00.000+00:00"},"valueCodeableConcept":{"coding":[{"system":"http://snomed.info/sct","code":"373066001","display":"Yes (qualifier value)"}]}},"request":{"method":"PUT","url":"Observation/4b6b6941-522a-40eb-b744-a44db5c2926c"}},{"resource":{"resourceType":"Encounter","id":"419e19b8-c4f5-4243-9b89-0291701cfc44","meta":{"profile":["http://hl7.org/fhir/us/qicore/StructureDefinition/qicore-encounter"]},"status":"finished","class":{"system":"http://terminology.hl7.org/CodeSystem/v3-ActCode","code":"AMB","display":"ambulatory"},"type":[{"coding":[{"system":"http://snomed.info/sct","code":"3391000175108","display":"Office visit for pediatric care and assessment (procedure)"}]}],"subject":{"reference":"Patient/aa1f02c0-ded0-4b30-9f0d-c8be54aa436b"},"period":{"start":"2026-01-01T00:00:00.000+00:00","end":"2026-01-01T01:00:00.000+00:00"}},"request":{"method":"PUT","url":"Encounter/419e19b8-c4f5-4243-9b89-0291701cfc44"}},{"resource":{"resourceType":"MeasureReport","id":"384ec5e0-7477-4e09-a239-3c4f3f4e7420","meta":{"profile":["http://hl7.org/fhir/us/cqfmeasures/StructureDefinition/test-case-cqfm"]},"contained":[{"resourceType":"Parameters","id":"1a2ab9b7-347a-411d-8c2a-1208b683e78e-parameters","parameter":[{"name":"subject","valueString":"aa1f02c0-ded0-4b30-9f0d-c8be54aa436b"}]}],"extension":[{"url":"http://hl7.org/fhir/StructureDefinition/cqf-inputParameters","valueReference":{"reference":"#1a2ab9b7-347a-411d-8c2a-1208b683e78e-parameters"}},{"url":"http://hl7.org/fhir/us/cqfmeasures/StructureDefinition/cqfm-testCaseDescription","valueMarkdown":"Palliative care survey overlaps before MP"}],"modifierExtension":[{"url":"http://hl7.org/fhir/us/cqfmeasures/StructureDefinition/cqfm-isTestCase","valueBoolean":true}],"status":"complete","type":"individual","measure":"https://madie.cms.gov/Measure/CMS165FHIRControllingHighBloodPressure","period":{"start":"2026-01-01","end":"2026-12-31"},"group":[{"id":"Group_1","population":[{"id":"InitialPopulation_1","code":{"coding":[{"system":"http://terminology.hl7.org/CodeSystem/measure-population","code":"initial-population","display":"Initial Population"}]},"count":1},{"id":"Denominator_1","code":{"coding":[{"system":"http://terminology.hl7.org/CodeSystem/measure-population","code":"denominator","display":"Denominator"}]},"count":1},{"id":"DenominatorExclusion_1","code":{"coding":[{"system":"http://terminology.hl7.org/CodeSystem/measure-population","code":"denominator-exclusion","display":"Denominator Exclusion"}]},"count":1},{"id":"Numerator_1","code":{"coding":[{"system":"http://terminology.hl7.org/CodeSystem/measure-population","code":"numerator","display":"Numerator"}]},"count":0}],"measureScore":{"value":1.0}}],"evaluatedResource":[{"reference":"Patient/aa1f02c0-ded0-4b30-9f0d-c8be54aa436b"},{"reference":"Encounter/419e19b8-c4f5-4243-9b89-0291701cfc44"},{"reference":"Condition/b19e0f29-e7b9-4325-982f-170b061a0f28"},{"reference":"Observation/4b6b6941-522a-40eb-b744-a44db5c2926c"}]},"request":{"method":"PUT","url":"MeasureReport/384ec5e0-7477-4e09-a239-3c4f3f4e7420"}},{"resource":{"resourceType":"Condition","id":"b19e0f29-e7b9-4325-982f-170b061a0f28","meta":{"profile":["http://hl7.org/fhir/us/qicore/StructureDefinition/qicore-condition-problems-health-concerns"]},"clinicalStatus":{"coding":[{"system":"http://terminology.hl7.org/CodeSystem/condition-clinical","code":"active"}]},"category":[{"coding":[{"system":"http://terminology.hl7.org/CodeSystem/condition-category","code":"problem-list-item","display":"Problem List Item"}]}],"code":{"coding":[{"system":"http://snomed.info/sct","code":"371125006","display":"Labile essential hypertension (disorder)"}]},"subject":{"reference":"Patient/aa1f02c0-ded0-4b30-9f0d-c8be54aa436b"},"onsetDateTime":"2026-06-30T23:59:59.000+00:00"},"request":{"method":"PUT","url":"Condition/b19e0f29-e7b9-4325-982f-170b061a0f28"}},{"resource":{"resourceType":"Bundle","id":"DENEXPass-PalliativeCareSurveyOverlapsB4MP","type":"transaction","entry":[{"fullUrl":"https://madie.cms.gov/Patient/aa1f02c0-ded0-4b30-9f0d-c8be54aa436b","resource":{"resourceType":"Patient","id":"aa1f02c0-ded0-4b30-9f0d-c8be54aa436b","meta":{"profile":["http://hl7.org/fhir/us/qicore/StructureDefinition/qicore-patient"]},"extension":[{"url":"http://hl7.org/fhir/us/core/StructureDefinition/us-core-race","extension":[{"url":"ombCategory","valueCoding":{"system":"urn:oid:2.16.840.1.113883.6.238","code":"2028-9","display":"Asian"}},{"url":"text","valueString":"Asian"}]},{"url":"http://hl7.org/fhir/us/core/StructureDefinition/us-core-ethnicity","extension":[{"url":"ombCategory","valueCoding":{"system":"urn:oid:2.16.840.1.113883.6.238","code":"2135-2","display":"Hispanic or Latino"}},{"url":"text","valueString":"Hispanic or Latino"}]}],"identifier":[{"system":"http://hospital.smarthealthit.org","value":"999999995"}],"name":[{"family":"DENEXPass","given":["PalliativeCareSurveyOverlapsB4MP"]}],"gender":"female","birthDate":"2007-12-31"},"request":{"method":"PUT","url":"Patient/aa1f02c0-ded0-4b30-9f0d-c8be54aa436b"}},{"fullUrl":"https://madie.cms.gov/Encounter/419e19b8-c4f5-4243-9b89-0291701cfc44","resource":{"resourceType":"Encounter","id":"419e19b8-c4f5-4243-9b89-0291701cfc44","meta":{"profile":["http://hl7.org/fhir/us/qicore/StructureDefinition/qicore-encounter"]},"status":"finished","class":{"system":"http://terminology.hl7.org/CodeSystem/v3-ActCode","code":"AMB","display":"ambulatory"},"type":[{"coding":[{"system":"http://snomed.info/sct","code":"3391000175108","display":"Office visit for pediatric care and assessment (procedure)"}]}],"subject":{"reference":"Patient/aa1f02c0-ded0-4b30-9f0d-c8be54aa436b"},"period":{"start":"2026-01-01T00:00:00.000+00:00","end":"2026-01-01T01:00:00.000+00:00"}},"request":{"method":"PUT","url":"Encounter/419e19b8-c4f5-4243-9b89-0291701cfc44"}},{"fullUrl":"https://madie.cms.gov/Condition/b19e0f29-e7b9-4325-982f-170b061a0f28","resource":{"resourceType":"Condition","id":"b19e0f29-e7b9-4325-982f-170b061a0f28","meta":{"profile":["http://hl7.org/fhir/us/qicore/StructureDefinition/qicore-condition-problems-health-concerns"]},"clinicalStatus":{"coding":[{"system":"http://terminology.hl7.org/CodeSystem/condition-clinical","code":"active"}]},"category":[{"coding":[{"system":"http://terminology.hl7.org/CodeSystem/condition-category","code":"problem-list-item","display":"Problem List Item"}]}],"code":{"coding":[{"system":"http://snomed.info/sct","code":"371125006","display":"Labile essential hypertension (disorder)"}]},"subject":{"reference":"Patient/aa1f02c0-ded0-4b30-9f0d-c8be54aa436b"},"onsetDateTime":"2026-06-30T23:59:59.000+00:00"},"request":{"method":"PUT","url":"Condition/b19e0f29-e7b9-4325-982f-170b061a0f28"}},{"fullUrl":"https://madie.cms.gov/Observation/4b6b6941-522a-40eb-b744-a44db5c2926c","resource":{"resourceType":"Observation","id":"4b6b6941-522a-40eb-b744-a44db5c2926c","meta":{"profile":["http://hl7.org/fhir/us/qicore/StructureDefinition/qicore-observation-screening-assessment"]},"status":"final","category":[{"coding":[{"system":"http://terminology.hl7.org/CodeSystem/observation-category","code":"survey"}]}],"code":{"coding":[{"system":"http://loinc.org","code":"71007-9","display":"Functional Assessment of Chronic Illness Therapy - Palliative Care Questionnaire (FACIT-Pal)"}]},"subject":{"reference":"Patient/aa1f02c0-ded0-4b30-9f0d-c8be54aa436b"},"effectivePeriod":{"start":"2025-12-31T00:00:00.000+00:00","end":"2026-01-01T00:00:00.000+00:00"},"valueCodeableConcept":{"coding":[{"system":"http://snomed.info/sct","code":"373066001","display":"Yes (qualifier value)"}]}},"request":{"method":"PUT","url":"Observation/4b6b6941-522a-40eb-b744-a44db5c2926c"}},{"fullUrl":"https://madie.cms.gov/MeasureReport/384ec5e0-7477-4e09-a239-3c4f3f4e7420","resource":{"resourceType":"MeasureReport","id":"384ec5e0-7477-4e09-a239-3c4f3f4e7420","meta":{"profile":["http://hl7.org/fhir/us/cqfmeasures/StructureDefinition/test-case-cqfm"]},"contained":[{"resourceType":"Parameters","id":"1a2ab9b7-347a-411d-8c2a-1208b683e78e-parameters","parameter":[{"name":"subject","valueString":"aa1f02c0-ded0-4b30-9f0d-c8be54aa436b"}]}],"extension":[{"url":"http://hl7.org/fhir/StructureDefinition/cqf-inputParameters","valueReference":{"reference":"#1a2ab9b7-347a-411d-8c2a-1208b683e78e-parameters"}},{"url":"http://hl7.org/fhir/us/cqfmeasures/StructureDefinition/cqfm-testCaseDescription","valueMarkdown":"Palliative care survey overlaps before MP"}],"modifierExtension":[{"url":"http://hl7.org/fhir/us/cqfmeasures/StructureDefinition/cqfm-isTestCase","valueBoolean":true}],"status":"complete","type":"individual","measure":"https://madie.cms.gov/Measure/CMS165FHIRControllingHighBloodPressure","period":{"start":"2026-01-01","end":"2026-12-31"},"group":[{"id":"Group_1","population":[{"id":"InitialPopulation_1","code":{"coding":[{"system":"http://terminology.hl7.org/CodeSystem/measure-population","code":"initial-population","display":"Initial Population"}]},"count":1},{"id":"Denominator_1","code":{"coding":[{"system":"http://terminology.hl7.org/CodeSystem/measure-population","code":"denominator","display":"Denominator"}]},"count":1},{"id":"DenominatorExclusion_1","code":{"coding":[{"system":"http://terminology.hl7.org/CodeSystem/measure-population","code":"denominator-exclusion","display":"Denominator Exclusion"}]},"count":1},{"id":"Numerator_1","code":{"coding":[{"system":"http://terminology.hl7.org/CodeSystem/measure-population","code":"numerator","display":"Numerator"}]},"count":0}],"measureScore":{"value":1.0}}],"evaluatedResource":[{"reference":"Patient/aa1f02c0-ded0-4b30-9f0d-c8be54aa436b"},{"reference":"Encounter/419e19b8-c4f5-4243-9b89-0291701cfc44"},{"reference":"Condition/b19e0f29-e7b9-4325-982f-170b061a0f28"},{"reference":"Observation/4b6b6941-522a-40eb-b744-a44db5c2926c"}]},"request":{"method":"PUT","url":"MeasureReport/384ec5e0-7477-4e09-a239-3c4f3f4e7420"}}]},"request":{"method":"PUT","url":"Bundle/DENEXPass-PalliativeCareSurveyOverlapsB4MP"}},{"resource":{"resourceType":"Patient","id":"aa1f02c0-ded0-4b30-9f0d-c8be54aa436b","meta":{"profile":["http://hl7.org/fhir/us/qicore/StructureDefinition/qicore-patient"]},"extension":[{"url":"http://hl7.org/fhir/us/core/StructureDefinition/us-core-race","extension":[{"url":"ombCategory","valueCoding":{"system":"urn:oid:2.16.840.1.113883.6.238","code":"2028-9","display":"Asian"}},{"url":"text","valueString":"Asian"}]},{"url":"http://hl7.org/fhir/us/core/StructureDefinition/us-core-ethnicity","extension":[{"url":"ombCategory","valueCoding":{"system":"urn:oid:2.16.840.1.113883.6.238","code":"2135-2","display":"Hispanic or Latino"}},{"url":"text","valueString":"Hispanic or Latino"}]}],"identifier":[{"system":"http://hospital.smarthealthit.org","value":"999999995"}],"name":[{"family":"DENEXPass","given":["PalliativeCareSurveyOverlapsB4MP"]}],"gender":"female","birthDate":"2007-12-31"},"request":{"method":"PUT","url":"Patient/aa1f02c0-ded0-4b30-9f0d-c8be54aa436b"}}]}