{"resourceType":"Bundle","id":"tests-0e045de9-dd14-461d-b7b9-aac287fb8e70-bundle","type":"transaction","entry":[{"resource":{"resourceType":"Patient","id":"0e045de9-dd14-461d-b7b9-aac287fb8e70","meta":{"profile":["http://hl7.org/fhir/us/qicore/StructureDefinition/qicore-patient"]},"extension":[{"url":"http://hl7.org/fhir/us/core/StructureDefinition/us-core-race","extension":[{"url":"ombCategory","valueCoding":{"system":"urn:oid:2.16.840.1.113883.6.238","code":"2028-9","display":"Asian"}},{"url":"text","valueString":"Asian"}]},{"url":"http://hl7.org/fhir/us/core/StructureDefinition/us-core-ethnicity","extension":[{"url":"ombCategory","valueCoding":{"system":"urn:oid:2.16.840.1.113883.6.238","code":"2135-2","display":"Hispanic or Latino"}},{"url":"text","valueString":"Hispanic or Latino"}]}],"identifier":[{"system":"http://hospital.smarthealthit.org","value":"999999995"}],"name":[{"family":"DENEXPass","given":["ESRDDxDuringMP"]}],"gender":"female","birthDate":"2007-12-31"},"request":{"method":"PUT","url":"Patient/0e045de9-dd14-461d-b7b9-aac287fb8e70"}},{"resource":{"resourceType":"Encounter","id":"44273689-cb24-432a-b7d2-9a17a7f91095","meta":{"profile":["http://hl7.org/fhir/us/qicore/StructureDefinition/qicore-encounter"]},"status":"finished","class":{"system":"http://terminology.hl7.org/CodeSystem/v3-ActCode","code":"AMB","display":"ambulatory"},"type":[{"coding":[{"system":"http://snomed.info/sct","code":"3391000175108","display":"Office visit for pediatric care and assessment (procedure)"}]}],"subject":{"reference":"Patient/0e045de9-dd14-461d-b7b9-aac287fb8e70"},"period":{"start":"2026-01-01T00:00:00.000+00:00","end":"2026-01-01T01:00:00.000+00:00"}},"request":{"method":"PUT","url":"Encounter/44273689-cb24-432a-b7d2-9a17a7f91095"}},{"resource":{"resourceType":"MeasureReport","id":"24c8ca84-4ae3-48e1-90c5-4134456ad6c7","meta":{"profile":["http://hl7.org/fhir/us/cqfmeasures/StructureDefinition/test-case-cqfm"]},"contained":[{"resourceType":"Parameters","id":"9bc58fc0-6f7c-4222-b770-f54fe8f4cd04-parameters","parameter":[{"name":"subject","valueString":"0e045de9-dd14-461d-b7b9-aac287fb8e70"}]}],"extension":[{"url":"http://hl7.org/fhir/StructureDefinition/cqf-inputParameters","valueReference":{"reference":"#9bc58fc0-6f7c-4222-b770-f54fe8f4cd04-parameters"}},{"url":"http://hl7.org/fhir/us/cqfmeasures/StructureDefinition/cqfm-testCaseDescription","valueMarkdown":"ESRD diagnosis during MP - ConditionProblemsHealthConcerns"}],"modifierExtension":[{"url":"http://hl7.org/fhir/us/cqfmeasures/StructureDefinition/cqfm-isTestCase","valueBoolean":true}],"status":"complete","type":"individual","measure":"https://madie.cms.gov/Measure/CMS165FHIRControllingHighBloodPressure","period":{"start":"2026-01-01","end":"2026-12-31"},"group":[{"id":"Group_1","population":[{"id":"InitialPopulation_1","code":{"coding":[{"system":"http://terminology.hl7.org/CodeSystem/measure-population","code":"initial-population","display":"Initial Population"}]},"count":1},{"id":"Denominator_1","code":{"coding":[{"system":"http://terminology.hl7.org/CodeSystem/measure-population","code":"denominator","display":"Denominator"}]},"count":1},{"id":"DenominatorExclusion_1","code":{"coding":[{"system":"http://terminology.hl7.org/CodeSystem/measure-population","code":"denominator-exclusion","display":"Denominator Exclusion"}]},"count":1},{"id":"Numerator_1","code":{"coding":[{"system":"http://terminology.hl7.org/CodeSystem/measure-population","code":"numerator","display":"Numerator"}]},"count":0}],"measureScore":{"value":1.0}}],"evaluatedResource":[{"reference":"Patient/0e045de9-dd14-461d-b7b9-aac287fb8e70"},{"reference":"Encounter/44273689-cb24-432a-b7d2-9a17a7f91095"},{"reference":"Condition/fc15cbe2-dbcd-4740-9929-1ec25edf62b4"},{"reference":"Condition/3dddefb9-c980-4b5c-b6a6-5eef45280c17"}]},"request":{"method":"PUT","url":"MeasureReport/24c8ca84-4ae3-48e1-90c5-4134456ad6c7"}},{"resource":{"resourceType":"Condition","id":"fc15cbe2-dbcd-4740-9929-1ec25edf62b4","meta":{"profile":["http://hl7.org/fhir/us/qicore/StructureDefinition/qicore-condition-problems-health-concerns"]},"clinicalStatus":{"coding":[{"system":"http://terminology.hl7.org/CodeSystem/condition-clinical","code":"active"}]},"category":[{"coding":[{"system":"http://terminology.hl7.org/CodeSystem/condition-category","code":"problem-list-item","display":"Problem List Item"}]}],"code":{"coding":[{"system":"http://snomed.info/sct","code":"371125006","display":"Labile essential hypertension (disorder)"}]},"subject":{"reference":"Patient/0e045de9-dd14-461d-b7b9-aac287fb8e70"},"onsetDateTime":"2026-06-30T23:59:59.000+00:00"},"request":{"method":"PUT","url":"Condition/fc15cbe2-dbcd-4740-9929-1ec25edf62b4"}},{"resource":{"resourceType":"Condition","id":"3dddefb9-c980-4b5c-b6a6-5eef45280c17","meta":{"profile":["http://hl7.org/fhir/us/qicore/StructureDefinition/qicore-condition-problems-health-concerns"]},"clinicalStatus":{"coding":[{"system":"http://terminology.hl7.org/CodeSystem/condition-clinical","code":"active"}]},"category":[{"coding":[{"system":"http://terminology.hl7.org/CodeSystem/condition-category","code":"problem-list-item","display":"Problem List Item"}]}],"code":{"coding":[{"system":"http://hl7.org/fhir/sid/icd-10-cm","code":"N18.6","display":"End stage renal disease"}]},"subject":{"reference":"Patient/0e045de9-dd14-461d-b7b9-aac287fb8e70"},"onsetDateTime":"2026-06-30T23:59:59.000+00:00"},"request":{"method":"PUT","url":"Condition/3dddefb9-c980-4b5c-b6a6-5eef45280c17"}},{"resource":{"resourceType":"Bundle","id":"DENEXPass-ESRDDxDuringMP","type":"transaction","entry":[{"fullUrl":"https://madie.cms.gov/Patient/0e045de9-dd14-461d-b7b9-aac287fb8e70","resource":{"resourceType":"Patient","id":"0e045de9-dd14-461d-b7b9-aac287fb8e70","meta":{"profile":["http://hl7.org/fhir/us/qicore/StructureDefinition/qicore-patient"]},"extension":[{"url":"http://hl7.org/fhir/us/core/StructureDefinition/us-core-race","extension":[{"url":"ombCategory","valueCoding":{"system":"urn:oid:2.16.840.1.113883.6.238","code":"2028-9","display":"Asian"}},{"url":"text","valueString":"Asian"}]},{"url":"http://hl7.org/fhir/us/core/StructureDefinition/us-core-ethnicity","extension":[{"url":"ombCategory","valueCoding":{"system":"urn:oid:2.16.840.1.113883.6.238","code":"2135-2","display":"Hispanic or Latino"}},{"url":"text","valueString":"Hispanic or Latino"}]}],"identifier":[{"system":"http://hospital.smarthealthit.org","value":"999999995"}],"name":[{"family":"DENEXPass","given":["ESRDDxDuringMP"]}],"gender":"female","birthDate":"2007-12-31"},"request":{"method":"PUT","url":"Patient/0e045de9-dd14-461d-b7b9-aac287fb8e70"}},{"fullUrl":"https://madie.cms.gov/Encounter/44273689-cb24-432a-b7d2-9a17a7f91095","resource":{"resourceType":"Encounter","id":"44273689-cb24-432a-b7d2-9a17a7f91095","meta":{"profile":["http://hl7.org/fhir/us/qicore/StructureDefinition/qicore-encounter"]},"status":"finished","class":{"system":"http://terminology.hl7.org/CodeSystem/v3-ActCode","code":"AMB","display":"ambulatory"},"type":[{"coding":[{"system":"http://snomed.info/sct","code":"3391000175108","display":"Office visit for pediatric care and assessment (procedure)"}]}],"subject":{"reference":"Patient/0e045de9-dd14-461d-b7b9-aac287fb8e70"},"period":{"start":"2026-01-01T00:00:00.000+00:00","end":"2026-01-01T01:00:00.000+00:00"}},"request":{"method":"PUT","url":"Encounter/44273689-cb24-432a-b7d2-9a17a7f91095"}},{"fullUrl":"https://madie.cms.gov/Condition/fc15cbe2-dbcd-4740-9929-1ec25edf62b4","resource":{"resourceType":"Condition","id":"fc15cbe2-dbcd-4740-9929-1ec25edf62b4","meta":{"profile":["http://hl7.org/fhir/us/qicore/StructureDefinition/qicore-condition-problems-health-concerns"]},"clinicalStatus":{"coding":[{"system":"http://terminology.hl7.org/CodeSystem/condition-clinical","code":"active"}]},"category":[{"coding":[{"system":"http://terminology.hl7.org/CodeSystem/condition-category","code":"problem-list-item","display":"Problem List Item"}]}],"code":{"coding":[{"system":"http://snomed.info/sct","code":"371125006","display":"Labile essential hypertension (disorder)"}]},"subject":{"reference":"Patient/0e045de9-dd14-461d-b7b9-aac287fb8e70"},"onsetDateTime":"2026-06-30T23:59:59.000+00:00"},"request":{"method":"PUT","url":"Condition/fc15cbe2-dbcd-4740-9929-1ec25edf62b4"}},{"fullUrl":"https://madie.cms.gov/Condition/3dddefb9-c980-4b5c-b6a6-5eef45280c17","resource":{"resourceType":"Condition","id":"3dddefb9-c980-4b5c-b6a6-5eef45280c17","meta":{"profile":["http://hl7.org/fhir/us/qicore/StructureDefinition/qicore-condition-problems-health-concerns"]},"clinicalStatus":{"coding":[{"system":"http://terminology.hl7.org/CodeSystem/condition-clinical","code":"active"}]},"category":[{"coding":[{"system":"http://terminology.hl7.org/CodeSystem/condition-category","code":"problem-list-item","display":"Problem List Item"}]}],"code":{"coding":[{"system":"http://hl7.org/fhir/sid/icd-10-cm","code":"N18.6","display":"End stage renal disease"}]},"subject":{"reference":"Patient/0e045de9-dd14-461d-b7b9-aac287fb8e70"},"onsetDateTime":"2026-06-30T23:59:59.000+00:00"},"request":{"method":"PUT","url":"Condition/3dddefb9-c980-4b5c-b6a6-5eef45280c17"}},{"fullUrl":"https://madie.cms.gov/MeasureReport/24c8ca84-4ae3-48e1-90c5-4134456ad6c7","resource":{"resourceType":"MeasureReport","id":"24c8ca84-4ae3-48e1-90c5-4134456ad6c7","meta":{"profile":["http://hl7.org/fhir/us/cqfmeasures/StructureDefinition/test-case-cqfm"]},"contained":[{"resourceType":"Parameters","id":"9bc58fc0-6f7c-4222-b770-f54fe8f4cd04-parameters","parameter":[{"name":"subject","valueString":"0e045de9-dd14-461d-b7b9-aac287fb8e70"}]}],"extension":[{"url":"http://hl7.org/fhir/StructureDefinition/cqf-inputParameters","valueReference":{"reference":"#9bc58fc0-6f7c-4222-b770-f54fe8f4cd04-parameters"}},{"url":"http://hl7.org/fhir/us/cqfmeasures/StructureDefinition/cqfm-testCaseDescription","valueMarkdown":"ESRD diagnosis during MP - ConditionProblemsHealthConcerns"}],"modifierExtension":[{"url":"http://hl7.org/fhir/us/cqfmeasures/StructureDefinition/cqfm-isTestCase","valueBoolean":true}],"status":"complete","type":"individual","measure":"https://madie.cms.gov/Measure/CMS165FHIRControllingHighBloodPressure","period":{"start":"2026-01-01","end":"2026-12-31"},"group":[{"id":"Group_1","population":[{"id":"InitialPopulation_1","code":{"coding":[{"system":"http://terminology.hl7.org/CodeSystem/measure-population","code":"initial-population","display":"Initial Population"}]},"count":1},{"id":"Denominator_1","code":{"coding":[{"system":"http://terminology.hl7.org/CodeSystem/measure-population","code":"denominator","display":"Denominator"}]},"count":1},{"id":"DenominatorExclusion_1","code":{"coding":[{"system":"http://terminology.hl7.org/CodeSystem/measure-population","code":"denominator-exclusion","display":"Denominator Exclusion"}]},"count":1},{"id":"Numerator_1","code":{"coding":[{"system":"http://terminology.hl7.org/CodeSystem/measure-population","code":"numerator","display":"Numerator"}]},"count":0}],"measureScore":{"value":1.0}}],"evaluatedResource":[{"reference":"Patient/0e045de9-dd14-461d-b7b9-aac287fb8e70"},{"reference":"Encounter/44273689-cb24-432a-b7d2-9a17a7f91095"},{"reference":"Condition/fc15cbe2-dbcd-4740-9929-1ec25edf62b4"},{"reference":"Condition/3dddefb9-c980-4b5c-b6a6-5eef45280c17"}]},"request":{"method":"PUT","url":"MeasureReport/24c8ca84-4ae3-48e1-90c5-4134456ad6c7"}}]},"request":{"method":"PUT","url":"Bundle/DENEXPass-ESRDDxDuringMP"}}]}