{"resourceType":"Bundle","id":"tests-53abc166-8cd7-46c2-8159-8ed6fc5bcba0-bundle","type":"transaction","entry":[{"resource":{"resourceType":"MeasureReport","id":"1af05612-382e-4b52-9d3f-33f816ab6e3d","meta":{"profile":["http://hl7.org/fhir/us/cqfmeasures/StructureDefinition/test-case-cqfm"]},"contained":[{"resourceType":"Parameters","id":"0504f9da-06c5-4b91-97ad-0708a2ad9c2f-parameters","parameter":[{"name":"subject","valueString":"53abc166-8cd7-46c2-8159-8ed6fc5bcba0"}]}],"extension":[{"url":"http://hl7.org/fhir/StructureDefinition/cqf-inputParameters","valueReference":{"reference":"#0504f9da-06c5-4b91-97ad-0708a2ad9c2f-parameters"}},{"url":"http://hl7.org/fhir/us/cqfmeasures/StructureDefinition/cqfm-testCaseDescription","valueMarkdown":"Chronic kidney disease stage 5 during MP - ConditionEncounterDiagnosis"}],"modifierExtension":[{"url":"http://hl7.org/fhir/us/cqfmeasures/StructureDefinition/cqfm-isTestCase","valueBoolean":true}],"status":"complete","type":"individual","measure":"https://madie.cms.gov/Measure/CMS165FHIRControllingHighBloodPressure","period":{"start":"2026-01-01","end":"2026-12-31"},"group":[{"id":"Group_1","population":[{"id":"InitialPopulation_1","code":{"coding":[{"system":"http://terminology.hl7.org/CodeSystem/measure-population","code":"initial-population","display":"Initial Population"}]},"count":1},{"id":"Denominator_1","code":{"coding":[{"system":"http://terminology.hl7.org/CodeSystem/measure-population","code":"denominator","display":"Denominator"}]},"count":1},{"id":"DenominatorExclusion_1","code":{"coding":[{"system":"http://terminology.hl7.org/CodeSystem/measure-population","code":"denominator-exclusion","display":"Denominator Exclusion"}]},"count":1},{"id":"Numerator_1","code":{"coding":[{"system":"http://terminology.hl7.org/CodeSystem/measure-population","code":"numerator","display":"Numerator"}]},"count":0}],"measureScore":{"value":1.0}}],"evaluatedResource":[{"reference":"Patient/53abc166-8cd7-46c2-8159-8ed6fc5bcba0"},{"reference":"Encounter/a3373bed-6205-4bfc-a913-00dd97c15f94"},{"reference":"Condition/3a86c2c7-a0fb-44ae-9712-183e07494d4e"},{"reference":"Condition/ad64eb62-e89a-4302-bc86-92f63e333a04"}]},"request":{"method":"PUT","url":"MeasureReport/1af05612-382e-4b52-9d3f-33f816ab6e3d"}},{"resource":{"resourceType":"Bundle","id":"DENEXPass-ChronicKidneyDiseaseStage5DuringMP","type":"transaction","entry":[{"fullUrl":"https://madie.cms.gov/Patient/53abc166-8cd7-46c2-8159-8ed6fc5bcba0","resource":{"resourceType":"Patient","id":"53abc166-8cd7-46c2-8159-8ed6fc5bcba0","meta":{"profile":["http://hl7.org/fhir/us/qicore/StructureDefinition/qicore-patient"]},"extension":[{"url":"http://hl7.org/fhir/us/core/StructureDefinition/us-core-race","extension":[{"url":"ombCategory","valueCoding":{"system":"urn:oid:2.16.840.1.113883.6.238","code":"2028-9","display":"Asian"}},{"url":"text","valueString":"Asian"}]},{"url":"http://hl7.org/fhir/us/core/StructureDefinition/us-core-ethnicity","extension":[{"url":"ombCategory","valueCoding":{"system":"urn:oid:2.16.840.1.113883.6.238","code":"2135-2","display":"Hispanic or Latino"}},{"url":"text","valueString":"Hispanic or Latino"}]}],"identifier":[{"system":"http://hospital.smarthealthit.org","value":"999999995"}],"name":[{"family":"DENEXPass","given":["ChronicKidneyDiseaseStage5DuringMP"]}],"gender":"female","birthDate":"2007-12-31"},"request":{"method":"PUT","url":"Patient/53abc166-8cd7-46c2-8159-8ed6fc5bcba0"}},{"fullUrl":"https://madie.cms.gov/Encounter/a3373bed-6205-4bfc-a913-00dd97c15f94","resource":{"resourceType":"Encounter","id":"a3373bed-6205-4bfc-a913-00dd97c15f94","meta":{"profile":["http://hl7.org/fhir/us/qicore/StructureDefinition/qicore-encounter"]},"status":"finished","class":{"system":"http://terminology.hl7.org/CodeSystem/v3-ActCode","code":"AMB","display":"ambulatory"},"type":[{"coding":[{"system":"http://snomed.info/sct","code":"3391000175108","display":"Office visit for pediatric care and assessment (procedure)"}]}],"subject":{"reference":"Patient/53abc166-8cd7-46c2-8159-8ed6fc5bcba0"},"period":{"start":"2026-01-01T00:00:00.000+00:00","end":"2026-01-01T01:00:00.000+00:00"}},"request":{"method":"PUT","url":"Encounter/a3373bed-6205-4bfc-a913-00dd97c15f94"}},{"fullUrl":"https://madie.cms.gov/Condition/3a86c2c7-a0fb-44ae-9712-183e07494d4e","resource":{"resourceType":"Condition","id":"3a86c2c7-a0fb-44ae-9712-183e07494d4e","meta":{"profile":["http://hl7.org/fhir/us/qicore/StructureDefinition/qicore-condition-encounter-diagnosis"]},"clinicalStatus":{"coding":[{"system":"http://terminology.hl7.org/CodeSystem/condition-clinical","code":"active"}]},"category":[{"coding":[{"system":"http://terminology.hl7.org/CodeSystem/condition-category","code":"encounter-diagnosis","display":"Encounter Diagnosis"}]}],"code":{"coding":[{"system":"http://snomed.info/sct","code":"371125006","display":"Labile essential hypertension (disorder)"}]},"subject":{"reference":"Patient/53abc166-8cd7-46c2-8159-8ed6fc5bcba0"},"onsetDateTime":"2026-06-29T23:59:59.000+00:00"},"request":{"method":"PUT","url":"Condition/3a86c2c7-a0fb-44ae-9712-183e07494d4e"}},{"fullUrl":"https://madie.cms.gov/Condition/ad64eb62-e89a-4302-bc86-92f63e333a04","resource":{"resourceType":"Condition","id":"ad64eb62-e89a-4302-bc86-92f63e333a04","meta":{"profile":["http://hl7.org/fhir/us/qicore/StructureDefinition/qicore-condition-encounter-diagnosis"]},"clinicalStatus":{"coding":[{"system":"http://terminology.hl7.org/CodeSystem/condition-clinical","code":"active"}]},"category":[{"coding":[{"system":"http://terminology.hl7.org/CodeSystem/condition-category","code":"encounter-diagnosis","display":"Encounter Diagnosis"}]}],"code":{"coding":[{"system":"http://hl7.org/fhir/sid/icd-10-cm","code":"N18.5","display":"Chronic kidney disease, stage 5"}]},"subject":{"reference":"Patient/53abc166-8cd7-46c2-8159-8ed6fc5bcba0"},"onsetDateTime":"2026-06-30T23:59:59.000+00:00"},"request":{"method":"PUT","url":"Condition/ad64eb62-e89a-4302-bc86-92f63e333a04"}},{"fullUrl":"https://madie.cms.gov/MeasureReport/1af05612-382e-4b52-9d3f-33f816ab6e3d","resource":{"resourceType":"MeasureReport","id":"1af05612-382e-4b52-9d3f-33f816ab6e3d","meta":{"profile":["http://hl7.org/fhir/us/cqfmeasures/StructureDefinition/test-case-cqfm"]},"contained":[{"resourceType":"Parameters","id":"0504f9da-06c5-4b91-97ad-0708a2ad9c2f-parameters","parameter":[{"name":"subject","valueString":"53abc166-8cd7-46c2-8159-8ed6fc5bcba0"}]}],"extension":[{"url":"http://hl7.org/fhir/StructureDefinition/cqf-inputParameters","valueReference":{"reference":"#0504f9da-06c5-4b91-97ad-0708a2ad9c2f-parameters"}},{"url":"http://hl7.org/fhir/us/cqfmeasures/StructureDefinition/cqfm-testCaseDescription","valueMarkdown":"Chronic kidney disease stage 5 during MP - ConditionEncounterDiagnosis"}],"modifierExtension":[{"url":"http://hl7.org/fhir/us/cqfmeasures/StructureDefinition/cqfm-isTestCase","valueBoolean":true}],"status":"complete","type":"individual","measure":"https://madie.cms.gov/Measure/CMS165FHIRControllingHighBloodPressure","period":{"start":"2026-01-01","end":"2026-12-31"},"group":[{"id":"Group_1","population":[{"id":"InitialPopulation_1","code":{"coding":[{"system":"http://terminology.hl7.org/CodeSystem/measure-population","code":"initial-population","display":"Initial Population"}]},"count":1},{"id":"Denominator_1","code":{"coding":[{"system":"http://terminology.hl7.org/CodeSystem/measure-population","code":"denominator","display":"Denominator"}]},"count":1},{"id":"DenominatorExclusion_1","code":{"coding":[{"system":"http://terminology.hl7.org/CodeSystem/measure-population","code":"denominator-exclusion","display":"Denominator Exclusion"}]},"count":1},{"id":"Numerator_1","code":{"coding":[{"system":"http://terminology.hl7.org/CodeSystem/measure-population","code":"numerator","display":"Numerator"}]},"count":0}],"measureScore":{"value":1.0}}],"evaluatedResource":[{"reference":"Patient/53abc166-8cd7-46c2-8159-8ed6fc5bcba0"},{"reference":"Encounter/a3373bed-6205-4bfc-a913-00dd97c15f94"},{"reference":"Condition/3a86c2c7-a0fb-44ae-9712-183e07494d4e"},{"reference":"Condition/ad64eb62-e89a-4302-bc86-92f63e333a04"}]},"request":{"method":"PUT","url":"MeasureReport/1af05612-382e-4b52-9d3f-33f816ab6e3d"}}]},"request":{"method":"PUT","url":"Bundle/DENEXPass-ChronicKidneyDiseaseStage5DuringMP"}},{"resource":{"resourceType":"Patient","id":"53abc166-8cd7-46c2-8159-8ed6fc5bcba0","meta":{"profile":["http://hl7.org/fhir/us/qicore/StructureDefinition/qicore-patient"]},"extension":[{"url":"http://hl7.org/fhir/us/core/StructureDefinition/us-core-race","extension":[{"url":"ombCategory","valueCoding":{"system":"urn:oid:2.16.840.1.113883.6.238","code":"2028-9","display":"Asian"}},{"url":"text","valueString":"Asian"}]},{"url":"http://hl7.org/fhir/us/core/StructureDefinition/us-core-ethnicity","extension":[{"url":"ombCategory","valueCoding":{"system":"urn:oid:2.16.840.1.113883.6.238","code":"2135-2","display":"Hispanic or Latino"}},{"url":"text","valueString":"Hispanic or Latino"}]}],"identifier":[{"system":"http://hospital.smarthealthit.org","value":"999999995"}],"name":[{"family":"DENEXPass","given":["ChronicKidneyDiseaseStage5DuringMP"]}],"gender":"female","birthDate":"2007-12-31"},"request":{"method":"PUT","url":"Patient/53abc166-8cd7-46c2-8159-8ed6fc5bcba0"}},{"resource":{"resourceType":"Condition","id":"3a86c2c7-a0fb-44ae-9712-183e07494d4e","meta":{"profile":["http://hl7.org/fhir/us/qicore/StructureDefinition/qicore-condition-encounter-diagnosis"]},"clinicalStatus":{"coding":[{"system":"http://terminology.hl7.org/CodeSystem/condition-clinical","code":"active"}]},"category":[{"coding":[{"system":"http://terminology.hl7.org/CodeSystem/condition-category","code":"encounter-diagnosis","display":"Encounter Diagnosis"}]}],"code":{"coding":[{"system":"http://snomed.info/sct","code":"371125006","display":"Labile essential hypertension (disorder)"}]},"subject":{"reference":"Patient/53abc166-8cd7-46c2-8159-8ed6fc5bcba0"},"onsetDateTime":"2026-06-29T23:59:59.000+00:00"},"request":{"method":"PUT","url":"Condition/3a86c2c7-a0fb-44ae-9712-183e07494d4e"}},{"resource":{"resourceType":"Condition","id":"ad64eb62-e89a-4302-bc86-92f63e333a04","meta":{"profile":["http://hl7.org/fhir/us/qicore/StructureDefinition/qicore-condition-encounter-diagnosis"]},"clinicalStatus":{"coding":[{"system":"http://terminology.hl7.org/CodeSystem/condition-clinical","code":"active"}]},"category":[{"coding":[{"system":"http://terminology.hl7.org/CodeSystem/condition-category","code":"encounter-diagnosis","display":"Encounter Diagnosis"}]}],"code":{"coding":[{"system":"http://hl7.org/fhir/sid/icd-10-cm","code":"N18.5","display":"Chronic kidney disease, stage 5"}]},"subject":{"reference":"Patient/53abc166-8cd7-46c2-8159-8ed6fc5bcba0"},"onsetDateTime":"2026-06-30T23:59:59.000+00:00"},"request":{"method":"PUT","url":"Condition/ad64eb62-e89a-4302-bc86-92f63e333a04"}},{"resource":{"resourceType":"Encounter","id":"a3373bed-6205-4bfc-a913-00dd97c15f94","meta":{"profile":["http://hl7.org/fhir/us/qicore/StructureDefinition/qicore-encounter"]},"status":"finished","class":{"system":"http://terminology.hl7.org/CodeSystem/v3-ActCode","code":"AMB","display":"ambulatory"},"type":[{"coding":[{"system":"http://snomed.info/sct","code":"3391000175108","display":"Office visit for pediatric care and assessment (procedure)"}]}],"subject":{"reference":"Patient/53abc166-8cd7-46c2-8159-8ed6fc5bcba0"},"period":{"start":"2026-01-01T00:00:00.000+00:00","end":"2026-01-01T01:00:00.000+00:00"}},"request":{"method":"PUT","url":"Encounter/a3373bed-6205-4bfc-a913-00dd97c15f94"}}]}