{"resourceType":"Bundle","id":"tests-7de4b027-eb4c-4a2e-958f-e6b7a3eb6309-bundle","type":"transaction","entry":[{"resource":{"resourceType":"Patient","id":"7de4b027-eb4c-4a2e-958f-e6b7a3eb6309","meta":{"profile":["http://hl7.org/fhir/us/qicore/StructureDefinition/qicore-patient"]},"extension":[{"url":"http://hl7.org/fhir/us/core/StructureDefinition/us-core-race","extension":[{"url":"ombCategory","valueCoding":{"system":"urn:oid:2.16.840.1.113883.6.238","code":"2028-9","display":"Asian"}},{"url":"text","valueString":"Asian"}]},{"url":"http://hl7.org/fhir/us/core/StructureDefinition/us-core-ethnicity","extension":[{"url":"ombCategory","valueCoding":{"system":"urn:oid:2.16.840.1.113883.6.238","code":"2135-2","display":"Hispanic or Latino"}},{"url":"text","valueString":"Hispanic or Latino"}]}],"identifier":[{"system":"http://hospital.smarthealthit.org","value":"999999995"}],"name":[{"family":"DENEXPass","given":["KidneyTransplantProcedureDuringMP"]}],"gender":"female","birthDate":"2007-12-31"},"request":{"method":"PUT","url":"Patient/7de4b027-eb4c-4a2e-958f-e6b7a3eb6309"}},{"resource":{"resourceType":"Procedure","id":"f4decd79-1139-470e-a398-801902f63e4a","meta":{"profile":["http://hl7.org/fhir/us/qicore/StructureDefinition/qicore-procedure"]},"extension":[{"url":"http://hl7.org/fhir/us/qicore/StructureDefinition/qicore-recorded","valueDateTime":"2025-12-31T00:00:00.000+00:00"}],"status":"completed","code":{"coding":[{"system":"http://snomed.info/sct","code":"70536003","display":"Transplant of kidney (procedure)"}]},"subject":{"reference":"Patient/7de4b027-eb4c-4a2e-958f-e6b7a3eb6309"},"performedPeriod":{"start":"2026-12-30T00:00:00.000+00:00","end":"2026-12-30T23:59:59.000+00:00"}},"request":{"method":"PUT","url":"Procedure/f4decd79-1139-470e-a398-801902f63e4a"}},{"resource":{"resourceType":"Condition","id":"c0c44f88-d6f7-4114-8013-7363416906f2","meta":{"profile":["http://hl7.org/fhir/us/qicore/StructureDefinition/qicore-condition-encounter-diagnosis"]},"clinicalStatus":{"coding":[{"system":"http://terminology.hl7.org/CodeSystem/condition-clinical","code":"active"}]},"category":[{"coding":[{"system":"http://terminology.hl7.org/CodeSystem/condition-category","code":"encounter-diagnosis","display":"Encounter Diagnosis"}]}],"code":{"coding":[{"system":"http://snomed.info/sct","code":"371125006","display":"Labile essential hypertension (disorder)"}]},"subject":{"reference":"Patient/7de4b027-eb4c-4a2e-958f-e6b7a3eb6309"},"onsetDateTime":"2026-06-30T23:59:59.000+00:00"},"request":{"method":"PUT","url":"Condition/c0c44f88-d6f7-4114-8013-7363416906f2"}},{"resource":{"resourceType":"Bundle","id":"DENEXPass-KidneyTransplantProcedureDuringMP","type":"transaction","entry":[{"fullUrl":"https://madie.cms.gov/Patient/7de4b027-eb4c-4a2e-958f-e6b7a3eb6309","resource":{"resourceType":"Patient","id":"7de4b027-eb4c-4a2e-958f-e6b7a3eb6309","meta":{"profile":["http://hl7.org/fhir/us/qicore/StructureDefinition/qicore-patient"]},"extension":[{"url":"http://hl7.org/fhir/us/core/StructureDefinition/us-core-race","extension":[{"url":"ombCategory","valueCoding":{"system":"urn:oid:2.16.840.1.113883.6.238","code":"2028-9","display":"Asian"}},{"url":"text","valueString":"Asian"}]},{"url":"http://hl7.org/fhir/us/core/StructureDefinition/us-core-ethnicity","extension":[{"url":"ombCategory","valueCoding":{"system":"urn:oid:2.16.840.1.113883.6.238","code":"2135-2","display":"Hispanic or Latino"}},{"url":"text","valueString":"Hispanic or Latino"}]}],"identifier":[{"system":"http://hospital.smarthealthit.org","value":"999999995"}],"name":[{"family":"DENEXPass","given":["KidneyTransplantProcedureDuringMP"]}],"gender":"female","birthDate":"2007-12-31"},"request":{"method":"PUT","url":"Patient/7de4b027-eb4c-4a2e-958f-e6b7a3eb6309"}},{"fullUrl":"https://madie.cms.gov/Encounter/e894d86d-0d43-49c6-bcf6-bc3f3da52cb5","resource":{"resourceType":"Encounter","id":"e894d86d-0d43-49c6-bcf6-bc3f3da52cb5","meta":{"profile":["http://hl7.org/fhir/us/qicore/StructureDefinition/qicore-encounter"]},"status":"finished","class":{"system":"http://terminology.hl7.org/CodeSystem/v3-ActCode","code":"AMB","display":"ambulatory"},"type":[{"coding":[{"system":"http://snomed.info/sct","code":"3391000175108","display":"Office visit for pediatric care and assessment (procedure)"}]}],"subject":{"reference":"Patient/7de4b027-eb4c-4a2e-958f-e6b7a3eb6309"},"period":{"start":"2026-01-01T00:00:00.000+00:00","end":"2026-01-01T01:00:00.000+00:00"}},"request":{"method":"PUT","url":"Encounter/e894d86d-0d43-49c6-bcf6-bc3f3da52cb5"}},{"fullUrl":"https://madie.cms.gov/Condition/c0c44f88-d6f7-4114-8013-7363416906f2","resource":{"resourceType":"Condition","id":"c0c44f88-d6f7-4114-8013-7363416906f2","meta":{"profile":["http://hl7.org/fhir/us/qicore/StructureDefinition/qicore-condition-encounter-diagnosis"]},"clinicalStatus":{"coding":[{"system":"http://terminology.hl7.org/CodeSystem/condition-clinical","code":"active"}]},"category":[{"coding":[{"system":"http://terminology.hl7.org/CodeSystem/condition-category","code":"encounter-diagnosis","display":"Encounter Diagnosis"}]}],"code":{"coding":[{"system":"http://snomed.info/sct","code":"371125006","display":"Labile essential hypertension (disorder)"}]},"subject":{"reference":"Patient/7de4b027-eb4c-4a2e-958f-e6b7a3eb6309"},"onsetDateTime":"2026-06-30T23:59:59.000+00:00"},"request":{"method":"PUT","url":"Condition/c0c44f88-d6f7-4114-8013-7363416906f2"}},{"fullUrl":"https://madie.cms.gov/Procedure/f4decd79-1139-470e-a398-801902f63e4a","resource":{"resourceType":"Procedure","id":"f4decd79-1139-470e-a398-801902f63e4a","meta":{"profile":["http://hl7.org/fhir/us/qicore/StructureDefinition/qicore-procedure"]},"extension":[{"url":"http://hl7.org/fhir/us/qicore/StructureDefinition/qicore-recorded","valueDateTime":"2025-12-31T00:00:00.000+00:00"}],"status":"completed","code":{"coding":[{"system":"http://snomed.info/sct","code":"70536003","display":"Transplant of kidney (procedure)"}]},"subject":{"reference":"Patient/7de4b027-eb4c-4a2e-958f-e6b7a3eb6309"},"performedPeriod":{"start":"2026-12-30T00:00:00.000+00:00","end":"2026-12-30T23:59:59.000+00:00"}},"request":{"method":"PUT","url":"Procedure/f4decd79-1139-470e-a398-801902f63e4a"}},{"fullUrl":"https://madie.cms.gov/MeasureReport/cece83da-0068-4d2e-9dcb-01a6c21138a3","resource":{"resourceType":"MeasureReport","id":"cece83da-0068-4d2e-9dcb-01a6c21138a3","meta":{"profile":["http://hl7.org/fhir/us/cqfmeasures/StructureDefinition/test-case-cqfm"]},"contained":[{"resourceType":"Parameters","id":"16d28179-4798-4655-b721-7b02ddfd917c-parameters","parameter":[{"name":"subject","valueString":"7de4b027-eb4c-4a2e-958f-e6b7a3eb6309"}]}],"extension":[{"url":"http://hl7.org/fhir/StructureDefinition/cqf-inputParameters","valueReference":{"reference":"#16d28179-4798-4655-b721-7b02ddfd917c-parameters"}},{"url":"http://hl7.org/fhir/us/cqfmeasures/StructureDefinition/cqfm-testCaseDescription","valueMarkdown":"Kidney transplant procedure during MP"}],"modifierExtension":[{"url":"http://hl7.org/fhir/us/cqfmeasures/StructureDefinition/cqfm-isTestCase","valueBoolean":true}],"status":"complete","type":"individual","measure":"https://madie.cms.gov/Measure/CMS165FHIRControllingHighBloodPressure","period":{"start":"2026-01-01","end":"2026-12-31"},"group":[{"id":"Group_1","population":[{"id":"InitialPopulation_1","code":{"coding":[{"system":"http://terminology.hl7.org/CodeSystem/measure-population","code":"initial-population","display":"Initial Population"}]},"count":1},{"id":"Denominator_1","code":{"coding":[{"system":"http://terminology.hl7.org/CodeSystem/measure-population","code":"denominator","display":"Denominator"}]},"count":1},{"id":"DenominatorExclusion_1","code":{"coding":[{"system":"http://terminology.hl7.org/CodeSystem/measure-population","code":"denominator-exclusion","display":"Denominator Exclusion"}]},"count":1},{"id":"Numerator_1","code":{"coding":[{"system":"http://terminology.hl7.org/CodeSystem/measure-population","code":"numerator","display":"Numerator"}]},"count":0}],"measureScore":{"value":1.0}}],"evaluatedResource":[{"reference":"Patient/7de4b027-eb4c-4a2e-958f-e6b7a3eb6309"},{"reference":"Encounter/e894d86d-0d43-49c6-bcf6-bc3f3da52cb5"},{"reference":"Condition/c0c44f88-d6f7-4114-8013-7363416906f2"},{"reference":"Procedure/f4decd79-1139-470e-a398-801902f63e4a"}]},"request":{"method":"PUT","url":"MeasureReport/cece83da-0068-4d2e-9dcb-01a6c21138a3"}}]},"request":{"method":"PUT","url":"Bundle/DENEXPass-KidneyTransplantProcedureDuringMP"}},{"resource":{"resourceType":"MeasureReport","id":"cece83da-0068-4d2e-9dcb-01a6c21138a3","meta":{"profile":["http://hl7.org/fhir/us/cqfmeasures/StructureDefinition/test-case-cqfm"]},"contained":[{"resourceType":"Parameters","id":"16d28179-4798-4655-b721-7b02ddfd917c-parameters","parameter":[{"name":"subject","valueString":"7de4b027-eb4c-4a2e-958f-e6b7a3eb6309"}]}],"extension":[{"url":"http://hl7.org/fhir/StructureDefinition/cqf-inputParameters","valueReference":{"reference":"#16d28179-4798-4655-b721-7b02ddfd917c-parameters"}},{"url":"http://hl7.org/fhir/us/cqfmeasures/StructureDefinition/cqfm-testCaseDescription","valueMarkdown":"Kidney transplant procedure during MP"}],"modifierExtension":[{"url":"http://hl7.org/fhir/us/cqfmeasures/StructureDefinition/cqfm-isTestCase","valueBoolean":true}],"status":"complete","type":"individual","measure":"https://madie.cms.gov/Measure/CMS165FHIRControllingHighBloodPressure","period":{"start":"2026-01-01","end":"2026-12-31"},"group":[{"id":"Group_1","population":[{"id":"InitialPopulation_1","code":{"coding":[{"system":"http://terminology.hl7.org/CodeSystem/measure-population","code":"initial-population","display":"Initial Population"}]},"count":1},{"id":"Denominator_1","code":{"coding":[{"system":"http://terminology.hl7.org/CodeSystem/measure-population","code":"denominator","display":"Denominator"}]},"count":1},{"id":"DenominatorExclusion_1","code":{"coding":[{"system":"http://terminology.hl7.org/CodeSystem/measure-population","code":"denominator-exclusion","display":"Denominator Exclusion"}]},"count":1},{"id":"Numerator_1","code":{"coding":[{"system":"http://terminology.hl7.org/CodeSystem/measure-population","code":"numerator","display":"Numerator"}]},"count":0}],"measureScore":{"value":1.0}}],"evaluatedResource":[{"reference":"Patient/7de4b027-eb4c-4a2e-958f-e6b7a3eb6309"},{"reference":"Encounter/e894d86d-0d43-49c6-bcf6-bc3f3da52cb5"},{"reference":"Condition/c0c44f88-d6f7-4114-8013-7363416906f2"},{"reference":"Procedure/f4decd79-1139-470e-a398-801902f63e4a"}]},"request":{"method":"PUT","url":"MeasureReport/cece83da-0068-4d2e-9dcb-01a6c21138a3"}},{"resource":{"resourceType":"Encounter","id":"e894d86d-0d43-49c6-bcf6-bc3f3da52cb5","meta":{"profile":["http://hl7.org/fhir/us/qicore/StructureDefinition/qicore-encounter"]},"status":"finished","class":{"system":"http://terminology.hl7.org/CodeSystem/v3-ActCode","code":"AMB","display":"ambulatory"},"type":[{"coding":[{"system":"http://snomed.info/sct","code":"3391000175108","display":"Office visit for pediatric care and assessment (procedure)"}]}],"subject":{"reference":"Patient/7de4b027-eb4c-4a2e-958f-e6b7a3eb6309"},"period":{"start":"2026-01-01T00:00:00.000+00:00","end":"2026-01-01T01:00:00.000+00:00"}},"request":{"method":"PUT","url":"Encounter/e894d86d-0d43-49c6-bcf6-bc3f3da52cb5"}}]}