{"resourceType":"Bundle","id":"tests-6769ebe0-1b45-472a-ba7b-8f9a014d94a6-bundle","type":"transaction","entry":[{"resource":{"resourceType":"Bundle","id":"IPPPass-TelephoneVisit","type":"transaction","entry":[{"fullUrl":"https://madie.cms.gov/Patient/6769ebe0-1b45-472a-ba7b-8f9a014d94a6","resource":{"resourceType":"Patient","id":"6769ebe0-1b45-472a-ba7b-8f9a014d94a6","meta":{"profile":["http://hl7.org/fhir/us/qicore/StructureDefinition/qicore-patient"]},"extension":[{"url":"http://hl7.org/fhir/us/core/StructureDefinition/us-core-race","extension":[{"url":"ombCategory","valueCoding":{"system":"urn:oid:2.16.840.1.113883.6.238","code":"2028-9","display":"Asian"}},{"url":"text","valueString":"Asian"}]},{"url":"http://hl7.org/fhir/us/core/StructureDefinition/us-core-ethnicity","extension":[{"url":"ombCategory","valueCoding":{"system":"urn:oid:2.16.840.1.113883.6.238","code":"2135-2","display":"Hispanic or Latino"}},{"url":"text","valueString":"Hispanic or Latino"}]}],"identifier":[{"system":"http://hospital.smarthealthit.org","value":"999999995"}],"name":[{"family":"IPPass","given":["TelephoneVisit"]}],"gender":"female","birthDate":"2007-12-31"},"request":{"method":"PUT","url":"Patient/6769ebe0-1b45-472a-ba7b-8f9a014d94a6"}},{"fullUrl":"https://madie.cms.gov/Encounter/a5119835-cec5-45d3-9a8d-40ede8516229","resource":{"resourceType":"Encounter","id":"a5119835-cec5-45d3-9a8d-40ede8516229","meta":{"profile":["http://hl7.org/fhir/us/qicore/StructureDefinition/qicore-encounter"]},"status":"finished","class":{"system":"http://terminology.hl7.org/CodeSystem/v3-ActCode","code":"AMB","display":"ambulatory"},"type":[{"coding":[{"system":"http://snomed.info/sct","code":"401267002","display":"Telephone triage encounter (procedure)"}]}],"subject":{"reference":"Patient/6769ebe0-1b45-472a-ba7b-8f9a014d94a6"},"period":{"start":"2026-01-01T00:00:00.000+00:00","end":"2026-01-01T01:00:00.000+00:00"}},"request":{"method":"PUT","url":"Encounter/a5119835-cec5-45d3-9a8d-40ede8516229"}},{"fullUrl":"https://madie.cms.gov/Condition/ee2923dd-2f85-483a-8e2f-bcdf771e196c","resource":{"resourceType":"Condition","id":"ee2923dd-2f85-483a-8e2f-bcdf771e196c","meta":{"profile":["http://hl7.org/fhir/us/qicore/StructureDefinition/qicore-condition-encounter-diagnosis"]},"clinicalStatus":{"coding":[{"system":"http://terminology.hl7.org/CodeSystem/condition-clinical","code":"active"}]},"category":[{"coding":[{"system":"http://terminology.hl7.org/CodeSystem/condition-category","code":"encounter-diagnosis","display":"Encounter Diagnosis"}]}],"code":{"coding":[{"system":"http://snomed.info/sct","code":"371125006","display":"Labile essential hypertension (disorder)"}]},"subject":{"reference":"Patient/6769ebe0-1b45-472a-ba7b-8f9a014d94a6"},"onsetDateTime":"2026-06-30T23:59:59.000+00:00"},"request":{"method":"PUT","url":"Condition/ee2923dd-2f85-483a-8e2f-bcdf771e196c"}},{"fullUrl":"https://madie.cms.gov/MeasureReport/7fe3e5f4-60ab-4b07-b3f9-305cb890fdeb","resource":{"resourceType":"MeasureReport","id":"7fe3e5f4-60ab-4b07-b3f9-305cb890fdeb","meta":{"profile":["http://hl7.org/fhir/us/cqfmeasures/StructureDefinition/test-case-cqfm"]},"contained":[{"resourceType":"Parameters","id":"80392309-80e6-4e5c-9927-fee4cb24035b-parameters","parameter":[{"name":"subject","valueString":"6769ebe0-1b45-472a-ba7b-8f9a014d94a6"}]}],"extension":[{"url":"http://hl7.org/fhir/StructureDefinition/cqf-inputParameters","valueReference":{"reference":"#80392309-80e6-4e5c-9927-fee4cb24035b-parameters"}},{"url":"http://hl7.org/fhir/us/cqfmeasures/StructureDefinition/cqfm-testCaseDescription","valueMarkdown":"Telephone visit during MP"}],"modifierExtension":[{"url":"http://hl7.org/fhir/us/cqfmeasures/StructureDefinition/cqfm-isTestCase","valueBoolean":true}],"status":"complete","type":"individual","measure":"https://madie.cms.gov/Measure/CMS165FHIRControllingHighBloodPressure","period":{"start":"2026-01-01","end":"2026-12-31"},"group":[{"id":"Group_1","population":[{"id":"InitialPopulation_1","code":{"coding":[{"system":"http://terminology.hl7.org/CodeSystem/measure-population","code":"initial-population","display":"Initial Population"}]},"count":1},{"id":"Denominator_1","code":{"coding":[{"system":"http://terminology.hl7.org/CodeSystem/measure-population","code":"denominator","display":"Denominator"}]},"count":1},{"id":"DenominatorExclusion_1","code":{"coding":[{"system":"http://terminology.hl7.org/CodeSystem/measure-population","code":"denominator-exclusion","display":"Denominator Exclusion"}]},"count":0},{"id":"Numerator_1","code":{"coding":[{"system":"http://terminology.hl7.org/CodeSystem/measure-population","code":"numerator","display":"Numerator"}]},"count":0}],"measureScore":{"value":1.0}}],"evaluatedResource":[{"reference":"Patient/6769ebe0-1b45-472a-ba7b-8f9a014d94a6"},{"reference":"Encounter/a5119835-cec5-45d3-9a8d-40ede8516229"},{"reference":"Condition/ee2923dd-2f85-483a-8e2f-bcdf771e196c"}]},"request":{"method":"PUT","url":"MeasureReport/7fe3e5f4-60ab-4b07-b3f9-305cb890fdeb"}}]},"request":{"method":"PUT","url":"Bundle/IPPPass-TelephoneVisit"}},{"resource":{"resourceType":"Condition","id":"ee2923dd-2f85-483a-8e2f-bcdf771e196c","meta":{"profile":["http://hl7.org/fhir/us/qicore/StructureDefinition/qicore-condition-encounter-diagnosis"]},"clinicalStatus":{"coding":[{"system":"http://terminology.hl7.org/CodeSystem/condition-clinical","code":"active"}]},"category":[{"coding":[{"system":"http://terminology.hl7.org/CodeSystem/condition-category","code":"encounter-diagnosis","display":"Encounter Diagnosis"}]}],"code":{"coding":[{"system":"http://snomed.info/sct","code":"371125006","display":"Labile essential hypertension (disorder)"}]},"subject":{"reference":"Patient/6769ebe0-1b45-472a-ba7b-8f9a014d94a6"},"onsetDateTime":"2026-06-30T23:59:59.000+00:00"},"request":{"method":"PUT","url":"Condition/ee2923dd-2f85-483a-8e2f-bcdf771e196c"}},{"resource":{"resourceType":"MeasureReport","id":"7fe3e5f4-60ab-4b07-b3f9-305cb890fdeb","meta":{"profile":["http://hl7.org/fhir/us/cqfmeasures/StructureDefinition/test-case-cqfm"]},"contained":[{"resourceType":"Parameters","id":"80392309-80e6-4e5c-9927-fee4cb24035b-parameters","parameter":[{"name":"subject","valueString":"6769ebe0-1b45-472a-ba7b-8f9a014d94a6"}]}],"extension":[{"url":"http://hl7.org/fhir/StructureDefinition/cqf-inputParameters","valueReference":{"reference":"#80392309-80e6-4e5c-9927-fee4cb24035b-parameters"}},{"url":"http://hl7.org/fhir/us/cqfmeasures/StructureDefinition/cqfm-testCaseDescription","valueMarkdown":"Telephone visit during MP"}],"modifierExtension":[{"url":"http://hl7.org/fhir/us/cqfmeasures/StructureDefinition/cqfm-isTestCase","valueBoolean":true}],"status":"complete","type":"individual","measure":"https://madie.cms.gov/Measure/CMS165FHIRControllingHighBloodPressure","period":{"start":"2026-01-01","end":"2026-12-31"},"group":[{"id":"Group_1","population":[{"id":"InitialPopulation_1","code":{"coding":[{"system":"http://terminology.hl7.org/CodeSystem/measure-population","code":"initial-population","display":"Initial Population"}]},"count":1},{"id":"Denominator_1","code":{"coding":[{"system":"http://terminology.hl7.org/CodeSystem/measure-population","code":"denominator","display":"Denominator"}]},"count":1},{"id":"DenominatorExclusion_1","code":{"coding":[{"system":"http://terminology.hl7.org/CodeSystem/measure-population","code":"denominator-exclusion","display":"Denominator Exclusion"}]},"count":0},{"id":"Numerator_1","code":{"coding":[{"system":"http://terminology.hl7.org/CodeSystem/measure-population","code":"numerator","display":"Numerator"}]},"count":0}],"measureScore":{"value":1.0}}],"evaluatedResource":[{"reference":"Patient/6769ebe0-1b45-472a-ba7b-8f9a014d94a6"},{"reference":"Encounter/a5119835-cec5-45d3-9a8d-40ede8516229"},{"reference":"Condition/ee2923dd-2f85-483a-8e2f-bcdf771e196c"}]},"request":{"method":"PUT","url":"MeasureReport/7fe3e5f4-60ab-4b07-b3f9-305cb890fdeb"}},{"resource":{"resourceType":"Encounter","id":"a5119835-cec5-45d3-9a8d-40ede8516229","meta":{"profile":["http://hl7.org/fhir/us/qicore/StructureDefinition/qicore-encounter"]},"status":"finished","class":{"system":"http://terminology.hl7.org/CodeSystem/v3-ActCode","code":"AMB","display":"ambulatory"},"type":[{"coding":[{"system":"http://snomed.info/sct","code":"401267002","display":"Telephone triage encounter (procedure)"}]}],"subject":{"reference":"Patient/6769ebe0-1b45-472a-ba7b-8f9a014d94a6"},"period":{"start":"2026-01-01T00:00:00.000+00:00","end":"2026-01-01T01:00:00.000+00:00"}},"request":{"method":"PUT","url":"Encounter/a5119835-cec5-45d3-9a8d-40ede8516229"}},{"resource":{"resourceType":"Patient","id":"6769ebe0-1b45-472a-ba7b-8f9a014d94a6","meta":{"profile":["http://hl7.org/fhir/us/qicore/StructureDefinition/qicore-patient"]},"extension":[{"url":"http://hl7.org/fhir/us/core/StructureDefinition/us-core-race","extension":[{"url":"ombCategory","valueCoding":{"system":"urn:oid:2.16.840.1.113883.6.238","code":"2028-9","display":"Asian"}},{"url":"text","valueString":"Asian"}]},{"url":"http://hl7.org/fhir/us/core/StructureDefinition/us-core-ethnicity","extension":[{"url":"ombCategory","valueCoding":{"system":"urn:oid:2.16.840.1.113883.6.238","code":"2135-2","display":"Hispanic or Latino"}},{"url":"text","valueString":"Hispanic or Latino"}]}],"identifier":[{"system":"http://hospital.smarthealthit.org","value":"999999995"}],"name":[{"family":"IPPass","given":["TelephoneVisit"]}],"gender":"female","birthDate":"2007-12-31"},"request":{"method":"PUT","url":"Patient/6769ebe0-1b45-472a-ba7b-8f9a014d94a6"}}]}