{"resourceType":"Bundle","id":"tests-94d2a25e-9eec-44ce-bc34-711452549be8-bundle","type":"transaction","entry":[{"resource":{"resourceType":"Encounter","id":"086c602a-4fbf-4818-8816-a2f4be5ee95a","meta":{"profile":["http://hl7.org/fhir/us/qicore/StructureDefinition/qicore-encounter"]},"status":"finished","class":{"system":"http://terminology.hl7.org/CodeSystem/v3-ActCode","code":"AMB","display":"ambulatory"},"type":[{"coding":[{"system":"http://snomed.info/sct","code":"3391000175108","display":"Office visit for pediatric care and assessment (procedure)"}]}],"subject":{"reference":"Patient/94d2a25e-9eec-44ce-bc34-711452549be8"},"period":{"start":"2026-01-01T00:00:00.000+00:00","end":"2026-01-01T01:00:00.000+00:00"}},"request":{"method":"PUT","url":"Encounter/086c602a-4fbf-4818-8816-a2f4be5ee95a"}},{"resource":{"resourceType":"MeasureReport","id":"15ee795e-7ed2-4da2-a589-1776e45fab4c","meta":{"profile":["http://hl7.org/fhir/us/cqfmeasures/StructureDefinition/test-case-cqfm"]},"contained":[{"resourceType":"Parameters","id":"5940c731-5c08-4b9d-bab5-bb28bc19deb0-parameters","parameter":[{"name":"subject","valueString":"94d2a25e-9eec-44ce-bc34-711452549be8"}]}],"extension":[{"url":"http://hl7.org/fhir/StructureDefinition/cqf-inputParameters","valueReference":{"reference":"#5940c731-5c08-4b9d-bab5-bb28bc19deb0-parameters"}},{"url":"http://hl7.org/fhir/us/cqfmeasures/StructureDefinition/cqfm-testCaseDescription","valueMarkdown":"Hospice service request status is in draft"}],"modifierExtension":[{"url":"http://hl7.org/fhir/us/cqfmeasures/StructureDefinition/cqfm-isTestCase","valueBoolean":true}],"status":"complete","type":"individual","measure":"https://madie.cms.gov/Measure/CMS165FHIRControllingHighBloodPressure","period":{"start":"2026-01-01","end":"2026-12-31"},"group":[{"id":"Group_1","population":[{"id":"InitialPopulation_1","code":{"coding":[{"system":"http://terminology.hl7.org/CodeSystem/measure-population","code":"initial-population","display":"Initial Population"}]},"count":1},{"id":"Denominator_1","code":{"coding":[{"system":"http://terminology.hl7.org/CodeSystem/measure-population","code":"denominator","display":"Denominator"}]},"count":1},{"id":"DenominatorExclusion_1","code":{"coding":[{"system":"http://terminology.hl7.org/CodeSystem/measure-population","code":"denominator-exclusion","display":"Denominator Exclusion"}]},"count":0},{"id":"Numerator_1","code":{"coding":[{"system":"http://terminology.hl7.org/CodeSystem/measure-population","code":"numerator","display":"Numerator"}]},"count":0}],"measureScore":{"value":1.0}}],"evaluatedResource":[{"reference":"Patient/94d2a25e-9eec-44ce-bc34-711452549be8"},{"reference":"Encounter/086c602a-4fbf-4818-8816-a2f4be5ee95a"},{"reference":"Condition/f84b278a-2c85-4040-9bd6-92c5fe4fe8ad"},{"reference":"ServiceRequest/f0d481c9-9de0-49b7-bb48-e9a667b2ba84"}]},"request":{"method":"PUT","url":"MeasureReport/15ee795e-7ed2-4da2-a589-1776e45fab4c"}},{"resource":{"resourceType":"ServiceRequest","id":"f0d481c9-9de0-49b7-bb48-e9a667b2ba84","meta":{"profile":["http://hl7.org/fhir/us/qicore/StructureDefinition/qicore-servicerequest"]},"status":"draft","intent":"order","category":[{"coding":[{"system":"http://snomed.info/sct","code":"387713003","display":"Surgical procedure"}]}],"priority":"routine","code":{"coding":[{"system":"http://snomed.info/sct","code":"385763009","display":"Hospice care (regime/therapy)"}]},"subject":{"reference":"Patient/94d2a25e-9eec-44ce-bc34-711452549be8"},"authoredOn":"2026-01-02T00:00:00.000+00:00","performerType":{"coding":[{"system":"http://snomed.info/sct","code":"405279007","display":"Attending physician (occupation)"}]}},"request":{"method":"PUT","url":"ServiceRequest/f0d481c9-9de0-49b7-bb48-e9a667b2ba84"}},{"resource":{"resourceType":"Patient","id":"94d2a25e-9eec-44ce-bc34-711452549be8","meta":{"profile":["http://hl7.org/fhir/us/qicore/StructureDefinition/qicore-patient"]},"extension":[{"url":"http://hl7.org/fhir/us/core/StructureDefinition/us-core-race","extension":[{"url":"ombCategory","valueCoding":{"system":"urn:oid:2.16.840.1.113883.6.238","code":"2028-9","display":"Asian"}},{"url":"text","valueString":"Asian"}]},{"url":"http://hl7.org/fhir/us/core/StructureDefinition/us-core-ethnicity","extension":[{"url":"ombCategory","valueCoding":{"system":"urn:oid:2.16.840.1.113883.6.238","code":"2135-2","display":"Hispanic or Latino"}},{"url":"text","valueString":"Hispanic or Latino"}]}],"identifier":[{"system":"http://hospital.smarthealthit.org","value":"999999995"}],"name":[{"family":"DENEXFail","given":["HospiceServiceRequestDraft"]}],"gender":"female","birthDate":"2007-12-31"},"request":{"method":"PUT","url":"Patient/94d2a25e-9eec-44ce-bc34-711452549be8"}},{"resource":{"resourceType":"Condition","id":"f84b278a-2c85-4040-9bd6-92c5fe4fe8ad","meta":{"profile":["http://hl7.org/fhir/us/qicore/StructureDefinition/qicore-condition-problems-health-concerns"]},"clinicalStatus":{"coding":[{"system":"http://terminology.hl7.org/CodeSystem/condition-clinical","code":"active"}]},"category":[{"coding":[{"system":"http://terminology.hl7.org/CodeSystem/condition-category","code":"problem-list-item","display":"Problem List Item"}]}],"code":{"coding":[{"system":"http://snomed.info/sct","code":"371125006","display":"Labile essential hypertension (disorder)"}]},"subject":{"reference":"Patient/94d2a25e-9eec-44ce-bc34-711452549be8"},"onsetDateTime":"2026-06-30T23:59:59.000+00:00"},"request":{"method":"PUT","url":"Condition/f84b278a-2c85-4040-9bd6-92c5fe4fe8ad"}},{"resource":{"resourceType":"Bundle","id":"DENEXFail-HospiceServiceRequestDraft","type":"transaction","entry":[{"fullUrl":"https://madie.cms.gov/Patient/94d2a25e-9eec-44ce-bc34-711452549be8","resource":{"resourceType":"Patient","id":"94d2a25e-9eec-44ce-bc34-711452549be8","meta":{"profile":["http://hl7.org/fhir/us/qicore/StructureDefinition/qicore-patient"]},"extension":[{"url":"http://hl7.org/fhir/us/core/StructureDefinition/us-core-race","extension":[{"url":"ombCategory","valueCoding":{"system":"urn:oid:2.16.840.1.113883.6.238","code":"2028-9","display":"Asian"}},{"url":"text","valueString":"Asian"}]},{"url":"http://hl7.org/fhir/us/core/StructureDefinition/us-core-ethnicity","extension":[{"url":"ombCategory","valueCoding":{"system":"urn:oid:2.16.840.1.113883.6.238","code":"2135-2","display":"Hispanic or Latino"}},{"url":"text","valueString":"Hispanic or Latino"}]}],"identifier":[{"system":"http://hospital.smarthealthit.org","value":"999999995"}],"name":[{"family":"DENEXFail","given":["HospiceServiceRequestDraft"]}],"gender":"female","birthDate":"2007-12-31"},"request":{"method":"PUT","url":"Patient/94d2a25e-9eec-44ce-bc34-711452549be8"}},{"fullUrl":"https://madie.cms.gov/Encounter/086c602a-4fbf-4818-8816-a2f4be5ee95a","resource":{"resourceType":"Encounter","id":"086c602a-4fbf-4818-8816-a2f4be5ee95a","meta":{"profile":["http://hl7.org/fhir/us/qicore/StructureDefinition/qicore-encounter"]},"status":"finished","class":{"system":"http://terminology.hl7.org/CodeSystem/v3-ActCode","code":"AMB","display":"ambulatory"},"type":[{"coding":[{"system":"http://snomed.info/sct","code":"3391000175108","display":"Office visit for pediatric care and assessment (procedure)"}]}],"subject":{"reference":"Patient/94d2a25e-9eec-44ce-bc34-711452549be8"},"period":{"start":"2026-01-01T00:00:00.000+00:00","end":"2026-01-01T01:00:00.000+00:00"}},"request":{"method":"PUT","url":"Encounter/086c602a-4fbf-4818-8816-a2f4be5ee95a"}},{"fullUrl":"https://madie.cms.gov/Condition/f84b278a-2c85-4040-9bd6-92c5fe4fe8ad","resource":{"resourceType":"Condition","id":"f84b278a-2c85-4040-9bd6-92c5fe4fe8ad","meta":{"profile":["http://hl7.org/fhir/us/qicore/StructureDefinition/qicore-condition-problems-health-concerns"]},"clinicalStatus":{"coding":[{"system":"http://terminology.hl7.org/CodeSystem/condition-clinical","code":"active"}]},"category":[{"coding":[{"system":"http://terminology.hl7.org/CodeSystem/condition-category","code":"problem-list-item","display":"Problem List Item"}]}],"code":{"coding":[{"system":"http://snomed.info/sct","code":"371125006","display":"Labile essential hypertension (disorder)"}]},"subject":{"reference":"Patient/94d2a25e-9eec-44ce-bc34-711452549be8"},"onsetDateTime":"2026-06-30T23:59:59.000+00:00"},"request":{"method":"PUT","url":"Condition/f84b278a-2c85-4040-9bd6-92c5fe4fe8ad"}},{"fullUrl":"https://madie.cms.gov/ServiceRequest/f0d481c9-9de0-49b7-bb48-e9a667b2ba84","resource":{"resourceType":"ServiceRequest","id":"f0d481c9-9de0-49b7-bb48-e9a667b2ba84","meta":{"profile":["http://hl7.org/fhir/us/qicore/StructureDefinition/qicore-servicerequest"]},"status":"draft","intent":"order","category":[{"coding":[{"system":"http://snomed.info/sct","code":"387713003","display":"Surgical procedure"}]}],"priority":"routine","code":{"coding":[{"system":"http://snomed.info/sct","code":"385763009","display":"Hospice care (regime/therapy)"}]},"subject":{"reference":"Patient/94d2a25e-9eec-44ce-bc34-711452549be8"},"authoredOn":"2026-01-02T00:00:00.000+00:00","performerType":{"coding":[{"system":"http://snomed.info/sct","code":"405279007","display":"Attending physician (occupation)"}]}},"request":{"method":"PUT","url":"ServiceRequest/f0d481c9-9de0-49b7-bb48-e9a667b2ba84"}},{"fullUrl":"https://madie.cms.gov/MeasureReport/15ee795e-7ed2-4da2-a589-1776e45fab4c","resource":{"resourceType":"MeasureReport","id":"15ee795e-7ed2-4da2-a589-1776e45fab4c","meta":{"profile":["http://hl7.org/fhir/us/cqfmeasures/StructureDefinition/test-case-cqfm"]},"contained":[{"resourceType":"Parameters","id":"5940c731-5c08-4b9d-bab5-bb28bc19deb0-parameters","parameter":[{"name":"subject","valueString":"94d2a25e-9eec-44ce-bc34-711452549be8"}]}],"extension":[{"url":"http://hl7.org/fhir/StructureDefinition/cqf-inputParameters","valueReference":{"reference":"#5940c731-5c08-4b9d-bab5-bb28bc19deb0-parameters"}},{"url":"http://hl7.org/fhir/us/cqfmeasures/StructureDefinition/cqfm-testCaseDescription","valueMarkdown":"Hospice service request status is in draft"}],"modifierExtension":[{"url":"http://hl7.org/fhir/us/cqfmeasures/StructureDefinition/cqfm-isTestCase","valueBoolean":true}],"status":"complete","type":"individual","measure":"https://madie.cms.gov/Measure/CMS165FHIRControllingHighBloodPressure","period":{"start":"2026-01-01","end":"2026-12-31"},"group":[{"id":"Group_1","population":[{"id":"InitialPopulation_1","code":{"coding":[{"system":"http://terminology.hl7.org/CodeSystem/measure-population","code":"initial-population","display":"Initial Population"}]},"count":1},{"id":"Denominator_1","code":{"coding":[{"system":"http://terminology.hl7.org/CodeSystem/measure-population","code":"denominator","display":"Denominator"}]},"count":1},{"id":"DenominatorExclusion_1","code":{"coding":[{"system":"http://terminology.hl7.org/CodeSystem/measure-population","code":"denominator-exclusion","display":"Denominator Exclusion"}]},"count":0},{"id":"Numerator_1","code":{"coding":[{"system":"http://terminology.hl7.org/CodeSystem/measure-population","code":"numerator","display":"Numerator"}]},"count":0}],"measureScore":{"value":1.0}}],"evaluatedResource":[{"reference":"Patient/94d2a25e-9eec-44ce-bc34-711452549be8"},{"reference":"Encounter/086c602a-4fbf-4818-8816-a2f4be5ee95a"},{"reference":"Condition/f84b278a-2c85-4040-9bd6-92c5fe4fe8ad"},{"reference":"ServiceRequest/f0d481c9-9de0-49b7-bb48-e9a667b2ba84"}]},"request":{"method":"PUT","url":"MeasureReport/15ee795e-7ed2-4da2-a589-1776e45fab4c"}}]},"request":{"method":"PUT","url":"Bundle/DENEXFail-HospiceServiceRequestDraft"}}]}