{"resourceType":"Bundle","id":"tests-352a05d3-750c-45bd-a170-a8a8822b7697-bundle","type":"transaction","entry":[{"resource":{"resourceType":"Bundle","id":"DENEXPass-HospiceObsValueIsYes","type":"transaction","entry":[{"fullUrl":"https://madie.cms.gov/Patient/352a05d3-750c-45bd-a170-a8a8822b7697","resource":{"resourceType":"Patient","id":"352a05d3-750c-45bd-a170-a8a8822b7697","meta":{"profile":["http://hl7.org/fhir/us/qicore/StructureDefinition/qicore-patient"]},"extension":[{"url":"http://hl7.org/fhir/us/core/StructureDefinition/us-core-race","extension":[{"url":"ombCategory","valueCoding":{"system":"urn:oid:2.16.840.1.113883.6.238","code":"2028-9","display":"Asian"}},{"url":"text","valueString":"Asian"}]},{"url":"http://hl7.org/fhir/us/core/StructureDefinition/us-core-ethnicity","extension":[{"url":"ombCategory","valueCoding":{"system":"urn:oid:2.16.840.1.113883.6.238","code":"2135-2","display":"Hispanic or Latino"}},{"url":"text","valueString":"Hispanic or Latino"}]}],"identifier":[{"system":"http://hospital.smarthealthit.org","value":"999999995"}],"name":[{"family":"DENEXPass","given":["HospiceObsValueIsYes"]}],"gender":"female","birthDate":"2007-12-31"},"request":{"method":"PUT","url":"Patient/352a05d3-750c-45bd-a170-a8a8822b7697"}},{"fullUrl":"https://madie.cms.gov/Encounter/4b7b1fa6-3c24-47bd-9f1a-6385d3550ca5","resource":{"resourceType":"Encounter","id":"4b7b1fa6-3c24-47bd-9f1a-6385d3550ca5","meta":{"profile":["http://hl7.org/fhir/us/qicore/StructureDefinition/qicore-encounter"]},"status":"finished","class":{"system":"http://terminology.hl7.org/CodeSystem/v3-ActCode","code":"AMB","display":"ambulatory"},"type":[{"coding":[{"system":"http://snomed.info/sct","code":"3391000175108","display":"Office visit for pediatric care and assessment (procedure)"}]}],"subject":{"reference":"Patient/352a05d3-750c-45bd-a170-a8a8822b7697"},"period":{"start":"2026-01-01T00:00:00.000+00:00","end":"2026-01-01T01:00:00.000+00:00"}},"request":{"method":"PUT","url":"Encounter/4b7b1fa6-3c24-47bd-9f1a-6385d3550ca5"}},{"fullUrl":"https://madie.cms.gov/Condition/2dab34c6-0205-46bf-af3a-d6644de92417","resource":{"resourceType":"Condition","id":"2dab34c6-0205-46bf-af3a-d6644de92417","meta":{"profile":["http://hl7.org/fhir/us/qicore/StructureDefinition/qicore-condition-problems-health-concerns"]},"clinicalStatus":{"coding":[{"system":"http://terminology.hl7.org/CodeSystem/condition-clinical","code":"active"}]},"category":[{"coding":[{"system":"http://terminology.hl7.org/CodeSystem/condition-category","code":"problem-list-item","display":"Problem List Item"}]}],"code":{"coding":[{"system":"http://snomed.info/sct","code":"371125006","display":"Labile essential hypertension (disorder)"}]},"subject":{"reference":"Patient/352a05d3-750c-45bd-a170-a8a8822b7697"},"onsetDateTime":"2026-06-30T23:59:59.000+00:00"},"request":{"method":"PUT","url":"Condition/2dab34c6-0205-46bf-af3a-d6644de92417"}},{"fullUrl":"https://madie.cms.gov/Observation/80bb9580-61da-4b05-b161-413cba78e997","resource":{"resourceType":"Observation","id":"80bb9580-61da-4b05-b161-413cba78e997","meta":{"profile":["http://hl7.org/fhir/us/qicore/StructureDefinition/qicore-observation-screening-assessment"]},"status":"final","category":[{"coding":[{"system":"http://terminology.hl7.org/CodeSystem/observation-category","code":"survey"}]}],"code":{"coding":[{"system":"http://loinc.org","code":"45755-6","display":"Hospice care [Minimum Data Set]"}]},"subject":{"reference":"Patient/352a05d3-750c-45bd-a170-a8a8822b7697"},"effectivePeriod":{"start":"2025-12-31T00:00:00.000+00:00","end":"2026-01-01T00:00:00.000+00:00"},"valueCodeableConcept":{"coding":[{"system":"http://snomed.info/sct","code":"373066001","display":"Yes (qualifier value)"}]}},"request":{"method":"PUT","url":"Observation/80bb9580-61da-4b05-b161-413cba78e997"}},{"fullUrl":"https://madie.cms.gov/MeasureReport/eed316d3-7543-4cd0-aad8-16d5681330d1","resource":{"resourceType":"MeasureReport","id":"eed316d3-7543-4cd0-aad8-16d5681330d1","meta":{"profile":["http://hl7.org/fhir/us/cqfmeasures/StructureDefinition/test-case-cqfm"]},"contained":[{"resourceType":"Parameters","id":"958df4f8-e279-42bb-9650-ef5f628cde01-parameters","parameter":[{"name":"subject","valueString":"352a05d3-750c-45bd-a170-a8a8822b7697"}]}],"extension":[{"url":"http://hl7.org/fhir/StructureDefinition/cqf-inputParameters","valueReference":{"reference":"#958df4f8-e279-42bb-9650-ef5f628cde01-parameters"}},{"url":"http://hl7.org/fhir/us/cqfmeasures/StructureDefinition/cqfm-testCaseDescription","valueMarkdown":"Hospice survey observation value is yes"}],"modifierExtension":[{"url":"http://hl7.org/fhir/us/cqfmeasures/StructureDefinition/cqfm-isTestCase","valueBoolean":true}],"status":"complete","type":"individual","measure":"https://madie.cms.gov/Measure/CMS165FHIRControllingHighBloodPressure","period":{"start":"2026-01-01","end":"2026-12-31"},"group":[{"id":"Group_1","population":[{"id":"InitialPopulation_1","code":{"coding":[{"system":"http://terminology.hl7.org/CodeSystem/measure-population","code":"initial-population","display":"Initial Population"}]},"count":1},{"id":"Denominator_1","code":{"coding":[{"system":"http://terminology.hl7.org/CodeSystem/measure-population","code":"denominator","display":"Denominator"}]},"count":1},{"id":"DenominatorExclusion_1","code":{"coding":[{"system":"http://terminology.hl7.org/CodeSystem/measure-population","code":"denominator-exclusion","display":"Denominator Exclusion"}]},"count":1},{"id":"Numerator_1","code":{"coding":[{"system":"http://terminology.hl7.org/CodeSystem/measure-population","code":"numerator","display":"Numerator"}]},"count":0}],"measureScore":{"value":1.0}}],"evaluatedResource":[{"reference":"Patient/352a05d3-750c-45bd-a170-a8a8822b7697"},{"reference":"Encounter/4b7b1fa6-3c24-47bd-9f1a-6385d3550ca5"},{"reference":"Condition/2dab34c6-0205-46bf-af3a-d6644de92417"},{"reference":"Observation/80bb9580-61da-4b05-b161-413cba78e997"}]},"request":{"method":"PUT","url":"MeasureReport/eed316d3-7543-4cd0-aad8-16d5681330d1"}}]},"request":{"method":"PUT","url":"Bundle/DENEXPass-HospiceObsValueIsYes"}},{"resource":{"resourceType":"Encounter","id":"4b7b1fa6-3c24-47bd-9f1a-6385d3550ca5","meta":{"profile":["http://hl7.org/fhir/us/qicore/StructureDefinition/qicore-encounter"]},"status":"finished","class":{"system":"http://terminology.hl7.org/CodeSystem/v3-ActCode","code":"AMB","display":"ambulatory"},"type":[{"coding":[{"system":"http://snomed.info/sct","code":"3391000175108","display":"Office visit for pediatric care and assessment (procedure)"}]}],"subject":{"reference":"Patient/352a05d3-750c-45bd-a170-a8a8822b7697"},"period":{"start":"2026-01-01T00:00:00.000+00:00","end":"2026-01-01T01:00:00.000+00:00"}},"request":{"method":"PUT","url":"Encounter/4b7b1fa6-3c24-47bd-9f1a-6385d3550ca5"}},{"resource":{"resourceType":"MeasureReport","id":"eed316d3-7543-4cd0-aad8-16d5681330d1","meta":{"profile":["http://hl7.org/fhir/us/cqfmeasures/StructureDefinition/test-case-cqfm"]},"contained":[{"resourceType":"Parameters","id":"958df4f8-e279-42bb-9650-ef5f628cde01-parameters","parameter":[{"name":"subject","valueString":"352a05d3-750c-45bd-a170-a8a8822b7697"}]}],"extension":[{"url":"http://hl7.org/fhir/StructureDefinition/cqf-inputParameters","valueReference":{"reference":"#958df4f8-e279-42bb-9650-ef5f628cde01-parameters"}},{"url":"http://hl7.org/fhir/us/cqfmeasures/StructureDefinition/cqfm-testCaseDescription","valueMarkdown":"Hospice survey observation value is yes"}],"modifierExtension":[{"url":"http://hl7.org/fhir/us/cqfmeasures/StructureDefinition/cqfm-isTestCase","valueBoolean":true}],"status":"complete","type":"individual","measure":"https://madie.cms.gov/Measure/CMS165FHIRControllingHighBloodPressure","period":{"start":"2026-01-01","end":"2026-12-31"},"group":[{"id":"Group_1","population":[{"id":"InitialPopulation_1","code":{"coding":[{"system":"http://terminology.hl7.org/CodeSystem/measure-population","code":"initial-population","display":"Initial Population"}]},"count":1},{"id":"Denominator_1","code":{"coding":[{"system":"http://terminology.hl7.org/CodeSystem/measure-population","code":"denominator","display":"Denominator"}]},"count":1},{"id":"DenominatorExclusion_1","code":{"coding":[{"system":"http://terminology.hl7.org/CodeSystem/measure-population","code":"denominator-exclusion","display":"Denominator Exclusion"}]},"count":1},{"id":"Numerator_1","code":{"coding":[{"system":"http://terminology.hl7.org/CodeSystem/measure-population","code":"numerator","display":"Numerator"}]},"count":0}],"measureScore":{"value":1.0}}],"evaluatedResource":[{"reference":"Patient/352a05d3-750c-45bd-a170-a8a8822b7697"},{"reference":"Encounter/4b7b1fa6-3c24-47bd-9f1a-6385d3550ca5"},{"reference":"Condition/2dab34c6-0205-46bf-af3a-d6644de92417"},{"reference":"Observation/80bb9580-61da-4b05-b161-413cba78e997"}]},"request":{"method":"PUT","url":"MeasureReport/eed316d3-7543-4cd0-aad8-16d5681330d1"}},{"resource":{"resourceType":"Patient","id":"352a05d3-750c-45bd-a170-a8a8822b7697","meta":{"profile":["http://hl7.org/fhir/us/qicore/StructureDefinition/qicore-patient"]},"extension":[{"url":"http://hl7.org/fhir/us/core/StructureDefinition/us-core-race","extension":[{"url":"ombCategory","valueCoding":{"system":"urn:oid:2.16.840.1.113883.6.238","code":"2028-9","display":"Asian"}},{"url":"text","valueString":"Asian"}]},{"url":"http://hl7.org/fhir/us/core/StructureDefinition/us-core-ethnicity","extension":[{"url":"ombCategory","valueCoding":{"system":"urn:oid:2.16.840.1.113883.6.238","code":"2135-2","display":"Hispanic or Latino"}},{"url":"text","valueString":"Hispanic or Latino"}]}],"identifier":[{"system":"http://hospital.smarthealthit.org","value":"999999995"}],"name":[{"family":"DENEXPass","given":["HospiceObsValueIsYes"]}],"gender":"female","birthDate":"2007-12-31"},"request":{"method":"PUT","url":"Patient/352a05d3-750c-45bd-a170-a8a8822b7697"}},{"resource":{"resourceType":"Condition","id":"2dab34c6-0205-46bf-af3a-d6644de92417","meta":{"profile":["http://hl7.org/fhir/us/qicore/StructureDefinition/qicore-condition-problems-health-concerns"]},"clinicalStatus":{"coding":[{"system":"http://terminology.hl7.org/CodeSystem/condition-clinical","code":"active"}]},"category":[{"coding":[{"system":"http://terminology.hl7.org/CodeSystem/condition-category","code":"problem-list-item","display":"Problem List Item"}]}],"code":{"coding":[{"system":"http://snomed.info/sct","code":"371125006","display":"Labile essential hypertension (disorder)"}]},"subject":{"reference":"Patient/352a05d3-750c-45bd-a170-a8a8822b7697"},"onsetDateTime":"2026-06-30T23:59:59.000+00:00"},"request":{"method":"PUT","url":"Condition/2dab34c6-0205-46bf-af3a-d6644de92417"}},{"resource":{"resourceType":"Observation","id":"80bb9580-61da-4b05-b161-413cba78e997","meta":{"profile":["http://hl7.org/fhir/us/qicore/StructureDefinition/qicore-observation-screening-assessment"]},"status":"final","category":[{"coding":[{"system":"http://terminology.hl7.org/CodeSystem/observation-category","code":"survey"}]}],"code":{"coding":[{"system":"http://loinc.org","code":"45755-6","display":"Hospice care [Minimum Data Set]"}]},"subject":{"reference":"Patient/352a05d3-750c-45bd-a170-a8a8822b7697"},"effectivePeriod":{"start":"2025-12-31T00:00:00.000+00:00","end":"2026-01-01T00:00:00.000+00:00"},"valueCodeableConcept":{"coding":[{"system":"http://snomed.info/sct","code":"373066001","display":"Yes (qualifier value)"}]}},"request":{"method":"PUT","url":"Observation/80bb9580-61da-4b05-b161-413cba78e997"}}]}