{"resourceType":"Bundle","id":"tests-0e867903-400d-4d71-a7fd-dc9b96d94a17-bundle","type":"transaction","entry":[{"resource":{"resourceType":"Condition","id":"3e3392e0-8766-42cc-8681-cbc3d09485b5","meta":{"profile":["http://hl7.org/fhir/us/qicore/StructureDefinition/qicore-condition-encounter-diagnosis"]},"clinicalStatus":{"coding":[{"system":"http://terminology.hl7.org/CodeSystem/condition-clinical","code":"active"}]},"category":[{"coding":[{"system":"http://terminology.hl7.org/CodeSystem/condition-category","code":"encounter-diagnosis","display":"Encounter Diagnosis"}]}],"code":{"coding":[{"system":"http://snomed.info/sct","code":"371125006","display":"Labile essential hypertension (disorder)"}]},"subject":{"reference":"Patient/0e867903-400d-4d71-a7fd-dc9b96d94a17"},"onsetDateTime":"2026-06-30T23:59:59.000+00:00"},"request":{"method":"PUT","url":"Condition/3e3392e0-8766-42cc-8681-cbc3d09485b5"}},{"resource":{"resourceType":"Encounter","id":"fecb6564-a194-4605-928e-7ac03ff25b84","meta":{"profile":["http://hl7.org/fhir/us/qicore/StructureDefinition/qicore-encounter"]},"status":"finished","class":{"system":"http://terminology.hl7.org/CodeSystem/v3-ActCode","code":"AMB","display":"ambulatory"},"type":[{"coding":[{"system":"http://snomed.info/sct","code":"3391000175108","display":"Office visit for pediatric care and assessment (procedure)"}]}],"subject":{"reference":"Patient/0e867903-400d-4d71-a7fd-dc9b96d94a17"},"period":{"start":"2026-01-01T00:00:00.000+00:00","end":"2026-01-01T01:00:00.000+00:00"}},"request":{"method":"PUT","url":"Encounter/fecb6564-a194-4605-928e-7ac03ff25b84"}},{"resource":{"resourceType":"Procedure","id":"9d685e4b-eae0-4e44-b14d-c0b0ab92540f","meta":{"profile":["http://hl7.org/fhir/us/qicore/StructureDefinition/qicore-procedure"]},"extension":[{"url":"http://hl7.org/fhir/us/qicore/StructureDefinition/qicore-recorded","valueDateTime":"2026-12-31T00:00:00.000+00:00"}],"status":"completed","code":{"coding":[{"system":"http://snomed.info/sct","code":"385763009","display":"Hospice care (regime/therapy)"}]},"subject":{"reference":"Patient/0e867903-400d-4d71-a7fd-dc9b96d94a17"},"performedPeriod":{"start":"2026-12-31T00:00:00.000+00:00","end":"2026-12-31T23:59:59.000+00:00"}},"request":{"method":"PUT","url":"Procedure/9d685e4b-eae0-4e44-b14d-c0b0ab92540f"}},{"resource":{"resourceType":"MeasureReport","id":"b9eb93d9-5e8c-4dd5-bf4d-d81aa0f85e8c","meta":{"profile":["http://hl7.org/fhir/us/cqfmeasures/StructureDefinition/test-case-cqfm"]},"contained":[{"resourceType":"Parameters","id":"3171a668-f8db-4ed9-88d5-fae3b2efaaf1-parameters","parameter":[{"name":"subject","valueString":"0e867903-400d-4d71-a7fd-dc9b96d94a17"}]}],"extension":[{"url":"http://hl7.org/fhir/StructureDefinition/cqf-inputParameters","valueReference":{"reference":"#3171a668-f8db-4ed9-88d5-fae3b2efaaf1-parameters"}},{"url":"http://hl7.org/fhir/us/cqfmeasures/StructureDefinition/cqfm-testCaseDescription","valueMarkdown":"Hospice procedure starts during MP"}],"modifierExtension":[{"url":"http://hl7.org/fhir/us/cqfmeasures/StructureDefinition/cqfm-isTestCase","valueBoolean":true}],"status":"complete","type":"individual","measure":"https://madie.cms.gov/Measure/CMS165FHIRControllingHighBloodPressure","period":{"start":"2026-01-01","end":"2026-12-31"},"group":[{"id":"Group_1","population":[{"id":"InitialPopulation_1","code":{"coding":[{"system":"http://terminology.hl7.org/CodeSystem/measure-population","code":"initial-population","display":"Initial Population"}]},"count":1},{"id":"Denominator_1","code":{"coding":[{"system":"http://terminology.hl7.org/CodeSystem/measure-population","code":"denominator","display":"Denominator"}]},"count":1},{"id":"DenominatorExclusion_1","code":{"coding":[{"system":"http://terminology.hl7.org/CodeSystem/measure-population","code":"denominator-exclusion","display":"Denominator Exclusion"}]},"count":1},{"id":"Numerator_1","code":{"coding":[{"system":"http://terminology.hl7.org/CodeSystem/measure-population","code":"numerator","display":"Numerator"}]},"count":0}],"measureScore":{"value":1.0}}],"evaluatedResource":[{"reference":"Patient/0e867903-400d-4d71-a7fd-dc9b96d94a17"},{"reference":"Encounter/fecb6564-a194-4605-928e-7ac03ff25b84"},{"reference":"Condition/3e3392e0-8766-42cc-8681-cbc3d09485b5"},{"reference":"Procedure/9d685e4b-eae0-4e44-b14d-c0b0ab92540f"}]},"request":{"method":"PUT","url":"MeasureReport/b9eb93d9-5e8c-4dd5-bf4d-d81aa0f85e8c"}},{"resource":{"resourceType":"Bundle","id":"DENEXPass-HospiceProcedureStartsDuringMP","type":"transaction","entry":[{"fullUrl":"https://madie.cms.gov/Patient/0e867903-400d-4d71-a7fd-dc9b96d94a17","resource":{"resourceType":"Patient","id":"0e867903-400d-4d71-a7fd-dc9b96d94a17","meta":{"profile":["http://hl7.org/fhir/us/qicore/StructureDefinition/qicore-patient"]},"extension":[{"url":"http://hl7.org/fhir/us/core/StructureDefinition/us-core-race","extension":[{"url":"ombCategory","valueCoding":{"system":"urn:oid:2.16.840.1.113883.6.238","code":"2028-9","display":"Asian"}},{"url":"text","valueString":"Asian"}]},{"url":"http://hl7.org/fhir/us/core/StructureDefinition/us-core-ethnicity","extension":[{"url":"ombCategory","valueCoding":{"system":"urn:oid:2.16.840.1.113883.6.238","code":"2135-2","display":"Hispanic or Latino"}},{"url":"text","valueString":"Hispanic or Latino"}]}],"identifier":[{"system":"http://hospital.smarthealthit.org","value":"999999995"}],"name":[{"family":"DENEXPass","given":["HospiceProcedureStartsDuringMP"]}],"gender":"female","birthDate":"2007-12-31"},"request":{"method":"PUT","url":"Patient/0e867903-400d-4d71-a7fd-dc9b96d94a17"}},{"fullUrl":"https://madie.cms.gov/Encounter/fecb6564-a194-4605-928e-7ac03ff25b84","resource":{"resourceType":"Encounter","id":"fecb6564-a194-4605-928e-7ac03ff25b84","meta":{"profile":["http://hl7.org/fhir/us/qicore/StructureDefinition/qicore-encounter"]},"status":"finished","class":{"system":"http://terminology.hl7.org/CodeSystem/v3-ActCode","code":"AMB","display":"ambulatory"},"type":[{"coding":[{"system":"http://snomed.info/sct","code":"3391000175108","display":"Office visit for pediatric care and assessment (procedure)"}]}],"subject":{"reference":"Patient/0e867903-400d-4d71-a7fd-dc9b96d94a17"},"period":{"start":"2026-01-01T00:00:00.000+00:00","end":"2026-01-01T01:00:00.000+00:00"}},"request":{"method":"PUT","url":"Encounter/fecb6564-a194-4605-928e-7ac03ff25b84"}},{"fullUrl":"https://madie.cms.gov/Condition/3e3392e0-8766-42cc-8681-cbc3d09485b5","resource":{"resourceType":"Condition","id":"3e3392e0-8766-42cc-8681-cbc3d09485b5","meta":{"profile":["http://hl7.org/fhir/us/qicore/StructureDefinition/qicore-condition-encounter-diagnosis"]},"clinicalStatus":{"coding":[{"system":"http://terminology.hl7.org/CodeSystem/condition-clinical","code":"active"}]},"category":[{"coding":[{"system":"http://terminology.hl7.org/CodeSystem/condition-category","code":"encounter-diagnosis","display":"Encounter Diagnosis"}]}],"code":{"coding":[{"system":"http://snomed.info/sct","code":"371125006","display":"Labile essential hypertension (disorder)"}]},"subject":{"reference":"Patient/0e867903-400d-4d71-a7fd-dc9b96d94a17"},"onsetDateTime":"2026-06-30T23:59:59.000+00:00"},"request":{"method":"PUT","url":"Condition/3e3392e0-8766-42cc-8681-cbc3d09485b5"}},{"fullUrl":"https://madie.cms.gov/Procedure/9d685e4b-eae0-4e44-b14d-c0b0ab92540f","resource":{"resourceType":"Procedure","id":"9d685e4b-eae0-4e44-b14d-c0b0ab92540f","meta":{"profile":["http://hl7.org/fhir/us/qicore/StructureDefinition/qicore-procedure"]},"extension":[{"url":"http://hl7.org/fhir/us/qicore/StructureDefinition/qicore-recorded","valueDateTime":"2026-12-31T00:00:00.000+00:00"}],"status":"completed","code":{"coding":[{"system":"http://snomed.info/sct","code":"385763009","display":"Hospice care (regime/therapy)"}]},"subject":{"reference":"Patient/0e867903-400d-4d71-a7fd-dc9b96d94a17"},"performedPeriod":{"start":"2026-12-31T00:00:00.000+00:00","end":"2026-12-31T23:59:59.000+00:00"}},"request":{"method":"PUT","url":"Procedure/9d685e4b-eae0-4e44-b14d-c0b0ab92540f"}},{"fullUrl":"https://madie.cms.gov/MeasureReport/b9eb93d9-5e8c-4dd5-bf4d-d81aa0f85e8c","resource":{"resourceType":"MeasureReport","id":"b9eb93d9-5e8c-4dd5-bf4d-d81aa0f85e8c","meta":{"profile":["http://hl7.org/fhir/us/cqfmeasures/StructureDefinition/test-case-cqfm"]},"contained":[{"resourceType":"Parameters","id":"3171a668-f8db-4ed9-88d5-fae3b2efaaf1-parameters","parameter":[{"name":"subject","valueString":"0e867903-400d-4d71-a7fd-dc9b96d94a17"}]}],"extension":[{"url":"http://hl7.org/fhir/StructureDefinition/cqf-inputParameters","valueReference":{"reference":"#3171a668-f8db-4ed9-88d5-fae3b2efaaf1-parameters"}},{"url":"http://hl7.org/fhir/us/cqfmeasures/StructureDefinition/cqfm-testCaseDescription","valueMarkdown":"Hospice procedure starts during MP"}],"modifierExtension":[{"url":"http://hl7.org/fhir/us/cqfmeasures/StructureDefinition/cqfm-isTestCase","valueBoolean":true}],"status":"complete","type":"individual","measure":"https://madie.cms.gov/Measure/CMS165FHIRControllingHighBloodPressure","period":{"start":"2026-01-01","end":"2026-12-31"},"group":[{"id":"Group_1","population":[{"id":"InitialPopulation_1","code":{"coding":[{"system":"http://terminology.hl7.org/CodeSystem/measure-population","code":"initial-population","display":"Initial Population"}]},"count":1},{"id":"Denominator_1","code":{"coding":[{"system":"http://terminology.hl7.org/CodeSystem/measure-population","code":"denominator","display":"Denominator"}]},"count":1},{"id":"DenominatorExclusion_1","code":{"coding":[{"system":"http://terminology.hl7.org/CodeSystem/measure-population","code":"denominator-exclusion","display":"Denominator Exclusion"}]},"count":1},{"id":"Numerator_1","code":{"coding":[{"system":"http://terminology.hl7.org/CodeSystem/measure-population","code":"numerator","display":"Numerator"}]},"count":0}],"measureScore":{"value":1.0}}],"evaluatedResource":[{"reference":"Patient/0e867903-400d-4d71-a7fd-dc9b96d94a17"},{"reference":"Encounter/fecb6564-a194-4605-928e-7ac03ff25b84"},{"reference":"Condition/3e3392e0-8766-42cc-8681-cbc3d09485b5"},{"reference":"Procedure/9d685e4b-eae0-4e44-b14d-c0b0ab92540f"}]},"request":{"method":"PUT","url":"MeasureReport/b9eb93d9-5e8c-4dd5-bf4d-d81aa0f85e8c"}}]},"request":{"method":"PUT","url":"Bundle/DENEXPass-HospiceProcedureStartsDuringMP"}},{"resource":{"resourceType":"Patient","id":"0e867903-400d-4d71-a7fd-dc9b96d94a17","meta":{"profile":["http://hl7.org/fhir/us/qicore/StructureDefinition/qicore-patient"]},"extension":[{"url":"http://hl7.org/fhir/us/core/StructureDefinition/us-core-race","extension":[{"url":"ombCategory","valueCoding":{"system":"urn:oid:2.16.840.1.113883.6.238","code":"2028-9","display":"Asian"}},{"url":"text","valueString":"Asian"}]},{"url":"http://hl7.org/fhir/us/core/StructureDefinition/us-core-ethnicity","extension":[{"url":"ombCategory","valueCoding":{"system":"urn:oid:2.16.840.1.113883.6.238","code":"2135-2","display":"Hispanic or Latino"}},{"url":"text","valueString":"Hispanic or Latino"}]}],"identifier":[{"system":"http://hospital.smarthealthit.org","value":"999999995"}],"name":[{"family":"DENEXPass","given":["HospiceProcedureStartsDuringMP"]}],"gender":"female","birthDate":"2007-12-31"},"request":{"method":"PUT","url":"Patient/0e867903-400d-4d71-a7fd-dc9b96d94a17"}}]}