{"resourceType":"Bundle","id":"tests-698b2574-1170-4438-8400-f3e1992a4807-bundle","type":"transaction","entry":[{"resource":{"resourceType":"Encounter","id":"0d5ee043-50e3-40fd-9e8a-5377723326d8","meta":{"profile":["http://hl7.org/fhir/us/qicore/StructureDefinition/qicore-encounter"]},"status":"finished","class":{"system":"http://terminology.hl7.org/CodeSystem/v3-ActCode","code":"AMB","display":"ambulatory"},"type":[{"coding":[{"system":"http://snomed.info/sct","code":"32485007","display":"Hospital admission (procedure)"}]}],"subject":{"reference":"Patient/698b2574-1170-4438-8400-f3e1992a4807"},"period":{"start":"2025-12-31T23:59:59.000+00:00","end":"2026-01-01T01:00:00.000+00:00"}},"request":{"method":"PUT","url":"Encounter/0d5ee043-50e3-40fd-9e8a-5377723326d8"}},{"resource":{"resourceType":"Patient","id":"698b2574-1170-4438-8400-f3e1992a4807","meta":{"profile":["http://hl7.org/fhir/us/qicore/StructureDefinition/qicore-patient"]},"extension":[{"url":"http://hl7.org/fhir/us/core/StructureDefinition/us-core-race","extension":[{"url":"ombCategory","valueCoding":{"system":"urn:oid:2.16.840.1.113883.6.238","code":"2028-9","display":"Asian"}},{"url":"text","valueString":"Asian"}]},{"url":"http://hl7.org/fhir/us/core/StructureDefinition/us-core-ethnicity","extension":[{"url":"ombCategory","valueCoding":{"system":"urn:oid:2.16.840.1.113883.6.238","code":"2135-2","display":"Hispanic or Latino"}},{"url":"text","valueString":"Hispanic or Latino"}]}],"identifier":[{"system":"http://hospital.smarthealthit.org","value":"999999995"}],"name":[{"family":"IPFail","given":["InpatientEncNoHospiceDisch"]}],"gender":"female","birthDate":"2007-12-31"},"request":{"method":"PUT","url":"Patient/698b2574-1170-4438-8400-f3e1992a4807"}},{"resource":{"resourceType":"Bundle","id":"DENEXFail-InpatientEncNoHospiceDischarge","type":"transaction","entry":[{"fullUrl":"https://madie.cms.gov/Patient/698b2574-1170-4438-8400-f3e1992a4807","resource":{"resourceType":"Patient","id":"698b2574-1170-4438-8400-f3e1992a4807","meta":{"profile":["http://hl7.org/fhir/us/qicore/StructureDefinition/qicore-patient"]},"extension":[{"url":"http://hl7.org/fhir/us/core/StructureDefinition/us-core-race","extension":[{"url":"ombCategory","valueCoding":{"system":"urn:oid:2.16.840.1.113883.6.238","code":"2028-9","display":"Asian"}},{"url":"text","valueString":"Asian"}]},{"url":"http://hl7.org/fhir/us/core/StructureDefinition/us-core-ethnicity","extension":[{"url":"ombCategory","valueCoding":{"system":"urn:oid:2.16.840.1.113883.6.238","code":"2135-2","display":"Hispanic or Latino"}},{"url":"text","valueString":"Hispanic or Latino"}]}],"identifier":[{"system":"http://hospital.smarthealthit.org","value":"999999995"}],"name":[{"family":"IPFail","given":["InpatientEncNoHospiceDisch"]}],"gender":"female","birthDate":"2007-12-31"},"request":{"method":"PUT","url":"Patient/698b2574-1170-4438-8400-f3e1992a4807"}},{"fullUrl":"https://madie.cms.gov/Encounter/74179460-3989-4e64-82aa-a939c9a460cd","resource":{"resourceType":"Encounter","id":"74179460-3989-4e64-82aa-a939c9a460cd","meta":{"profile":["http://hl7.org/fhir/us/qicore/StructureDefinition/qicore-encounter"]},"status":"finished","class":{"system":"http://terminology.hl7.org/CodeSystem/v3-ActCode","code":"AMB","display":"ambulatory"},"type":[{"coding":[{"system":"http://snomed.info/sct","code":"3391000175108","display":"Office visit for pediatric care and assessment (procedure)"}]}],"subject":{"reference":"Patient/698b2574-1170-4438-8400-f3e1992a4807"},"period":{"start":"2026-01-01T00:00:00.000+00:00","end":"2026-01-01T01:00:00.000+00:00"}},"request":{"method":"PUT","url":"Encounter/74179460-3989-4e64-82aa-a939c9a460cd"}},{"fullUrl":"https://madie.cms.gov/Condition/ae1420fa-b21e-448b-a26c-cf6b34a497b6","resource":{"resourceType":"Condition","id":"ae1420fa-b21e-448b-a26c-cf6b34a497b6","meta":{"profile":["http://hl7.org/fhir/us/qicore/StructureDefinition/qicore-condition-encounter-diagnosis"]},"clinicalStatus":{"coding":[{"system":"http://terminology.hl7.org/CodeSystem/condition-clinical","code":"active"}]},"category":[{"coding":[{"system":"http://terminology.hl7.org/CodeSystem/condition-category","code":"encounter-diagnosis","display":"Encounter Diagnosis"}]}],"code":{"coding":[{"system":"http://snomed.info/sct","code":"371125006","display":"Labile essential hypertension (disorder)"}]},"subject":{"reference":"Patient/698b2574-1170-4438-8400-f3e1992a4807"},"onsetDateTime":"2026-06-30T23:59:59.000+00:00"},"request":{"method":"PUT","url":"Condition/ae1420fa-b21e-448b-a26c-cf6b34a497b6"}},{"fullUrl":"https://madie.cms.gov/Encounter/0d5ee043-50e3-40fd-9e8a-5377723326d8","resource":{"resourceType":"Encounter","id":"0d5ee043-50e3-40fd-9e8a-5377723326d8","meta":{"profile":["http://hl7.org/fhir/us/qicore/StructureDefinition/qicore-encounter"]},"status":"finished","class":{"system":"http://terminology.hl7.org/CodeSystem/v3-ActCode","code":"AMB","display":"ambulatory"},"type":[{"coding":[{"system":"http://snomed.info/sct","code":"32485007","display":"Hospital admission (procedure)"}]}],"subject":{"reference":"Patient/698b2574-1170-4438-8400-f3e1992a4807"},"period":{"start":"2025-12-31T23:59:59.000+00:00","end":"2026-01-01T01:00:00.000+00:00"}},"request":{"method":"PUT","url":"Encounter/0d5ee043-50e3-40fd-9e8a-5377723326d8"}},{"fullUrl":"https://madie.cms.gov/MeasureReport/b104a3b7-f05f-4aa3-8371-2910a32dd469","resource":{"resourceType":"MeasureReport","id":"b104a3b7-f05f-4aa3-8371-2910a32dd469","meta":{"profile":["http://hl7.org/fhir/us/cqfmeasures/StructureDefinition/test-case-cqfm"]},"contained":[{"resourceType":"Parameters","id":"7ba2393d-1c0e-4c3e-a141-d80fd2af5b94-parameters","parameter":[{"name":"subject","valueString":"698b2574-1170-4438-8400-f3e1992a4807"}]}],"extension":[{"url":"http://hl7.org/fhir/StructureDefinition/cqf-inputParameters","valueReference":{"reference":"#7ba2393d-1c0e-4c3e-a141-d80fd2af5b94-parameters"}},{"url":"http://hl7.org/fhir/us/cqfmeasures/StructureDefinition/cqfm-testCaseDescription","valueMarkdown":"Inpatient encounter with no hospice discharge"}],"modifierExtension":[{"url":"http://hl7.org/fhir/us/cqfmeasures/StructureDefinition/cqfm-isTestCase","valueBoolean":true}],"status":"complete","type":"individual","measure":"https://madie.cms.gov/Measure/CMS165FHIRControllingHighBloodPressure","period":{"start":"2026-01-01","end":"2026-12-31"},"group":[{"id":"Group_1","population":[{"id":"InitialPopulation_1","code":{"coding":[{"system":"http://terminology.hl7.org/CodeSystem/measure-population","code":"initial-population","display":"Initial Population"}]},"count":1},{"id":"Denominator_1","code":{"coding":[{"system":"http://terminology.hl7.org/CodeSystem/measure-population","code":"denominator","display":"Denominator"}]},"count":1},{"id":"DenominatorExclusion_1","code":{"coding":[{"system":"http://terminology.hl7.org/CodeSystem/measure-population","code":"denominator-exclusion","display":"Denominator Exclusion"}]},"count":0},{"id":"Numerator_1","code":{"coding":[{"system":"http://terminology.hl7.org/CodeSystem/measure-population","code":"numerator","display":"Numerator"}]},"count":0}],"measureScore":{"value":1.0}}],"evaluatedResource":[{"reference":"Patient/698b2574-1170-4438-8400-f3e1992a4807"},{"reference":"Encounter/74179460-3989-4e64-82aa-a939c9a460cd"},{"reference":"Condition/ae1420fa-b21e-448b-a26c-cf6b34a497b6"},{"reference":"Encounter/0d5ee043-50e3-40fd-9e8a-5377723326d8"}]},"request":{"method":"PUT","url":"MeasureReport/b104a3b7-f05f-4aa3-8371-2910a32dd469"}}]},"request":{"method":"PUT","url":"Bundle/DENEXFail-InpatientEncNoHospiceDischarge"}},{"resource":{"resourceType":"Condition","id":"ae1420fa-b21e-448b-a26c-cf6b34a497b6","meta":{"profile":["http://hl7.org/fhir/us/qicore/StructureDefinition/qicore-condition-encounter-diagnosis"]},"clinicalStatus":{"coding":[{"system":"http://terminology.hl7.org/CodeSystem/condition-clinical","code":"active"}]},"category":[{"coding":[{"system":"http://terminology.hl7.org/CodeSystem/condition-category","code":"encounter-diagnosis","display":"Encounter Diagnosis"}]}],"code":{"coding":[{"system":"http://snomed.info/sct","code":"371125006","display":"Labile essential hypertension (disorder)"}]},"subject":{"reference":"Patient/698b2574-1170-4438-8400-f3e1992a4807"},"onsetDateTime":"2026-06-30T23:59:59.000+00:00"},"request":{"method":"PUT","url":"Condition/ae1420fa-b21e-448b-a26c-cf6b34a497b6"}},{"resource":{"resourceType":"MeasureReport","id":"b104a3b7-f05f-4aa3-8371-2910a32dd469","meta":{"profile":["http://hl7.org/fhir/us/cqfmeasures/StructureDefinition/test-case-cqfm"]},"contained":[{"resourceType":"Parameters","id":"7ba2393d-1c0e-4c3e-a141-d80fd2af5b94-parameters","parameter":[{"name":"subject","valueString":"698b2574-1170-4438-8400-f3e1992a4807"}]}],"extension":[{"url":"http://hl7.org/fhir/StructureDefinition/cqf-inputParameters","valueReference":{"reference":"#7ba2393d-1c0e-4c3e-a141-d80fd2af5b94-parameters"}},{"url":"http://hl7.org/fhir/us/cqfmeasures/StructureDefinition/cqfm-testCaseDescription","valueMarkdown":"Inpatient encounter with no hospice discharge"}],"modifierExtension":[{"url":"http://hl7.org/fhir/us/cqfmeasures/StructureDefinition/cqfm-isTestCase","valueBoolean":true}],"status":"complete","type":"individual","measure":"https://madie.cms.gov/Measure/CMS165FHIRControllingHighBloodPressure","period":{"start":"2026-01-01","end":"2026-12-31"},"group":[{"id":"Group_1","population":[{"id":"InitialPopulation_1","code":{"coding":[{"system":"http://terminology.hl7.org/CodeSystem/measure-population","code":"initial-population","display":"Initial Population"}]},"count":1},{"id":"Denominator_1","code":{"coding":[{"system":"http://terminology.hl7.org/CodeSystem/measure-population","code":"denominator","display":"Denominator"}]},"count":1},{"id":"DenominatorExclusion_1","code":{"coding":[{"system":"http://terminology.hl7.org/CodeSystem/measure-population","code":"denominator-exclusion","display":"Denominator Exclusion"}]},"count":0},{"id":"Numerator_1","code":{"coding":[{"system":"http://terminology.hl7.org/CodeSystem/measure-population","code":"numerator","display":"Numerator"}]},"count":0}],"measureScore":{"value":1.0}}],"evaluatedResource":[{"reference":"Patient/698b2574-1170-4438-8400-f3e1992a4807"},{"reference":"Encounter/74179460-3989-4e64-82aa-a939c9a460cd"},{"reference":"Condition/ae1420fa-b21e-448b-a26c-cf6b34a497b6"},{"reference":"Encounter/0d5ee043-50e3-40fd-9e8a-5377723326d8"}]},"request":{"method":"PUT","url":"MeasureReport/b104a3b7-f05f-4aa3-8371-2910a32dd469"}},{"resource":{"resourceType":"Encounter","id":"74179460-3989-4e64-82aa-a939c9a460cd","meta":{"profile":["http://hl7.org/fhir/us/qicore/StructureDefinition/qicore-encounter"]},"status":"finished","class":{"system":"http://terminology.hl7.org/CodeSystem/v3-ActCode","code":"AMB","display":"ambulatory"},"type":[{"coding":[{"system":"http://snomed.info/sct","code":"3391000175108","display":"Office visit for pediatric care and assessment (procedure)"}]}],"subject":{"reference":"Patient/698b2574-1170-4438-8400-f3e1992a4807"},"period":{"start":"2026-01-01T00:00:00.000+00:00","end":"2026-01-01T01:00:00.000+00:00"}},"request":{"method":"PUT","url":"Encounter/74179460-3989-4e64-82aa-a939c9a460cd"}}]}