{"resourceType":"Bundle","id":"tests-045f7e0b-bfb3-4ee0-a06d-83c853f6a81e-bundle","type":"transaction","entry":[{"resource":{"resourceType":"Bundle","id":"NUMERPass-SBP139DBP89DuringMP","type":"transaction","entry":[{"fullUrl":"https://madie.cms.gov/Patient/045f7e0b-bfb3-4ee0-a06d-83c853f6a81e","resource":{"resourceType":"Patient","id":"045f7e0b-bfb3-4ee0-a06d-83c853f6a81e","meta":{"profile":["http://hl7.org/fhir/us/qicore/StructureDefinition/qicore-patient"]},"extension":[{"url":"http://hl7.org/fhir/us/core/StructureDefinition/us-core-race","extension":[{"url":"ombCategory","valueCoding":{"system":"urn:oid:2.16.840.1.113883.6.238","code":"2028-9","display":"Asian"}},{"url":"text","valueString":"Asian"}]},{"url":"http://hl7.org/fhir/us/core/StructureDefinition/us-core-ethnicity","extension":[{"url":"ombCategory","valueCoding":{"system":"urn:oid:2.16.840.1.113883.6.238","code":"2135-2","display":"Hispanic or Latino"}},{"url":"text","valueString":"Hispanic or Latino"}]}],"identifier":[{"system":"http://hospital.smarthealthit.org","value":"999999995"}],"name":[{"family":"NUMERPass","given":["SBP139DBP89DuringMP"]}],"gender":"female","birthDate":"2007-12-31"},"request":{"method":"PUT","url":"Patient/045f7e0b-bfb3-4ee0-a06d-83c853f6a81e"}},{"fullUrl":"https://madie.cms.gov/Encounter/0dbf474d-1a91-4bec-81be-7777d54c8b0d","resource":{"resourceType":"Encounter","id":"0dbf474d-1a91-4bec-81be-7777d54c8b0d","meta":{"profile":["http://hl7.org/fhir/us/qicore/StructureDefinition/qicore-encounter"]},"status":"finished","class":{"system":"http://terminology.hl7.org/CodeSystem/v3-ActCode","code":"AMB","display":"ambulatory"},"type":[{"coding":[{"system":"http://snomed.info/sct","code":"3391000175108","display":"Office visit for pediatric care and assessment (procedure)"}]}],"subject":{"reference":"Patient/045f7e0b-bfb3-4ee0-a06d-83c853f6a81e"},"period":{"start":"2026-01-01T00:00:00.000+00:00","end":"2026-01-01T01:00:00.000+00:00"}},"request":{"method":"PUT","url":"Encounter/0dbf474d-1a91-4bec-81be-7777d54c8b0d"}},{"fullUrl":"https://madie.cms.gov/Condition/b897868b-9943-4ff4-89d4-03b93fc8f4c6","resource":{"resourceType":"Condition","id":"b897868b-9943-4ff4-89d4-03b93fc8f4c6","meta":{"profile":["http://hl7.org/fhir/us/qicore/StructureDefinition/qicore-condition-encounter-diagnosis"]},"clinicalStatus":{"coding":[{"system":"http://terminology.hl7.org/CodeSystem/condition-clinical","code":"active"}]},"category":[{"coding":[{"system":"http://terminology.hl7.org/CodeSystem/condition-category","code":"encounter-diagnosis","display":"Encounter Diagnosis"}]}],"code":{"coding":[{"system":"http://snomed.info/sct","code":"371125006","display":"Labile essential hypertension (disorder)"}]},"subject":{"reference":"Patient/045f7e0b-bfb3-4ee0-a06d-83c853f6a81e"},"onsetDateTime":"2026-06-29T23:59:59.000+00:00"},"request":{"method":"PUT","url":"Condition/b897868b-9943-4ff4-89d4-03b93fc8f4c6"}},{"fullUrl":"https://madie.cms.gov/Observation/007a7667-a455-475b-b45a-06d35de6fb7f","resource":{"resourceType":"Observation","id":"007a7667-a455-475b-b45a-06d35de6fb7f","meta":{"profile":["http://hl7.org/fhir/us/core/StructureDefinition/us-core-blood-pressure"]},"status":"final","category":[{"coding":[{"system":"http://terminology.hl7.org/CodeSystem/observation-category","code":"vital-signs","display":"Vital Signs"}],"text":"Vital Signs"}],"code":{"coding":[{"system":"http://loinc.org","code":"85354-9","display":"Blood pressure panel with all children optional"}]},"subject":{"reference":"Patient/045f7e0b-bfb3-4ee0-a06d-83c853f6a81e"},"encounter":{"reference":"Encounter/0dbf474d-1a91-4bec-81be-7777d54c8b0d-1"},"effectiveDateTime":"2026-01-02T00:00:00.000+00:00","component":[{"code":{"coding":[{"system":"http://loinc.org","code":"8480-6","display":"Systolic blood pressure"}]},"valueQuantity":{"value":139,"unit":"mmHg","system":"http://unitsofmeasure.org","code":"mm[Hg]"}},{"code":{"coding":[{"system":"http://loinc.org","code":"8462-4","display":"Diastolic blood pressure"}]},"valueQuantity":{"value":89,"unit":"mmHg","system":"http://unitsofmeasure.org","code":"mm[Hg]"}}]},"request":{"method":"PUT","url":"Observation/007a7667-a455-475b-b45a-06d35de6fb7f"}},{"fullUrl":"https://madie.cms.gov/Encounter/0dbf474d-1a91-4bec-81be-7777d54c8b0d-1","resource":{"resourceType":"Encounter","id":"0dbf474d-1a91-4bec-81be-7777d54c8b0d-1","meta":{"profile":["http://hl7.org/fhir/us/qicore/StructureDefinition/qicore-encounter"]},"status":"finished","class":{"system":"http://terminology.hl7.org/CodeSystem/v3-ActCode","code":"IMP","display":"inpatient encounter"},"type":[{"coding":[{"system":"http://snomed.info/sct","code":"32485007","display":"Hospital admission (procedure)"}]}],"subject":{"reference":"Patient/045f7e0b-bfb3-4ee0-a06d-83c853f6a81e"},"period":{"start":"2026-01-02T00:00:00.000+00:00","end":"2026-01-04T01:00:00.000+00:00"}},"request":{"method":"PUT","url":"Encounter/0dbf474d-1a91-4bec-81be-7777d54c8b0d-1"}},{"fullUrl":"https://madie.cms.gov/MeasureReport/c1aeb3dc-130c-46b1-92c7-5b22a1b0d4dc","resource":{"resourceType":"MeasureReport","id":"c1aeb3dc-130c-46b1-92c7-5b22a1b0d4dc","meta":{"profile":["http://hl7.org/fhir/us/cqfmeasures/StructureDefinition/test-case-cqfm"]},"contained":[{"resourceType":"Parameters","id":"ff23d575-bbe5-4b7e-ad97-35ad59f594f1-parameters","parameter":[{"name":"subject","valueString":"045f7e0b-bfb3-4ee0-a06d-83c853f6a81e"}]}],"extension":[{"url":"http://hl7.org/fhir/StructureDefinition/cqf-inputParameters","valueReference":{"reference":"#ff23d575-bbe5-4b7e-ad97-35ad59f594f1-parameters"}},{"url":"http://hl7.org/fhir/us/cqfmeasures/StructureDefinition/cqfm-testCaseDescription","valueMarkdown":"BP 139/89 during MP - qualifying BP during inpatient stay"}],"modifierExtension":[{"url":"http://hl7.org/fhir/us/cqfmeasures/StructureDefinition/cqfm-isTestCase","valueBoolean":true}],"status":"complete","type":"individual","measure":"https://madie.cms.gov/Measure/CMS165FHIRControllingHighBloodPressure","period":{"start":"2026-01-01","end":"2026-12-31"},"group":[{"id":"Group_1","population":[{"id":"InitialPopulation_1","code":{"coding":[{"system":"http://terminology.hl7.org/CodeSystem/measure-population","code":"initial-population","display":"Initial Population"}]},"count":1},{"id":"Denominator_1","code":{"coding":[{"system":"http://terminology.hl7.org/CodeSystem/measure-population","code":"denominator","display":"Denominator"}]},"count":1},{"id":"DenominatorExclusion_1","code":{"coding":[{"system":"http://terminology.hl7.org/CodeSystem/measure-population","code":"denominator-exclusion","display":"Denominator Exclusion"}]},"count":0},{"id":"Numerator_1","code":{"coding":[{"system":"http://terminology.hl7.org/CodeSystem/measure-population","code":"numerator","display":"Numerator"}]},"count":0}],"measureScore":{"value":1.0}}],"evaluatedResource":[{"reference":"Patient/045f7e0b-bfb3-4ee0-a06d-83c853f6a81e"},{"reference":"Encounter/0dbf474d-1a91-4bec-81be-7777d54c8b0d"},{"reference":"Condition/b897868b-9943-4ff4-89d4-03b93fc8f4c6"},{"reference":"Observation/007a7667-a455-475b-b45a-06d35de6fb7f"},{"reference":"Encounter/0dbf474d-1a91-4bec-81be-7777d54c8b0d-1"}]},"request":{"method":"PUT","url":"MeasureReport/c1aeb3dc-130c-46b1-92c7-5b22a1b0d4dc"}}]},"request":{"method":"PUT","url":"Bundle/NUMERPass-SBP139DBP89DuringMP"}},{"resource":{"resourceType":"Patient","id":"045f7e0b-bfb3-4ee0-a06d-83c853f6a81e","meta":{"profile":["http://hl7.org/fhir/us/qicore/StructureDefinition/qicore-patient"]},"extension":[{"url":"http://hl7.org/fhir/us/core/StructureDefinition/us-core-race","extension":[{"url":"ombCategory","valueCoding":{"system":"urn:oid:2.16.840.1.113883.6.238","code":"2028-9","display":"Asian"}},{"url":"text","valueString":"Asian"}]},{"url":"http://hl7.org/fhir/us/core/StructureDefinition/us-core-ethnicity","extension":[{"url":"ombCategory","valueCoding":{"system":"urn:oid:2.16.840.1.113883.6.238","code":"2135-2","display":"Hispanic or Latino"}},{"url":"text","valueString":"Hispanic or Latino"}]}],"identifier":[{"system":"http://hospital.smarthealthit.org","value":"999999995"}],"name":[{"family":"NUMERPass","given":["SBP139DBP89DuringMP"]}],"gender":"female","birthDate":"2007-12-31"},"request":{"method":"PUT","url":"Patient/045f7e0b-bfb3-4ee0-a06d-83c853f6a81e"}},{"resource":{"resourceType":"Encounter","id":"0dbf474d-1a91-4bec-81be-7777d54c8b0d-1","meta":{"profile":["http://hl7.org/fhir/us/qicore/StructureDefinition/qicore-encounter"]},"status":"finished","class":{"system":"http://terminology.hl7.org/CodeSystem/v3-ActCode","code":"IMP","display":"inpatient encounter"},"type":[{"coding":[{"system":"http://snomed.info/sct","code":"32485007","display":"Hospital admission (procedure)"}]}],"subject":{"reference":"Patient/045f7e0b-bfb3-4ee0-a06d-83c853f6a81e"},"period":{"start":"2026-01-02T00:00:00.000+00:00","end":"2026-01-04T01:00:00.000+00:00"}},"request":{"method":"PUT","url":"Encounter/0dbf474d-1a91-4bec-81be-7777d54c8b0d-1"}},{"resource":{"resourceType":"MeasureReport","id":"c1aeb3dc-130c-46b1-92c7-5b22a1b0d4dc","meta":{"profile":["http://hl7.org/fhir/us/cqfmeasures/StructureDefinition/test-case-cqfm"]},"contained":[{"resourceType":"Parameters","id":"ff23d575-bbe5-4b7e-ad97-35ad59f594f1-parameters","parameter":[{"name":"subject","valueString":"045f7e0b-bfb3-4ee0-a06d-83c853f6a81e"}]}],"extension":[{"url":"http://hl7.org/fhir/StructureDefinition/cqf-inputParameters","valueReference":{"reference":"#ff23d575-bbe5-4b7e-ad97-35ad59f594f1-parameters"}},{"url":"http://hl7.org/fhir/us/cqfmeasures/StructureDefinition/cqfm-testCaseDescription","valueMarkdown":"BP 139/89 during MP - qualifying BP during inpatient stay"}],"modifierExtension":[{"url":"http://hl7.org/fhir/us/cqfmeasures/StructureDefinition/cqfm-isTestCase","valueBoolean":true}],"status":"complete","type":"individual","measure":"https://madie.cms.gov/Measure/CMS165FHIRControllingHighBloodPressure","period":{"start":"2026-01-01","end":"2026-12-31"},"group":[{"id":"Group_1","population":[{"id":"InitialPopulation_1","code":{"coding":[{"system":"http://terminology.hl7.org/CodeSystem/measure-population","code":"initial-population","display":"Initial Population"}]},"count":1},{"id":"Denominator_1","code":{"coding":[{"system":"http://terminology.hl7.org/CodeSystem/measure-population","code":"denominator","display":"Denominator"}]},"count":1},{"id":"DenominatorExclusion_1","code":{"coding":[{"system":"http://terminology.hl7.org/CodeSystem/measure-population","code":"denominator-exclusion","display":"Denominator Exclusion"}]},"count":0},{"id":"Numerator_1","code":{"coding":[{"system":"http://terminology.hl7.org/CodeSystem/measure-population","code":"numerator","display":"Numerator"}]},"count":0}],"measureScore":{"value":1.0}}],"evaluatedResource":[{"reference":"Patient/045f7e0b-bfb3-4ee0-a06d-83c853f6a81e"},{"reference":"Encounter/0dbf474d-1a91-4bec-81be-7777d54c8b0d"},{"reference":"Condition/b897868b-9943-4ff4-89d4-03b93fc8f4c6"},{"reference":"Observation/007a7667-a455-475b-b45a-06d35de6fb7f"},{"reference":"Encounter/0dbf474d-1a91-4bec-81be-7777d54c8b0d-1"}]},"request":{"method":"PUT","url":"MeasureReport/c1aeb3dc-130c-46b1-92c7-5b22a1b0d4dc"}},{"resource":{"resourceType":"Condition","id":"b897868b-9943-4ff4-89d4-03b93fc8f4c6","meta":{"profile":["http://hl7.org/fhir/us/qicore/StructureDefinition/qicore-condition-encounter-diagnosis"]},"clinicalStatus":{"coding":[{"system":"http://terminology.hl7.org/CodeSystem/condition-clinical","code":"active"}]},"category":[{"coding":[{"system":"http://terminology.hl7.org/CodeSystem/condition-category","code":"encounter-diagnosis","display":"Encounter Diagnosis"}]}],"code":{"coding":[{"system":"http://snomed.info/sct","code":"371125006","display":"Labile essential hypertension (disorder)"}]},"subject":{"reference":"Patient/045f7e0b-bfb3-4ee0-a06d-83c853f6a81e"},"onsetDateTime":"2026-06-29T23:59:59.000+00:00"},"request":{"method":"PUT","url":"Condition/b897868b-9943-4ff4-89d4-03b93fc8f4c6"}},{"resource":{"resourceType":"Observation","id":"007a7667-a455-475b-b45a-06d35de6fb7f","meta":{"profile":["http://hl7.org/fhir/us/core/StructureDefinition/us-core-blood-pressure"]},"status":"final","category":[{"coding":[{"system":"http://terminology.hl7.org/CodeSystem/observation-category","code":"vital-signs","display":"Vital Signs"}],"text":"Vital Signs"}],"code":{"coding":[{"system":"http://loinc.org","code":"85354-9","display":"Blood pressure panel with all children optional"}]},"subject":{"reference":"Patient/045f7e0b-bfb3-4ee0-a06d-83c853f6a81e"},"encounter":{"reference":"Encounter/0dbf474d-1a91-4bec-81be-7777d54c8b0d-1"},"effectiveDateTime":"2026-01-02T00:00:00.000+00:00","component":[{"code":{"coding":[{"system":"http://loinc.org","code":"8480-6","display":"Systolic blood pressure"}]},"valueQuantity":{"value":139,"unit":"mmHg","system":"http://unitsofmeasure.org","code":"mm[Hg]"}},{"code":{"coding":[{"system":"http://loinc.org","code":"8462-4","display":"Diastolic blood pressure"}]},"valueQuantity":{"value":89,"unit":"mmHg","system":"http://unitsofmeasure.org","code":"mm[Hg]"}}]},"request":{"method":"PUT","url":"Observation/007a7667-a455-475b-b45a-06d35de6fb7f"}},{"resource":{"resourceType":"Encounter","id":"0dbf474d-1a91-4bec-81be-7777d54c8b0d","meta":{"profile":["http://hl7.org/fhir/us/qicore/StructureDefinition/qicore-encounter"]},"status":"finished","class":{"system":"http://terminology.hl7.org/CodeSystem/v3-ActCode","code":"AMB","display":"ambulatory"},"type":[{"coding":[{"system":"http://snomed.info/sct","code":"3391000175108","display":"Office visit for pediatric care and assessment (procedure)"}]}],"subject":{"reference":"Patient/045f7e0b-bfb3-4ee0-a06d-83c853f6a81e"},"period":{"start":"2026-01-01T00:00:00.000+00:00","end":"2026-01-01T01:00:00.000+00:00"}},"request":{"method":"PUT","url":"Encounter/0dbf474d-1a91-4bec-81be-7777d54c8b0d"}}]}