{"resourceType":"Bundle","id":"tests-e94daaa3-ffff-4ca5-b971-7fd4407c3580-bundle","type":"transaction","entry":[{"resource":{"resourceType":"Condition","id":"f0fb35a6-b0b1-40a2-9513-d0519c94a250","meta":{"profile":["http://hl7.org/fhir/us/qicore/StructureDefinition/qicore-condition-problems-health-concerns"]},"clinicalStatus":{"coding":[{"system":"http://terminology.hl7.org/CodeSystem/condition-clinical","code":"active"}]},"category":[{"coding":[{"system":"http://terminology.hl7.org/CodeSystem/condition-category","code":"problem-list-item","display":"Problem List Item"}]}],"code":{"coding":[{"system":"http://snomed.info/sct","code":"371125006","display":"Labile essential hypertension (disorder)"}]},"subject":{"reference":"Patient/e94daaa3-ffff-4ca5-b971-7fd4407c3580"},"onsetDateTime":"2026-06-30T23:59:59.000+00:00"},"request":{"method":"PUT","url":"Condition/f0fb35a6-b0b1-40a2-9513-d0519c94a250"}},{"resource":{"resourceType":"Patient","id":"e94daaa3-ffff-4ca5-b971-7fd4407c3580","meta":{"profile":["http://hl7.org/fhir/us/qicore/StructureDefinition/qicore-patient"]},"extension":[{"url":"http://hl7.org/fhir/us/core/StructureDefinition/us-core-race","extension":[{"url":"ombCategory","valueCoding":{"system":"urn:oid:2.16.840.1.113883.6.238","code":"2028-9","display":"Asian"}},{"url":"text","valueString":"Asian"}]},{"url":"http://hl7.org/fhir/us/core/StructureDefinition/us-core-ethnicity","extension":[{"url":"ombCategory","valueCoding":{"system":"urn:oid:2.16.840.1.113883.6.238","code":"2135-2","display":"Hispanic or Latino"}},{"url":"text","valueString":"Hispanic or Latino"}]}],"identifier":[{"system":"http://hospital.smarthealthit.org","value":"999999995"}],"name":[{"family":"DENEXFail","given":["HospiceDiagnosisStartsAfterMP"]}],"gender":"female","birthDate":"2007-12-31"},"request":{"method":"PUT","url":"Patient/e94daaa3-ffff-4ca5-b971-7fd4407c3580"}},{"resource":{"resourceType":"MeasureReport","id":"5222fec4-c968-4291-a562-29adcd9275d0","meta":{"profile":["http://hl7.org/fhir/us/cqfmeasures/StructureDefinition/test-case-cqfm"]},"contained":[{"resourceType":"Parameters","id":"d6d9ba68-d51a-400f-a6ba-7a9ae9cd7ad9-parameters","parameter":[{"name":"subject","valueString":"e94daaa3-ffff-4ca5-b971-7fd4407c3580"}]}],"extension":[{"url":"http://hl7.org/fhir/StructureDefinition/cqf-inputParameters","valueReference":{"reference":"#d6d9ba68-d51a-400f-a6ba-7a9ae9cd7ad9-parameters"}},{"url":"http://hl7.org/fhir/us/cqfmeasures/StructureDefinition/cqfm-testCaseDescription","valueMarkdown":"Hospice diagnosis starts after MP"}],"modifierExtension":[{"url":"http://hl7.org/fhir/us/cqfmeasures/StructureDefinition/cqfm-isTestCase","valueBoolean":true}],"status":"complete","type":"individual","measure":"https://madie.cms.gov/Measure/CMS165FHIRControllingHighBloodPressure","period":{"start":"2026-01-01","end":"2026-12-31"},"group":[{"id":"Group_1","population":[{"id":"InitialPopulation_1","code":{"coding":[{"system":"http://terminology.hl7.org/CodeSystem/measure-population","code":"initial-population","display":"Initial Population"}]},"count":1},{"id":"Denominator_1","code":{"coding":[{"system":"http://terminology.hl7.org/CodeSystem/measure-population","code":"denominator","display":"Denominator"}]},"count":1},{"id":"DenominatorExclusion_1","code":{"coding":[{"system":"http://terminology.hl7.org/CodeSystem/measure-population","code":"denominator-exclusion","display":"Denominator Exclusion"}]},"count":0},{"id":"Numerator_1","code":{"coding":[{"system":"http://terminology.hl7.org/CodeSystem/measure-population","code":"numerator","display":"Numerator"}]},"count":0}],"measureScore":{"value":1.0}}],"evaluatedResource":[{"reference":"Patient/e94daaa3-ffff-4ca5-b971-7fd4407c3580"},{"reference":"Encounter/58b7a659-93e3-45ca-a605-ce6758cd1d4d"},{"reference":"Condition/f0fb35a6-b0b1-40a2-9513-d0519c94a250"},{"reference":"Condition/7f48c4ee-8ebf-43e7-aab7-691b63c0b5e0"}]},"request":{"method":"PUT","url":"MeasureReport/5222fec4-c968-4291-a562-29adcd9275d0"}},{"resource":{"resourceType":"Bundle","id":"DENEXFail-HospiceDiagnosisStartsAfterMP","type":"transaction","entry":[{"fullUrl":"https://madie.cms.gov/Patient/e94daaa3-ffff-4ca5-b971-7fd4407c3580","resource":{"resourceType":"Patient","id":"e94daaa3-ffff-4ca5-b971-7fd4407c3580","meta":{"profile":["http://hl7.org/fhir/us/qicore/StructureDefinition/qicore-patient"]},"extension":[{"url":"http://hl7.org/fhir/us/core/StructureDefinition/us-core-race","extension":[{"url":"ombCategory","valueCoding":{"system":"urn:oid:2.16.840.1.113883.6.238","code":"2028-9","display":"Asian"}},{"url":"text","valueString":"Asian"}]},{"url":"http://hl7.org/fhir/us/core/StructureDefinition/us-core-ethnicity","extension":[{"url":"ombCategory","valueCoding":{"system":"urn:oid:2.16.840.1.113883.6.238","code":"2135-2","display":"Hispanic or Latino"}},{"url":"text","valueString":"Hispanic or Latino"}]}],"identifier":[{"system":"http://hospital.smarthealthit.org","value":"999999995"}],"name":[{"family":"DENEXFail","given":["HospiceDiagnosisStartsAfterMP"]}],"gender":"female","birthDate":"2007-12-31"},"request":{"method":"PUT","url":"Patient/e94daaa3-ffff-4ca5-b971-7fd4407c3580"}},{"fullUrl":"https://madie.cms.gov/Encounter/58b7a659-93e3-45ca-a605-ce6758cd1d4d","resource":{"resourceType":"Encounter","id":"58b7a659-93e3-45ca-a605-ce6758cd1d4d","meta":{"profile":["http://hl7.org/fhir/us/qicore/StructureDefinition/qicore-encounter"]},"status":"finished","class":{"system":"http://terminology.hl7.org/CodeSystem/v3-ActCode","code":"AMB","display":"ambulatory"},"type":[{"coding":[{"system":"http://snomed.info/sct","code":"3391000175108","display":"Office visit for pediatric care and assessment (procedure)"}]}],"subject":{"reference":"Patient/e94daaa3-ffff-4ca5-b971-7fd4407c3580"},"period":{"start":"2026-01-01T00:00:00.000+00:00","end":"2026-01-01T01:00:00.000+00:00"}},"request":{"method":"PUT","url":"Encounter/58b7a659-93e3-45ca-a605-ce6758cd1d4d"}},{"fullUrl":"https://madie.cms.gov/Condition/f0fb35a6-b0b1-40a2-9513-d0519c94a250","resource":{"resourceType":"Condition","id":"f0fb35a6-b0b1-40a2-9513-d0519c94a250","meta":{"profile":["http://hl7.org/fhir/us/qicore/StructureDefinition/qicore-condition-problems-health-concerns"]},"clinicalStatus":{"coding":[{"system":"http://terminology.hl7.org/CodeSystem/condition-clinical","code":"active"}]},"category":[{"coding":[{"system":"http://terminology.hl7.org/CodeSystem/condition-category","code":"problem-list-item","display":"Problem List Item"}]}],"code":{"coding":[{"system":"http://snomed.info/sct","code":"371125006","display":"Labile essential hypertension (disorder)"}]},"subject":{"reference":"Patient/e94daaa3-ffff-4ca5-b971-7fd4407c3580"},"onsetDateTime":"2026-06-30T23:59:59.000+00:00"},"request":{"method":"PUT","url":"Condition/f0fb35a6-b0b1-40a2-9513-d0519c94a250"}},{"fullUrl":"https://madie.cms.gov/Condition/7f48c4ee-8ebf-43e7-aab7-691b63c0b5e0","resource":{"resourceType":"Condition","id":"7f48c4ee-8ebf-43e7-aab7-691b63c0b5e0","meta":{"profile":["http://hl7.org/fhir/us/qicore/StructureDefinition/qicore-condition-problems-health-concerns"]},"clinicalStatus":{"coding":[{"system":"http://terminology.hl7.org/CodeSystem/condition-clinical","code":"active"}]},"category":[{"coding":[{"system":"http://terminology.hl7.org/CodeSystem/condition-category","code":"problem-list-item","display":"Problem List Item"}]}],"code":{"coding":[{"system":"http://snomed.info/sct","code":"170935008","display":"Full care by hospice (finding)"}]},"subject":{"reference":"Patient/e94daaa3-ffff-4ca5-b971-7fd4407c3580"},"onsetDateTime":"2027-01-01T00:00:00.000+00:00"},"request":{"method":"PUT","url":"Condition/7f48c4ee-8ebf-43e7-aab7-691b63c0b5e0"}},{"fullUrl":"https://madie.cms.gov/MeasureReport/5222fec4-c968-4291-a562-29adcd9275d0","resource":{"resourceType":"MeasureReport","id":"5222fec4-c968-4291-a562-29adcd9275d0","meta":{"profile":["http://hl7.org/fhir/us/cqfmeasures/StructureDefinition/test-case-cqfm"]},"contained":[{"resourceType":"Parameters","id":"d6d9ba68-d51a-400f-a6ba-7a9ae9cd7ad9-parameters","parameter":[{"name":"subject","valueString":"e94daaa3-ffff-4ca5-b971-7fd4407c3580"}]}],"extension":[{"url":"http://hl7.org/fhir/StructureDefinition/cqf-inputParameters","valueReference":{"reference":"#d6d9ba68-d51a-400f-a6ba-7a9ae9cd7ad9-parameters"}},{"url":"http://hl7.org/fhir/us/cqfmeasures/StructureDefinition/cqfm-testCaseDescription","valueMarkdown":"Hospice diagnosis starts after MP"}],"modifierExtension":[{"url":"http://hl7.org/fhir/us/cqfmeasures/StructureDefinition/cqfm-isTestCase","valueBoolean":true}],"status":"complete","type":"individual","measure":"https://madie.cms.gov/Measure/CMS165FHIRControllingHighBloodPressure","period":{"start":"2026-01-01","end":"2026-12-31"},"group":[{"id":"Group_1","population":[{"id":"InitialPopulation_1","code":{"coding":[{"system":"http://terminology.hl7.org/CodeSystem/measure-population","code":"initial-population","display":"Initial Population"}]},"count":1},{"id":"Denominator_1","code":{"coding":[{"system":"http://terminology.hl7.org/CodeSystem/measure-population","code":"denominator","display":"Denominator"}]},"count":1},{"id":"DenominatorExclusion_1","code":{"coding":[{"system":"http://terminology.hl7.org/CodeSystem/measure-population","code":"denominator-exclusion","display":"Denominator Exclusion"}]},"count":0},{"id":"Numerator_1","code":{"coding":[{"system":"http://terminology.hl7.org/CodeSystem/measure-population","code":"numerator","display":"Numerator"}]},"count":0}],"measureScore":{"value":1.0}}],"evaluatedResource":[{"reference":"Patient/e94daaa3-ffff-4ca5-b971-7fd4407c3580"},{"reference":"Encounter/58b7a659-93e3-45ca-a605-ce6758cd1d4d"},{"reference":"Condition/f0fb35a6-b0b1-40a2-9513-d0519c94a250"},{"reference":"Condition/7f48c4ee-8ebf-43e7-aab7-691b63c0b5e0"}]},"request":{"method":"PUT","url":"MeasureReport/5222fec4-c968-4291-a562-29adcd9275d0"}}]},"request":{"method":"PUT","url":"Bundle/DENEXFail-HospiceDiagnosisStartsAfterMP"}},{"resource":{"resourceType":"Encounter","id":"58b7a659-93e3-45ca-a605-ce6758cd1d4d","meta":{"profile":["http://hl7.org/fhir/us/qicore/StructureDefinition/qicore-encounter"]},"status":"finished","class":{"system":"http://terminology.hl7.org/CodeSystem/v3-ActCode","code":"AMB","display":"ambulatory"},"type":[{"coding":[{"system":"http://snomed.info/sct","code":"3391000175108","display":"Office visit for pediatric care and assessment (procedure)"}]}],"subject":{"reference":"Patient/e94daaa3-ffff-4ca5-b971-7fd4407c3580"},"period":{"start":"2026-01-01T00:00:00.000+00:00","end":"2026-01-01T01:00:00.000+00:00"}},"request":{"method":"PUT","url":"Encounter/58b7a659-93e3-45ca-a605-ce6758cd1d4d"}},{"resource":{"resourceType":"Condition","id":"7f48c4ee-8ebf-43e7-aab7-691b63c0b5e0","meta":{"profile":["http://hl7.org/fhir/us/qicore/StructureDefinition/qicore-condition-problems-health-concerns"]},"clinicalStatus":{"coding":[{"system":"http://terminology.hl7.org/CodeSystem/condition-clinical","code":"active"}]},"category":[{"coding":[{"system":"http://terminology.hl7.org/CodeSystem/condition-category","code":"problem-list-item","display":"Problem List Item"}]}],"code":{"coding":[{"system":"http://snomed.info/sct","code":"170935008","display":"Full care by hospice (finding)"}]},"subject":{"reference":"Patient/e94daaa3-ffff-4ca5-b971-7fd4407c3580"},"onsetDateTime":"2027-01-01T00:00:00.000+00:00"},"request":{"method":"PUT","url":"Condition/7f48c4ee-8ebf-43e7-aab7-691b63c0b5e0"}}]}