{"resourceType":"Bundle","id":"tests-6138f86b-449c-4828-9b62-fe2bed4157b1-bundle","type":"transaction","entry":[{"resource":{"resourceType":"Bundle","id":"62fd4b660968f8012246b04a","type":"transaction","entry":[{"fullUrl":"https://madie.cms.gov/Patient/6138f86b-449c-4828-9b62-fe2bed4157b1","resource":{"resourceType":"Patient","id":"6138f86b-449c-4828-9b62-fe2bed4157b1","meta":{"profile":["http://hl7.org/fhir/us/qicore/StructureDefinition/qicore-patient"]},"extension":[{"url":"http://hl7.org/fhir/us/core/StructureDefinition/us-core-race","extension":[{"url":"ombCategory","valueCoding":{"system":"urn:oid:2.16.840.1.113883.6.238","code":"1002-5","display":"American Indian or Alaska Native","userSelected":true}},{"url":"text","valueString":"American Indian or Alaska Native"}]},{"url":"http://hl7.org/fhir/us/core/StructureDefinition/us-core-ethnicity","extension":[{"url":"ombCategory","valueCoding":{"system":"urn:oid:2.16.840.1.113883.6.238","code":"2186-5","display":"Not Hispanic or Latino","userSelected":true}},{"url":"text","valueString":"Not Hispanic or Latino"}]}],"identifier":[{"type":{"coding":[{"system":"http://terminology.hl7.org/CodeSystem/v2-0203","code":"MR"}]},"system":"https://bonnie-fhir.healthit.gov/","value":"62fd4b660968f8012246b04a"}],"name":[{"family":"IPFail","given":["ReferralStatusNotValid"]}],"gender":"male","birthDate":"1967-01-19"},"request":{"method":"PUT","url":"Patient/6138f86b-449c-4828-9b62-fe2bed4157b1"}},{"fullUrl":"https://madie.cms.gov/Encounter/e20e6724-4a81-46da-88e0-e1f5d573f9f2","resource":{"resourceType":"Encounter","id":"e20e6724-4a81-46da-88e0-e1f5d573f9f2","meta":{"profile":["http://hl7.org/fhir/us/qicore/StructureDefinition/qicore-encounter"]},"status":"finished","class":{"system":"http://terminology.hl7.org/CodeSystem/v3-ActCode","code":"AMB","display":"ambulatory"},"type":[{"coding":[{"system":"http://snomed.info/sct","version":"2022-03","code":"185463005","display":"Visit out of hours (procedure)","userSelected":true}]}],"subject":{"reference":"Patient/6138f86b-449c-4828-9b62-fe2bed4157b1"},"period":{"start":"2026-01-01T08:00:00.000+00:00","end":"2026-01-01T09:15:00.000+00:00"}},"request":{"method":"PUT","url":"Encounter/e20e6724-4a81-46da-88e0-e1f5d573f9f2"}},{"fullUrl":"https://madie.cms.gov/ServiceRequest/5bf0cb0b-154a-4f6f-9e0b-4793bad463de","resource":{"resourceType":"ServiceRequest","id":"5bf0cb0b-154a-4f6f-9e0b-4793bad463de","meta":{"profile":["http://hl7.org/fhir/us/qicore/StructureDefinition/qicore-servicerequest"]},"status":"unknown","intent":"order","code":{"coding":[{"system":"http://snomed.info/sct","version":"2022-03","code":"103696004","display":"Patient referral to specialist (procedure)","userSelected":true}]},"subject":{"reference":"Patient/6138f86b-449c-4828-9b62-fe2bed4157b1"},"authoredOn":"2026-10-31T08:00:00.000+00:00"},"request":{"method":"PUT","url":"ServiceRequest/5bf0cb0b-154a-4f6f-9e0b-4793bad463de"}},{"fullUrl":"https://madie.cms.gov/Coverage/83557cd7-6b70-4fe5-beb7-812725d422dd","resource":{"resourceType":"Coverage","id":"83557cd7-6b70-4fe5-beb7-812725d422dd","meta":{"profile":["http://hl7.org/fhir/us/qicore/StructureDefinition/qicore-coverage"]},"status":"active","beneficiary":{"reference":"Patient/6138f86b-449c-4828-9b62-fe2bed4157b1"},"payor":[{"reference":"Organization/98f06052-d789-419c-816b-8e480b19de3d"}]},"request":{"method":"PUT","url":"Coverage/83557cd7-6b70-4fe5-beb7-812725d422dd"}},{"fullUrl":"https://madie.cms.gov/Organization/98f06052-d789-419c-816b-8e480b19de3d","resource":{"resourceType":"Organization","id":"98f06052-d789-419c-816b-8e480b19de3d","meta":{"profile":["http://hl7.org/fhir/us/qicore/StructureDefinition/qicore-organization"]},"identifier":[{"use":"temp","system":"urn:oid:2.16.840.1.113883.4.4","value":"21-3259825"}],"active":true,"type":[{"coding":[{"system":"http://terminology.hl7.org/CodeSystem/organization-type","code":"pay","display":"Payer"}]}],"name":"Blue Cross Blue Shield of Texas","telecom":[{"system":"phone","value":"(+1) 972-766-6900"}],"address":[{"use":"billing","type":"postal","line":["P.O. Box 660044"],"city":"Dallas","state":"TX","postalCode":"75266-0044","country":"USA"}]},"request":{"method":"PUT","url":"Organization/98f06052-d789-419c-816b-8e480b19de3d"}},{"fullUrl":"https://madie.cms.gov/Practitioner/85e6bb42-1008-4aab-8031-6eedc587e8ad","resource":{"resourceType":"Practitioner","id":"85e6bb42-1008-4aab-8031-6eedc587e8ad","meta":{"profile":["http://hl7.org/fhir/us/qicore/StructureDefinition/qicore-practitioner"]},"identifier":[{"system":"http://hl7.org/fhir/sid/us-npi","value":"123456"}],"name":[{"family":"Evil","prefix":["Dr"]}]},"request":{"method":"PUT","url":"Practitioner/85e6bb42-1008-4aab-8031-6eedc587e8ad"}},{"fullUrl":"https://madie.cms.gov/MeasureReport/2591f1b3-a0ab-4529-84cc-d4de7d6f7915","resource":{"resourceType":"MeasureReport","id":"2591f1b3-a0ab-4529-84cc-d4de7d6f7915","meta":{"profile":["http://hl7.org/fhir/us/cqfmeasures/StructureDefinition/test-case-cqfm"]},"contained":[{"resourceType":"Parameters","id":"969c3695-dd04-466d-837e-0813fc7e82ff-parameters","parameter":[{"name":"subject","valueString":"6138f86b-449c-4828-9b62-fe2bed4157b1"}]}],"extension":[{"url":"http://hl7.org/fhir/StructureDefinition/cqf-inputParameters","valueReference":{"reference":"#969c3695-dd04-466d-837e-0813fc7e82ff-parameters"}},{"url":"http://hl7.org/fhir/us/cqfmeasures/StructureDefinition/cqfm-testCaseDescription","valueMarkdown":"Encounter during MP. status finished. Referral Status not equal to Active. Intent Order during Referral period\n"}],"modifierExtension":[{"url":"http://hl7.org/fhir/us/cqfmeasures/StructureDefinition/cqfm-isTestCase","valueBoolean":true}],"status":"complete","type":"individual","measure":"https://madie.cms.gov/Measure/CMS50FHIRCRLReceiptofSpecialistReport","period":{"start":"2026-01-01","end":"2026-12-31"},"group":[{"id":"Group_1","population":[{"id":"InitialPopulation_1","code":{"coding":[{"system":"http://terminology.hl7.org/CodeSystem/measure-population","code":"initial-population","display":"Initial Population"}]},"count":0},{"id":"Denominator_1","code":{"coding":[{"system":"http://terminology.hl7.org/CodeSystem/measure-population","code":"denominator","display":"Denominator"}]},"count":0},{"id":"Numerator_1","code":{"coding":[{"system":"http://terminology.hl7.org/CodeSystem/measure-population","code":"numerator","display":"Numerator"}]},"count":0}],"measureScore":{"value":1.0}}],"evaluatedResource":[{"reference":"Patient/6138f86b-449c-4828-9b62-fe2bed4157b1"},{"reference":"Encounter/e20e6724-4a81-46da-88e0-e1f5d573f9f2"},{"reference":"ServiceRequest/5bf0cb0b-154a-4f6f-9e0b-4793bad463de"},{"reference":"Coverage/83557cd7-6b70-4fe5-beb7-812725d422dd"},{"reference":"Organization/98f06052-d789-419c-816b-8e480b19de3d"},{"reference":"Practitioner/85e6bb42-1008-4aab-8031-6eedc587e8ad"}]},"request":{"method":"PUT","url":"MeasureReport/2591f1b3-a0ab-4529-84cc-d4de7d6f7915"}}]},"request":{"method":"PUT","url":"Bundle/62fd4b660968f8012246b04a"}},{"resource":{"resourceType":"Coverage","id":"83557cd7-6b70-4fe5-beb7-812725d422dd","meta":{"profile":["http://hl7.org/fhir/us/qicore/StructureDefinition/qicore-coverage"]},"status":"active","beneficiary":{"reference":"Patient/6138f86b-449c-4828-9b62-fe2bed4157b1"},"payor":[{"reference":"Organization/98f06052-d789-419c-816b-8e480b19de3d"}]},"request":{"method":"PUT","url":"Coverage/83557cd7-6b70-4fe5-beb7-812725d422dd"}},{"resource":{"resourceType":"Encounter","id":"e20e6724-4a81-46da-88e0-e1f5d573f9f2","meta":{"profile":["http://hl7.org/fhir/us/qicore/StructureDefinition/qicore-encounter"]},"status":"finished","class":{"system":"http://terminology.hl7.org/CodeSystem/v3-ActCode","code":"AMB","display":"ambulatory"},"type":[{"coding":[{"system":"http://snomed.info/sct","version":"2022-03","code":"185463005","display":"Visit out of hours (procedure)","userSelected":true}]}],"subject":{"reference":"Patient/6138f86b-449c-4828-9b62-fe2bed4157b1"},"period":{"start":"2026-01-01T08:00:00.000+00:00","end":"2026-01-01T09:15:00.000+00:00"}},"request":{"method":"PUT","url":"Encounter/e20e6724-4a81-46da-88e0-e1f5d573f9f2"}},{"resource":{"resourceType":"MeasureReport","id":"2591f1b3-a0ab-4529-84cc-d4de7d6f7915","meta":{"profile":["http://hl7.org/fhir/us/cqfmeasures/StructureDefinition/test-case-cqfm"]},"contained":[{"resourceType":"Parameters","id":"969c3695-dd04-466d-837e-0813fc7e82ff-parameters","parameter":[{"name":"subject","valueString":"6138f86b-449c-4828-9b62-fe2bed4157b1"}]}],"extension":[{"url":"http://hl7.org/fhir/StructureDefinition/cqf-inputParameters","valueReference":{"reference":"#969c3695-dd04-466d-837e-0813fc7e82ff-parameters"}},{"url":"http://hl7.org/fhir/us/cqfmeasures/StructureDefinition/cqfm-testCaseDescription","valueMarkdown":"Encounter during MP. status finished. Referral Status not equal to Active. Intent Order during Referral period\n"}],"modifierExtension":[{"url":"http://hl7.org/fhir/us/cqfmeasures/StructureDefinition/cqfm-isTestCase","valueBoolean":true}],"status":"complete","type":"individual","measure":"https://madie.cms.gov/Measure/CMS50FHIRCRLReceiptofSpecialistReport","period":{"start":"2026-01-01","end":"2026-12-31"},"group":[{"id":"Group_1","population":[{"id":"InitialPopulation_1","code":{"coding":[{"system":"http://terminology.hl7.org/CodeSystem/measure-population","code":"initial-population","display":"Initial Population"}]},"count":0},{"id":"Denominator_1","code":{"coding":[{"system":"http://terminology.hl7.org/CodeSystem/measure-population","code":"denominator","display":"Denominator"}]},"count":0},{"id":"Numerator_1","code":{"coding":[{"system":"http://terminology.hl7.org/CodeSystem/measure-population","code":"numerator","display":"Numerator"}]},"count":0}],"measureScore":{"value":1.0}}],"evaluatedResource":[{"reference":"Patient/6138f86b-449c-4828-9b62-fe2bed4157b1"},{"reference":"Encounter/e20e6724-4a81-46da-88e0-e1f5d573f9f2"},{"reference":"ServiceRequest/5bf0cb0b-154a-4f6f-9e0b-4793bad463de"},{"reference":"Coverage/83557cd7-6b70-4fe5-beb7-812725d422dd"},{"reference":"Organization/98f06052-d789-419c-816b-8e480b19de3d"},{"reference":"Practitioner/85e6bb42-1008-4aab-8031-6eedc587e8ad"}]},"request":{"method":"PUT","url":"MeasureReport/2591f1b3-a0ab-4529-84cc-d4de7d6f7915"}},{"resource":{"resourceType":"Organization","id":"98f06052-d789-419c-816b-8e480b19de3d","meta":{"profile":["http://hl7.org/fhir/us/qicore/StructureDefinition/qicore-organization"]},"identifier":[{"use":"temp","system":"urn:oid:2.16.840.1.113883.4.4","value":"21-3259825"}],"active":true,"type":[{"coding":[{"system":"http://terminology.hl7.org/CodeSystem/organization-type","code":"pay","display":"Payer"}]}],"name":"Blue Cross Blue Shield of Texas","telecom":[{"system":"phone","value":"(+1) 972-766-6900"}],"address":[{"use":"billing","type":"postal","line":["P.O. Box 660044"],"city":"Dallas","state":"TX","postalCode":"75266-0044","country":"USA"}]},"request":{"method":"PUT","url":"Organization/98f06052-d789-419c-816b-8e480b19de3d"}},{"resource":{"resourceType":"Patient","id":"6138f86b-449c-4828-9b62-fe2bed4157b1","meta":{"profile":["http://hl7.org/fhir/us/qicore/StructureDefinition/qicore-patient"]},"extension":[{"url":"http://hl7.org/fhir/us/core/StructureDefinition/us-core-race","extension":[{"url":"ombCategory","valueCoding":{"system":"urn:oid:2.16.840.1.113883.6.238","code":"1002-5","display":"American Indian or Alaska Native","userSelected":true}},{"url":"text","valueString":"American Indian or Alaska Native"}]},{"url":"http://hl7.org/fhir/us/core/StructureDefinition/us-core-ethnicity","extension":[{"url":"ombCategory","valueCoding":{"system":"urn:oid:2.16.840.1.113883.6.238","code":"2186-5","display":"Not Hispanic or Latino","userSelected":true}},{"url":"text","valueString":"Not Hispanic or Latino"}]}],"identifier":[{"type":{"coding":[{"system":"http://terminology.hl7.org/CodeSystem/v2-0203","code":"MR"}]},"system":"https://bonnie-fhir.healthit.gov/","value":"62fd4b660968f8012246b04a"}],"name":[{"family":"IPFail","given":["ReferralStatusNotValid"]}],"gender":"male","birthDate":"1967-01-19"},"request":{"method":"PUT","url":"Patient/6138f86b-449c-4828-9b62-fe2bed4157b1"}},{"resource":{"resourceType":"Practitioner","id":"85e6bb42-1008-4aab-8031-6eedc587e8ad","meta":{"profile":["http://hl7.org/fhir/us/qicore/StructureDefinition/qicore-practitioner"]},"identifier":[{"system":"http://hl7.org/fhir/sid/us-npi","value":"123456"}],"name":[{"family":"Evil","prefix":["Dr"]}]},"request":{"method":"PUT","url":"Practitioner/85e6bb42-1008-4aab-8031-6eedc587e8ad"}},{"resource":{"resourceType":"ServiceRequest","id":"5bf0cb0b-154a-4f6f-9e0b-4793bad463de","meta":{"profile":["http://hl7.org/fhir/us/qicore/StructureDefinition/qicore-servicerequest"]},"status":"unknown","intent":"order","code":{"coding":[{"system":"http://snomed.info/sct","version":"2022-03","code":"103696004","display":"Patient referral to specialist (procedure)","userSelected":true}]},"subject":{"reference":"Patient/6138f86b-449c-4828-9b62-fe2bed4157b1"},"authoredOn":"2026-10-31T08:00:00.000+00:00"},"request":{"method":"PUT","url":"ServiceRequest/5bf0cb0b-154a-4f6f-9e0b-4793bad463de"}}]}