{"resourceType":"Bundle","id":"tests-bf87bf51-99d7-4765-a19a-f68c9fcf6a2e-bundle","type":"transaction","entry":[{"resource":{"resourceType":"Bundle","id":"62fd4b6b0968f8012246b35d","type":"transaction","entry":[{"fullUrl":"https://madie.cms.gov/Patient/bf87bf51-99d7-4765-a19a-f68c9fcf6a2e","resource":{"resourceType":"Patient","id":"bf87bf51-99d7-4765-a19a-f68c9fcf6a2e","meta":{"profile":["http://hl7.org/fhir/us/qicore/StructureDefinition/qicore-patient"]},"extension":[{"url":"http://hl7.org/fhir/us/core/StructureDefinition/us-core-race","extension":[{"url":"ombCategory","valueCoding":{"system":"urn:oid:2.16.840.1.113883.6.238","code":"1002-5","display":"American Indian or Alaska Native","userSelected":true}},{"url":"text","valueString":"American Indian or Alaska Native"},{"url":"detailed","valueCoding":{"system":"urn:oid:2.16.840.1.113883.6.238","code":"1653-5","display":"Tohono O'Odham"}}]},{"url":"http://hl7.org/fhir/us/core/StructureDefinition/us-core-ethnicity","extension":[{"url":"ombCategory","valueCoding":{"system":"urn:oid:2.16.840.1.113883.6.238","code":"2135-2","display":"Hispanic or Latino","userSelected":true}},{"url":"text","valueString":"Hispanic or Latino"},{"url":"detailed","valueCoding":{"system":"urn:oid:2.16.840.1.113883.6.238","code":"2153-5","display":"Mexican American Indian"}}]}],"identifier":[{"type":{"coding":[{"system":"http://terminology.hl7.org/CodeSystem/v2-0203","code":"MR"}]},"system":"https://bonnie-fhir.healthit.gov/","value":"62fd4b6b0968f8012246b35d"}],"name":[{"family":"NUMERPass","given":["ConsRptLastDayOfMP"]}],"gender":"female","birthDate":"1990-12-31"},"request":{"method":"PUT","url":"Patient/bf87bf51-99d7-4765-a19a-f68c9fcf6a2e"}},{"fullUrl":"https://madie.cms.gov/Encounter/b87b83dc-fd1e-4801-a49c-c25578a19ac0","resource":{"resourceType":"Encounter","id":"b87b83dc-fd1e-4801-a49c-c25578a19ac0","meta":{"profile":["http://hl7.org/fhir/us/qicore/StructureDefinition/qicore-encounter"]},"status":"finished","class":{"system":"http://terminology.hl7.org/CodeSystem/v3-ActCode","code":"AMB","display":"ambulatory"},"type":[{"coding":[{"system":"http://www.ama-assn.org/go/cpt","version":"2021","code":"99395","display":"Periodic comprehensive preventive medicine reevaluation and management of an individual including an age and gender appropriate history, examination, counseling/anticipatory guidance/risk factor reduction interventions, and the ordering of laboratory/diagnostic procedures, established patient; 18-39 years","userSelected":true}]}],"subject":{"reference":"Patient/bf87bf51-99d7-4765-a19a-f68c9fcf6a2e"},"period":{"start":"2026-05-27T08:00:00.000+00:00","end":"2026-05-27T09:15:00.000+00:00"}},"request":{"method":"PUT","url":"Encounter/b87b83dc-fd1e-4801-a49c-c25578a19ac0"}},{"fullUrl":"https://madie.cms.gov/Task/428aadb4-a492-4a7d-957e-78aade0bc8f4","resource":{"resourceType":"Task","id":"428aadb4-a492-4a7d-957e-78aade0bc8f4","meta":{"profile":["http://hl7.org/fhir/us/qicore/StructureDefinition/qicore-task"]},"identifier":[{"use":"official","system":"http:/goodhealth.org/identifiers","value":"20170201-002"}],"basedOn":[{"reference":"ServiceRequest/4fc97bee-1ee6-4087-951f-139ef1759a78"}],"status":"completed","intent":"order","priority":"routine","code":{"coding":[{"system":"http://loinc.org","version":"2.72","code":"11488-4","display":"Consult note","userSelected":true}]},"for":{"reference":"Patient/bf87bf51-99d7-4765-a19a-f68c9fcf6a2e"},"executionPeriod":{"start":"2026-12-31T23:00:00.000+00:00","end":"2026-12-31T23:59:00.000+00:00"}},"request":{"method":"PUT","url":"Task/428aadb4-a492-4a7d-957e-78aade0bc8f4"}},{"fullUrl":"https://madie.cms.gov/ServiceRequest/4fc97bee-1ee6-4087-951f-139ef1759a78","resource":{"resourceType":"ServiceRequest","id":"4fc97bee-1ee6-4087-951f-139ef1759a78","meta":{"profile":["http://hl7.org/fhir/us/qicore/StructureDefinition/qicore-servicerequest"]},"status":"active","intent":"order","code":{"coding":[{"system":"http://snomed.info/sct","version":"2022-03","code":"103696004","display":"Patient referral to specialist (procedure)","userSelected":true}]},"subject":{"reference":"Patient/bf87bf51-99d7-4765-a19a-f68c9fcf6a2e"},"authoredOn":"2026-05-31T08:00:00.000+00:00"},"request":{"method":"PUT","url":"ServiceRequest/4fc97bee-1ee6-4087-951f-139ef1759a78"}},{"fullUrl":"https://madie.cms.gov/Coverage/6e6599c7-8304-44ab-a2bd-e8b67612f558","resource":{"resourceType":"Coverage","id":"6e6599c7-8304-44ab-a2bd-e8b67612f558","meta":{"profile":["http://hl7.org/fhir/us/qicore/StructureDefinition/qicore-coverage"]},"status":"active","type":{"coding":[{"system":"https://nahdo.org/sopt","code":"1","display":"MEDICARE"}]},"beneficiary":{"reference":"Patient/bf87bf51-99d7-4765-a19a-f68c9fcf6a2e"},"period":{"start":"2024-12-01T00:00:00+00:00"},"payor":[{"reference":"Organization/87b6b3e1-2b05-4d1e-81f1-72a0dce273ad"}]},"request":{"method":"PUT","url":"Coverage/6e6599c7-8304-44ab-a2bd-e8b67612f558"}},{"fullUrl":"https://madie.cms.gov/Organization/87b6b3e1-2b05-4d1e-81f1-72a0dce273ad","resource":{"resourceType":"Organization","id":"87b6b3e1-2b05-4d1e-81f1-72a0dce273ad","meta":{"profile":["http://hl7.org/fhir/us/qicore/StructureDefinition/qicore-organization"]},"identifier":[{"use":"temp","system":"urn:oid:2.16.840.1.113883.4.4","value":"21-3259825"}],"active":true,"type":[{"coding":[{"system":"http://terminology.hl7.org/CodeSystem/organization-type","code":"pay","display":"Payer"}]}],"name":"Blue Cross Blue Shield of Texas","telecom":[{"system":"phone","value":"(+1) 972-766-6900"}],"address":[{"use":"billing","type":"postal","line":["P.O. Box 660044"],"city":"Dallas","state":"TX","postalCode":"75266-0044","country":"USA"}]},"request":{"method":"PUT","url":"Organization/87b6b3e1-2b05-4d1e-81f1-72a0dce273ad"}},{"fullUrl":"https://madie.cms.gov/Practitioner/92ebae5d-61e6-4f36-bfdb-74fb80815855","resource":{"resourceType":"Practitioner","id":"92ebae5d-61e6-4f36-bfdb-74fb80815855","meta":{"profile":["http://hl7.org/fhir/us/qicore/StructureDefinition/qicore-practitioner"]},"identifier":[{"system":"http://hl7.org/fhir/sid/us-npi","value":"123456"}],"name":[{"family":"Evil","prefix":["Dr"]}]},"request":{"method":"PUT","url":"Practitioner/92ebae5d-61e6-4f36-bfdb-74fb80815855"}},{"fullUrl":"https://madie.cms.gov/MeasureReport/49e8f27c-01d5-4afa-9cca-594ab0ab36a4","resource":{"resourceType":"MeasureReport","id":"49e8f27c-01d5-4afa-9cca-594ab0ab36a4","meta":{"profile":["http://hl7.org/fhir/us/cqfmeasures/StructureDefinition/test-case-cqfm"]},"contained":[{"resourceType":"Parameters","id":"4c9b8af9-a9bb-439f-ae9e-e3c4c1a91bdc-parameters","parameter":[{"name":"subject","valueString":"bf87bf51-99d7-4765-a19a-f68c9fcf6a2e"}]}],"extension":[{"url":"http://hl7.org/fhir/StructureDefinition/cqf-inputParameters","valueReference":{"reference":"#4c9b8af9-a9bb-439f-ae9e-e3c4c1a91bdc-parameters"}},{"url":"http://hl7.org/fhir/us/cqfmeasures/StructureDefinition/cqfm-testCaseDescription","valueMarkdown":"Patient with Preventive Care Services encounter with Referral during MP, and Consultant Report on the last day of MP.  SDE details added to the JSON.\n"}],"modifierExtension":[{"url":"http://hl7.org/fhir/us/cqfmeasures/StructureDefinition/cqfm-isTestCase","valueBoolean":true}],"status":"complete","type":"individual","measure":"https://madie.cms.gov/Measure/CMS50FHIRCRLReceiptofSpecialistReport","period":{"start":"2026-01-01","end":"2026-12-31"},"group":[{"id":"Group_1","population":[{"id":"InitialPopulation_1","code":{"coding":[{"system":"http://terminology.hl7.org/CodeSystem/measure-population","code":"initial-population","display":"Initial Population"}]},"count":1},{"id":"Denominator_1","code":{"coding":[{"system":"http://terminology.hl7.org/CodeSystem/measure-population","code":"denominator","display":"Denominator"}]},"count":1},{"id":"Numerator_1","code":{"coding":[{"system":"http://terminology.hl7.org/CodeSystem/measure-population","code":"numerator","display":"Numerator"}]},"count":1}],"measureScore":{"value":1.0}}],"evaluatedResource":[{"reference":"Patient/bf87bf51-99d7-4765-a19a-f68c9fcf6a2e"},{"reference":"Encounter/b87b83dc-fd1e-4801-a49c-c25578a19ac0"},{"reference":"Task/428aadb4-a492-4a7d-957e-78aade0bc8f4"},{"reference":"ServiceRequest/4fc97bee-1ee6-4087-951f-139ef1759a78"},{"reference":"Coverage/6e6599c7-8304-44ab-a2bd-e8b67612f558"},{"reference":"Organization/87b6b3e1-2b05-4d1e-81f1-72a0dce273ad"},{"reference":"Practitioner/92ebae5d-61e6-4f36-bfdb-74fb80815855"}]},"request":{"method":"PUT","url":"MeasureReport/49e8f27c-01d5-4afa-9cca-594ab0ab36a4"}}]},"request":{"method":"PUT","url":"Bundle/62fd4b6b0968f8012246b35d"}},{"resource":{"resourceType":"Coverage","id":"6e6599c7-8304-44ab-a2bd-e8b67612f558","meta":{"profile":["http://hl7.org/fhir/us/qicore/StructureDefinition/qicore-coverage"]},"status":"active","type":{"coding":[{"system":"https://nahdo.org/sopt","code":"1","display":"MEDICARE"}]},"beneficiary":{"reference":"Patient/bf87bf51-99d7-4765-a19a-f68c9fcf6a2e"},"period":{"start":"2024-12-01T00:00:00+00:00"},"payor":[{"reference":"Organization/87b6b3e1-2b05-4d1e-81f1-72a0dce273ad"}]},"request":{"method":"PUT","url":"Coverage/6e6599c7-8304-44ab-a2bd-e8b67612f558"}},{"resource":{"resourceType":"Encounter","id":"b87b83dc-fd1e-4801-a49c-c25578a19ac0","meta":{"profile":["http://hl7.org/fhir/us/qicore/StructureDefinition/qicore-encounter"]},"status":"finished","class":{"system":"http://terminology.hl7.org/CodeSystem/v3-ActCode","code":"AMB","display":"ambulatory"},"type":[{"coding":[{"system":"http://www.ama-assn.org/go/cpt","version":"2021","code":"99395","display":"Periodic comprehensive preventive medicine reevaluation and management of an individual including an age and gender appropriate history, examination, counseling/anticipatory guidance/risk factor reduction interventions, and the ordering of laboratory/diagnostic procedures, established patient; 18-39 years","userSelected":true}]}],"subject":{"reference":"Patient/bf87bf51-99d7-4765-a19a-f68c9fcf6a2e"},"period":{"start":"2026-05-27T08:00:00.000+00:00","end":"2026-05-27T09:15:00.000+00:00"}},"request":{"method":"PUT","url":"Encounter/b87b83dc-fd1e-4801-a49c-c25578a19ac0"}},{"resource":{"resourceType":"MeasureReport","id":"49e8f27c-01d5-4afa-9cca-594ab0ab36a4","meta":{"profile":["http://hl7.org/fhir/us/cqfmeasures/StructureDefinition/test-case-cqfm"]},"contained":[{"resourceType":"Parameters","id":"4c9b8af9-a9bb-439f-ae9e-e3c4c1a91bdc-parameters","parameter":[{"name":"subject","valueString":"bf87bf51-99d7-4765-a19a-f68c9fcf6a2e"}]}],"extension":[{"url":"http://hl7.org/fhir/StructureDefinition/cqf-inputParameters","valueReference":{"reference":"#4c9b8af9-a9bb-439f-ae9e-e3c4c1a91bdc-parameters"}},{"url":"http://hl7.org/fhir/us/cqfmeasures/StructureDefinition/cqfm-testCaseDescription","valueMarkdown":"Patient with Preventive Care Services encounter with Referral during MP, and Consultant Report on the last day of MP.  SDE details added to the JSON.\n"}],"modifierExtension":[{"url":"http://hl7.org/fhir/us/cqfmeasures/StructureDefinition/cqfm-isTestCase","valueBoolean":true}],"status":"complete","type":"individual","measure":"https://madie.cms.gov/Measure/CMS50FHIRCRLReceiptofSpecialistReport","period":{"start":"2026-01-01","end":"2026-12-31"},"group":[{"id":"Group_1","population":[{"id":"InitialPopulation_1","code":{"coding":[{"system":"http://terminology.hl7.org/CodeSystem/measure-population","code":"initial-population","display":"Initial Population"}]},"count":1},{"id":"Denominator_1","code":{"coding":[{"system":"http://terminology.hl7.org/CodeSystem/measure-population","code":"denominator","display":"Denominator"}]},"count":1},{"id":"Numerator_1","code":{"coding":[{"system":"http://terminology.hl7.org/CodeSystem/measure-population","code":"numerator","display":"Numerator"}]},"count":1}],"measureScore":{"value":1.0}}],"evaluatedResource":[{"reference":"Patient/bf87bf51-99d7-4765-a19a-f68c9fcf6a2e"},{"reference":"Encounter/b87b83dc-fd1e-4801-a49c-c25578a19ac0"},{"reference":"Task/428aadb4-a492-4a7d-957e-78aade0bc8f4"},{"reference":"ServiceRequest/4fc97bee-1ee6-4087-951f-139ef1759a78"},{"reference":"Coverage/6e6599c7-8304-44ab-a2bd-e8b67612f558"},{"reference":"Organization/87b6b3e1-2b05-4d1e-81f1-72a0dce273ad"},{"reference":"Practitioner/92ebae5d-61e6-4f36-bfdb-74fb80815855"}]},"request":{"method":"PUT","url":"MeasureReport/49e8f27c-01d5-4afa-9cca-594ab0ab36a4"}},{"resource":{"resourceType":"Organization","id":"87b6b3e1-2b05-4d1e-81f1-72a0dce273ad","meta":{"profile":["http://hl7.org/fhir/us/qicore/StructureDefinition/qicore-organization"]},"identifier":[{"use":"temp","system":"urn:oid:2.16.840.1.113883.4.4","value":"21-3259825"}],"active":true,"type":[{"coding":[{"system":"http://terminology.hl7.org/CodeSystem/organization-type","code":"pay","display":"Payer"}]}],"name":"Blue Cross Blue Shield of Texas","telecom":[{"system":"phone","value":"(+1) 972-766-6900"}],"address":[{"use":"billing","type":"postal","line":["P.O. Box 660044"],"city":"Dallas","state":"TX","postalCode":"75266-0044","country":"USA"}]},"request":{"method":"PUT","url":"Organization/87b6b3e1-2b05-4d1e-81f1-72a0dce273ad"}},{"resource":{"resourceType":"Patient","id":"bf87bf51-99d7-4765-a19a-f68c9fcf6a2e","meta":{"profile":["http://hl7.org/fhir/us/qicore/StructureDefinition/qicore-patient"]},"extension":[{"url":"http://hl7.org/fhir/us/core/StructureDefinition/us-core-race","extension":[{"url":"ombCategory","valueCoding":{"system":"urn:oid:2.16.840.1.113883.6.238","code":"1002-5","display":"American Indian or Alaska Native","userSelected":true}},{"url":"text","valueString":"American Indian or Alaska Native"},{"url":"detailed","valueCoding":{"system":"urn:oid:2.16.840.1.113883.6.238","code":"1653-5","display":"Tohono O'Odham"}}]},{"url":"http://hl7.org/fhir/us/core/StructureDefinition/us-core-ethnicity","extension":[{"url":"ombCategory","valueCoding":{"system":"urn:oid:2.16.840.1.113883.6.238","code":"2135-2","display":"Hispanic or Latino","userSelected":true}},{"url":"text","valueString":"Hispanic or Latino"},{"url":"detailed","valueCoding":{"system":"urn:oid:2.16.840.1.113883.6.238","code":"2153-5","display":"Mexican American Indian"}}]}],"identifier":[{"type":{"coding":[{"system":"http://terminology.hl7.org/CodeSystem/v2-0203","code":"MR"}]},"system":"https://bonnie-fhir.healthit.gov/","value":"62fd4b6b0968f8012246b35d"}],"name":[{"family":"NUMERPass","given":["ConsRptLastDayOfMP"]}],"gender":"female","birthDate":"1990-12-31"},"request":{"method":"PUT","url":"Patient/bf87bf51-99d7-4765-a19a-f68c9fcf6a2e"}},{"resource":{"resourceType":"Practitioner","id":"92ebae5d-61e6-4f36-bfdb-74fb80815855","meta":{"profile":["http://hl7.org/fhir/us/qicore/StructureDefinition/qicore-practitioner"]},"identifier":[{"system":"http://hl7.org/fhir/sid/us-npi","value":"123456"}],"name":[{"family":"Evil","prefix":["Dr"]}]},"request":{"method":"PUT","url":"Practitioner/92ebae5d-61e6-4f36-bfdb-74fb80815855"}},{"resource":{"resourceType":"ServiceRequest","id":"4fc97bee-1ee6-4087-951f-139ef1759a78","meta":{"profile":["http://hl7.org/fhir/us/qicore/StructureDefinition/qicore-servicerequest"]},"status":"active","intent":"order","code":{"coding":[{"system":"http://snomed.info/sct","version":"2022-03","code":"103696004","display":"Patient referral to specialist (procedure)","userSelected":true}]},"subject":{"reference":"Patient/bf87bf51-99d7-4765-a19a-f68c9fcf6a2e"},"authoredOn":"2026-05-31T08:00:00.000+00:00"},"request":{"method":"PUT","url":"ServiceRequest/4fc97bee-1ee6-4087-951f-139ef1759a78"}},{"resource":{"resourceType":"Task","id":"428aadb4-a492-4a7d-957e-78aade0bc8f4","meta":{"profile":["http://hl7.org/fhir/us/qicore/StructureDefinition/qicore-task"]},"identifier":[{"use":"official","system":"http:/goodhealth.org/identifiers","value":"20170201-002"}],"basedOn":[{"reference":"ServiceRequest/4fc97bee-1ee6-4087-951f-139ef1759a78"}],"status":"completed","intent":"order","priority":"routine","code":{"coding":[{"system":"http://loinc.org","version":"2.72","code":"11488-4","display":"Consult note","userSelected":true}]},"for":{"reference":"Patient/bf87bf51-99d7-4765-a19a-f68c9fcf6a2e"},"executionPeriod":{"start":"2026-12-31T23:00:00.000+00:00","end":"2026-12-31T23:59:00.000+00:00"}},"request":{"method":"PUT","url":"Task/428aadb4-a492-4a7d-957e-78aade0bc8f4"}}]}