{"resourceType":"Bundle","id":"tests-d9a98a4c-9208-4370-b07c-1c5c63fd09b6-bundle","type":"transaction","entry":[{"resource":{"resourceType":"MeasureReport","id":"5b521027-1fa5-4d21-bc8d-1fd44742cdf0","meta":{"profile":["http://hl7.org/fhir/us/cqfmeasures/StructureDefinition/test-case-cqfm"]},"contained":[{"resourceType":"Parameters","id":"a7cb8758-7064-4887-9adc-172058a38c6b-parameters","parameter":[{"name":"subject","valueString":"d9a98a4c-9208-4370-b07c-1c5c63fd09b6"}]}],"extension":[{"url":"http://hl7.org/fhir/StructureDefinition/cqf-inputParameters","valueReference":{"reference":"#a7cb8758-7064-4887-9adc-172058a38c6b-parameters"}},{"url":"http://hl7.org/fhir/us/cqfmeasures/StructureDefinition/cqfm-testCaseDescription","valueMarkdown":"Encounter during MP,  status finished, Referral Status Active,  Intent not Order during Referral period\n\n"}],"modifierExtension":[{"url":"http://hl7.org/fhir/us/cqfmeasures/StructureDefinition/cqfm-isTestCase","valueBoolean":true}],"status":"complete","type":"individual","measure":"https://madie.cms.gov/Measure/CMS50FHIRCRLReceiptofSpecialistReport","period":{"start":"2026-01-01","end":"2026-12-31"},"group":[{"id":"Group_1","population":[{"id":"InitialPopulation_1","code":{"coding":[{"system":"http://terminology.hl7.org/CodeSystem/measure-population","code":"initial-population","display":"Initial Population"}]},"count":0},{"id":"Denominator_1","code":{"coding":[{"system":"http://terminology.hl7.org/CodeSystem/measure-population","code":"denominator","display":"Denominator"}]},"count":0},{"id":"Numerator_1","code":{"coding":[{"system":"http://terminology.hl7.org/CodeSystem/measure-population","code":"numerator","display":"Numerator"}]},"count":0}],"measureScore":{"value":1.0}}],"evaluatedResource":[{"reference":"Patient/d9a98a4c-9208-4370-b07c-1c5c63fd09b6"},{"reference":"Encounter/db9ce32a-7614-4845-9843-fb4cdb149055"},{"reference":"ServiceRequest/275d15ee-19bf-428b-bb6d-f37892970412"},{"reference":"Coverage/8ebfa2fc-23ae-45fd-a1ea-90ed97f45899"},{"reference":"Organization/42a63c05-db1e-41b8-a039-c21b6857e51b"},{"reference":"Practitioner/0d47c4ad-e770-4242-98c7-9e6a29d89f54"}]},"request":{"method":"PUT","url":"MeasureReport/5b521027-1fa5-4d21-bc8d-1fd44742cdf0"}},{"resource":{"resourceType":"ServiceRequest","id":"275d15ee-19bf-428b-bb6d-f37892970412","meta":{"profile":["http://hl7.org/fhir/us/qicore/StructureDefinition/qicore-servicerequest"]},"status":"active","intent":"instance-order","code":{"coding":[{"system":"http://snomed.info/sct","version":"2022-03","code":"103696004","display":"Patient referral to specialist (procedure)","userSelected":true}]},"subject":{"reference":"Patient/d9a98a4c-9208-4370-b07c-1c5c63fd09b6"},"authoredOn":"2026-05-27T00:01:00.000+00:00"},"request":{"method":"PUT","url":"ServiceRequest/275d15ee-19bf-428b-bb6d-f37892970412"}},{"resource":{"resourceType":"Organization","id":"42a63c05-db1e-41b8-a039-c21b6857e51b","meta":{"profile":["http://hl7.org/fhir/us/qicore/StructureDefinition/qicore-organization"]},"identifier":[{"use":"temp","system":"urn:oid:2.16.840.1.113883.4.4","value":"21-3259825"}],"active":true,"type":[{"coding":[{"system":"http://terminology.hl7.org/CodeSystem/organization-type","code":"pay","display":"Payer"}]}],"name":"Blue Cross Blue Shield of Texas","telecom":[{"system":"phone","value":"(+1) 972-766-6900"}],"address":[{"use":"billing","type":"postal","line":["P.O. Box 660044"],"city":"Dallas","state":"TX","postalCode":"75266-0044","country":"USA"}]},"request":{"method":"PUT","url":"Organization/42a63c05-db1e-41b8-a039-c21b6857e51b"}},{"resource":{"resourceType":"Bundle","id":"62fd4b670968f8012246b0ba","type":"transaction","entry":[{"fullUrl":"https://madie.cms.gov/Patient/d9a98a4c-9208-4370-b07c-1c5c63fd09b6","resource":{"resourceType":"Patient","id":"d9a98a4c-9208-4370-b07c-1c5c63fd09b6","meta":{"profile":["http://hl7.org/fhir/us/qicore/StructureDefinition/qicore-patient"]},"extension":[{"url":"http://hl7.org/fhir/us/core/StructureDefinition/us-core-race","extension":[{"url":"ombCategory","valueCoding":{"system":"urn:oid:2.16.840.1.113883.6.238","code":"1002-5","display":"American Indian or Alaska Native","userSelected":true}},{"url":"text","valueString":"American Indian or Alaska Native"}]},{"url":"http://hl7.org/fhir/us/core/StructureDefinition/us-core-ethnicity","extension":[{"url":"ombCategory","valueCoding":{"system":"urn:oid:2.16.840.1.113883.6.238","code":"2186-5","display":"Not Hispanic or Latino","userSelected":true}},{"url":"text","valueString":"Not Hispanic or Latino"}]}],"identifier":[{"type":{"coding":[{"system":"http://terminology.hl7.org/CodeSystem/v2-0203","code":"MR"}]},"system":"https://bonnie-fhir.healthit.gov/","value":"62fd4b670968f8012246b0ba"}],"name":[{"family":"IPFail","given":["ReferralIntentNotOrder"]}],"gender":"male","birthDate":"1967-01-19"},"request":{"method":"PUT","url":"Patient/d9a98a4c-9208-4370-b07c-1c5c63fd09b6"}},{"fullUrl":"https://madie.cms.gov/Encounter/db9ce32a-7614-4845-9843-fb4cdb149055","resource":{"resourceType":"Encounter","id":"db9ce32a-7614-4845-9843-fb4cdb149055","meta":{"profile":["http://hl7.org/fhir/us/qicore/StructureDefinition/qicore-encounter"]},"status":"finished","class":{"system":"http://terminology.hl7.org/CodeSystem/v3-ActCode","code":"AMB","display":"ambulatory"},"type":[{"coding":[{"system":"http://snomed.info/sct","version":"2022-03","code":"185463005","display":"Visit out of hours (procedure)","userSelected":true}]}],"subject":{"reference":"Patient/d9a98a4c-9208-4370-b07c-1c5c63fd09b6"},"period":{"start":"2026-01-01T00:00:00.000+00:00","end":"2026-01-01T01:15:00.000+00:00"}},"request":{"method":"PUT","url":"Encounter/db9ce32a-7614-4845-9843-fb4cdb149055"}},{"fullUrl":"https://madie.cms.gov/ServiceRequest/275d15ee-19bf-428b-bb6d-f37892970412","resource":{"resourceType":"ServiceRequest","id":"275d15ee-19bf-428b-bb6d-f37892970412","meta":{"profile":["http://hl7.org/fhir/us/qicore/StructureDefinition/qicore-servicerequest"]},"status":"active","intent":"instance-order","code":{"coding":[{"system":"http://snomed.info/sct","version":"2022-03","code":"103696004","display":"Patient referral to specialist (procedure)","userSelected":true}]},"subject":{"reference":"Patient/d9a98a4c-9208-4370-b07c-1c5c63fd09b6"},"authoredOn":"2026-05-27T00:01:00.000+00:00"},"request":{"method":"PUT","url":"ServiceRequest/275d15ee-19bf-428b-bb6d-f37892970412"}},{"fullUrl":"https://madie.cms.gov/Coverage/8ebfa2fc-23ae-45fd-a1ea-90ed97f45899","resource":{"resourceType":"Coverage","id":"8ebfa2fc-23ae-45fd-a1ea-90ed97f45899","meta":{"profile":["http://hl7.org/fhir/us/qicore/StructureDefinition/qicore-coverage"]},"status":"active","beneficiary":{"reference":"Patient/d9a98a4c-9208-4370-b07c-1c5c63fd09b6"},"payor":[{"reference":"Organization/42a63c05-db1e-41b8-a039-c21b6857e51b"}]},"request":{"method":"PUT","url":"Coverage/8ebfa2fc-23ae-45fd-a1ea-90ed97f45899"}},{"fullUrl":"https://madie.cms.gov/Organization/42a63c05-db1e-41b8-a039-c21b6857e51b","resource":{"resourceType":"Organization","id":"42a63c05-db1e-41b8-a039-c21b6857e51b","meta":{"profile":["http://hl7.org/fhir/us/qicore/StructureDefinition/qicore-organization"]},"identifier":[{"use":"temp","system":"urn:oid:2.16.840.1.113883.4.4","value":"21-3259825"}],"active":true,"type":[{"coding":[{"system":"http://terminology.hl7.org/CodeSystem/organization-type","code":"pay","display":"Payer"}]}],"name":"Blue Cross Blue Shield of Texas","telecom":[{"system":"phone","value":"(+1) 972-766-6900"}],"address":[{"use":"billing","type":"postal","line":["P.O. Box 660044"],"city":"Dallas","state":"TX","postalCode":"75266-0044","country":"USA"}]},"request":{"method":"PUT","url":"Organization/42a63c05-db1e-41b8-a039-c21b6857e51b"}},{"fullUrl":"https://madie.cms.gov/Practitioner/0d47c4ad-e770-4242-98c7-9e6a29d89f54","resource":{"resourceType":"Practitioner","id":"0d47c4ad-e770-4242-98c7-9e6a29d89f54","meta":{"profile":["http://hl7.org/fhir/us/qicore/StructureDefinition/qicore-practitioner"]},"identifier":[{"system":"http://hl7.org/fhir/sid/us-npi","value":"123456"}],"name":[{"family":"Evil","prefix":["Dr"]}]},"request":{"method":"PUT","url":"Practitioner/0d47c4ad-e770-4242-98c7-9e6a29d89f54"}},{"fullUrl":"https://madie.cms.gov/MeasureReport/5b521027-1fa5-4d21-bc8d-1fd44742cdf0","resource":{"resourceType":"MeasureReport","id":"5b521027-1fa5-4d21-bc8d-1fd44742cdf0","meta":{"profile":["http://hl7.org/fhir/us/cqfmeasures/StructureDefinition/test-case-cqfm"]},"contained":[{"resourceType":"Parameters","id":"a7cb8758-7064-4887-9adc-172058a38c6b-parameters","parameter":[{"name":"subject","valueString":"d9a98a4c-9208-4370-b07c-1c5c63fd09b6"}]}],"extension":[{"url":"http://hl7.org/fhir/StructureDefinition/cqf-inputParameters","valueReference":{"reference":"#a7cb8758-7064-4887-9adc-172058a38c6b-parameters"}},{"url":"http://hl7.org/fhir/us/cqfmeasures/StructureDefinition/cqfm-testCaseDescription","valueMarkdown":"Encounter during MP,  status finished, Referral Status Active,  Intent not Order during Referral period\n\n"}],"modifierExtension":[{"url":"http://hl7.org/fhir/us/cqfmeasures/StructureDefinition/cqfm-isTestCase","valueBoolean":true}],"status":"complete","type":"individual","measure":"https://madie.cms.gov/Measure/CMS50FHIRCRLReceiptofSpecialistReport","period":{"start":"2026-01-01","end":"2026-12-31"},"group":[{"id":"Group_1","population":[{"id":"InitialPopulation_1","code":{"coding":[{"system":"http://terminology.hl7.org/CodeSystem/measure-population","code":"initial-population","display":"Initial Population"}]},"count":0},{"id":"Denominator_1","code":{"coding":[{"system":"http://terminology.hl7.org/CodeSystem/measure-population","code":"denominator","display":"Denominator"}]},"count":0},{"id":"Numerator_1","code":{"coding":[{"system":"http://terminology.hl7.org/CodeSystem/measure-population","code":"numerator","display":"Numerator"}]},"count":0}],"measureScore":{"value":1.0}}],"evaluatedResource":[{"reference":"Patient/d9a98a4c-9208-4370-b07c-1c5c63fd09b6"},{"reference":"Encounter/db9ce32a-7614-4845-9843-fb4cdb149055"},{"reference":"ServiceRequest/275d15ee-19bf-428b-bb6d-f37892970412"},{"reference":"Coverage/8ebfa2fc-23ae-45fd-a1ea-90ed97f45899"},{"reference":"Organization/42a63c05-db1e-41b8-a039-c21b6857e51b"},{"reference":"Practitioner/0d47c4ad-e770-4242-98c7-9e6a29d89f54"}]},"request":{"method":"PUT","url":"MeasureReport/5b521027-1fa5-4d21-bc8d-1fd44742cdf0"}}]},"request":{"method":"PUT","url":"Bundle/62fd4b670968f8012246b0ba"}},{"resource":{"resourceType":"Patient","id":"d9a98a4c-9208-4370-b07c-1c5c63fd09b6","meta":{"profile":["http://hl7.org/fhir/us/qicore/StructureDefinition/qicore-patient"]},"extension":[{"url":"http://hl7.org/fhir/us/core/StructureDefinition/us-core-race","extension":[{"url":"ombCategory","valueCoding":{"system":"urn:oid:2.16.840.1.113883.6.238","code":"1002-5","display":"American Indian or Alaska Native","userSelected":true}},{"url":"text","valueString":"American Indian or Alaska Native"}]},{"url":"http://hl7.org/fhir/us/core/StructureDefinition/us-core-ethnicity","extension":[{"url":"ombCategory","valueCoding":{"system":"urn:oid:2.16.840.1.113883.6.238","code":"2186-5","display":"Not Hispanic or Latino","userSelected":true}},{"url":"text","valueString":"Not Hispanic or Latino"}]}],"identifier":[{"type":{"coding":[{"system":"http://terminology.hl7.org/CodeSystem/v2-0203","code":"MR"}]},"system":"https://bonnie-fhir.healthit.gov/","value":"62fd4b670968f8012246b0ba"}],"name":[{"family":"IPFail","given":["ReferralIntentNotOrder"]}],"gender":"male","birthDate":"1967-01-19"},"request":{"method":"PUT","url":"Patient/d9a98a4c-9208-4370-b07c-1c5c63fd09b6"}},{"resource":{"resourceType":"Coverage","id":"8ebfa2fc-23ae-45fd-a1ea-90ed97f45899","meta":{"profile":["http://hl7.org/fhir/us/qicore/StructureDefinition/qicore-coverage"]},"status":"active","beneficiary":{"reference":"Patient/d9a98a4c-9208-4370-b07c-1c5c63fd09b6"},"payor":[{"reference":"Organization/42a63c05-db1e-41b8-a039-c21b6857e51b"}]},"request":{"method":"PUT","url":"Coverage/8ebfa2fc-23ae-45fd-a1ea-90ed97f45899"}},{"resource":{"resourceType":"Encounter","id":"db9ce32a-7614-4845-9843-fb4cdb149055","meta":{"profile":["http://hl7.org/fhir/us/qicore/StructureDefinition/qicore-encounter"]},"status":"finished","class":{"system":"http://terminology.hl7.org/CodeSystem/v3-ActCode","code":"AMB","display":"ambulatory"},"type":[{"coding":[{"system":"http://snomed.info/sct","version":"2022-03","code":"185463005","display":"Visit out of hours (procedure)","userSelected":true}]}],"subject":{"reference":"Patient/d9a98a4c-9208-4370-b07c-1c5c63fd09b6"},"period":{"start":"2026-01-01T00:00:00.000+00:00","end":"2026-01-01T01:15:00.000+00:00"}},"request":{"method":"PUT","url":"Encounter/db9ce32a-7614-4845-9843-fb4cdb149055"}},{"resource":{"resourceType":"Practitioner","id":"0d47c4ad-e770-4242-98c7-9e6a29d89f54","meta":{"profile":["http://hl7.org/fhir/us/qicore/StructureDefinition/qicore-practitioner"]},"identifier":[{"system":"http://hl7.org/fhir/sid/us-npi","value":"123456"}],"name":[{"family":"Evil","prefix":["Dr"]}]},"request":{"method":"PUT","url":"Practitioner/0d47c4ad-e770-4242-98c7-9e6a29d89f54"}}]}