{"resourceType":"Bundle","id":"tests-dc409230-77aa-4b66-bc1d-84e421089367-bundle","type":"transaction","entry":[{"resource":{"resourceType":"Bundle","id":"62fd4b660968f8012246b012","type":"transaction","entry":[{"fullUrl":"https://madie.cms.gov/Patient/dc409230-77aa-4b66-bc1d-84e421089367","resource":{"resourceType":"Patient","id":"dc409230-77aa-4b66-bc1d-84e421089367","meta":{"profile":["http://hl7.org/fhir/us/qicore/StructureDefinition/qicore-patient"]},"extension":[{"url":"http://hl7.org/fhir/us/core/StructureDefinition/us-core-race","extension":[{"url":"ombCategory","valueCoding":{"system":"urn:oid:2.16.840.1.113883.6.238","code":"2028-9","display":"Asian","userSelected":true}},{"url":"text","valueString":"Asian"}]},{"url":"http://hl7.org/fhir/us/core/StructureDefinition/us-core-ethnicity","extension":[{"url":"ombCategory","valueCoding":{"system":"urn:oid:2.16.840.1.113883.6.238","code":"2186-5","display":"Not Hispanic or Latino","userSelected":true}},{"url":"text","valueString":"Not Hispanic or Latino"}]}],"identifier":[{"type":{"coding":[{"system":"http://terminology.hl7.org/CodeSystem/v2-0203","code":"MR"}]},"system":"https://bonnie-fhir.healthit.gov/","value":"62fd4b660968f8012246b012"}],"name":[{"family":"DenomPass","given":["EncRefNewPsychDRC"]}],"gender":"female","birthDate":"1989-11-29"},"request":{"method":"PUT","url":"Patient/dc409230-77aa-4b66-bc1d-84e421089367"}},{"fullUrl":"https://madie.cms.gov/ServiceRequest/d371f71a-2d99-4d99-a577-9d499a10f1df","resource":{"resourceType":"ServiceRequest","id":"d371f71a-2d99-4d99-a577-9d499a10f1df","meta":{"profile":["http://hl7.org/fhir/us/qicore/StructureDefinition/qicore-servicerequest"]},"status":"completed","intent":"order","code":{"coding":[{"system":"http://snomed.info/sct","version":"2022-03","code":"103696004","display":"Patient referral to specialist (procedure)","userSelected":true}]},"subject":{"reference":"Patient/dc409230-77aa-4b66-bc1d-84e421089367"},"authoredOn":"2026-01-01T00:00:00.000+00:00"},"request":{"method":"PUT","url":"ServiceRequest/d371f71a-2d99-4d99-a577-9d499a10f1df"}},{"fullUrl":"https://madie.cms.gov/Procedure/6e5479fa-c3e7-4ce3-80ea-26d6b4d84aee","resource":{"resourceType":"Procedure","id":"6e5479fa-c3e7-4ce3-80ea-26d6b4d84aee","meta":{"profile":["http://hl7.org/fhir/us/qicore/StructureDefinition/qicore-procedure"]},"extension":[{"url":"http://hl7.org/fhir/us/qicore/StructureDefinition/qicore-recorded","valueDateTime":"2026-01-01T00:00:00.000+00:00"}],"status":"completed","code":{"coding":[{"system":"http://www.ama-assn.org/go/cpt","version":"2021","code":"96136","display":"Psychological or neuropsychological test administration and scoring by physician or other qualified health care professional, two or more tests, any method; first 30 minutes","userSelected":true}]},"subject":{"reference":"Patient/dc409230-77aa-4b66-bc1d-84e421089367"},"performedDateTime":"2026-01-01T00:00:00.000+00:00"},"request":{"method":"PUT","url":"Procedure/6e5479fa-c3e7-4ce3-80ea-26d6b4d84aee"}},{"fullUrl":"https://madie.cms.gov/Coverage/455d2c9b-a29b-4b8a-9754-51fcec2b911e","resource":{"resourceType":"Coverage","id":"455d2c9b-a29b-4b8a-9754-51fcec2b911e","meta":{"profile":["http://hl7.org/fhir/us/qicore/StructureDefinition/qicore-coverage"]},"status":"active","beneficiary":{"reference":"Patient/dc409230-77aa-4b66-bc1d-84e421089367"},"payor":[{"reference":"Organization/a728aa00-bab5-478d-acbd-aef65b9b47b5"}]},"request":{"method":"PUT","url":"Coverage/455d2c9b-a29b-4b8a-9754-51fcec2b911e"}},{"fullUrl":"https://madie.cms.gov/Organization/a728aa00-bab5-478d-acbd-aef65b9b47b5","resource":{"resourceType":"Organization","id":"a728aa00-bab5-478d-acbd-aef65b9b47b5","meta":{"profile":["http://hl7.org/fhir/us/qicore/StructureDefinition/qicore-organization"]},"identifier":[{"use":"temp","system":"urn:oid:2.16.840.1.113883.4.4","value":"21-3259825"}],"active":true,"type":[{"coding":[{"system":"http://terminology.hl7.org/CodeSystem/organization-type","code":"pay","display":"Payer"}]}],"name":"Blue Cross Blue Shield of Texas","telecom":[{"system":"phone","value":"(+1) 972-766-6900"}],"address":[{"use":"billing","type":"postal","line":["P.O. Box 660044"],"city":"Dallas","state":"TX","postalCode":"75266-0044","country":"USA"}]},"request":{"method":"PUT","url":"Organization/a728aa00-bab5-478d-acbd-aef65b9b47b5"}},{"fullUrl":"https://madie.cms.gov/Practitioner/ae1a928a-b48d-4240-a95b-e48483df8ea5","resource":{"resourceType":"Practitioner","id":"ae1a928a-b48d-4240-a95b-e48483df8ea5","meta":{"profile":["http://hl7.org/fhir/us/qicore/StructureDefinition/qicore-practitioner"]},"identifier":[{"system":"http://hl7.org/fhir/sid/us-npi","value":"123456"}],"name":[{"family":"Evil","prefix":["Dr"]}]},"request":{"method":"PUT","url":"Practitioner/ae1a928a-b48d-4240-a95b-e48483df8ea5"}},{"fullUrl":"https://madie.cms.gov/MeasureReport/5146dce5-2a06-4179-97b5-760a8cbcd9a9","resource":{"resourceType":"MeasureReport","id":"5146dce5-2a06-4179-97b5-760a8cbcd9a9","meta":{"profile":["http://hl7.org/fhir/us/cqfmeasures/StructureDefinition/test-case-cqfm"]},"contained":[{"resourceType":"Parameters","id":"6ee83416-ee0d-4f0e-befd-9b25458aaca0-parameters","parameter":[{"name":"subject","valueString":"dc409230-77aa-4b66-bc1d-84e421089367"}]}],"extension":[{"url":"http://hl7.org/fhir/StructureDefinition/cqf-inputParameters","valueReference":{"reference":"#6ee83416-ee0d-4f0e-befd-9b25458aaca0-parameters"}},{"url":"http://hl7.org/fhir/us/cqfmeasures/StructureDefinition/cqfm-testCaseDescription","valueMarkdown":"Enc starts first minute of MP and ends in 59 minutes, referral order made."}],"modifierExtension":[{"url":"http://hl7.org/fhir/us/cqfmeasures/StructureDefinition/cqfm-isTestCase","valueBoolean":true}],"status":"complete","type":"individual","measure":"https://madie.cms.gov/Measure/CMS50FHIRCRLReceiptofSpecialistReport","period":{"start":"2026-01-01","end":"2026-12-31"},"group":[{"id":"Group_1","population":[{"id":"InitialPopulation_1","code":{"coding":[{"system":"http://terminology.hl7.org/CodeSystem/measure-population","code":"initial-population","display":"Initial Population"}]},"count":1},{"id":"Denominator_1","code":{"coding":[{"system":"http://terminology.hl7.org/CodeSystem/measure-population","code":"denominator","display":"Denominator"}]},"count":1},{"id":"Numerator_1","code":{"coding":[{"system":"http://terminology.hl7.org/CodeSystem/measure-population","code":"numerator","display":"Numerator"}]},"count":0}],"measureScore":{"value":1.0}}],"evaluatedResource":[{"reference":"Patient/dc409230-77aa-4b66-bc1d-84e421089367"},{"reference":"ServiceRequest/d371f71a-2d99-4d99-a577-9d499a10f1df"},{"reference":"Procedure/6e5479fa-c3e7-4ce3-80ea-26d6b4d84aee"},{"reference":"Coverage/455d2c9b-a29b-4b8a-9754-51fcec2b911e"},{"reference":"Organization/a728aa00-bab5-478d-acbd-aef65b9b47b5"},{"reference":"Practitioner/ae1a928a-b48d-4240-a95b-e48483df8ea5"}]},"request":{"method":"PUT","url":"MeasureReport/5146dce5-2a06-4179-97b5-760a8cbcd9a9"}}]},"request":{"method":"PUT","url":"Bundle/62fd4b660968f8012246b012"}},{"resource":{"resourceType":"Coverage","id":"455d2c9b-a29b-4b8a-9754-51fcec2b911e","meta":{"profile":["http://hl7.org/fhir/us/qicore/StructureDefinition/qicore-coverage"]},"status":"active","beneficiary":{"reference":"Patient/dc409230-77aa-4b66-bc1d-84e421089367"},"payor":[{"reference":"Organization/a728aa00-bab5-478d-acbd-aef65b9b47b5"}]},"request":{"method":"PUT","url":"Coverage/455d2c9b-a29b-4b8a-9754-51fcec2b911e"}},{"resource":{"resourceType":"MeasureReport","id":"5146dce5-2a06-4179-97b5-760a8cbcd9a9","meta":{"profile":["http://hl7.org/fhir/us/cqfmeasures/StructureDefinition/test-case-cqfm"]},"contained":[{"resourceType":"Parameters","id":"6ee83416-ee0d-4f0e-befd-9b25458aaca0-parameters","parameter":[{"name":"subject","valueString":"dc409230-77aa-4b66-bc1d-84e421089367"}]}],"extension":[{"url":"http://hl7.org/fhir/StructureDefinition/cqf-inputParameters","valueReference":{"reference":"#6ee83416-ee0d-4f0e-befd-9b25458aaca0-parameters"}},{"url":"http://hl7.org/fhir/us/cqfmeasures/StructureDefinition/cqfm-testCaseDescription","valueMarkdown":"Enc starts first minute of MP and ends in 59 minutes, referral order made."}],"modifierExtension":[{"url":"http://hl7.org/fhir/us/cqfmeasures/StructureDefinition/cqfm-isTestCase","valueBoolean":true}],"status":"complete","type":"individual","measure":"https://madie.cms.gov/Measure/CMS50FHIRCRLReceiptofSpecialistReport","period":{"start":"2026-01-01","end":"2026-12-31"},"group":[{"id":"Group_1","population":[{"id":"InitialPopulation_1","code":{"coding":[{"system":"http://terminology.hl7.org/CodeSystem/measure-population","code":"initial-population","display":"Initial Population"}]},"count":1},{"id":"Denominator_1","code":{"coding":[{"system":"http://terminology.hl7.org/CodeSystem/measure-population","code":"denominator","display":"Denominator"}]},"count":1},{"id":"Numerator_1","code":{"coding":[{"system":"http://terminology.hl7.org/CodeSystem/measure-population","code":"numerator","display":"Numerator"}]},"count":0}],"measureScore":{"value":1.0}}],"evaluatedResource":[{"reference":"Patient/dc409230-77aa-4b66-bc1d-84e421089367"},{"reference":"ServiceRequest/d371f71a-2d99-4d99-a577-9d499a10f1df"},{"reference":"Procedure/6e5479fa-c3e7-4ce3-80ea-26d6b4d84aee"},{"reference":"Coverage/455d2c9b-a29b-4b8a-9754-51fcec2b911e"},{"reference":"Organization/a728aa00-bab5-478d-acbd-aef65b9b47b5"},{"reference":"Practitioner/ae1a928a-b48d-4240-a95b-e48483df8ea5"}]},"request":{"method":"PUT","url":"MeasureReport/5146dce5-2a06-4179-97b5-760a8cbcd9a9"}},{"resource":{"resourceType":"Organization","id":"a728aa00-bab5-478d-acbd-aef65b9b47b5","meta":{"profile":["http://hl7.org/fhir/us/qicore/StructureDefinition/qicore-organization"]},"identifier":[{"use":"temp","system":"urn:oid:2.16.840.1.113883.4.4","value":"21-3259825"}],"active":true,"type":[{"coding":[{"system":"http://terminology.hl7.org/CodeSystem/organization-type","code":"pay","display":"Payer"}]}],"name":"Blue Cross Blue Shield of Texas","telecom":[{"system":"phone","value":"(+1) 972-766-6900"}],"address":[{"use":"billing","type":"postal","line":["P.O. Box 660044"],"city":"Dallas","state":"TX","postalCode":"75266-0044","country":"USA"}]},"request":{"method":"PUT","url":"Organization/a728aa00-bab5-478d-acbd-aef65b9b47b5"}},{"resource":{"resourceType":"Patient","id":"dc409230-77aa-4b66-bc1d-84e421089367","meta":{"profile":["http://hl7.org/fhir/us/qicore/StructureDefinition/qicore-patient"]},"extension":[{"url":"http://hl7.org/fhir/us/core/StructureDefinition/us-core-race","extension":[{"url":"ombCategory","valueCoding":{"system":"urn:oid:2.16.840.1.113883.6.238","code":"2028-9","display":"Asian","userSelected":true}},{"url":"text","valueString":"Asian"}]},{"url":"http://hl7.org/fhir/us/core/StructureDefinition/us-core-ethnicity","extension":[{"url":"ombCategory","valueCoding":{"system":"urn:oid:2.16.840.1.113883.6.238","code":"2186-5","display":"Not Hispanic or Latino","userSelected":true}},{"url":"text","valueString":"Not Hispanic or Latino"}]}],"identifier":[{"type":{"coding":[{"system":"http://terminology.hl7.org/CodeSystem/v2-0203","code":"MR"}]},"system":"https://bonnie-fhir.healthit.gov/","value":"62fd4b660968f8012246b012"}],"name":[{"family":"DenomPass","given":["EncRefNewPsychDRC"]}],"gender":"female","birthDate":"1989-11-29"},"request":{"method":"PUT","url":"Patient/dc409230-77aa-4b66-bc1d-84e421089367"}},{"resource":{"resourceType":"Practitioner","id":"ae1a928a-b48d-4240-a95b-e48483df8ea5","meta":{"profile":["http://hl7.org/fhir/us/qicore/StructureDefinition/qicore-practitioner"]},"identifier":[{"system":"http://hl7.org/fhir/sid/us-npi","value":"123456"}],"name":[{"family":"Evil","prefix":["Dr"]}]},"request":{"method":"PUT","url":"Practitioner/ae1a928a-b48d-4240-a95b-e48483df8ea5"}},{"resource":{"resourceType":"Procedure","id":"6e5479fa-c3e7-4ce3-80ea-26d6b4d84aee","meta":{"profile":["http://hl7.org/fhir/us/qicore/StructureDefinition/qicore-procedure"]},"extension":[{"url":"http://hl7.org/fhir/us/qicore/StructureDefinition/qicore-recorded","valueDateTime":"2026-01-01T00:00:00.000+00:00"}],"status":"completed","code":{"coding":[{"system":"http://www.ama-assn.org/go/cpt","version":"2021","code":"96136","display":"Psychological or neuropsychological test administration and scoring by physician or other qualified health care professional, two or more tests, any method; first 30 minutes","userSelected":true}]},"subject":{"reference":"Patient/dc409230-77aa-4b66-bc1d-84e421089367"},"performedDateTime":"2026-01-01T00:00:00.000+00:00"},"request":{"method":"PUT","url":"Procedure/6e5479fa-c3e7-4ce3-80ea-26d6b4d84aee"}},{"resource":{"resourceType":"ServiceRequest","id":"d371f71a-2d99-4d99-a577-9d499a10f1df","meta":{"profile":["http://hl7.org/fhir/us/qicore/StructureDefinition/qicore-servicerequest"]},"status":"completed","intent":"order","code":{"coding":[{"system":"http://snomed.info/sct","version":"2022-03","code":"103696004","display":"Patient referral to specialist (procedure)","userSelected":true}]},"subject":{"reference":"Patient/dc409230-77aa-4b66-bc1d-84e421089367"},"authoredOn":"2026-01-01T00:00:00.000+00:00"},"request":{"method":"PUT","url":"ServiceRequest/d371f71a-2d99-4d99-a577-9d499a10f1df"}}]}