{
  "resourceType": "Bundle",
  "id": "630307c50968f80122477cf7",
  "type": "transaction",
  "entry": [ {
    "fullUrl": "https://madie.cms.gov/Patient/16eff6ae-362b-458a-b631-834ce4ba9402",
    "resource": {
      "resourceType": "Patient",
      "id": "16eff6ae-362b-458a-b631-834ce4ba9402",
      "meta": {
        "profile": [ "http://hl7.org/fhir/us/qicore/StructureDefinition/qicore-patient" ]
      },
      "extension": [ {
        "url": "http://hl7.org/fhir/us/core/StructureDefinition/us-core-race",
        "extension": [ {
          "url": "ombCategory",
          "valueCoding": {
            "system": "urn:oid:2.16.840.1.113883.6.238",
            "code": "2106-3",
            "display": "White"
          }
        }, {
          "url": "text",
          "valueString": "White"
        } ]
      }, {
        "url": "http://hl7.org/fhir/us/core/StructureDefinition/us-core-ethnicity",
        "extension": [ {
          "url": "ombCategory",
          "valueCoding": {
            "system": "urn:oid:2.16.840.1.113883.6.238",
            "code": "2186-5",
            "display": "Not Hispanic or Latino"
          }
        }, {
          "url": "text",
          "valueString": "Not Hispanic or Latino"
        } ]
      } ],
      "identifier": [ {
        "type": {
          "coding": [ {
            "system": "http://terminology.hl7.org/CodeSystem/v2-0203",
            "code": "MR"
          } ]
        },
        "system": "https://bonnie-fhir.healthit.gov/",
        "value": "630307c50968f80122477cf7"
      } ],
      "name": [ {
        "family": "DENEXPopStrat2Pass",
        "given": [ "PersDisordDxMeasureAssessPeriod" ]
      } ],
      "gender": "female",
      "birthDate": "1956-01-01"
    },
    "request": {
      "method": "PUT",
      "url": "Patient/16eff6ae-362b-458a-b631-834ce4ba9402"
    }
  }, {
    "fullUrl": "https://madie.cms.gov/Encounter/fa902823-ee8e-4bed-bee2-74f63e9b8183",
    "resource": {
      "resourceType": "Encounter",
      "id": "fa902823-ee8e-4bed-bee2-74f63e9b8183",
      "meta": {
        "profile": [ "http://hl7.org/fhir/us/qicore/StructureDefinition/qicore-encounter" ]
      },
      "status": "finished",
      "class": {
        "system": "http://terminology.hl7.org/CodeSystem/v3-ActCode",
        "code": "AMB",
        "display": "ambulatory"
      },
      "type": [ {
        "coding": [ {
          "system": "http://www.ama-assn.org/go/cpt",
          "version": "2024",
          "code": "90791"
        } ]
      } ],
      "subject": {
        "reference": "Patient/16eff6ae-362b-458a-b631-834ce4ba9402"
      },
      "period": {
        "start": "2025-02-25T14:30:00+00:00",
        "end": "2025-02-25T14:50:00+00:00"
      },
      "length": {
        "value": 0,
        "unit": "days"
      }
    },
    "request": {
      "method": "PUT",
      "url": "Encounter/fa902823-ee8e-4bed-bee2-74f63e9b8183"
    }
  }, {
    "fullUrl": "https://madie.cms.gov/Observation/b2a4a54f-0fc4-41b3-92ae-a7fd45285db8",
    "resource": {
      "resourceType": "Observation",
      "id": "b2a4a54f-0fc4-41b3-92ae-a7fd45285db8",
      "meta": {
        "profile": [ "http://hl7.org/fhir/us/qicore/StructureDefinition/qicore-observation-screening-assessment" ]
      },
      "status": "final",
      "category": [ {
        "coding": [ {
          "system": "http://terminology.hl7.org/CodeSystem/observation-category",
          "code": "survey",
          "display": "Survey"
        } ]
      } ],
      "code": {
        "coding": [ {
          "system": "http://loinc.org",
          "version": "2.76",
          "code": "44261-6"
        } ]
      },
      "subject": {
        "reference": "Patient/16eff6ae-362b-458a-b631-834ce4ba9402"
      },
      "effectiveDateTime": "2025-02-25T14:35:00+00:00",
      "valueInteger": 10
    },
    "request": {
      "method": "PUT",
      "url": "Observation/b2a4a54f-0fc4-41b3-92ae-a7fd45285db8"
    }
  }, {
    "fullUrl": "https://madie.cms.gov/Observation/52635646-21f5-45fb-8e5c-967dd31265c3",
    "resource": {
      "resourceType": "Observation",
      "id": "52635646-21f5-45fb-8e5c-967dd31265c3",
      "meta": {
        "profile": [ "http://hl7.org/fhir/us/qicore/StructureDefinition/qicore-observation-screening-assessment" ]
      },
      "status": "final",
      "category": [ {
        "coding": [ {
          "system": "http://terminology.hl7.org/CodeSystem/observation-category",
          "code": "survey",
          "display": "Survey"
        } ]
      } ],
      "code": {
        "coding": [ {
          "system": "http://loinc.org",
          "version": "2.76",
          "code": "44261-6"
        } ]
      },
      "subject": {
        "reference": "Patient/16eff6ae-362b-458a-b631-834ce4ba9402"
      },
      "effectiveDateTime": "2026-02-19T14:30:00+00:00",
      "valueInteger": 3
    },
    "request": {
      "method": "PUT",
      "url": "Observation/52635646-21f5-45fb-8e5c-967dd31265c3"
    }
  }, {
    "fullUrl": "https://madie.cms.gov/Condition/086a1daa-8834-442b-a1d9-d6ebe4491cd6",
    "resource": {
      "resourceType": "Condition",
      "id": "086a1daa-8834-442b-a1d9-d6ebe4491cd6",
      "meta": {
        "profile": [ "http://hl7.org/fhir/us/qicore/StructureDefinition/qicore-condition-problems-health-concerns" ]
      },
      "clinicalStatus": {
        "coding": [ {
          "system": "http://terminology.hl7.org/CodeSystem/condition-clinical",
          "code": "active",
          "display": "active"
        } ]
      },
      "verificationStatus": {
        "coding": [ {
          "system": "http://terminology.hl7.org/CodeSystem/condition-ver-status",
          "code": "confirmed"
        } ]
      },
      "category": [ {
        "coding": [ {
          "system": "http://terminology.hl7.org/CodeSystem/condition-category",
          "code": "problem-list-item",
          "display": "Problem List Item"
        } ]
      } ],
      "code": {
        "coding": [ {
          "system": "http://hl7.org/fhir/sid/icd-10-cm",
          "version": "2024",
          "code": "F32.9"
        } ]
      },
      "subject": {
        "reference": "Patient/16eff6ae-362b-458a-b631-834ce4ba9402"
      },
      "onsetDateTime": "2025-02-25T14:35:00+00:00"
    },
    "request": {
      "method": "PUT",
      "url": "Condition/086a1daa-8834-442b-a1d9-d6ebe4491cd6"
    }
  }, {
    "fullUrl": "https://madie.cms.gov/Condition/2fe916c8-aa2d-4d50-8262-9f9fd815e354",
    "resource": {
      "resourceType": "Condition",
      "id": "2fe916c8-aa2d-4d50-8262-9f9fd815e354",
      "meta": {
        "profile": [ "http://hl7.org/fhir/us/qicore/StructureDefinition/qicore-condition-problems-health-concerns" ]
      },
      "clinicalStatus": {
        "coding": [ {
          "system": "http://terminology.hl7.org/CodeSystem/condition-clinical",
          "code": "active",
          "display": "active"
        } ]
      },
      "verificationStatus": {
        "coding": [ {
          "system": "http://terminology.hl7.org/CodeSystem/condition-ver-status",
          "code": "confirmed"
        } ]
      },
      "category": [ {
        "coding": [ {
          "system": "http://terminology.hl7.org/CodeSystem/condition-category",
          "code": "problem-list-item",
          "display": "Problem List Item"
        } ]
      } ],
      "code": {
        "coding": [ {
          "system": "http://snomed.info/sct",
          "version": "http://snomed.info/sct/731000124108/version/20230301",
          "code": "191765005",
          "display": "Emotionally unstable personality disorder (disorder)"
        } ]
      },
      "subject": {
        "reference": "Patient/16eff6ae-362b-458a-b631-834ce4ba9402"
      },
      "onsetDateTime": "2025-02-25T14:35:00+00:00"
    },
    "request": {
      "method": "PUT",
      "url": "Condition/2fe916c8-aa2d-4d50-8262-9f9fd815e354"
    }
  }, {
    "fullUrl": "https://madie.cms.gov/Encounter/ee76dc1c-16ea-4e60-a9d8-7a02fabe2e14",
    "resource": {
      "resourceType": "Encounter",
      "id": "ee76dc1c-16ea-4e60-a9d8-7a02fabe2e14",
      "meta": {
        "profile": [ "http://hl7.org/fhir/us/qicore/StructureDefinition/qicore-encounter" ]
      },
      "status": "finished",
      "class": {
        "system": "http://terminology.hl7.org/CodeSystem/v3-ActCode",
        "code": "HH",
        "display": "home health"
      },
      "type": [ {
        "coding": [ {
          "system": "http://snomed.info/sct",
          "version": "http://snomed.info/sct/731000124108/version/20240301",
          "code": "305284002"
        } ]
      } ],
      "subject": {
        "reference": "Patient/16eff6ae-362b-458a-b631-834ce4ba9402"
      },
      "period": {
        "start": "2025-12-31T08:00:00+00:00",
        "end": "2026-01-01T12:00:00+00:00"
      },
      "length": {
        "value": 0,
        "unit": "days"
      }
    },
    "request": {
      "method": "PUT",
      "url": "Encounter/ee76dc1c-16ea-4e60-a9d8-7a02fabe2e14"
    }
  }, {
    "fullUrl": "https://madie.cms.gov/MeasureReport/a64c8a8b-1054-4cb9-937c-d39b8d3e6f31",
    "resource": {
      "resourceType": "MeasureReport",
      "id": "a64c8a8b-1054-4cb9-937c-d39b8d3e6f31",
      "meta": {
        "profile": [ "http://hl7.org/fhir/us/cqfmeasures/StructureDefinition/test-case-cqfm" ]
      },
      "contained": [ {
        "resourceType": "Parameters",
        "id": "3c8a5b75-ac38-467f-81c0-3d95eb4128c0-parameters",
        "parameter": [ {
          "name": "subject",
          "valueString": "16eff6ae-362b-458a-b631-834ce4ba9402"
        } ]
      } ],
      "extension": [ {
        "url": "http://hl7.org/fhir/StructureDefinition/cqf-inputParameters",
        "valueReference": {
          "reference": "#3c8a5b75-ac38-467f-81c0-3d95eb4128c0-parameters"
        }
      }, {
        "url": "http://hl7.org/fhir/us/cqfmeasures/StructureDefinition/cqfm-testCaseDescription",
        "valueMarkdown": "Patient has a Major depression including remission DX and PHQ-9>9 during the denom ID period. Patient diagnosed with personality disorder before end of MAP. Should be in denominator exclusion for Strat 2."
      } ],
      "modifierExtension": [ {
        "url": "http://hl7.org/fhir/us/cqfmeasures/StructureDefinition/cqfm-isTestCase",
        "valueBoolean": true
      } ],
      "status": "complete",
      "type": "individual",
      "measure": "https://madie.cms.gov/Measure/CMS159FHIRDepressionRemissionatTwelveMonths",
      "period": {
        "start": "2026-01-01",
        "end": "2026-12-31"
      },
      "group": [ {
        "id": "Group_1",
        "population": [ {
          "id": "InitialPopulation_1",
          "code": {
            "coding": [ {
              "system": "http://terminology.hl7.org/CodeSystem/measure-population",
              "code": "initial-population",
              "display": "Initial Population"
            } ]
          },
          "count": 1
        }, {
          "id": "Denominator_1",
          "code": {
            "coding": [ {
              "system": "http://terminology.hl7.org/CodeSystem/measure-population",
              "code": "denominator",
              "display": "Denominator"
            } ]
          },
          "count": 1
        }, {
          "id": "DenominatorExclusion_1",
          "code": {
            "coding": [ {
              "system": "http://terminology.hl7.org/CodeSystem/measure-population",
              "code": "denominator-exclusion",
              "display": "Denominator Exclusion"
            } ]
          },
          "count": 1
        }, {
          "id": "Numerator_1",
          "code": {
            "coding": [ {
              "system": "http://terminology.hl7.org/CodeSystem/measure-population",
              "code": "numerator",
              "display": "Numerator"
            } ]
          },
          "count": 0
        } ],
        "measureScore": {
          "value": 1.0
        }
      } ],
      "evaluatedResource": [ {
        "reference": "Patient/16eff6ae-362b-458a-b631-834ce4ba9402"
      }, {
        "reference": "Encounter/fa902823-ee8e-4bed-bee2-74f63e9b8183"
      }, {
        "reference": "Observation/b2a4a54f-0fc4-41b3-92ae-a7fd45285db8"
      }, {
        "reference": "Observation/52635646-21f5-45fb-8e5c-967dd31265c3"
      }, {
        "reference": "Condition/086a1daa-8834-442b-a1d9-d6ebe4491cd6"
      }, {
        "reference": "Condition/2fe916c8-aa2d-4d50-8262-9f9fd815e354"
      }, {
        "reference": "Encounter/ee76dc1c-16ea-4e60-a9d8-7a02fabe2e14"
      } ]
    },
    "request": {
      "method": "PUT",
      "url": "MeasureReport/a64c8a8b-1054-4cb9-937c-d39b8d3e6f31"
    }
  } ]
}