{
  "resourceType": "Bundle",
  "id": "62fbec5dbf5132f90ee35d3f",
  "type": "transaction",
  "entry": [ {
    "fullUrl": "https://madie.cms.gov/Patient/dda79f3f-4c4f-454a-bae2-9751a0114e91",
    "resource": {
      "resourceType": "Patient",
      "id": "dda79f3f-4c4f-454a-bae2-9751a0114e91",
      "meta": {
        "profile": [ "http://hl7.org/fhir/us/qicore/StructureDefinition/qicore-patient" ]
      },
      "extension": [ {
        "url": "http://hl7.org/fhir/us/core/StructureDefinition/us-core-race",
        "extension": [ {
          "url": "ombCategory",
          "valueCoding": {
            "system": "urn:oid:2.16.840.1.113883.6.238",
            "code": "1002-5",
            "display": "American Indian or Alaska Native",
            "userSelected": true
          }
        }, {
          "url": "text",
          "valueString": "American Indian or Alaska Native"
        } ]
      }, {
        "url": "http://hl7.org/fhir/us/core/StructureDefinition/us-core-ethnicity",
        "extension": [ {
          "url": "ombCategory",
          "valueCoding": {
            "system": "urn:oid:2.16.840.1.113883.6.238",
            "code": "2186-5",
            "display": "Not Hispanic or Latino",
            "userSelected": true
          }
        }, {
          "url": "text",
          "valueString": "Not Hispanic or Latino"
        } ]
      } ],
      "identifier": [ {
        "type": {
          "coding": [ {
            "system": "http://terminology.hl7.org/CodeSystem/v2-0203",
            "code": "MR"
          } ]
        },
        "system": "https://bonnie-fhir.healthit.gov/",
        "value": "62fbec5dbf5132f90ee35d3f"
      } ],
      "name": [ {
        "family": "IPPFail",
        "given": [ "Patient17DayOfEncounter" ]
      } ],
      "gender": "male",
      "birthDate": "2009-01-01"
    },
    "request": {
      "method": "PUT",
      "url": "Patient/dda79f3f-4c4f-454a-bae2-9751a0114e91"
    }
  }, {
    "fullUrl": "https://madie.cms.gov/Encounter/a5e36c0c-2701-4983-9051-8e7c635a912e",
    "resource": {
      "resourceType": "Encounter",
      "id": "a5e36c0c-2701-4983-9051-8e7c635a912e",
      "meta": {
        "profile": [ "http://hl7.org/fhir/us/qicore/StructureDefinition/qicore-encounter" ]
      },
      "status": "finished",
      "class": {
        "system": "http://terminology.hl7.org/CodeSystem/v3-ActCode",
        "code": "AMB",
        "display": "ambulatory"
      },
      "type": [ {
        "coding": [ {
          "system": "http://snomed.info/sct",
          "version": "2022-03",
          "code": "10197000",
          "display": "Psychiatric interview and evaluation (procedure)",
          "userSelected": true
        } ]
      } ],
      "subject": {
        "reference": "Patient/dda79f3f-4c4f-454a-bae2-9751a0114e91"
      },
      "period": {
        "start": "2026-12-31T23:30:00.000+00:00",
        "end": "2026-12-31T23:59:00.000+00:00"
      }
    },
    "request": {
      "method": "PUT",
      "url": "Encounter/a5e36c0c-2701-4983-9051-8e7c635a912e"
    }
  }, {
    "fullUrl": "https://madie.cms.gov/Coverage/65b6ef9d-97c9-4ee6-bfd2-0283c075642c",
    "resource": {
      "resourceType": "Coverage",
      "id": "65b6ef9d-97c9-4ee6-bfd2-0283c075642c",
      "meta": {
        "profile": [ "http://hl7.org/fhir/us/qicore/StructureDefinition/qicore-coverage" ]
      },
      "status": "active",
      "beneficiary": {
        "reference": "Patient/dda79f3f-4c4f-454a-bae2-9751a0114e91"
      },
      "payor": [ {
        "reference": "Organization/48369e71-4963-4df0-ae94-9071ad2eb85a"
      } ]
    },
    "request": {
      "method": "PUT",
      "url": "Coverage/65b6ef9d-97c9-4ee6-bfd2-0283c075642c"
    }
  }, {
    "fullUrl": "https://madie.cms.gov/Organization/48369e71-4963-4df0-ae94-9071ad2eb85a",
    "resource": {
      "resourceType": "Organization",
      "id": "48369e71-4963-4df0-ae94-9071ad2eb85a",
      "meta": {
        "profile": [ "http://hl7.org/fhir/us/qicore/StructureDefinition/qicore-organization" ]
      },
      "identifier": [ {
        "use": "temp",
        "system": "urn:oid:2.16.840.1.113883.4.4",
        "value": "21-3259825"
      } ],
      "active": true,
      "type": [ {
        "coding": [ {
          "system": "http://terminology.hl7.org/CodeSystem/organization-type",
          "code": "pay",
          "display": "Payer"
        } ]
      } ],
      "name": "Blue Cross Blue Shield of Texas",
      "telecom": [ {
        "system": "phone",
        "value": "(+1) 972-766-6900"
      } ],
      "address": [ {
        "use": "billing",
        "type": "postal",
        "line": [ "P.O. Box 660044" ],
        "city": "Dallas",
        "state": "TX",
        "postalCode": "75266-0044",
        "country": "USA"
      } ]
    },
    "request": {
      "method": "PUT",
      "url": "Organization/48369e71-4963-4df0-ae94-9071ad2eb85a"
    }
  }, {
    "fullUrl": "https://madie.cms.gov/MeasureReport/e0a4e0ce-bf74-48ae-a7f1-4f43727862cb",
    "resource": {
      "resourceType": "MeasureReport",
      "id": "e0a4e0ce-bf74-48ae-a7f1-4f43727862cb",
      "meta": {
        "profile": [ "http://hl7.org/fhir/us/cqfmeasures/StructureDefinition/test-case-cqfm" ]
      },
      "contained": [ {
        "resourceType": "Parameters",
        "id": "bfa9685f-d9cf-4592-a218-34e004903d48-parameters",
        "parameter": [ {
          "name": "subject",
          "valueString": "dda79f3f-4c4f-454a-bae2-9751a0114e91"
        } ]
      } ],
      "extension": [ {
        "url": "http://hl7.org/fhir/StructureDefinition/cqf-inputParameters",
        "valueReference": {
          "reference": "#bfa9685f-d9cf-4592-a218-34e004903d48-parameters"
        }
      }, {
        "url": "http://hl7.org/fhir/us/cqfmeasures/StructureDefinition/cqfm-testCaseDescription",
        "valueMarkdown": "Enc. during MP, age 17, fails because patient is not age 18 or older"
      } ],
      "modifierExtension": [ {
        "url": "http://hl7.org/fhir/us/cqfmeasures/StructureDefinition/cqfm-isTestCase",
        "valueBoolean": true
      } ],
      "status": "complete",
      "type": "individual",
      "measure": "https://madie.cms.gov/Measure/CMS69FHIRPCSBMIScreenAndFollowUp",
      "period": {
        "start": "2026-01-01",
        "end": "2026-12-31"
      },
      "group": [ {
        "id": "Group_1",
        "population": [ {
          "id": "InitialPopulation_1",
          "code": {
            "coding": [ {
              "system": "http://terminology.hl7.org/CodeSystem/measure-population",
              "code": "initial-population",
              "display": "Initial Population"
            } ]
          },
          "count": 0
        }, {
          "id": "Denominator_1",
          "code": {
            "coding": [ {
              "system": "http://terminology.hl7.org/CodeSystem/measure-population",
              "code": "denominator",
              "display": "Denominator"
            } ]
          },
          "count": 0
        }, {
          "id": "DenominatorExclusion_1",
          "code": {
            "coding": [ {
              "system": "http://terminology.hl7.org/CodeSystem/measure-population",
              "code": "denominator-exclusion",
              "display": "Denominator Exclusion"
            } ]
          },
          "count": 0
        }, {
          "id": "Numerator_1",
          "code": {
            "coding": [ {
              "system": "http://terminology.hl7.org/CodeSystem/measure-population",
              "code": "numerator",
              "display": "Numerator"
            } ]
          },
          "count": 0
        }, {
          "id": "DenominatorException_1",
          "code": {
            "coding": [ {
              "system": "http://terminology.hl7.org/CodeSystem/measure-population",
              "code": "denominator-exception",
              "display": "Denominator Exception"
            } ]
          },
          "count": 0
        } ],
        "measureScore": {
          "value": 1.0
        }
      } ],
      "evaluatedResource": [ {
        "reference": "Patient/dda79f3f-4c4f-454a-bae2-9751a0114e91"
      }, {
        "reference": "Encounter/a5e36c0c-2701-4983-9051-8e7c635a912e"
      }, {
        "reference": "Coverage/65b6ef9d-97c9-4ee6-bfd2-0283c075642c"
      }, {
        "reference": "Organization/48369e71-4963-4df0-ae94-9071ad2eb85a"
      } ]
    },
    "request": {
      "method": "PUT",
      "url": "MeasureReport/e0a4e0ce-bf74-48ae-a7f1-4f43727862cb"
    }
  } ]
}