{
  "resourceType": "Bundle",
  "id": "633c9d040968f8012250fca1",
  "type": "transaction",
  "entry": [ {
    "fullUrl": "https://madie.cms.gov/Patient/60216757-e9a7-4e33-90f4-d0b1212bdea9",
    "resource": {
      "resourceType": "Patient",
      "id": "60216757-e9a7-4e33-90f4-d0b1212bdea9",
      "meta": {
        "profile": [ "http://hl7.org/fhir/us/qicore/StructureDefinition/qicore-patient" ]
      },
      "text": {
        "status": "generated",
        "div": "<div xmlns=\"http://www.w3.org/1999/xhtml\"><div class=\"hapiHeaderText\">DxAfibAtEncEndTimeRelePer <b>DENOMPASS </b></div><table class=\"hapiPropertyTable\"><tbody><tr><td>Identifier</td><td>5a408ee0f4b76e6dba49aa216933f4fd3c68886efc9f6296ba7db457bf6444a8</td></tr><tr><td>Date of birth</td><td><span>01 December 1960</span></td></tr></tbody></table></div>"
      },
      "extension": [ {
        "url": "http://hl7.org/fhir/us/core/StructureDefinition/us-core-race",
        "extension": [ {
          "url": "ombCategory",
          "valueCoding": {
            "system": "urn:oid:2.16.840.1.113883.6.238",
            "code": "1002-5",
            "display": "American Indian or Alaska Native",
            "userSelected": true
          }
        }, {
          "url": "text",
          "valueString": "American Indian or Alaska Native"
        } ]
      }, {
        "url": "http://hl7.org/fhir/us/core/StructureDefinition/us-core-ethnicity",
        "extension": [ {
          "url": "ombCategory",
          "valueCoding": {
            "system": "urn:oid:2.16.840.1.113883.6.238",
            "code": "2135-2",
            "display": "Hispanic or Latino",
            "userSelected": true
          }
        }, {
          "url": "text",
          "valueString": "Hispanic or Latino"
        } ]
      } ],
      "identifier": [ {
        "type": {
          "coding": [ {
            "system": "http://terminology.hl7.org/CodeSystem/v2-0203",
            "code": "MR"
          } ]
        },
        "system": "https://bonnie-fhir.healthit.gov/",
        "value": "633c9d040968f8012250fca1"
      } ],
      "active": true,
      "name": [ {
        "use": "usual",
        "family": "DENOMPass",
        "given": [ "DxAfibAtEncEndTimeRelePer" ]
      } ],
      "gender": "male",
      "birthDate": "1961-12-01"
    },
    "request": {
      "method": "PUT",
      "url": "Patient/60216757-e9a7-4e33-90f4-d0b1212bdea9"
    }
  }, {
    "fullUrl": "https://madie.cms.gov/Condition/874fbe58-6e11-4a09-8c13-a9d3a84a1d87",
    "resource": {
      "resourceType": "Condition",
      "id": "874fbe58-6e11-4a09-8c13-a9d3a84a1d87",
      "meta": {
        "profile": [ "http://hl7.org/fhir/us/qicore/StructureDefinition/qicore-condition-problems-health-concerns" ]
      },
      "clinicalStatus": {
        "coding": [ {
          "system": "http://terminology.hl7.org/CodeSystem/condition-clinical",
          "code": "inactive"
        } ]
      },
      "verificationStatus": {
        "coding": [ {
          "system": "http://terminology.hl7.org/CodeSystem/condition-ver-status",
          "code": "confirmed"
        } ]
      },
      "category": [ {
        "coding": [ {
          "system": "http://terminology.hl7.org/CodeSystem/condition-category",
          "code": "encounter-diagnosis",
          "display": "Encounter Diagnosis"
        } ]
      } ],
      "code": {
        "coding": [ {
          "system": "http://snomed.info/sct",
          "code": "195080001"
        }, {
          "system": "http://hl7.org/fhir/sid/icd-9-cm",
          "code": "427.31"
        }, {
          "system": "http://hl7.org/fhir/sid/icd-10-cm",
          "code": "I48.0"
        } ]
      },
      "subject": {
        "reference": "Patient/60216757-e9a7-4e33-90f4-d0b1212bdea9"
      },
      "onsetDateTime": "2026-02-10T08:15:00Z",
      "abatementDateTime": "2026-02-10T09:15:00.000+00:00"
    },
    "request": {
      "method": "PUT",
      "url": "Condition/874fbe58-6e11-4a09-8c13-a9d3a84a1d87"
    }
  }, {
    "fullUrl": "https://madie.cms.gov/Encounter/ba21ece8-7378-46b3-9f45-2d898561d819",
    "resource": {
      "resourceType": "Encounter",
      "id": "ba21ece8-7378-46b3-9f45-2d898561d819",
      "meta": {
        "profile": [ "http://hl7.org/fhir/us/qicore/StructureDefinition/qicore-encounter" ]
      },
      "status": "finished",
      "class": {
        "system": "http://terminology.hl7.org/CodeSystem/v3-ActCode",
        "code": "IMP",
        "display": "inpatient encounter"
      },
      "type": [ {
        "coding": [ {
          "system": "http://snomed.info/sct",
          "code": "32485007"
        } ]
      } ],
      "subject": {
        "reference": "Patient/60216757-e9a7-4e33-90f4-d0b1212bdea9"
      },
      "period": {
        "start": "2026-02-08T08:00:00Z",
        "end": "2026-02-10T08:15:00.000+00:00"
      },
      "length": {
        "value": 2,
        "unit": "days"
      },
      "reasonReference": [ {
        "reference": "Condition/874fbe58-6e11-4a09-8c13-a9d3a84a1d87"
      } ]
    },
    "request": {
      "method": "PUT",
      "url": "Encounter/ba21ece8-7378-46b3-9f45-2d898561d819"
    }
  }, {
    "fullUrl": "https://madie.cms.gov/claim/5ca62962b8484628b8de1ec5",
    "resource": {
      "resourceType": "Claim",
      "id": "5ca62962b8484628b8de1ec5",
      "meta": {
        "profile": [ "http://hl7.org/fhir/us/qicore/StructureDefinition/qicore-claim" ]
      },
      "status": "active",
      "type": {
        "coding": [ {
          "system": "http://terminology.hl7.org/CodeSystem/claim-type",
          "code": "institutional"
        } ]
      },
      "use": "claim",
      "patient": {
        "reference": "Patient/d170a0a8-b5ad-4303-b6df-e304dd5f92ad"
      },
      "created": "2026-12-01",
      "provider": {
        "reference": "Practitioner/f0c35824-3a14-4da5-824b-342f299a20ca"
      },
      "priority": {
        "coding": [ {
          "system": "http://terminology.hl7.org/CodeSystem/processpriority",
          "code": "normal"
        } ]
      },
      "diagnosis": [ {
        "sequence": 1,
        "diagnosisCodeableConcept": {
          "coding": [ {
            "system": "http://hl7.org/fhir/sid/icd-10-cm",
            "code": "I63.00"
          } ]
        },
        "type": [ {
          "coding": [ {
            "system": "http://terminology.hl7.org/CodeSystem/ex-diagnosistype",
            "code": "principal"
          } ]
        } ]
      } ],
      "insurance": [ {
        "sequence": 1,
        "focal": true,
        "coverage": {
          "reference": "Coverage/5fa041661c76ba66d9959367"
        }
      } ],
      "item": [ {
        "sequence": 1,
        "diagnosisSequence": [ 1 ],
        "productOrService": {
          "coding": [ {
            "system": "http://terminology.hl7.org/CodeSystem/ex-USCLS",
            "code": "99555"
          } ]
        },
        "encounter": [ {
          "reference": "Encounter/ba21ece8-7378-46b3-9f45-2d898561d819"
        } ]
      } ]
    },
    "request": {
      "method": "PUT",
      "url": "Claim/5ca62962b8484628b8de1ec5"
    }
  }, {
    "fullUrl": "https://madie.cms.gov/Coverage/dc4b720b-83af-4550-a7c7-2b60770603c8",
    "resource": {
      "resourceType": "Coverage",
      "id": "dc4b720b-83af-4550-a7c7-2b60770603c8",
      "meta": {
        "profile": [ "http://hl7.org/fhir/us/qicore/StructureDefinition/qicore-coverage" ]
      },
      "status": "active",
      "subscriberId": "523435",
      "beneficiary": {
        "reference": "Patient/162a5913-9989-42f2-8d6a-ae460e245e4c"
      },
      "relationship": {
        "coding": [ {
          "system": "http://terminology.hl7.org/CodeSystem/subscriber-relationship",
          "code": "self"
        } ]
      },
      "payor": [ {
        "reference": "Organization/d3c15c9b-a5c3-4f66-af00-a94e44fc1da9"
      } ]
    },
    "request": {
      "method": "PUT",
      "url": "Coverage/dc4b720b-83af-4550-a7c7-2b60770603c8"
    }
  }, {
    "fullUrl": "https://madie.cms.gov/Condition/73161e37-347e-4ac9-82b2-8e69731f4e00",
    "resource": {
      "resourceType": "Condition",
      "id": "73161e37-347e-4ac9-82b2-8e69731f4e00",
      "meta": {
        "profile": [ "http://hl7.org/fhir/us/qicore/StructureDefinition/qicore-condition-problems-health-concerns" ]
      },
      "clinicalStatus": {
        "coding": [ {
          "system": "http://terminology.hl7.org/CodeSystem/condition-clinical",
          "code": "active"
        } ]
      },
      "verificationStatus": {
        "coding": [ {
          "system": "http://terminology.hl7.org/CodeSystem/condition-ver-status",
          "code": "confirmed"
        } ]
      },
      "category": [ {
        "coding": [ {
          "system": "http://terminology.hl7.org/CodeSystem/condition-category",
          "code": "encounter-diagnosis",
          "display": "Encounter Diagnosis"
        } ]
      } ],
      "code": {
        "coding": [ {
          "system": "http://snomed.info/sct",
          "version": "2021-09",
          "code": "111297002",
          "display": "Nonparalytic stroke (disorder)",
          "userSelected": true
        } ]
      },
      "subject": {
        "reference": "Patient/60216757-e9a7-4e33-90f4-d0b1212bdea9"
      },
      "recordedDate": "2026-10-13T08:00:00Z"
    },
    "request": {
      "method": "PUT",
      "url": "Condition/73161e37-347e-4ac9-82b2-8e69731f4e00"
    }
  }, {
    "fullUrl": "https://madie.cms.gov/Organization/d3c15c9b-a5c3-4f66-af00-a94e44fc1da9",
    "resource": {
      "resourceType": "Organization",
      "id": "d3c15c9b-a5c3-4f66-af00-a94e44fc1da9",
      "meta": {
        "profile": [ "http://hl7.org/fhir/us/qicore/StructureDefinition/qicore-organization" ]
      },
      "identifier": [ {
        "use": "temp",
        "system": "urn:oid:2.16.840.1.113883.4.4",
        "value": "21-3259825"
      } ],
      "active": true,
      "type": [ {
        "coding": [ {
          "system": "http://terminology.hl7.org/CodeSystem/organization-type",
          "code": "pay",
          "display": "Payer"
        } ]
      } ],
      "name": "Blue Cross Blue Shield of Texas",
      "telecom": [ {
        "system": "phone",
        "value": "(+1) 972-766-6900"
      } ],
      "address": [ {
        "use": "billing",
        "type": "postal",
        "line": [ "P.O. Box 660044" ],
        "city": "Dallas",
        "state": "TX",
        "postalCode": "75266-0044",
        "country": "USA"
      } ]
    },
    "request": {
      "method": "PUT",
      "url": "Organization/d3c15c9b-a5c3-4f66-af00-a94e44fc1da9"
    }
  }, {
    "fullUrl": "https://madie.cms.gov/Practitioner/f0c35824-3a14-4da5-824b-342f299a20ca",
    "resource": {
      "resourceType": "Practitioner",
      "id": "f0c35824-3a14-4da5-824b-342f299a20ca",
      "meta": {
        "profile": [ "http://hl7.org/fhir/us/qicore/StructureDefinition/qicore-practitioner" ]
      },
      "identifier": [ {
        "system": "http://hl7.org/fhir/sid/us-npi",
        "value": "9999999896"
      } ],
      "name": [ {
        "family": "Evil",
        "prefix": [ "Dr" ]
      } ]
    },
    "request": {
      "method": "PUT",
      "url": "Practitioner/f0c35824-3a14-4da5-824b-342f299a20ca"
    }
  }, {
    "fullUrl": "https://madie.cms.gov/MeasureReport/dbf05555-7a38-4ebb-adf3-52ef152aab83",
    "resource": {
      "resourceType": "MeasureReport",
      "id": "dbf05555-7a38-4ebb-adf3-52ef152aab83",
      "meta": {
        "profile": [ "http://hl7.org/fhir/us/cqfmeasures/StructureDefinition/test-case-cqfm" ]
      },
      "contained": [ {
        "resourceType": "Parameters",
        "id": "ba577855-c1ba-4eec-b018-740408d22bb5-parameters",
        "parameter": [ {
          "name": "subject",
          "valueString": "60216757-e9a7-4e33-90f4-d0b1212bdea9"
        } ]
      } ],
      "extension": [ {
        "url": "http://hl7.org/fhir/StructureDefinition/cqf-inputParameters",
        "valueReference": {
          "reference": "#ba577855-c1ba-4eec-b018-740408d22bb5-parameters"
        }
      }, {
        "url": "http://hl7.org/fhir/us/cqfmeasures/StructureDefinition/cqfm-testCaseDescription",
        "valueMarkdown": "\"Afib as a Diagnosis Datatype, starts at OccurA EndDate time\nEdge case to test timing boundaries of diagnosis. \"\n"
      } ],
      "modifierExtension": [ {
        "url": "http://hl7.org/fhir/us/cqfmeasures/StructureDefinition/cqfm-isTestCase",
        "valueBoolean": true
      } ],
      "status": "complete",
      "type": "individual",
      "measure": "https://madie.cms.gov/Measure/CMS71FHIRSTKAnticoagAFFlutter",
      "period": {
        "start": "2026-01-01",
        "end": "2026-12-31"
      },
      "group": [ {
        "id": "Group_1",
        "population": [ {
          "id": "InitialPopulation_1",
          "code": {
            "coding": [ {
              "system": "http://terminology.hl7.org/CodeSystem/measure-population",
              "code": "initial-population",
              "display": "Initial Population"
            } ]
          },
          "count": 1
        }, {
          "id": "Denominator_1",
          "code": {
            "coding": [ {
              "system": "http://terminology.hl7.org/CodeSystem/measure-population",
              "code": "denominator",
              "display": "Denominator"
            } ]
          },
          "count": 1
        }, {
          "id": "DenominatorExclusion_1",
          "code": {
            "coding": [ {
              "system": "http://terminology.hl7.org/CodeSystem/measure-population",
              "code": "denominator-exclusion",
              "display": "Denominator Exclusion"
            } ]
          },
          "count": 0
        }, {
          "id": "Numerator_1",
          "code": {
            "coding": [ {
              "system": "http://terminology.hl7.org/CodeSystem/measure-population",
              "code": "numerator",
              "display": "Numerator"
            } ]
          },
          "count": 0
        }, {
          "id": "DenominatorException_1",
          "code": {
            "coding": [ {
              "system": "http://terminology.hl7.org/CodeSystem/measure-population",
              "code": "denominator-exception",
              "display": "Denominator Exception"
            } ]
          },
          "count": 0
        } ],
        "measureScore": {
          "value": 0.0
        }
      } ],
      "evaluatedResource": [ {
        "reference": "Patient/60216757-e9a7-4e33-90f4-d0b1212bdea9"
      }, {
        "reference": "Condition/874fbe58-6e11-4a09-8c13-a9d3a84a1d87"
      }, {
        "reference": "Encounter/ba21ece8-7378-46b3-9f45-2d898561d819"
      }, {
        "reference": "Claim/5ca62962b8484628b8de1ec5"
      }, {
        "reference": "Coverage/dc4b720b-83af-4550-a7c7-2b60770603c8"
      }, {
        "reference": "Condition/73161e37-347e-4ac9-82b2-8e69731f4e00"
      }, {
        "reference": "Organization/d3c15c9b-a5c3-4f66-af00-a94e44fc1da9"
      }, {
        "reference": "Practitioner/f0c35824-3a14-4da5-824b-342f299a20ca"
      } ]
    },
    "request": {
      "method": "PUT",
      "url": "MeasureReport/dbf05555-7a38-4ebb-adf3-52ef152aab83"
    }
  } ]
}