{
  "resourceType": "Bundle",
  "id": "6356d03854e383debade759e",
  "type": "transaction",
  "entry": [ {
    "fullUrl": "https://madie.cms.gov/Patient/bec38daa-8a0d-435d-95e7-05ad5af182f6",
    "resource": {
      "resourceType": "Patient",
      "id": "bec38daa-8a0d-435d-95e7-05ad5af182f6",
      "meta": {
        "profile": [ "http://hl7.org/fhir/us/qicore/StructureDefinition/qicore-patient" ]
      },
      "text": {
        "status": "generated",
        "div": "<div xmlns=\"http://www.w3.org/1999/xhtml\"><div class=\"hapiHeaderText\">CalcAndEGA19WksDxCode20Weeks<b>DENOMFAIL</b></div><table class=\"hapiPropertyTable\"><tbody><tr><td>Date of birth</td><td><span>01 February 2004</span></td></tr></tbody></table></div>"
      },
      "extension": [ {
        "url": "http://hl7.org/fhir/us/core/StructureDefinition/us-core-race",
        "extension": [ {
          "url": "ombCategory",
          "valueCoding": {
            "system": "urn:oid:2.16.840.1.113883.6.238",
            "code": "1002-5",
            "display": "American Indian or Alaska Native",
            "userSelected": true
          }
        }, {
          "url": "text",
          "valueString": "American Indian or Alaska Native"
        } ]
      }, {
        "url": "http://hl7.org/fhir/us/core/StructureDefinition/us-core-ethnicity",
        "extension": [ {
          "url": "ombCategory",
          "valueCoding": {
            "system": "urn:oid:2.16.840.1.113883.6.238",
            "code": "2135-2",
            "display": "Hispanic or Latino",
            "userSelected": true
          }
        }, {
          "url": "text",
          "valueString": "Hispanic or Latino"
        } ]
      } ],
      "identifier": [ {
        "type": {
          "coding": [ {
            "system": "http://terminology.hl7.org/CodeSystem/v2-0203",
            "code": "MR"
          } ]
        },
        "system": "https://bonnie-fhir.healthit.gov/",
        "value": "6356d03854e383debade759e"
      } ],
      "active": true,
      "name": [ {
        "use": "usual",
        "family": "DENOMFail",
        "given": [ "CalcAndEGA19WksDxCode20Weeks" ]
      } ],
      "gender": "female",
      "birthDate": "2005-02-01"
    },
    "request": {
      "method": "PUT",
      "url": "Patient/bec38daa-8a0d-435d-95e7-05ad5af182f6"
    }
  }, {
    "fullUrl": "https://madie.cms.gov/Observation/08fd8789-33b0-4893-a43c-2d709bdce33f",
    "resource": {
      "resourceType": "Observation",
      "id": "08fd8789-33b0-4893-a43c-2d709bdce33f",
      "meta": {
        "profile": [ "http://hl7.org/fhir/us/qicore/StructureDefinition/qicore-simple-observation" ]
      },
      "status": "final",
      "category": [ {
        "coding": [ {
          "system": "http://terminology.hl7.org/CodeSystem/observation-category",
          "code": "exam",
          "display": "exam",
          "userSelected": true
        } ]
      } ],
      "code": {
        "coding": [ {
          "system": "http://loinc.org",
          "code": "11884-4"
        } ]
      },
      "subject": {
        "reference": "Patient/bec38daa-8a0d-435d-95e7-05ad5af182f6"
      },
      "effectiveDateTime": "2026-01-15T08:00:00Z",
      "performer": [ {
        "reference": "Organization/example1",
        "display": "Hendricks Country Hospital"
      } ],
      "valueQuantity": {
        "value": 19,
        "unit": "wk"
      }
    },
    "request": {
      "method": "PUT",
      "url": "Observation/08fd8789-33b0-4893-a43c-2d709bdce33f"
    }
  }, {
    "fullUrl": "https://madie.cms.gov/Observation/38f2c4a6-119d-4c07-88a1-02afb82f5914",
    "resource": {
      "resourceType": "Observation",
      "id": "38f2c4a6-119d-4c07-88a1-02afb82f5914",
      "meta": {
        "profile": [ "http://hl7.org/fhir/us/qicore/StructureDefinition/qicore-simple-observation" ]
      },
      "status": "final",
      "category": [ {
        "coding": [ {
          "system": "http://terminology.hl7.org/CodeSystem/observation-category",
          "code": "exam",
          "display": "exam",
          "userSelected": true
        } ]
      } ],
      "code": {
        "coding": [ {
          "system": "http://loinc.org",
          "code": "93857-1"
        } ]
      },
      "subject": {
        "reference": "Patient/bec38daa-8a0d-435d-95e7-05ad5af182f6"
      },
      "effectiveDateTime": "2026-01-15T08:00:00Z",
      "performer": [ {
        "reference": "Organization/example1",
        "display": "Hendricks Country Hospital"
      } ],
      "valueDateTime": "2026-01-15T08:00:00.000+00:00"
    },
    "request": {
      "method": "PUT",
      "url": "Observation/38f2c4a6-119d-4c07-88a1-02afb82f5914"
    }
  }, {
    "fullUrl": "https://madie.cms.gov/Encounter/feae921f-334e-4626-b453-48325b995343",
    "resource": {
      "resourceType": "Encounter",
      "id": "feae921f-334e-4626-b453-48325b995343",
      "meta": {
        "profile": [ "http://hl7.org/fhir/us/qicore/StructureDefinition/qicore-encounter" ]
      },
      "status": "finished",
      "class": {
        "system": "http://terminology.hl7.org/CodeSystem/v3-ActCode",
        "code": "IMP",
        "display": "inpatient encounter"
      },
      "type": [ {
        "coding": [ {
          "system": "http://snomed.info/sct",
          "code": "183452005"
        } ]
      } ],
      "subject": {
        "reference": "Patient/bec38daa-8a0d-435d-95e7-05ad5af182f6"
      },
      "period": {
        "start": "2026-01-01T08:00:00Z",
        "end": "2026-02-05T08:15:00.000+00:00"
      },
      "reasonReference": [ {
        "reference": "Condition/atrial-fibrillation-flutter-f80a"
      } ]
    },
    "request": {
      "method": "PUT",
      "url": "Encounter/feae921f-334e-4626-b453-48325b995343"
    }
  }, {
    "fullUrl": "https://madie.cms.gov/Observation/4f745a58-3de1-4e41-a50c-801cc2f8365c",
    "resource": {
      "resourceType": "Observation",
      "id": "4f745a58-3de1-4e41-a50c-801cc2f8365c",
      "meta": {
        "profile": [ "http://hl7.org/fhir/us/qicore/StructureDefinition/qicore-simple-observation" ]
      },
      "status": "final",
      "category": [ {
        "coding": [ {
          "system": "http://terminology.hl7.org/CodeSystem/observation-category",
          "code": "exam",
          "display": "exam",
          "userSelected": true
        } ]
      } ],
      "code": {
        "coding": [ {
          "system": "http://loinc.org",
          "code": "11778-8"
        } ]
      },
      "subject": {
        "reference": "Patient/bec38daa-8a0d-435d-95e7-05ad5af182f6"
      },
      "effectiveDateTime": "2026-01-15T08:00:00Z",
      "performer": [ {
        "reference": "Organization/example1",
        "display": "Hendricks Country Hospital"
      } ],
      "valueDateTime": "2026-06-05T08:00:00.000+00:00"
    },
    "request": {
      "method": "PUT",
      "url": "Observation/4f745a58-3de1-4e41-a50c-801cc2f8365c"
    }
  }, {
    "fullUrl": "https://madie.cms.gov/Procedure/8393689a-5b05-4500-8081-ca86afccfeb5",
    "resource": {
      "resourceType": "Procedure",
      "id": "8393689a-5b05-4500-8081-ca86afccfeb5",
      "meta": {
        "profile": [ "http://hl7.org/fhir/us/qicore/StructureDefinition/qicore-procedure" ]
      },
      "extension": [ {
        "url": "http://hl7.org/fhir/us/qicore/StructureDefinition/qicore-recorded",
        "valueDateTime": "2014-04-05T13:35:00Z"
      } ],
      "status": "completed",
      "code": {
        "coding": [ {
          "system": "http://snomed.info/sct",
          "code": "10745001"
        } ]
      },
      "subject": {
        "reference": "Patient/bec38daa-8a0d-435d-95e7-05ad5af182f6"
      },
      "performedPeriod": {
        "start": "2026-01-01T08:00:00Z",
        "end": "2026-01-01T08:15:00.000+00:00"
      }
    },
    "request": {
      "method": "PUT",
      "url": "Procedure/8393689a-5b05-4500-8081-ca86afccfeb5"
    }
  }, {
    "fullUrl": "https://madie.cms.gov/Condition/0d79638b-cd10-4276-96d6-f5721d659a2d",
    "resource": {
      "resourceType": "Condition",
      "id": "0d79638b-cd10-4276-96d6-f5721d659a2d",
      "meta": {
        "profile": [ "http://hl7.org/fhir/us/qicore/StructureDefinition/qicore-condition" ]
      },
      "category": [ {
        "coding": [ {
          "system": "http://terminology.hl7.org/CodeSystem/condition-category",
          "code": "encounter-diagnosis",
          "display": "Encounter Diagnosis"
        } ]
      } ],
      "code": {
        "coding": [ {
          "system": "http://snomed.info/sct",
          "version": "2024-03",
          "code": "23464008",
          "display": "Gestation period, 20 weeks",
          "userSelected": true
        } ]
      },
      "subject": {
        "reference": "Patient/bec38daa-8a0d-435d-95e7-05ad5af182f6"
      },
      "encounter": {
        "reference": "Encounter/feae921f-334e-4626-b453-48325b995343"
      },
      "recordedDate": "2026-10-24T08:00:00Z"
    },
    "request": {
      "method": "PUT",
      "url": "Condition/0d79638b-cd10-4276-96d6-f5721d659a2d"
    }
  }, {
    "fullUrl": "https://madie.cms.gov/Coverage/22755bd8-8aa0-4724-8a23-250db7b56a5a",
    "resource": {
      "resourceType": "Coverage",
      "id": "22755bd8-8aa0-4724-8a23-250db7b56a5a",
      "meta": {
        "profile": [ "http://hl7.org/fhir/us/qicore/StructureDefinition/qicore-coverage" ]
      },
      "status": "active",
      "subscriberId": "523435",
      "beneficiary": {
        "reference": "Patient/bec38daa-8a0d-435d-95e7-05ad5af182f6"
      },
      "relationship": {
        "coding": [ {
          "system": "http://terminology.hl7.org/CodeSystem/subscriber-relationship",
          "code": "self"
        } ]
      },
      "payor": [ {
        "reference": "Organization/1713f0d1-8567-4422-ba9d-88b27dae77be"
      } ]
    },
    "request": {
      "method": "PUT",
      "url": "Coverage/22755bd8-8aa0-4724-8a23-250db7b56a5a"
    }
  }, {
    "fullUrl": "https://madie.cms.gov/Organization/1713f0d1-8567-4422-ba9d-88b27dae77be",
    "resource": {
      "resourceType": "Organization",
      "id": "1713f0d1-8567-4422-ba9d-88b27dae77be",
      "meta": {
        "profile": [ "http://hl7.org/fhir/us/qicore/StructureDefinition/qicore-organization" ]
      },
      "identifier": [ {
        "use": "temp",
        "system": "urn:oid:2.16.840.1.113883.4.4",
        "value": "21-3259825"
      } ],
      "active": true,
      "type": [ {
        "coding": [ {
          "system": "http://terminology.hl7.org/CodeSystem/organization-type",
          "code": "pay",
          "display": "Payer"
        } ]
      } ],
      "name": "Blue Cross Blue Shield of Texas",
      "telecom": [ {
        "system": "phone",
        "value": "(+1) 972-766-6900"
      } ],
      "address": [ {
        "use": "billing",
        "type": "postal",
        "line": [ "P.O. Box 660044" ],
        "city": "Dallas",
        "state": "TX",
        "postalCode": "75266-0044",
        "country": "USA"
      } ]
    },
    "request": {
      "method": "PUT",
      "url": "Organization/1713f0d1-8567-4422-ba9d-88b27dae77be"
    }
  }, {
    "fullUrl": "https://madie.cms.gov/Practitioner/0b38ef92-ab8e-4577-a1d5-9f8c81c87eda",
    "resource": {
      "resourceType": "Practitioner",
      "id": "0b38ef92-ab8e-4577-a1d5-9f8c81c87eda",
      "meta": {
        "profile": [ "http://hl7.org/fhir/us/qicore/StructureDefinition/qicore-practitioner" ]
      },
      "identifier": [ {
        "system": "http://hl7.org/fhir/sid/us-npi",
        "value": "1234567890"
      } ],
      "name": [ {
        "family": "Evil",
        "prefix": [ "Dr" ]
      } ]
    },
    "request": {
      "method": "PUT",
      "url": "Practitioner/0b38ef92-ab8e-4577-a1d5-9f8c81c87eda"
    }
  }, {
    "fullUrl": "https://madie.cms.gov/MeasureReport/cc4ba742-ce6a-42c8-826b-cb4efa3f4ae3",
    "resource": {
      "resourceType": "MeasureReport",
      "id": "cc4ba742-ce6a-42c8-826b-cb4efa3f4ae3",
      "meta": {
        "profile": [ "http://hl7.org/fhir/us/cqfmeasures/StructureDefinition/test-case-cqfm" ]
      },
      "contained": [ {
        "resourceType": "Parameters",
        "id": "f83988eb-657a-48c9-aa14-92834b464975-parameters",
        "parameter": [ {
          "name": "subject",
          "valueString": "bec38daa-8a0d-435d-95e7-05ad5af182f6"
        } ]
      } ],
      "extension": [ {
        "url": "http://hl7.org/fhir/StructureDefinition/cqf-inputParameters",
        "valueReference": {
          "reference": "#f83988eb-657a-48c9-aa14-92834b464975-parameters"
        }
      }, {
        "url": "http://hl7.org/fhir/us/cqfmeasures/StructureDefinition/cqfm-testCaseDescription",
        "valueMarkdown": "Calculated and Estimated GA  = 19 weeks.  Diagnosis code = 20 weeks.  Denom fails based on hierarchy.\n"
      } ],
      "modifierExtension": [ {
        "url": "http://hl7.org/fhir/us/cqfmeasures/StructureDefinition/cqfm-isTestCase",
        "valueBoolean": true
      } ],
      "status": "complete",
      "type": "individual",
      "measure": "https://madie.cms.gov/Measure/CMS1028FHIRPCSevereOBComps",
      "period": {
        "start": "2026-01-01",
        "end": "2026-12-31"
      },
      "group": [ {
        "id": "Group_1",
        "population": [ {
          "id": "InitialPopulation_1",
          "code": {
            "coding": [ {
              "system": "http://terminology.hl7.org/CodeSystem/measure-population",
              "code": "initial-population",
              "display": "Initial Population"
            } ]
          },
          "count": 1
        }, {
          "id": "Denominator_1",
          "code": {
            "coding": [ {
              "system": "http://terminology.hl7.org/CodeSystem/measure-population",
              "code": "denominator",
              "display": "Denominator"
            } ]
          },
          "count": 0
        }, {
          "id": "Numerator_1",
          "code": {
            "coding": [ {
              "system": "http://terminology.hl7.org/CodeSystem/measure-population",
              "code": "numerator",
              "display": "Numerator"
            } ]
          },
          "count": 0
        }, {
          "id": "NumeratorExclusion_1",
          "code": {
            "coding": [ {
              "system": "http://terminology.hl7.org/CodeSystem/measure-population",
              "code": "numerator-exclusion",
              "display": "Numerator Exclusion"
            } ]
          },
          "count": 0
        } ],
        "measureScore": {
          "value": 0.0
        }
      }, {
        "id": "Group_2",
        "population": [ {
          "id": "InitialPopulation_2",
          "code": {
            "coding": [ {
              "system": "http://terminology.hl7.org/CodeSystem/measure-population",
              "code": "initial-population",
              "display": "Initial Population"
            } ]
          },
          "count": 1
        }, {
          "id": "Denominator_2",
          "code": {
            "coding": [ {
              "system": "http://terminology.hl7.org/CodeSystem/measure-population",
              "code": "denominator",
              "display": "Denominator"
            } ]
          },
          "count": 0
        }, {
          "id": "Numerator_2",
          "code": {
            "coding": [ {
              "system": "http://terminology.hl7.org/CodeSystem/measure-population",
              "code": "numerator",
              "display": "Numerator"
            } ]
          },
          "count": 0
        }, {
          "id": "NumeratorExclusion_2",
          "code": {
            "coding": [ {
              "system": "http://terminology.hl7.org/CodeSystem/measure-population",
              "code": "numerator-exclusion",
              "display": "Numerator Exclusion"
            } ]
          },
          "count": 0
        } ],
        "measureScore": {
          "value": 0.0
        }
      } ],
      "evaluatedResource": [ {
        "reference": "Patient/bec38daa-8a0d-435d-95e7-05ad5af182f6"
      }, {
        "reference": "Observation/08fd8789-33b0-4893-a43c-2d709bdce33f"
      }, {
        "reference": "Observation/38f2c4a6-119d-4c07-88a1-02afb82f5914"
      }, {
        "reference": "Encounter/feae921f-334e-4626-b453-48325b995343"
      }, {
        "reference": "Observation/4f745a58-3de1-4e41-a50c-801cc2f8365c"
      }, {
        "reference": "Procedure/8393689a-5b05-4500-8081-ca86afccfeb5"
      }, {
        "reference": "Condition/0d79638b-cd10-4276-96d6-f5721d659a2d"
      }, {
        "reference": "Coverage/22755bd8-8aa0-4724-8a23-250db7b56a5a"
      }, {
        "reference": "Organization/1713f0d1-8567-4422-ba9d-88b27dae77be"
      }, {
        "reference": "Practitioner/0b38ef92-ab8e-4577-a1d5-9f8c81c87eda"
      } ]
    },
    "request": {
      "method": "PUT",
      "url": "MeasureReport/cc4ba742-ce6a-42c8-826b-cb4efa3f4ae3"
    }
  } ]
}