{
  "resourceType": "Bundle",
  "id": "6323360e414ba67d4e1d1c35",
  "type": "transaction",
  "entry": [ {
    "fullUrl": "https://madie.cms.gov/Patient/3425eac5-be2b-457f-8db1-cdc0c9f01f5e",
    "resource": {
      "resourceType": "Patient",
      "id": "3425eac5-be2b-457f-8db1-cdc0c9f01f5e",
      "meta": {
        "profile": [ "http://hl7.org/fhir/us/qicore/StructureDefinition/qicore-patient" ]
      },
      "extension": [ {
        "url": "http://hl7.org/fhir/us/core/StructureDefinition/us-core-race",
        "extension": [ {
          "url": "ombCategory",
          "valueCoding": {
            "system": "urn:oid:2.16.840.1.113883.6.238",
            "code": "1002-5",
            "display": "American Indian or Alaska Native",
            "userSelected": true
          }
        }, {
          "url": "text",
          "valueString": "American Indian or Alaska Native"
        } ]
      }, {
        "url": "http://hl7.org/fhir/us/core/StructureDefinition/us-core-ethnicity",
        "extension": [ {
          "url": "ombCategory",
          "valueCoding": {
            "system": "urn:oid:2.16.840.1.113883.6.238",
            "code": "2135-2",
            "display": "Hispanic or Latino",
            "userSelected": true
          }
        }, {
          "url": "text",
          "valueString": "Hispanic or Latino"
        } ]
      } ],
      "identifier": [ {
        "type": {
          "coding": [ {
            "system": "http://terminology.hl7.org/CodeSystem/v2-0203",
            "code": "MR"
          } ]
        },
        "system": "https://bonnie-fhir.healthit.gov/",
        "value": "6323360e414ba67d4e1d1c35"
      } ],
      "name": [ {
        "family": "DENEXFail",
        "given": [ "ProcedurePalliativeCareAfterEnc" ]
      } ],
      "gender": "male",
      "birthDate": "2006-02-01"
    },
    "request": {
      "method": "PUT",
      "url": "Patient/3425eac5-be2b-457f-8db1-cdc0c9f01f5e"
    }
  }, {
    "fullUrl": "https://madie.cms.gov/Encounter/ebb54111-50a1-4f0a-bcb8-fc94d1ceacfe",
    "resource": {
      "resourceType": "Encounter",
      "id": "ebb54111-50a1-4f0a-bcb8-fc94d1ceacfe",
      "meta": {
        "profile": [ "http://hl7.org/fhir/us/qicore/StructureDefinition/qicore-encounter" ]
      },
      "status": "finished",
      "class": {
        "system": "http://terminology.hl7.org/CodeSystem/v3-ActCode",
        "code": "AMB",
        "display": "ambulatory"
      },
      "type": [ {
        "coding": [ {
          "system": "http://snomed.info/sct",
          "version": "2022-03",
          "code": "183452005",
          "display": "Emergency hospital admission (procedure)",
          "userSelected": true
        } ]
      } ],
      "subject": {
        "reference": "Patient/3425eac5-be2b-457f-8db1-cdc0c9f01f5e"
      },
      "period": {
        "start": "2026-12-28T23:45:00.000+00:00",
        "end": "2026-12-30T23:59:00.000+00:00"
      }
    },
    "request": {
      "method": "PUT",
      "url": "Encounter/ebb54111-50a1-4f0a-bcb8-fc94d1ceacfe"
    }
  }, {
    "fullUrl": "https://madie.cms.gov/MedicationRequest/63bc1670-e368-4532-b610-cfd683253bba",
    "resource": {
      "resourceType": "MedicationRequest",
      "id": "63bc1670-e368-4532-b610-cfd683253bba",
      "meta": {
        "profile": [ "http://hl7.org/fhir/us/qicore/StructureDefinition/qicore-medicationrequest" ]
      },
      "status": "active",
      "intent": "order",
      "category": [ {
        "coding": [ {
          "system": "http://terminology.hl7.org/CodeSystem/medicationrequest-category",
          "code": "discharge",
          "display": "Discharge",
          "userSelected": true
        } ]
      } ],
      "doNotPerform": false,
      "medicationCodeableConcept": {
        "coding": [ {
          "system": "http://www.nlm.nih.gov/research/umls/rxnorm",
          "code": "2103192",
          "display": "sufentanil 0.03 MG Sublingual Tablet",
          "userSelected": true
        } ]
      },
      "subject": {
        "reference": "Patient/3425eac5-be2b-457f-8db1-cdc0c9f01f5e"
      },
      "authoredOn": "2026-12-30T23:45:00.000+00:00",
      "requester": {
        "reference": "Practitioner/65e0ad0d-1603-419d-8946-89fa9a6e8efd"
      }
    },
    "request": {
      "method": "PUT",
      "url": "MedicationRequest/63bc1670-e368-4532-b610-cfd683253bba"
    }
  }, {
    "fullUrl": "https://madie.cms.gov/Practitioner/65e0ad0d-1603-419d-8946-89fa9a6e8efd",
    "resource": {
      "resourceType": "Practitioner",
      "id": "65e0ad0d-1603-419d-8946-89fa9a6e8efd",
      "meta": {
        "profile": [ "http://hl7.org/fhir/us/qicore/StructureDefinition/qicore-practitioner" ]
      },
      "identifier": [ {
        "system": "http://hl7.org/fhir/sid/us-npi",
        "value": "9999999896"
      } ],
      "active": true,
      "name": [ {
        "family": "Ramires",
        "given": [ "Alma" ],
        "prefix": [ "Dr" ]
      } ],
      "address": [ {
        "use": "home",
        "line": [ "534 Erewhon St" ],
        "city": "Netherville",
        "state": "IN",
        "postalCode": "46131"
      } ],
      "qualification": [ {
        "identifier": [ {
          "system": "http://goodhealth.org/prIdentifier",
          "value": "12345"
        } ],
        "code": {
          "coding": [ {
            "system": "http://terminology.hl7.org/CodeSystem/v2-0360|2.7",
            "code": "BS",
            "display": "Bachelor of Science"
          } ],
          "text": "Bachelor of Science"
        },
        "period": {
          "start": "1995"
        },
        "issuer": {
          "display": "Example University"
        }
      } ]
    },
    "request": {
      "method": "PUT",
      "url": "Practitioner/65e0ad0d-1603-419d-8946-89fa9a6e8efd"
    }
  }, {
    "fullUrl": "https://madie.cms.gov/Procedure/5aaba8de-42f6-49ae-a04c-848e2a7c7b51",
    "resource": {
      "resourceType": "Procedure",
      "id": "5aaba8de-42f6-49ae-a04c-848e2a7c7b51",
      "meta": {
        "profile": [ "http://hl7.org/fhir/us/qicore/StructureDefinition/qicore-procedure" ]
      },
      "extension": [ {
        "url": "http://hl7.org/fhir/us/qicore/StructureDefinition/qicore-recorded",
        "valueDateTime": "2026-12-31T00:00:00.000+00:00"
      } ],
      "status": "completed",
      "code": {
        "coding": [ {
          "system": "http://snomed.info/sct",
          "version": "2022-03",
          "code": "103735009",
          "display": "Palliative care (regime/therapy)",
          "userSelected": true
        } ]
      },
      "subject": {
        "reference": "Patient/3425eac5-be2b-457f-8db1-cdc0c9f01f5e"
      },
      "performedDateTime": "2026-12-31T00:00:00.000+00:00"
    },
    "request": {
      "method": "PUT",
      "url": "Procedure/5aaba8de-42f6-49ae-a04c-848e2a7c7b51"
    }
  }, {
    "fullUrl": "https://madie.cms.gov/Coverage/a45841a6-a4a0-4b4d-8d84-9dae199e7d81",
    "resource": {
      "resourceType": "Coverage",
      "id": "a45841a6-a4a0-4b4d-8d84-9dae199e7d81",
      "meta": {
        "profile": [ "http://hl7.org/fhir/us/qicore/StructureDefinition/qicore-coverage" ]
      },
      "status": "active",
      "subscriberId": "523435",
      "beneficiary": {
        "reference": "Patient/3425eac5-be2b-457f-8db1-cdc0c9f01f5e"
      },
      "relationship": {
        "coding": [ {
          "system": "http://terminology.hl7.org/CodeSystem/subscriber-relationship",
          "code": "self"
        } ]
      },
      "payor": [ {
        "reference": "Organization/6e6d93c3-0642-4bb2-8298-ed863ec5756d"
      } ]
    },
    "request": {
      "method": "PUT",
      "url": "Coverage/a45841a6-a4a0-4b4d-8d84-9dae199e7d81"
    }
  }, {
    "fullUrl": "https://madie.cms.gov/Organization/6e6d93c3-0642-4bb2-8298-ed863ec5756d",
    "resource": {
      "resourceType": "Organization",
      "id": "6e6d93c3-0642-4bb2-8298-ed863ec5756d",
      "meta": {
        "profile": [ "http://hl7.org/fhir/us/qicore/StructureDefinition/qicore-organization" ]
      },
      "identifier": [ {
        "use": "temp",
        "system": "urn:oid:2.16.840.1.113883.4.4",
        "value": "21-3259825"
      } ],
      "active": true,
      "type": [ {
        "coding": [ {
          "system": "http://terminology.hl7.org/CodeSystem/organization-type",
          "code": "pay",
          "display": "Payer"
        } ]
      } ],
      "name": "Blue Cross Blue Shield of Texas",
      "telecom": [ {
        "system": "phone",
        "value": "(+1) 972-766-6900"
      } ],
      "address": [ {
        "use": "billing",
        "type": "postal",
        "line": [ "P.O. Box 660044" ],
        "city": "Dallas",
        "state": "TX",
        "postalCode": "75266-0044",
        "country": "USA"
      } ]
    },
    "request": {
      "method": "PUT",
      "url": "Organization/6e6d93c3-0642-4bb2-8298-ed863ec5756d"
    }
  }, {
    "fullUrl": "https://madie.cms.gov/MeasureReport/14516dc4-151a-4e4d-907b-3e119b70ef55",
    "resource": {
      "resourceType": "MeasureReport",
      "id": "14516dc4-151a-4e4d-907b-3e119b70ef55",
      "meta": {
        "profile": [ "http://hl7.org/fhir/us/cqfmeasures/StructureDefinition/test-case-cqfm" ]
      },
      "contained": [ {
        "resourceType": "Parameters",
        "id": "2c816221-1833-49d2-9fe4-4ca516793572-parameters",
        "parameter": [ {
          "name": "subject",
          "valueString": "3425eac5-be2b-457f-8db1-cdc0c9f01f5e"
        } ]
      } ],
      "extension": [ {
        "url": "http://hl7.org/fhir/StructureDefinition/cqf-inputParameters",
        "valueReference": {
          "reference": "#2c816221-1833-49d2-9fe4-4ca516793572-parameters"
        }
      }, {
        "url": "http://hl7.org/fhir/us/cqfmeasures/StructureDefinition/cqfm-testCaseDescription",
        "valueMarkdown": "Encounter 1/28 - 1/30, age 18,  palliative care performed 1 min after encounter ended, has one opioid\n\n"
      } ],
      "modifierExtension": [ {
        "url": "http://hl7.org/fhir/us/cqfmeasures/StructureDefinition/cqfm-isTestCase",
        "valueBoolean": true
      } ],
      "status": "complete",
      "type": "individual",
      "measure": "https://madie.cms.gov/Measure/CMS506FHIRSafeUseofOpioids",
      "period": {
        "start": "2026-01-01",
        "end": "2026-12-31"
      },
      "group": [ {
        "id": "Group_1",
        "population": [ {
          "id": "InitialPopulation_1",
          "code": {
            "coding": [ {
              "system": "http://terminology.hl7.org/CodeSystem/measure-population",
              "code": "initial-population",
              "display": "Initial Population"
            } ]
          },
          "count": 1
        }, {
          "id": "Denominator_1",
          "code": {
            "coding": [ {
              "system": "http://terminology.hl7.org/CodeSystem/measure-population",
              "code": "denominator",
              "display": "Denominator"
            } ]
          },
          "count": 1
        }, {
          "id": "DenominatorExclusion_1",
          "code": {
            "coding": [ {
              "system": "http://terminology.hl7.org/CodeSystem/measure-population",
              "code": "denominator-exclusion",
              "display": "Denominator Exclusion"
            } ]
          },
          "count": 0
        }, {
          "id": "Numerator_1",
          "code": {
            "coding": [ {
              "system": "http://terminology.hl7.org/CodeSystem/measure-population",
              "code": "numerator",
              "display": "Numerator"
            } ]
          },
          "count": 0
        } ],
        "measureScore": {
          "value": 0.0
        }
      } ],
      "evaluatedResource": [ {
        "reference": "Patient/3425eac5-be2b-457f-8db1-cdc0c9f01f5e"
      }, {
        "reference": "Encounter/ebb54111-50a1-4f0a-bcb8-fc94d1ceacfe"
      }, {
        "reference": "MedicationRequest/63bc1670-e368-4532-b610-cfd683253bba"
      }, {
        "reference": "Practitioner/65e0ad0d-1603-419d-8946-89fa9a6e8efd"
      }, {
        "reference": "Procedure/5aaba8de-42f6-49ae-a04c-848e2a7c7b51"
      }, {
        "reference": "Coverage/a45841a6-a4a0-4b4d-8d84-9dae199e7d81"
      }, {
        "reference": "Organization/6e6d93c3-0642-4bb2-8298-ed863ec5756d"
      } ]
    },
    "request": {
      "method": "PUT",
      "url": "MeasureReport/14516dc4-151a-4e4d-907b-3e119b70ef55"
    }
  } ]
}