{
  "resourceType": "Bundle",
  "id": "633b3f9f0968f80122503cdb",
  "type": "transaction",
  "entry": [ {
    "fullUrl": "https://madie.cms.gov/Patient/51c90bbb-f142-4bdf-a47a-237b2ff9403c",
    "resource": {
      "resourceType": "Patient",
      "id": "51c90bbb-f142-4bdf-a47a-237b2ff9403c",
      "meta": {
        "profile": [ "http://hl7.org/fhir/us/qicore/StructureDefinition/qicore-patient" ]
      },
      "text": {
        "status": "generated",
        "div": "<div xmlns=\"http://www.w3.org/1999/xhtml\"><div class=\"hapiHeaderText\">BldTxRelvDtTime1MinB4MNDayB4EDOBTriageHosp<b>NUMFail</b></div><table class=\"hapiPropertyTable\"><tbody><tr><td>Date of birth</td><td><span>01 February 2004</span></td></tr></tbody></table></div>"
      },
      "extension": [ {
        "url": "http://hl7.org/fhir/us/core/StructureDefinition/us-core-race",
        "extension": [ {
          "url": "ombCategory",
          "valueCoding": {
            "system": "urn:oid:2.16.840.1.113883.6.238",
            "code": "1002-5",
            "display": "American Indian or Alaska Native",
            "userSelected": true
          }
        }, {
          "url": "text",
          "valueString": "American Indian or Alaska Native"
        } ]
      }, {
        "url": "http://hl7.org/fhir/us/core/StructureDefinition/us-core-ethnicity",
        "extension": [ {
          "url": "ombCategory",
          "valueCoding": {
            "system": "urn:oid:2.16.840.1.113883.6.238",
            "code": "2135-2",
            "display": "Hispanic or Latino",
            "userSelected": true
          }
        }, {
          "url": "text",
          "valueString": "Hispanic or Latino"
        } ]
      } ],
      "identifier": [ {
        "type": {
          "coding": [ {
            "system": "http://terminology.hl7.org/CodeSystem/v2-0203",
            "code": "MR"
          } ]
        },
        "system": "https://bonnie-fhir.healthit.gov/",
        "value": "633b3f9f0968f80122503cdb"
      } ],
      "active": true,
      "name": [ {
        "use": "usual",
        "family": "NUMFail",
        "given": [ "BldTxRelvDtTime1MinB4MNDayB4EDOBTriageHosp" ]
      } ],
      "gender": "female",
      "birthDate": "2005-02-01"
    },
    "request": {
      "method": "PUT",
      "url": "Patient/51c90bbb-f142-4bdf-a47a-237b2ff9403c"
    }
  }, {
    "fullUrl": "https://madie.cms.gov/Observation/d49dc6f6-7935-42a9-aec2-d7f6d7b6db35",
    "resource": {
      "resourceType": "Observation",
      "id": "d49dc6f6-7935-42a9-aec2-d7f6d7b6db35",
      "meta": {
        "profile": [ "http://hl7.org/fhir/us/qicore/StructureDefinition/qicore-simple-observation" ]
      },
      "status": "final",
      "category": [ {
        "coding": [ {
          "system": "http://terminology.hl7.org/CodeSystem/observation-category",
          "code": "exam",
          "display": "exam",
          "userSelected": true
        } ]
      } ],
      "code": {
        "coding": [ {
          "system": "http://loinc.org",
          "code": "93857-1"
        } ]
      },
      "subject": {
        "reference": "Patient/51c90bbb-f142-4bdf-a47a-237b2ff9403c"
      },
      "effectiveDateTime": "2026-02-01T08:00:00Z",
      "performer": [ {
        "reference": "Organization/example1",
        "display": "Hendricks Country Hospital"
      } ],
      "valueDateTime": "2026-02-01T08:00:00.000+00:00"
    },
    "request": {
      "method": "PUT",
      "url": "Observation/d49dc6f6-7935-42a9-aec2-d7f6d7b6db35"
    }
  }, {
    "fullUrl": "https://madie.cms.gov/Observation/5da71f7c-7af7-4682-8ee2-824ff77b6ef1",
    "resource": {
      "resourceType": "Observation",
      "id": "5da71f7c-7af7-4682-8ee2-824ff77b6ef1",
      "meta": {
        "profile": [ "http://hl7.org/fhir/us/qicore/StructureDefinition/qicore-simple-observation" ]
      },
      "status": "final",
      "category": [ {
        "coding": [ {
          "system": "http://terminology.hl7.org/CodeSystem/observation-category",
          "code": "exam",
          "display": "exam",
          "userSelected": true
        } ]
      } ],
      "code": {
        "coding": [ {
          "system": "http://loinc.org",
          "code": "11884-4"
        } ]
      },
      "subject": {
        "reference": "Patient/51c90bbb-f142-4bdf-a47a-237b2ff9403c"
      },
      "effectiveDateTime": "2026-02-01T08:00:00Z",
      "performer": [ {
        "reference": "Organization/example1",
        "display": "Hendricks Country Hospital"
      } ],
      "valueQuantity": {
        "value": 20,
        "system": "http://unitsofmeasure.org",
        "code": "wk"
      }
    },
    "request": {
      "method": "PUT",
      "url": "Observation/5da71f7c-7af7-4682-8ee2-824ff77b6ef1"
    }
  }, {
    "fullUrl": "https://madie.cms.gov/Observation/9d30042a-8394-4414-b571-73faa8e70e1b",
    "resource": {
      "resourceType": "Observation",
      "id": "9d30042a-8394-4414-b571-73faa8e70e1b",
      "meta": {
        "profile": [ "http://hl7.org/fhir/us/qicore/StructureDefinition/qicore-simple-observation" ]
      },
      "status": "final",
      "category": [ {
        "coding": [ {
          "system": "http://terminology.hl7.org/CodeSystem/observation-category",
          "code": "exam",
          "display": "exam",
          "userSelected": true
        } ]
      } ],
      "code": {
        "coding": [ {
          "system": "http://loinc.org",
          "code": "11884-4"
        } ]
      },
      "subject": {
        "reference": "Patient/51c90bbb-f142-4bdf-a47a-237b2ff9403c"
      },
      "effectiveDateTime": "2026-02-01T08:01:00Z",
      "performer": [ {
        "reference": "Organization/example1",
        "display": "Hendricks Country Hospital"
      } ]
    },
    "request": {
      "method": "PUT",
      "url": "Observation/9d30042a-8394-4414-b571-73faa8e70e1b"
    }
  }, {
    "fullUrl": "https://madie.cms.gov/Encounter/ba6283e1-d478-4eab-a38a-bc6af5727deb",
    "resource": {
      "resourceType": "Encounter",
      "id": "ba6283e1-d478-4eab-a38a-bc6af5727deb",
      "meta": {
        "profile": [ "http://hl7.org/fhir/us/qicore/StructureDefinition/qicore-encounter" ]
      },
      "status": "finished",
      "class": {
        "system": "http://terminology.hl7.org/CodeSystem/v3-ActCode",
        "code": "IMP",
        "display": "inpatient encounter"
      },
      "type": [ {
        "coding": [ {
          "system": "http://snomed.info/sct",
          "code": "183452005"
        } ]
      } ],
      "subject": {
        "reference": "Patient/51c90bbb-f142-4bdf-a47a-237b2ff9403c"
      },
      "period": {
        "start": "2026-02-01T08:00:00Z",
        "end": "2026-02-05T08:15:00.000+00:00"
      }
    },
    "request": {
      "method": "PUT",
      "url": "Encounter/ba6283e1-d478-4eab-a38a-bc6af5727deb"
    }
  }, {
    "fullUrl": "https://madie.cms.gov/Coverage/8ccd14ca-0c68-452d-a4da-09f39f3d4f9d",
    "resource": {
      "resourceType": "Coverage",
      "id": "8ccd14ca-0c68-452d-a4da-09f39f3d4f9d",
      "status": "active",
      "subscriberId": "523435",
      "beneficiary": {
        "reference": "Patient/51c90bbb-f142-4bdf-a47a-237b2ff9403c"
      },
      "relationship": {
        "coding": [ {
          "system": "http://terminology.hl7.org/CodeSystem/subscriber-relationship",
          "code": "self"
        } ]
      },
      "period": {
        "start": "2005-02-01T08:00:00Z"
      },
      "payor": [ {
        "reference": "Organization/ff6cab46-1193-47c7-8b1e-9d28b16b5a2e"
      } ]
    },
    "request": {
      "method": "PUT",
      "url": "Coverage/8ccd14ca-0c68-452d-a4da-09f39f3d4f9d"
    }
  }, {
    "fullUrl": "https://madie.cms.gov/Procedure/eb41a2af-06d5-4e44-8e4e-6b2d443ebba7",
    "resource": {
      "resourceType": "Procedure",
      "id": "eb41a2af-06d5-4e44-8e4e-6b2d443ebba7",
      "meta": {
        "profile": [ "http://hl7.org/fhir/us/qicore/StructureDefinition/qicore-procedure" ]
      },
      "extension": [ {
        "url": "http://hl7.org/fhir/us/qicore/StructureDefinition/qicore-recorded",
        "valueDateTime": "2014-04-05T13:35:00Z"
      } ],
      "status": "completed",
      "code": {
        "coding": [ {
          "system": "http://snomed.info/sct",
          "code": "10745001"
        } ]
      },
      "subject": {
        "reference": "Patient/51c90bbb-f142-4bdf-a47a-237b2ff9403c"
      },
      "performedPeriod": {
        "start": "2026-02-01T08:00:00Z",
        "end": "2026-02-05T08:15:00.000+00:00"
      }
    },
    "request": {
      "method": "PUT",
      "url": "Procedure/eb41a2af-06d5-4e44-8e4e-6b2d443ebba7"
    }
  }, {
    "fullUrl": "https://madie.cms.gov/Procedure/8c210986-06bb-45f9-b149-17aaf32b3acd",
    "resource": {
      "resourceType": "Procedure",
      "id": "8c210986-06bb-45f9-b149-17aaf32b3acd",
      "meta": {
        "profile": [ "http://hl7.org/fhir/us/qicore/StructureDefinition/qicore-procedure" ]
      },
      "extension": [ {
        "url": "http://hl7.org/fhir/us/qicore/StructureDefinition/qicore-recorded",
        "valueDateTime": "2026-02-01T04:01:00Z"
      } ],
      "status": "completed",
      "code": {
        "coding": [ {
          "system": "http://snomed.info/sct",
          "code": "11397000"
        } ]
      },
      "subject": {
        "reference": "Patient/51c90bbb-f142-4bdf-a47a-237b2ff9403c"
      },
      "performedPeriod": {
        "start": "2026-01-31T11:59:00Z",
        "end": "2026-02-01T00:59:00.000+00:00"
      }
    },
    "request": {
      "method": "PUT",
      "url": "Procedure/8c210986-06bb-45f9-b149-17aaf32b3acd"
    }
  }, {
    "fullUrl": "https://madie.cms.gov/Organization/ff6cab46-1193-47c7-8b1e-9d28b16b5a2e",
    "resource": {
      "resourceType": "Organization",
      "id": "ff6cab46-1193-47c7-8b1e-9d28b16b5a2e",
      "meta": {
        "profile": [ "http://hl7.org/fhir/us/qicore/StructureDefinition/qicore-organization" ]
      },
      "identifier": [ {
        "use": "temp",
        "system": "urn:oid:2.16.840.1.113883.4.4",
        "value": "21-3259825"
      } ],
      "active": true,
      "type": [ {
        "coding": [ {
          "system": "http://terminology.hl7.org/CodeSystem/organization-type",
          "code": "pay",
          "display": "Payer"
        } ]
      } ],
      "name": "Blue Cross Blue Shield of Texas",
      "telecom": [ {
        "system": "phone",
        "value": "(+1) 972-766-6900"
      } ],
      "address": [ {
        "use": "billing",
        "type": "postal",
        "line": [ "P.O. Box 660044" ],
        "city": "Dallas",
        "state": "TX",
        "postalCode": "75266-0044",
        "country": "USA"
      } ]
    },
    "request": {
      "method": "PUT",
      "url": "Organization/ff6cab46-1193-47c7-8b1e-9d28b16b5a2e"
    }
  }, {
    "fullUrl": "https://madie.cms.gov/Practitioner/efb9dcec-f411-4828-82c6-864c3ad8ad94",
    "resource": {
      "resourceType": "Practitioner",
      "id": "efb9dcec-f411-4828-82c6-864c3ad8ad94",
      "meta": {
        "profile": [ "http://hl7.org/fhir/us/qicore/StructureDefinition/qicore-practitioner" ]
      },
      "identifier": [ {
        "system": "http://hl7.org/fhir/sid/us-npi",
        "value": "1234569999"
      } ],
      "name": [ {
        "family": "Evil",
        "prefix": [ "Dr" ]
      } ]
    },
    "request": {
      "method": "PUT",
      "url": "Practitioner/efb9dcec-f411-4828-82c6-864c3ad8ad94"
    }
  }, {
    "fullUrl": "https://madie.cms.gov/MeasureReport/5633cedb-fece-49d3-aece-96b05678ed78",
    "resource": {
      "resourceType": "MeasureReport",
      "id": "5633cedb-fece-49d3-aece-96b05678ed78",
      "meta": {
        "profile": [ "http://hl7.org/fhir/us/cqfmeasures/StructureDefinition/test-case-cqfm" ]
      },
      "contained": [ {
        "resourceType": "Parameters",
        "id": "c1e16250-cdfa-4493-b416-863438373d0a-parameters",
        "parameter": [ {
          "name": "subject",
          "valueString": "51c90bbb-f142-4bdf-a47a-237b2ff9403c"
        } ]
      } ],
      "extension": [ {
        "url": "http://hl7.org/fhir/StructureDefinition/cqf-inputParameters",
        "valueReference": {
          "reference": "#c1e16250-cdfa-4493-b416-863438373d0a-parameters"
        }
      }, {
        "url": "http://hl7.org/fhir/us/cqfmeasures/StructureDefinition/cqfm-testCaseDescription",
        "valueMarkdown": "Blood Transfusion Relevant Date Time 1 Minute before midnight day before encounter begin\n"
      } ],
      "modifierExtension": [ {
        "url": "http://hl7.org/fhir/us/cqfmeasures/StructureDefinition/cqfm-isTestCase",
        "valueBoolean": true
      } ],
      "status": "complete",
      "type": "individual",
      "measure": "https://madie.cms.gov/Measure/CMS1028FHIRPCSevereOBComps",
      "period": {
        "start": "2026-01-01",
        "end": "2026-12-31"
      },
      "group": [ {
        "id": "Group_1",
        "population": [ {
          "id": "InitialPopulation_1",
          "code": {
            "coding": [ {
              "system": "http://terminology.hl7.org/CodeSystem/measure-population",
              "code": "initial-population",
              "display": "Initial Population"
            } ]
          },
          "count": 1
        }, {
          "id": "Denominator_1",
          "code": {
            "coding": [ {
              "system": "http://terminology.hl7.org/CodeSystem/measure-population",
              "code": "denominator",
              "display": "Denominator"
            } ]
          },
          "count": 1
        }, {
          "id": "Numerator_1",
          "code": {
            "coding": [ {
              "system": "http://terminology.hl7.org/CodeSystem/measure-population",
              "code": "numerator",
              "display": "Numerator"
            } ]
          },
          "count": 0
        }, {
          "id": "NumeratorExclusion_1",
          "code": {
            "coding": [ {
              "system": "http://terminology.hl7.org/CodeSystem/measure-population",
              "code": "numerator-exclusion",
              "display": "Numerator Exclusion"
            } ]
          },
          "count": 0
        } ],
        "measureScore": {
          "value": 0.0
        }
      }, {
        "id": "Group_2",
        "population": [ {
          "id": "InitialPopulation_2",
          "code": {
            "coding": [ {
              "system": "http://terminology.hl7.org/CodeSystem/measure-population",
              "code": "initial-population",
              "display": "Initial Population"
            } ]
          },
          "count": 1
        }, {
          "id": "Denominator_2",
          "code": {
            "coding": [ {
              "system": "http://terminology.hl7.org/CodeSystem/measure-population",
              "code": "denominator",
              "display": "Denominator"
            } ]
          },
          "count": 1
        }, {
          "id": "Numerator_2",
          "code": {
            "coding": [ {
              "system": "http://terminology.hl7.org/CodeSystem/measure-population",
              "code": "numerator",
              "display": "Numerator"
            } ]
          },
          "count": 0
        }, {
          "id": "NumeratorExclusion_2",
          "code": {
            "coding": [ {
              "system": "http://terminology.hl7.org/CodeSystem/measure-population",
              "code": "numerator-exclusion",
              "display": "Numerator Exclusion"
            } ]
          },
          "count": 0
        } ],
        "measureScore": {
          "value": 0.0
        }
      } ],
      "evaluatedResource": [ {
        "reference": "Patient/51c90bbb-f142-4bdf-a47a-237b2ff9403c"
      }, {
        "reference": "Observation/d49dc6f6-7935-42a9-aec2-d7f6d7b6db35"
      }, {
        "reference": "Observation/5da71f7c-7af7-4682-8ee2-824ff77b6ef1"
      }, {
        "reference": "Observation/9d30042a-8394-4414-b571-73faa8e70e1b"
      }, {
        "reference": "Encounter/ba6283e1-d478-4eab-a38a-bc6af5727deb"
      }, {
        "reference": "Coverage/8ccd14ca-0c68-452d-a4da-09f39f3d4f9d"
      }, {
        "reference": "Procedure/eb41a2af-06d5-4e44-8e4e-6b2d443ebba7"
      }, {
        "reference": "Procedure/8c210986-06bb-45f9-b149-17aaf32b3acd"
      }, {
        "reference": "Organization/ff6cab46-1193-47c7-8b1e-9d28b16b5a2e"
      }, {
        "reference": "Practitioner/efb9dcec-f411-4828-82c6-864c3ad8ad94"
      } ]
    },
    "request": {
      "method": "PUT",
      "url": "MeasureReport/5633cedb-fece-49d3-aece-96b05678ed78"
    }
  } ]
}