{
    "entry": [
        {
            "request": {
                "method": "PUT",
                "url": "Patient/92d6fd00-76fa-4354-8c16-59582a8c7278"
            },
            "resource": {
                "identifier": [{
                    "system": "https://bonnie-fhir.healthit.gov/",
                    "type": {"coding": [{
                        "system": "http://terminology.hl7.org/CodeSystem/v2-0203",
                        "code": "MR"
                    }]},
                    "value": "62fa88b5e884ee19102758b5"
                }],
                "extension": [
                    {
                        "extension": [
                            {
                                "valueCoding": {
                                    "system": "urn:oid:2.16.840.1.113883.6.238",
                                    "code": "1002-5",
                                    "userSelected": true,
                                    "display": "American Indian or Alaska Native"
                                },
                                "url": "ombCategory"
                            },
                            {
                                "valueString": "American Indian or Alaska Native",
                                "url": "text"
                            }
                        ],
                        "url": "http://hl7.org/fhir/us/core/StructureDefinition/us-core-race"
                    },
                    {
                        "extension": [
                            {
                                "valueCoding": {
                                    "system": "urn:oid:2.16.840.1.113883.6.238",
                                    "code": "2135-2",
                                    "userSelected": true,
                                    "display": "Hispanic or Latino"
                                },
                                "url": "ombCategory"
                            },
                            {
                                "valueString": "Hispanic or Latino",
                                "url": "text"
                            }
                        ],
                        "url": "http://hl7.org/fhir/us/core/StructureDefinition/us-core-ethnicity"
                    }
                ],
                "gender": "male",
                "meta": {"profile": ["http://hl7.org/fhir/us/qicore/StructureDefinition/qicore-patient"]},
                "name": [{
                    "given": ["HypertensionAfterEnc"],
                    "family": "DENEXFail"
                }],
                "id": "92d6fd00-76fa-4354-8c16-59582a8c7278",
                "birthDate": "2006-06-18",
                "resourceType": "Patient"
            },
            "fullUrl": "https://madie.cms.gov/Patient/92d6fd00-76fa-4354-8c16-59582a8c7278"
        },
        {
            "request": {
                "method": "PUT",
                "url": "Encounter/fc0b720d-3c99-4728-a0c1-4b4eccb8c4d3"
            },
            "resource": {
                "period": {
                    "start": "2026-01-01T10:00:00.000+00:00",
                    "end": "2026-01-01T10:15:00.000+00:00"
                },
                "meta": {"profile": ["http://hl7.org/fhir/us/qicore/StructureDefinition/qicore-encounter"]},
                "subject": {"reference": "Patient/92d6fd00-76fa-4354-8c16-59582a8c7278"},
                "id": "fc0b720d-3c99-4728-a0c1-4b4eccb8c4d3",
                "type": [{"coding": [{
                    "system": "http://snomed.info/sct",
                    "code": "103705002",
                    "userSelected": true,
                    "display": "Patient status observation (procedure)",
                    "version": "2022-03"
                }]}],
                "class": {
                    "system": "http://terminology.hl7.org/CodeSystem/v3-ActCode",
                    "code": "AMB",
                    "display": "ambulatory"
                },
                "resourceType": "Encounter",
                "status": "finished"
            },
            "fullUrl": "https://madie.cms.gov/Encounter/fc0b720d-3c99-4728-a0c1-4b4eccb8c4d3"
        },
        {
            "request": {
                "method": "PUT",
                "url": "Condition/6e6bd7c3-86da-4cf7-95aa-3e5e66503128"
            },
            "resource": {
                "code": {"coding": [{
                    "system": "http://snomed.info/sct",
                    "code": "10725009",
                    "userSelected": true,
                    "display": "Benign hypertension (disorder)",
                    "version": "2022-03"
                }]},
                "onsetPeriod": {"start": "2026-01-01T10:15:00.000+00:00"},
                "verificationStatus": {"coding": [{
                    "system": "http://terminology.hl7.org/CodeSystem/condition-ver-status",
                    "code": "confirmed",
                    "userSelected": true,
                    "display": "Confirmed"
                }]},
                "meta": {"profile": ["http://hl7.org/fhir/us/qicore/StructureDefinition/qicore-condition-encounter-diagnosis"]},
                "subject": {"reference": "Patient/92d6fd00-76fa-4354-8c16-59582a8c7278"},
                "id": "6e6bd7c3-86da-4cf7-95aa-3e5e66503128",
                "clinicalStatus": {"coding": [{
                    "system": "http://terminology.hl7.org/CodeSystem/condition-clinical",
                    "code": "active",
                    "userSelected": true,
                    "display": "active"
                }]},
                "category": [{"coding": [{
                    "system": "http://terminology.hl7.org/CodeSystem/condition-category",
                    "code": "encounter-diagnosis",
                    "display": "Encounter Diagnosis"
                }]}],
                "resourceType": "Condition"
            },
            "fullUrl": "https://madie.cms.gov/Condition/6e6bd7c3-86da-4cf7-95aa-3e5e66503128"
        },
        {
            "request": {
                "method": "PUT",
                "url": "Coverage/10c34a73-3481-4fd0-9e69-358508ead348"
            },
            "resource": {
                "payor": [{"reference": "Organization/be7e3a16-d360-4947-81cf-04c240ea9e77"}],
                "beneficiary": {"reference": "Patient/92d6fd00-76fa-4354-8c16-59582a8c7278"},
                "meta": {"profile": ["http://hl7.org/fhir/us/qicore/StructureDefinition/qicore-coverage"]},
                "id": "10c34a73-3481-4fd0-9e69-358508ead348",
                "resourceType": "Coverage",
                "status": "active"
            },
            "fullUrl": "https://madie.cms.gov/Coverage/10c34a73-3481-4fd0-9e69-358508ead348"
        },
        {
            "request": {
                "method": "PUT",
                "url": "Organization/be7e3a16-d360-4947-81cf-04c240ea9e77"
            },
            "resource": {
                "identifier": [{
                    "system": "urn:oid:2.16.840.1.113883.4.4",
                    "use": "temp",
                    "value": "21-3259825"
                }],
                "address": [{
                    "country": "USA",
                    "city": "Dallas",
                    "use": "billing",
                    "line": ["P.O. Box 660044"],
                    "postalCode": "75266-0044",
                    "state": "TX",
                    "type": "postal"
                }],
                "meta": {"profile": ["http://hl7.org/fhir/us/qicore/StructureDefinition/qicore-organization"]},
                "name": "Blue Cross Blue Shield of Texas",
                "active": true,
                "telecom": [{
                    "system": "phone",
                    "value": "(+1) 972-766-6900"
                }],
                "id": "be7e3a16-d360-4947-81cf-04c240ea9e77",
                "type": [{"coding": [{
                    "system": "http://terminology.hl7.org/CodeSystem/organization-type",
                    "code": "pay",
                    "display": "Payer"
                }]}],
                "resourceType": "Organization"
            },
            "fullUrl": "https://madie.cms.gov/Organization/be7e3a16-d360-4947-81cf-04c240ea9e77"
        },
        {
            "request": {
                "method": "PUT",
                "url": "Practitioner/69575484-891f-4554-b814-73b42eddf047"
            },
            "resource": {
                "identifier": [{
                    "system": "http://hl7.org/fhir/sid/us-npi",
                    "value": "123456"
                }],
                "meta": {"profile": ["http://hl7.org/fhir/us/qicore/StructureDefinition/qicore-practitioner"]},
                "name": [{
                    "prefix": ["Dr"],
                    "family": "Evil"
                }],
                "id": "69575484-891f-4554-b814-73b42eddf047",
                "resourceType": "Practitioner"
            },
            "fullUrl": "https://madie.cms.gov/Practitioner/69575484-891f-4554-b814-73b42eddf047"
        },
        {
            "request": {
                "method": "PUT",
                "url": "MeasureReport/f3c3d6cb-3cd4-4d38-91bd-114865d082f1"
            },
            "resource": {
                "contained": [{
                    "parameter": [{
                        "valueString": "92d6fd00-76fa-4354-8c16-59582a8c7278",
                        "name": "subject"
                    }],
                    "id": "6e0d713e-0057-4f33-9dac-aac6c002a44e-parameters",
                    "resourceType": "Parameters"
                }],
                "extension": [
                    {
                        "valueReference": {"reference": "#6e0d713e-0057-4f33-9dac-aac6c002a44e-parameters"},
                        "url": "http://hl7.org/fhir/StructureDefinition/cqf-inputParameters"
                    },
                    {
                        "valueMarkdown": "Encounter first day of MP, HTN dx after this encounter, expected to fail denex.",
                        "url": "http://hl7.org/fhir/us/cqfmeasures/StructureDefinition/cqfm-testCaseDescription"
                    }
                ],
                "period": {
                    "start": "2026-01-01",
                    "end": "2026-12-31"
                },
                "measure": "https://madie.cms.gov/Measure/CMS22FHIRPCSBPScreeningFollowUp",
                "meta": {"profile": ["http://hl7.org/fhir/us/cqfmeasures/StructureDefinition/test-case-cqfm"]},
                "modifierExtension": [{
                    "valueBoolean": true,
                    "url": "http://hl7.org/fhir/us/cqfmeasures/StructureDefinition/cqfm-isTestCase"
                }],
                "id": "f3c3d6cb-3cd4-4d38-91bd-114865d082f1",
                "evaluatedResource": [
                    {"reference": "Patient/92d6fd00-76fa-4354-8c16-59582a8c7278"},
                    {"reference": "Encounter/fc0b720d-3c99-4728-a0c1-4b4eccb8c4d3"},
                    {"reference": "Condition/6e6bd7c3-86da-4cf7-95aa-3e5e66503128"},
                    {"reference": "Coverage/10c34a73-3481-4fd0-9e69-358508ead348"},
                    {"reference": "Organization/be7e3a16-d360-4947-81cf-04c240ea9e77"},
                    {"reference": "Practitioner/69575484-891f-4554-b814-73b42eddf047"}
                ],
                "type": "individual",
                "resourceType": "MeasureReport",
                "status": "complete",
                "group": [{
                    "id": "Group_1",
                    "measureScore": {"value": 0},
                    "population": [
                        {
                            "code": {"coding": [{
                                "system": "http://terminology.hl7.org/CodeSystem/measure-population",
                                "code": "initial-population",
                                "display": "Initial Population"
                            }]},
                            "count": 1,
                            "id": "InitialPopulation_1"
                        },
                        {
                            "code": {"coding": [{
                                "system": "http://terminology.hl7.org/CodeSystem/measure-population",
                                "code": "denominator",
                                "display": "Denominator"
                            }]},
                            "count": 1,
                            "id": "Denominator_1"
                        },
                        {
                            "code": {"coding": [{
                                "system": "http://terminology.hl7.org/CodeSystem/measure-population",
                                "code": "denominator-exclusion",
                                "display": "Denominator Exclusion"
                            }]},
                            "count": 0,
                            "id": "DenominatorExclusion_1"
                        },
                        {
                            "code": {"coding": [{
                                "system": "http://terminology.hl7.org/CodeSystem/measure-population",
                                "code": "numerator",
                                "display": "Numerator"
                            }]},
                            "count": 0,
                            "id": "Numerator_1"
                        },
                        {
                            "code": {"coding": [{
                                "system": "http://terminology.hl7.org/CodeSystem/measure-population",
                                "code": "denominator-exception",
                                "display": "Denominator Exception"
                            }]},
                            "count": 0,
                            "id": "DenominatorException_1"
                        }
                    ]
                }]
            },
            "fullUrl": "https://madie.cms.gov/MeasureReport/f3c3d6cb-3cd4-4d38-91bd-114865d082f1"
        }
    ],
    "id": "62fa88b5e884ee19102758b5",
    "type": "transaction",
    "resourceType": "Bundle"
}