{
  "resourceType": "Bundle",
  "id": "46313213416131",
  "type": "transaction",
  "entry": [ {
    "fullUrl": "https://madie.cms.gov/Patient/a6c8dee0-0110-4814-ae0d-37a2a03b2f72",
    "resource": {
      "resourceType": "Patient",
      "id": "a6c8dee0-0110-4814-ae0d-37a2a03b2f72",
      "meta": {
        "profile": [ "http://hl7.org/fhir/us/qicore/StructureDefinition/qicore-patient" ]
      },
      "extension": [ {
        "url": "http://hl7.org/fhir/us/core/StructureDefinition/us-core-race",
        "extension": [ {
          "url": "ombCategory",
          "valueCoding": {
            "system": "urn:oid:2.16.840.1.113883.6.238",
            "code": "2076-8",
            "display": "Native Hawaiian or Other Pacific Islander"
          }
        }, {
          "url": "text",
          "valueString": "Native Hawaiian or Other Pacific Islander"
        } ]
      }, {
        "url": "http://hl7.org/fhir/us/core/StructureDefinition/us-core-ethnicity",
        "extension": [ {
          "url": "ombCategory",
          "valueCoding": {
            "system": "urn:oid:2.16.840.1.113883.6.238",
            "code": "2186-5",
            "display": "Not Hispanic or Latino"
          }
        }, {
          "url": "text",
          "valueString": "Not Hispanic or Latino"
        } ]
      } ],
      "identifier": [ {
        "type": {
          "coding": [ {
            "system": "http://terminology.hl7.org/CodeSystem/v2-0203",
            "code": "MR"
          } ]
        },
        "system": "https://bonnie-fhir.healthit.gov/",
        "value": "46431231346541"
      } ],
      "active": true,
      "name": [ {
        "use": "usual",
        "family": "DENOMEXCEPPass",
        "given": [ "AllergicToBetaBlockerBeforeLastEnc" ]
      } ],
      "gender": "male",
      "birthDate": "1972-12-30"
    },
    "request": {
      "method": "PUT",
      "url": "Patient/a6c8dee0-0110-4814-ae0d-37a2a03b2f72"
    }
  }, {
    "fullUrl": "https://madie.cms.gov/Encounter/595c4fec-d526-4155-8564-fdf96da14c48",
    "resource": {
      "resourceType": "Encounter",
      "id": "595c4fec-d526-4155-8564-fdf96da14c48",
      "meta": {
        "profile": [ "http://hl7.org/fhir/us/qicore/StructureDefinition/qicore-encounter" ]
      },
      "status": "finished",
      "class": {
        "system": "http://terminology.hl7.org/CodeSystem/v3-ActCode",
        "code": "AMB",
        "display": "ambulatory"
      },
      "type": [ {
        "coding": [ {
          "system": "http://www.ama-assn.org/go/cpt",
          "version": "2024",
          "code": "99213"
        } ]
      } ],
      "subject": {
        "reference": "Patient/a6c8dee0-0110-4814-ae0d-37a2a03b2f72"
      },
      "period": {
        "start": "2026-04-14T14:40:00.000+00:00",
        "end": "2026-04-14T14:50:00.000+00:00"
      },
      "length": {
        "value": 0,
        "unit": "days"
      }
    },
    "request": {
      "method": "PUT",
      "url": "Encounter/595c4fec-d526-4155-8564-fdf96da14c48"
    }
  }, {
    "fullUrl": "https://madie.cms.gov/Encounter/95f77a46-7fb8-4e19-a6b6-91a0dcc6872d",
    "resource": {
      "resourceType": "Encounter",
      "id": "95f77a46-7fb8-4e19-a6b6-91a0dcc6872d",
      "meta": {
        "profile": [ "http://hl7.org/fhir/us/qicore/StructureDefinition/qicore-encounter" ]
      },
      "status": "finished",
      "class": {
        "system": "http://terminology.hl7.org/CodeSystem/v3-ActCode",
        "code": "AMB",
        "display": "ambulatory"
      },
      "type": [ {
        "coding": [ {
          "system": "http://www.ama-assn.org/go/cpt",
          "version": "2024",
          "code": "99212"
        } ]
      } ],
      "subject": {
        "reference": "Patient/a6c8dee0-0110-4814-ae0d-37a2a03b2f72"
      },
      "period": {
        "start": "2026-07-20T11:50:00.000+00:00",
        "end": "2026-07-20T11:50:00.000+00:00"
      },
      "length": {
        "value": 0,
        "unit": "days"
      }
    },
    "request": {
      "method": "PUT",
      "url": "Encounter/95f77a46-7fb8-4e19-a6b6-91a0dcc6872d"
    }
  }, {
    "fullUrl": "https://madie.cms.gov/Condition/236ba9dc-77c4-4e75-856d-b28cbb5fa721",
    "resource": {
      "resourceType": "Condition",
      "id": "236ba9dc-77c4-4e75-856d-b28cbb5fa721",
      "meta": {
        "profile": [ "http://hl7.org/fhir/us/qicore/StructureDefinition/qicore-condition-problems-health-concerns" ]
      },
      "clinicalStatus": {
        "coding": [ {
          "system": "http://terminology.hl7.org/CodeSystem/condition-clinical",
          "code": "active",
          "display": "Active"
        } ]
      },
      "verificationStatus": {
        "coding": [ {
          "system": "http://terminology.hl7.org/CodeSystem/condition-ver-status",
          "code": "confirmed",
          "display": "Confirmed"
        } ]
      },
      "category": [ {
        "coding": [ {
          "system": "http://terminology.hl7.org/CodeSystem/condition-category",
          "code": "problem-list-item",
          "display": "Problem List Item"
        } ]
      } ],
      "code": {
        "coding": [ {
          "system": "http://hl7.org/fhir/sid/icd-10-cm",
          "version": "2024",
          "code": "I11.0"
        } ]
      },
      "subject": {
        "reference": "Patient/a6c8dee0-0110-4814-ae0d-37a2a03b2f72"
      },
      "onsetPeriod": {
        "start": "2026-04-11T10:00:00.000+00:00"
      }
    },
    "request": {
      "method": "PUT",
      "url": "Condition/236ba9dc-77c4-4e75-856d-b28cbb5fa721"
    }
  }, {
    "fullUrl": "https://madie.cms.gov/Condition/e8c5b0eb-2d72-42cd-8c12-0d6e6dba9f3b",
    "resource": {
      "resourceType": "Condition",
      "id": "e8c5b0eb-2d72-42cd-8c12-0d6e6dba9f3b",
      "meta": {
        "profile": [ "http://hl7.org/fhir/us/qicore/StructureDefinition/qicore-condition-problems-health-concerns" ]
      },
      "clinicalStatus": {
        "coding": [ {
          "system": "http://terminology.hl7.org/CodeSystem/condition-clinical",
          "code": "active",
          "display": "Active"
        } ]
      },
      "verificationStatus": {
        "coding": [ {
          "system": "http://terminology.hl7.org/CodeSystem/condition-ver-status",
          "code": "confirmed",
          "display": "Confirmed"
        } ]
      },
      "category": [ {
        "coding": [ {
          "system": "http://terminology.hl7.org/CodeSystem/condition-category",
          "code": "problem-list-item",
          "display": "Problem List Item"
        } ]
      } ],
      "severity": {
        "coding": [ {
          "system": "http://snomed.info/sct",
          "version": "http://snomed.info/sct/731000124108/version/20240301",
          "code": "24484000",
          "display": "Severe (severity modifier) (qualifier value)"
        } ]
      },
      "code": {
        "coding": [ {
          "system": "http://snomed.info/sct",
          "version": "http://snomed.info/sct/731000124108/version/20240301",
          "code": "134401001",
          "display": "Left ventricular systolic dysfunction (disorder)"
        } ]
      },
      "subject": {
        "reference": "Patient/a6c8dee0-0110-4814-ae0d-37a2a03b2f72"
      },
      "onsetPeriod": {
        "start": "2026-04-14T14:41:00.000+00:00"
      }
    },
    "request": {
      "method": "PUT",
      "url": "Condition/e8c5b0eb-2d72-42cd-8c12-0d6e6dba9f3b"
    }
  }, {
    "fullUrl": "https://madie.cms.gov/Condition/4c49d652-6e79-492d-bddd-4827575034b2",
    "resource": {
      "resourceType": "Condition",
      "id": "4c49d652-6e79-492d-bddd-4827575034b2",
      "meta": {
        "profile": [ "http://hl7.org/fhir/us/qicore/StructureDefinition/qicore-condition-problems-health-concerns" ]
      },
      "clinicalStatus": {
        "coding": [ {
          "system": "http://terminology.hl7.org/CodeSystem/condition-clinical",
          "code": "active",
          "display": "Active"
        } ]
      },
      "verificationStatus": {
        "coding": [ {
          "system": "http://terminology.hl7.org/CodeSystem/condition-ver-status",
          "code": "confirmed",
          "display": "Confirmed"
        } ]
      },
      "category": [ {
        "coding": [ {
          "system": "http://terminology.hl7.org/CodeSystem/condition-category",
          "code": "problem-list-item",
          "display": "Problem List Item"
        } ]
      } ],
      "code": {
        "coding": [ {
          "system": "http://snomed.info/sct",
          "version": "http://snomed.info/sct/731000124108/version/20240301",
          "code": "293970004",
          "display": "Allergy to metoprolol (finding)"
        } ]
      },
      "subject": {
        "reference": "Patient/a6c8dee0-0110-4814-ae0d-37a2a03b2f72"
      },
      "onsetPeriod": {
        "start": "2026-01-20T14:32:00.000+00:00"
      }
    },
    "request": {
      "method": "PUT",
      "url": "Condition/4c49d652-6e79-492d-bddd-4827575034b2"
    }
  }, {
    "fullUrl": "https://madie.cms.gov/MeasureReport/53fc84cc-ed39-4d57-aee4-d5d7be9f7a7d",
    "resource": {
      "resourceType": "MeasureReport",
      "id": "53fc84cc-ed39-4d57-aee4-d5d7be9f7a7d",
      "meta": {
        "profile": [ "http://hl7.org/fhir/us/cqfmeasures/StructureDefinition/test-case-cqfm" ]
      },
      "contained": [ {
        "resourceType": "Parameters",
        "id": "2372346b-9352-44e6-a8e4-6240c84c53e9-parameters",
        "parameter": [ {
          "name": "subject",
          "valueString": "a6c8dee0-0110-4814-ae0d-37a2a03b2f72"
        } ]
      } ],
      "extension": [ {
        "url": "http://hl7.org/fhir/StructureDefinition/cqf-inputParameters",
        "valueReference": {
          "reference": "#2372346b-9352-44e6-a8e4-6240c84c53e9-parameters"
        }
      }, {
        "url": "http://hl7.org/fhir/us/cqfmeasures/StructureDefinition/cqfm-testCaseDescription",
        "valueMarkdown": "Patient falls into denominator exception due to allergy to metoprolol diagnosed before last encounter"
      } ],
      "modifierExtension": [ {
        "url": "http://hl7.org/fhir/us/cqfmeasures/StructureDefinition/cqfm-isTestCase",
        "valueBoolean": true
      } ],
      "status": "complete",
      "type": "individual",
      "measure": "https://madie.cms.gov/Measure/CMS144FHIRHFBetaBlockerTherapyforLVSD",
      "period": {
        "start": "2026-01-01",
        "end": "2026-12-31"
      },
      "group": [ {
        "id": "Group_1",
        "population": [ {
          "id": "InitialPopulation_1",
          "code": {
            "coding": [ {
              "system": "http://terminology.hl7.org/CodeSystem/measure-population",
              "code": "initial-population",
              "display": "Initial Population"
            } ]
          },
          "count": 1
        }, {
          "id": "Denominator_1",
          "code": {
            "coding": [ {
              "system": "http://terminology.hl7.org/CodeSystem/measure-population",
              "code": "denominator",
              "display": "Denominator"
            } ]
          },
          "count": 1
        }, {
          "id": "DenominatorExclusion_1",
          "code": {
            "coding": [ {
              "system": "http://terminology.hl7.org/CodeSystem/measure-population",
              "code": "denominator-exclusion",
              "display": "Denominator Exclusion"
            } ]
          },
          "count": 0
        }, {
          "id": "Numerator_1",
          "code": {
            "coding": [ {
              "system": "http://terminology.hl7.org/CodeSystem/measure-population",
              "code": "numerator",
              "display": "Numerator"
            } ]
          },
          "count": 0
        }, {
          "id": "DenominatorException_1",
          "code": {
            "coding": [ {
              "system": "http://terminology.hl7.org/CodeSystem/measure-population",
              "code": "denominator-exception",
              "display": "Denominator Exception"
            } ]
          },
          "count": 1
        } ],
        "measureScore": {
          "value": 1.0
        }
      } ],
      "evaluatedResource": [ {
        "reference": "Patient/a6c8dee0-0110-4814-ae0d-37a2a03b2f72"
      }, {
        "reference": "Encounter/595c4fec-d526-4155-8564-fdf96da14c48"
      }, {
        "reference": "Encounter/95f77a46-7fb8-4e19-a6b6-91a0dcc6872d"
      }, {
        "reference": "Condition/236ba9dc-77c4-4e75-856d-b28cbb5fa721"
      }, {
        "reference": "Condition/e8c5b0eb-2d72-42cd-8c12-0d6e6dba9f3b"
      }, {
        "reference": "Condition/4c49d652-6e79-492d-bddd-4827575034b2"
      } ]
    },
    "request": {
      "method": "PUT",
      "url": "MeasureReport/53fc84cc-ed39-4d57-aee4-d5d7be9f7a7d"
    }
  } ]
}