{
  "resourceType": "Bundle",
  "id": "IPPass-PsychVisitPsychotherapy",
  "type": "transaction",
  "entry": [ {
    "fullUrl": "https://madie.cms.gov/Patient/778e804e-7356-400f-bc36-8d202d775509",
    "resource": {
      "resourceType": "Patient",
      "id": "778e804e-7356-400f-bc36-8d202d775509",
      "meta": {
        "profile": [ "http://hl7.org/fhir/us/qicore/StructureDefinition/qicore-patient" ]
      },
      "extension": [ {
        "url": "http://hl7.org/fhir/us/core/StructureDefinition/us-core-race",
        "extension": [ {
          "url": "ombCategory",
          "valueCoding": {
            "system": "urn:oid:2.16.840.1.113883.6.238",
            "code": "2028-9",
            "display": "Asian",
            "userSelected": true
          }
        }, {
          "url": "text",
          "valueString": "Asian"
        } ]
      }, {
        "url": "http://hl7.org/fhir/us/core/StructureDefinition/us-core-ethnicity",
        "extension": [ {
          "url": "ombCategory",
          "valueCoding": {
            "system": "urn:oid:2.16.840.1.113883.6.238",
            "code": "2135-2",
            "display": "Hispanic or Latino",
            "userSelected": true
          }
        }, {
          "url": "text",
          "valueString": "Hispanic or Latino"
        } ]
      } ],
      "identifier": [ {
        "type": {
          "coding": [ {
            "system": "http://terminology.hl7.org/CodeSystem/v2-0203",
            "code": "MR"
          } ]
        },
        "system": "http://hospital.smarthealthit.org",
        "value": "999999995"
      } ],
      "name": [ {
        "family": "Bertha",
        "given": [ "Betty" ]
      } ],
      "gender": "male",
      "birthDate": "2007-01-01"
    },
    "request": {
      "method": "PUT",
      "url": "Patient/778e804e-7356-400f-bc36-8d202d775509"
    }
  }, {
    "fullUrl": "https://madie.cms.gov/Encounter/46b0991a-5287-4eb6-9117-99b32b889278",
    "resource": {
      "resourceType": "Encounter",
      "id": "46b0991a-5287-4eb6-9117-99b32b889278",
      "meta": {
        "profile": [ "http://hl7.org/fhir/us/qicore/StructureDefinition/qicore-encounter" ]
      },
      "status": "finished",
      "class": {
        "system": "http://terminology.hl7.org/CodeSystem/v3-ActCode",
        "code": "AMB",
        "display": "ambulatory"
      },
      "type": [ {
        "coding": [ {
          "system": "http://www.ama-assn.org/go/cpt",
          "code": "90832",
          "display": "Psychotherapy, 30 minutes with patient"
        } ]
      } ],
      "subject": {
        "reference": "Patient/778e804e-7356-400f-bc36-8d202d775509"
      },
      "period": {
        "start": "2026-01-01T00:00:00.000Z",
        "end": "2026-01-01T01:00:00.000Z"
      }
    },
    "request": {
      "method": "PUT",
      "url": "Encounter/46b0991a-5287-4eb6-9117-99b32b889278"
    }
  }, {
    "fullUrl": "https://madie.cms.gov/MedicationDispense/09c1c4df-d2f2-4c11-9f3a-088a518fff23",
    "resource": {
      "resourceType": "MedicationDispense",
      "id": "09c1c4df-d2f2-4c11-9f3a-088a518fff23",
      "meta": {
        "profile": [ "http://hl7.org/fhir/us/qicore/StructureDefinition/qicore-medicationdispense" ]
      },
      "status": "completed",
      "medicationCodeableConcept": {
        "coding": [ {
          "system": "http://www.nlm.nih.gov/research/umls/rxnorm",
          "code": "1099316",
          "display": "desipramine hydrochloride 75 MG Oral Tablet"
        } ]
      },
      "subject": {
        "reference": "Patient/778e804e-7356-400f-bc36-8d202d775509"
      },
      "daysSupply": {
        "value": 10,
        "system": "http://unitsofmeasure.org",
        "code": "days"
      },
      "whenHandedOver": "2026-01-01T01:00:00.000Z"
    },
    "request": {
      "method": "PUT",
      "url": "MedicationDispense/09c1c4df-d2f2-4c11-9f3a-088a518fff23"
    }
  }, {
    "fullUrl": "https://madie.cms.gov/MedicationDispense/3c3cebe0-abf5-40fe-b08b-0c7166da6032",
    "resource": {
      "resourceType": "MedicationDispense",
      "id": "3c3cebe0-abf5-40fe-b08b-0c7166da6032",
      "meta": {
        "profile": [ "http://hl7.org/fhir/us/qicore/StructureDefinition/qicore-medicationdispense" ]
      },
      "status": "completed",
      "medicationCodeableConcept": {
        "coding": [ {
          "system": "http://www.nlm.nih.gov/research/umls/rxnorm",
          "code": "1099316",
          "display": "desipramine hydrochloride 75 MG Oral Tablet"
        } ]
      },
      "subject": {
        "reference": "Patient/778e804e-7356-400f-bc36-8d202d775509"
      },
      "daysSupply": {
        "value": 10,
        "system": "http://unitsofmeasure.org",
        "code": "days"
      },
      "whenHandedOver": "2026-03-01T01:00:00.000Z"
    },
    "request": {
      "method": "PUT",
      "url": "MedicationDispense/3c3cebe0-abf5-40fe-b08b-0c7166da6032"
    }
  }, {
    "fullUrl": "https://madie.cms.gov/Condition/bc0b2439-20b3-4f86-8e63-ae482885f73e",
    "resource": {
      "resourceType": "Condition",
      "id": "bc0b2439-20b3-4f86-8e63-ae482885f73e",
      "meta": {
        "profile": [ "http://hl7.org/fhir/us/qicore/StructureDefinition/qicore-condition-encounter-diagnosis" ]
      },
      "clinicalStatus": {
        "coding": [ {
          "system": "http://terminology.hl7.org/CodeSystem/condition-clinical",
          "code": "active"
        } ]
      },
      "category": [ {
        "coding": [ {
          "system": "http://terminology.hl7.org/CodeSystem/condition-category",
          "code": "problem-list-item",
          "display": "Problem List Item"
        } ]
      } ],
      "code": {
        "coding": [ {
          "system": "http://snomed.info/sct",
          "code": "15193003",
          "display": "Severe recurrent major depression with psychotic features, mood-incongruent (disorder)"
        } ]
      },
      "subject": {
        "reference": "Patient/778e804e-7356-400f-bc36-8d202d775509"
      },
      "onsetDateTime": "2026-01-01T01:00:00.000Z"
    },
    "request": {
      "method": "PUT",
      "url": "Condition/bc0b2439-20b3-4f86-8e63-ae482885f73e"
    }
  }, {
    "fullUrl": "https://madie.cms.gov/MeasureReport/73eefafa-3ac8-4e7a-bce8-3f6da82bd409",
    "resource": {
      "resourceType": "MeasureReport",
      "id": "73eefafa-3ac8-4e7a-bce8-3f6da82bd409",
      "meta": {
        "profile": [ "http://hl7.org/fhir/us/cqfmeasures/StructureDefinition/test-case-cqfm" ]
      },
      "contained": [ {
        "resourceType": "Parameters",
        "id": "94026128-08b1-4a42-9806-d4a00041ddc3-parameters",
        "parameter": [ {
          "name": "subject",
          "valueString": "778e804e-7356-400f-bc36-8d202d775509"
        } ]
      } ],
      "extension": [ {
        "url": "http://hl7.org/fhir/StructureDefinition/cqf-inputParameters",
        "valueReference": {
          "reference": "#94026128-08b1-4a42-9806-d4a00041ddc3-parameters"
        }
      }, {
        "url": "http://hl7.org/fhir/us/cqfmeasures/StructureDefinition/cqfm-testCaseDescription",
        "valueMarkdown": "Qualifying encounter is Psych Visit Psychotherapy"
      } ],
      "modifierExtension": [ {
        "url": "http://hl7.org/fhir/us/cqfmeasures/StructureDefinition/cqfm-isTestCase",
        "valueBoolean": true
      } ],
      "status": "complete",
      "type": "individual",
      "measure": "https://madie.cms.gov/Measure/CMS128FHIRAntidepressantMedManagement",
      "period": {
        "start": "2026-01-01",
        "end": "2026-12-31"
      },
      "group": [ {
        "id": "Group_1",
        "population": [ {
          "id": "InitialPopulation_1",
          "code": {
            "coding": [ {
              "system": "http://terminology.hl7.org/CodeSystem/measure-population",
              "code": "initial-population",
              "display": "Initial Population"
            } ]
          },
          "count": 1
        }, {
          "id": "Denominator_1",
          "code": {
            "coding": [ {
              "system": "http://terminology.hl7.org/CodeSystem/measure-population",
              "code": "denominator",
              "display": "Denominator"
            } ]
          },
          "count": 1
        }, {
          "id": "DenominatorExclusion_1",
          "code": {
            "coding": [ {
              "system": "http://terminology.hl7.org/CodeSystem/measure-population",
              "code": "denominator-exclusion",
              "display": "Denominator Exclusion"
            } ]
          },
          "count": 0
        }, {
          "id": "Numerator_1",
          "code": {
            "coding": [ {
              "system": "http://terminology.hl7.org/CodeSystem/measure-population",
              "code": "numerator",
              "display": "Numerator"
            } ]
          },
          "count": 0
        } ],
        "measureScore": {
          "value": 1.0
        }
      }, {
        "id": "Group_2",
        "population": [ {
          "id": "InitialPopulation_2",
          "code": {
            "coding": [ {
              "system": "http://terminology.hl7.org/CodeSystem/measure-population",
              "code": "initial-population",
              "display": "Initial Population"
            } ]
          },
          "count": 1
        }, {
          "id": "Denominator_2",
          "code": {
            "coding": [ {
              "system": "http://terminology.hl7.org/CodeSystem/measure-population",
              "code": "denominator",
              "display": "Denominator"
            } ]
          },
          "count": 1
        }, {
          "id": "DenominatorExclusion_2",
          "code": {
            "coding": [ {
              "system": "http://terminology.hl7.org/CodeSystem/measure-population",
              "code": "denominator-exclusion",
              "display": "Denominator Exclusion"
            } ]
          },
          "count": 0
        }, {
          "id": "Numerator_2",
          "code": {
            "coding": [ {
              "system": "http://terminology.hl7.org/CodeSystem/measure-population",
              "code": "numerator",
              "display": "Numerator"
            } ]
          },
          "count": 0
        } ],
        "measureScore": {
          "value": 1.0
        }
      } ],
      "evaluatedResource": [ {
        "reference": "Patient/778e804e-7356-400f-bc36-8d202d775509"
      }, {
        "reference": "Encounter/46b0991a-5287-4eb6-9117-99b32b889278"
      }, {
        "reference": "MedicationDispense/09c1c4df-d2f2-4c11-9f3a-088a518fff23"
      }, {
        "reference": "MedicationDispense/3c3cebe0-abf5-40fe-b08b-0c7166da6032"
      }, {
        "reference": "Condition/bc0b2439-20b3-4f86-8e63-ae482885f73e"
      } ]
    },
    "request": {
      "method": "PUT",
      "url": "MeasureReport/73eefafa-3ac8-4e7a-bce8-3f6da82bd409"
    }
  } ]
}