{"resourceType":"Bundle","id":"tests-a3733b4f-0049-45cf-8b30-3e56ec3d5301-bundle","type":"transaction","entry":[{"fullUrl":"https://madie.cms.gov/Patient/a3733b4f-0049-45cf-8b30-3e56ec3d5301","resource":{"resourceType":"Patient","id":"a3733b4f-0049-45cf-8b30-3e56ec3d5301","meta":{"profile":["http://hl7.org/fhir/us/qicore/StructureDefinition/qicore-patient"]},"extension":[{"url":"http://hl7.org/fhir/us/core/StructureDefinition/us-core-race","extension":[{"url":"ombCategory","valueCoding":{"system":"urn:oid:2.16.840.1.113883.6.238","code":"2028-9","display":"Asian","userSelected":true}},{"url":"text","valueString":"Asian"}]},{"url":"http://hl7.org/fhir/us/core/StructureDefinition/us-core-ethnicity","extension":[{"url":"ombCategory","valueCoding":{"system":"urn:oid:2.16.840.1.113883.6.238","code":"2135-2","display":"Hispanic or Latino","userSelected":true}},{"url":"text","valueString":"Hispanic or Latino"}]}],"identifier":[{"type":{"coding":[{"system":"http://terminology.hl7.org/CodeSystem/v2-0203","code":"MR"}]},"system":"http://hospital.smarthealthit.org","value":"999999995"}],"name":[{"family":"Bertha","given":["Betty"]}],"gender":"male","birthDate":"2007-01-01"},"request":{"method":"PUT","url":"Patient/a3733b4f-0049-45cf-8b30-3e56ec3d5301"}},{"fullUrl":"https://madie.cms.gov/Encounter/07908e5f-7f22-4869-89a9-0ad08f8ead95","resource":{"resourceType":"Encounter","id":"07908e5f-7f22-4869-89a9-0ad08f8ead95","meta":{"profile":["http://hl7.org/fhir/us/qicore/StructureDefinition/qicore-encounter"]},"status":"finished","class":{"system":"http://terminology.hl7.org/CodeSystem/v3-ActCode","code":"AMB","display":"ambulatory"},"type":[{"coding":[{"system":"http://snomed.info/sct","code":"698704008","display":"Home visit for rheumatology service (procedure)"}]}],"subject":{"reference":"Patient/a3733b4f-0049-45cf-8b30-3e56ec3d5301"},"period":{"start":"2026-01-01T00:00:00.000Z","end":"2026-01-01T01:00:00.000Z"}},"request":{"method":"PUT","url":"Encounter/07908e5f-7f22-4869-89a9-0ad08f8ead95"}},{"fullUrl":"https://madie.cms.gov/MedicationDispense/ab0cf95c-bb5c-41e8-9303-d2c8185f36b1","resource":{"resourceType":"MedicationDispense","id":"ab0cf95c-bb5c-41e8-9303-d2c8185f36b1","meta":{"profile":["http://hl7.org/fhir/us/qicore/StructureDefinition/qicore-medicationdispense"]},"status":"completed","medicationCodeableConcept":{"coding":[{"system":"http://www.nlm.nih.gov/research/umls/rxnorm","code":"1099316","display":"desipramine hydrochloride 75 MG Oral Tablet"}]},"subject":{"reference":"Patient/a3733b4f-0049-45cf-8b30-3e56ec3d5301"},"daysSupply":{"value":10,"system":"http://unitsofmeasure.org","code":"days"},"whenHandedOver":"2026-01-01T01:00:00.000Z"},"request":{"method":"PUT","url":"MedicationDispense/ab0cf95c-bb5c-41e8-9303-d2c8185f36b1"}},{"fullUrl":"https://madie.cms.gov/MedicationDispense/dd45827b-495c-4e54-bb80-9bf415ffa585","resource":{"resourceType":"MedicationDispense","id":"dd45827b-495c-4e54-bb80-9bf415ffa585","meta":{"profile":["http://hl7.org/fhir/us/qicore/StructureDefinition/qicore-medicationdispense"]},"status":"completed","medicationCodeableConcept":{"coding":[{"system":"http://www.nlm.nih.gov/research/umls/rxnorm","code":"1099316","display":"desipramine hydrochloride 75 MG Oral Tablet"}]},"subject":{"reference":"Patient/a3733b4f-0049-45cf-8b30-3e56ec3d5301"},"daysSupply":{"value":10,"system":"http://unitsofmeasure.org","code":"days"},"whenHandedOver":"2026-03-01T01:00:00.000Z"},"request":{"method":"PUT","url":"MedicationDispense/dd45827b-495c-4e54-bb80-9bf415ffa585"}},{"fullUrl":"https://madie.cms.gov/Condition/99109ea5-993e-442e-af49-b0a606e18ac3","resource":{"resourceType":"Condition","id":"99109ea5-993e-442e-af49-b0a606e18ac3","meta":{"profile":["http://hl7.org/fhir/us/qicore/StructureDefinition/qicore-condition-encounter-diagnosis"]},"clinicalStatus":{"coding":[{"system":"http://terminology.hl7.org/CodeSystem/condition-clinical","code":"active"}]},"category":[{"coding":[{"system":"http://terminology.hl7.org/CodeSystem/condition-category","code":"problem-list-item","display":"Problem List Item"}]}],"code":{"coding":[{"system":"http://snomed.info/sct","code":"15193003","display":"Severe recurrent major depression with psychotic features, mood-incongruent (disorder)"}]},"subject":{"reference":"Patient/a3733b4f-0049-45cf-8b30-3e56ec3d5301"},"onsetDateTime":"2026-01-01T01:00:00.000Z"},"request":{"method":"PUT","url":"Condition/99109ea5-993e-442e-af49-b0a606e18ac3"}},{"fullUrl":"https://madie.cms.gov/MeasureReport/7edd892c-6af8-4a05-9158-53ad6c725bd1","resource":{"resourceType":"MeasureReport","id":"7edd892c-6af8-4a05-9158-53ad6c725bd1","meta":{"profile":["http://hl7.org/fhir/us/cqfmeasures/StructureDefinition/test-case-cqfm"]},"contained":[{"resourceType":"Parameters","id":"02ea67e3-a9c1-4118-95bf-8edf6ff477db-parameters","parameter":[{"name":"subject","valueString":"a3733b4f-0049-45cf-8b30-3e56ec3d5301"}]}],"extension":[{"url":"http://hl7.org/fhir/StructureDefinition/cqf-inputParameters","valueReference":{"reference":"#02ea67e3-a9c1-4118-95bf-8edf6ff477db-parameters"}},{"url":"http://hl7.org/fhir/us/cqfmeasures/StructureDefinition/cqfm-testCaseDescription","valueMarkdown":"Qualifying encounter is Home Healthcare Services"}],"modifierExtension":[{"url":"http://hl7.org/fhir/us/cqfmeasures/StructureDefinition/cqfm-isTestCase","valueBoolean":true}],"status":"complete","type":"individual","measure":"https://madie.cms.gov/Measure/CMS128FHIRAntidepressantMedManagement","period":{"start":"2026-01-01","end":"2026-12-31"},"group":[{"id":"Group_1","population":[{"id":"InitialPopulation_1","code":{"coding":[{"system":"http://terminology.hl7.org/CodeSystem/measure-population","code":"initial-population","display":"Initial Population"}]},"count":1},{"id":"Denominator_1","code":{"coding":[{"system":"http://terminology.hl7.org/CodeSystem/measure-population","code":"denominator","display":"Denominator"}]},"count":1},{"id":"DenominatorExclusion_1","code":{"coding":[{"system":"http://terminology.hl7.org/CodeSystem/measure-population","code":"denominator-exclusion","display":"Denominator Exclusion"}]},"count":0},{"id":"Numerator_1","code":{"coding":[{"system":"http://terminology.hl7.org/CodeSystem/measure-population","code":"numerator","display":"Numerator"}]},"count":0}],"measureScore":{"value":1.0}},{"id":"Group_2","population":[{"id":"InitialPopulation_2","code":{"coding":[{"system":"http://terminology.hl7.org/CodeSystem/measure-population","code":"initial-population","display":"Initial Population"}]},"count":1},{"id":"Denominator_2","code":{"coding":[{"system":"http://terminology.hl7.org/CodeSystem/measure-population","code":"denominator","display":"Denominator"}]},"count":1},{"id":"DenominatorExclusion_2","code":{"coding":[{"system":"http://terminology.hl7.org/CodeSystem/measure-population","code":"denominator-exclusion","display":"Denominator Exclusion"}]},"count":0},{"id":"Numerator_2","code":{"coding":[{"system":"http://terminology.hl7.org/CodeSystem/measure-population","code":"numerator","display":"Numerator"}]},"count":0}],"measureScore":{"value":1.0}}],"evaluatedResource":[{"reference":"Patient/a3733b4f-0049-45cf-8b30-3e56ec3d5301"},{"reference":"Encounter/07908e5f-7f22-4869-89a9-0ad08f8ead95"},{"reference":"MedicationDispense/ab0cf95c-bb5c-41e8-9303-d2c8185f36b1"},{"reference":"MedicationDispense/dd45827b-495c-4e54-bb80-9bf415ffa585"},{"reference":"Condition/99109ea5-993e-442e-af49-b0a606e18ac3"}]},"request":{"method":"PUT","url":"MeasureReport/7edd892c-6af8-4a05-9158-53ad6c725bd1"}}]}