{
  "resourceType": "Bundle",
  "id": "tests-8942da50-6322-4df7-bd03-21aecbc427a4-bundle",
  "type": "transaction",
  "entry": [ {
    "fullUrl": "https://madie.cms.gov/Procedure/a39755d1-5e3d-4e12-a7ff-e9bc17a9399d",
    "resource": {
      "resourceType": "Procedure",
      "id": "a39755d1-5e3d-4e12-a7ff-e9bc17a9399d",
      "meta": {
        "profile": [ "http://hl7.org/fhir/us/qicore/StructureDefinition/qicore-procedure" ]
      },
      "extension": [ {
        "url": "http://hl7.org/fhir/us/qicore/StructureDefinition/qicore-recorded",
        "valueDateTime": "2026-04-13T10:20:00.000+00:00"
      } ],
      "status": "completed",
      "code": {
        "coding": [ {
          "system": "http://www.cms.gov/Medicare/Coding/ICD10",
          "code": "0BH13EZ",
          "display": "Insertion of Endotracheal Airway into Trachea, Percutaneous Approach"
        } ],
        "text": "Insertion of Endotracheal Airway into Trachea, Percutaneous Approach"
      },
      "subject": {
        "reference": "Patient/8942da50-6322-4df7-bd03-21aecbc427a4"
      },
      "performedPeriod": {
        "start": "2026-04-12T08:00:00.000+00:00",
        "end": "2026-04-13T10:15:00.000+00:00"
      }
    },
    "request": {
      "method": "PUT",
      "url": "Procedure/a39755d1-5e3d-4e12-a7ff-e9bc17a9399d"
    }
  }, {
    "fullUrl": "https://madie.cms.gov/Procedure/f6980b7d-57d1-474b-9ad6-9da6e2355364",
    "resource": {
      "resourceType": "Procedure",
      "id": "f6980b7d-57d1-474b-9ad6-9da6e2355364",
      "meta": {
        "profile": [ "http://hl7.org/fhir/us/qicore/StructureDefinition/qicore-procedure" ]
      },
      "extension": [ {
        "url": "http://hl7.org/fhir/us/qicore/StructureDefinition/qicore-recorded",
        "valueDateTime": "2026-04-11T10:30:00.000+00:00"
      } ],
      "status": "completed",
      "category": {
        "coding": [ {
          "system": "http://snomed.info/sct",
          "code": "18286008",
          "display": "General or neuraxial anesthesia"
        } ]
      },
      "code": {
        "coding": [ {
          "system": "http://snomed.info/sct",
          "code": "112943005",
          "display": "Epidural injection of anesthetic substance, diagnostic, caudal, continuous"
        } ]
      },
      "subject": {
        "reference": "Patient/8942da50-6322-4df7-bd03-21aecbc427a4"
      },
      "performedPeriod": {
        "start": "2026-04-11T08:00:00.000+00:00",
        "end": "2026-04-11T10:15:00.000+00:00"
      }
    },
    "request": {
      "method": "PUT",
      "url": "Procedure/f6980b7d-57d1-474b-9ad6-9da6e2355364"
    }
  }, {
    "fullUrl": "https://madie.cms.gov/Procedure/086d3362-4f00-4a7a-b6ef-e365b8897cc4",
    "resource": {
      "resourceType": "Procedure",
      "id": "086d3362-4f00-4a7a-b6ef-e365b8897cc4",
      "meta": {
        "profile": [ "http://hl7.org/fhir/us/qicore/StructureDefinition/qicore-procedure" ]
      },
      "extension": [ {
        "url": "http://hl7.org/fhir/us/qicore/StructureDefinition/qicore-recorded",
        "valueDateTime": "2026-04-19T10:30:00.000+00:00"
      } ],
      "status": "completed",
      "category": {
        "coding": [ {
          "system": "http://snomed.info/sct",
          "code": "18286008",
          "display": "General or neuraxial anesthesia"
        } ]
      },
      "code": {
        "coding": [ {
          "system": "http://snomed.info/sct",
          "code": "112943005",
          "display": "Epidural injection of anesthetic substance, diagnostic, caudal, continuous"
        } ]
      },
      "subject": {
        "reference": "Patient/8942da50-6322-4df7-bd03-21aecbc427a4"
      },
      "performedPeriod": {
        "start": "2026-04-19T08:00:00.000+00:00",
        "end": "2026-04-19T10:15:00.000+00:00"
      }
    },
    "request": {
      "method": "PUT",
      "url": "Procedure/086d3362-4f00-4a7a-b6ef-e365b8897cc4"
    }
  }, {
    "fullUrl": "https://madie.cms.gov/Encounter/47b5f374-5ba1-4f72-8653-7e5f39d26af9",
    "resource": {
      "resourceType": "Encounter",
      "id": "47b5f374-5ba1-4f72-8653-7e5f39d26af9",
      "meta": {
        "profile": [ "http://hl7.org/fhir/us/qicore/StructureDefinition/qicore-encounter" ]
      },
      "status": "finished",
      "class": {
        "system": "http://terminology.hl7.org/CodeSystem/v3-ActCode",
        "code": "IMP",
        "display": "inpatient encounter"
      },
      "type": [ {
        "coding": [ {
          "system": "http://snomed.info/sct",
          "code": "112689000",
          "display": "Hospital admission, elective, with complete pre-admission work-up"
        } ],
        "text": "Hospital admission, elective, with complete pre-admission work-up"
      } ],
      "priority": {
        "coding": [ {
          "system": "http://snomed.info/sct",
          "code": "103390000"
        } ]
      },
      "subject": {
        "reference": "Patient/8942da50-6322-4df7-bd03-21aecbc427a4"
      },
      "period": {
        "start": "2026-04-10T08:00:00.000+00:00",
        "end": "2026-04-14T08:15:00.000+00:00"
      }
    },
    "request": {
      "method": "PUT",
      "url": "Encounter/47b5f374-5ba1-4f72-8653-7e5f39d26af9"
    }
  }, {
    "fullUrl": "https://madie.cms.gov/Patient/8942da50-6322-4df7-bd03-21aecbc427a4",
    "resource": {
      "resourceType": "Patient",
      "id": "8942da50-6322-4df7-bd03-21aecbc427a4",
      "meta": {
        "profile": [ "http://hl7.org/fhir/us/qicore/StructureDefinition/qicore-patient" ]
      },
      "extension": [ {
        "url": "http://hl7.org/fhir/us/core/StructureDefinition/us-core-race",
        "extension": [ {
          "url": "ombCategory",
          "valueCoding": {
            "system": "urn:oid:2.16.840.1.113883.6.238",
            "code": "1002-5",
            "display": "American Indian or Alaska Native",
            "userSelected": true
          }
        }, {
          "url": "text",
          "valueString": "American Indian or Alaska Native"
        } ]
      }, {
        "url": "http://hl7.org/fhir/us/core/StructureDefinition/us-core-ethnicity",
        "extension": [ {
          "url": "ombCategory",
          "valueCoding": {
            "system": "urn:oid:2.16.840.1.113883.6.238",
            "code": "2186-5",
            "display": "Not Hispanic or Latino",
            "userSelected": true
          }
        }, {
          "url": "text",
          "valueString": "Not Hispanic or Latino"
        } ]
      } ],
      "identifier": [ {
        "type": {
          "coding": [ {
            "system": "http://terminology.hl7.org/CodeSystem/v2-0203",
            "code": "MR"
          } ]
        },
        "system": "https://bonnie-fhir.healthit.gov/",
        "value": "61152a3b98086b7a79cbd7c1"
      } ],
      "active": true,
      "name": [ {
        "use": "usual",
        "family": "DENEXFail",
        "given": [ "2Enc1stMVexc2ndNum" ]
      } ],
      "gender": "male",
      "birthDate": "1966-07-12"
    },
    "request": {
      "method": "PUT",
      "url": "Patient/8942da50-6322-4df7-bd03-21aecbc427a4"
    }
  }, {
    "fullUrl": "https://madie.cms.gov/Procedure/f495e622-b065-4884-a5fa-5b4a6278d89b",
    "resource": {
      "resourceType": "Procedure",
      "id": "f495e622-b065-4884-a5fa-5b4a6278d89b",
      "meta": {
        "profile": [ "http://hl7.org/fhir/us/qicore/StructureDefinition/qicore-procedure" ]
      },
      "extension": [ {
        "url": "http://hl7.org/fhir/us/qicore/StructureDefinition/qicore-recorded",
        "valueDateTime": "2026-04-20T08:10:00.000+00:00"
      } ],
      "status": "completed",
      "code": {
        "coding": [ {
          "system": "http://www.cms.gov/Medicare/Coding/ICD10",
          "code": "0BH13EZ",
          "display": "Insertion of Endotracheal Airway into Trachea, Percutaneous Approach"
        } ],
        "text": "Insertion of Endotracheal Airway into Trachea, Percutaneous Approach"
      },
      "subject": {
        "reference": "Patient/8942da50-6322-4df7-bd03-21aecbc427a4"
      },
      "performedDateTime": "2026-04-20T08:00:00.000+00:00"
    },
    "request": {
      "method": "PUT",
      "url": "Procedure/f495e622-b065-4884-a5fa-5b4a6278d89b"
    }
  }, {
    "fullUrl": "https://madie.cms.gov/Procedure/cd5748c9-50fe-47ac-8054-f706994bd777",
    "resource": {
      "resourceType": "Procedure",
      "id": "cd5748c9-50fe-47ac-8054-f706994bd777",
      "meta": {
        "profile": [ "http://hl7.org/fhir/us/qicore/StructureDefinition/qicore-procedure" ]
      },
      "extension": [ {
        "url": "http://hl7.org/fhir/us/qicore/StructureDefinition/qicore-recorded",
        "valueDateTime": "2026-04-11T06:10:00.000+00:00"
      } ],
      "status": "completed",
      "code": {
        "coding": [ {
          "system": "http://snomed.info/sct",
          "code": "243141005",
          "display": "Mechanically assisted spontaneous ventilation"
        } ],
        "text": "Mechanically assisted spontaneous ventilation"
      },
      "subject": {
        "reference": "Patient/8942da50-6322-4df7-bd03-21aecbc427a4"
      },
      "performedDateTime": "2026-04-11T06:59:00.000+00:00"
    },
    "request": {
      "method": "PUT",
      "url": "Procedure/cd5748c9-50fe-47ac-8054-f706994bd777"
    }
  }, {
    "fullUrl": "https://madie.cms.gov/Encounter/2da524ca-75b2-4296-a443-c585baef79ed",
    "resource": {
      "resourceType": "Encounter",
      "id": "2da524ca-75b2-4296-a443-c585baef79ed",
      "meta": {
        "profile": [ "http://hl7.org/fhir/us/qicore/StructureDefinition/qicore-encounter" ]
      },
      "status": "finished",
      "class": {
        "system": "http://terminology.hl7.org/CodeSystem/v3-ActCode",
        "code": "IMP",
        "display": "inpatient encounter"
      },
      "type": [ {
        "coding": [ {
          "system": "http://snomed.info/sct",
          "code": "112689000",
          "display": "Hospital admission, elective, with complete pre-admission work-up"
        } ],
        "text": "Hospital admission, elective, with complete pre-admission work-up"
      } ],
      "priority": {
        "coding": [ {
          "system": "http://snomed.info/sct",
          "code": "103390000"
        } ]
      },
      "subject": {
        "reference": "Patient/8942da50-6322-4df7-bd03-21aecbc427a4"
      },
      "period": {
        "start": "2026-04-18T08:00:00.000+00:00",
        "end": "2026-04-22T08:15:00.000+00:00"
      },
      "diagnosis": [ {
        "condition": {
          "reference": "Procedure/f495e622-b065-4884-a5fa-5b4a6278d89b"
        },
        "rank": 1
      } ]
    },
    "request": {
      "method": "PUT",
      "url": "Encounter/2da524ca-75b2-4296-a443-c585baef79ed"
    }
  }, {
    "fullUrl": "https://madie.cms.gov/MeasureReport/346b28c6-ae31-4f0d-9461-e66a641f3b29",
    "resource": {
      "resourceType": "MeasureReport",
      "id": "346b28c6-ae31-4f0d-9461-e66a641f3b29",
      "meta": {
        "profile": [ "http://hl7.org/fhir/us/cqfmeasures/StructureDefinition/test-case-cqfm" ]
      },
      "contained": [ {
        "resourceType": "Parameters",
        "id": "3465d1e7-6431-4eca-ae73-069922aec0ec-parameters",
        "parameter": [ {
          "name": "subject",
          "valueString": "8942da50-6322-4df7-bd03-21aecbc427a4"
        } ]
      } ],
      "extension": [ {
        "url": "http://hl7.org/fhir/StructureDefinition/cqf-inputParameters",
        "valueReference": {
          "reference": "#3465d1e7-6431-4eca-ae73-069922aec0ec-parameters"
        }
      }, {
        "url": "http://hl7.org/fhir/us/cqfmeasures/StructureDefinition/cqfm-testCaseDescription",
        "valueMarkdown": "1st encounter excluded - MV starts more than 1 hr prior to first proc. 2nd encounter meets numerator 1 intubation outside of procedural area. "
      } ],
      "modifierExtension": [ {
        "url": "http://hl7.org/fhir/us/cqfmeasures/StructureDefinition/cqfm-isTestCase",
        "valueBoolean": true
      } ],
      "status": "complete",
      "type": "individual",
      "measure": "https://madie.cms.gov/Measure/CMS1218FHIRHHRF",
      "period": {
        "start": "2026-01-01",
        "end": "2026-12-31"
      },
      "group": [ {
        "id": "Group_1",
        "population": [ {
          "id": "InitialPopulation_1",
          "code": {
            "coding": [ {
              "system": "http://terminology.hl7.org/CodeSystem/measure-population",
              "code": "initial-population",
              "display": "Initial Population"
            } ]
          },
          "count": 2
        }, {
          "id": "Denominator_1",
          "code": {
            "coding": [ {
              "system": "http://terminology.hl7.org/CodeSystem/measure-population",
              "code": "denominator",
              "display": "Denominator"
            } ]
          },
          "count": 2
        }, {
          "id": "DenominatorExclusion_1",
          "code": {
            "coding": [ {
              "system": "http://terminology.hl7.org/CodeSystem/measure-population",
              "code": "denominator-exclusion",
              "display": "Denominator Exclusion"
            } ]
          },
          "count": 1
        }, {
          "id": "Numerator_1",
          "code": {
            "coding": [ {
              "system": "http://terminology.hl7.org/CodeSystem/measure-population",
              "code": "numerator",
              "display": "Numerator"
            } ]
          },
          "count": 1
        } ],
        "measureScore": {
          "value": 0.0
        }
      } ],
      "evaluatedResource": [ {
        "reference": "Procedure/a39755d1-5e3d-4e12-a7ff-e9bc17a9399d"
      }, {
        "reference": "Procedure/f6980b7d-57d1-474b-9ad6-9da6e2355364"
      }, {
        "reference": "Procedure/086d3362-4f00-4a7a-b6ef-e365b8897cc4"
      }, {
        "reference": "Encounter/47b5f374-5ba1-4f72-8653-7e5f39d26af9"
      }, {
        "reference": "Patient/8942da50-6322-4df7-bd03-21aecbc427a4"
      }, {
        "reference": "Procedure/f495e622-b065-4884-a5fa-5b4a6278d89b"
      }, {
        "reference": "Procedure/cd5748c9-50fe-47ac-8054-f706994bd777"
      }, {
        "reference": "Encounter/2da524ca-75b2-4296-a443-c585baef79ed"
      } ]
    },
    "request": {
      "method": "PUT",
      "url": "MeasureReport/346b28c6-ae31-4f0d-9461-e66a641f3b29"
    }
  } ]
}