{
  "resourceType": "Bundle",
  "id": "61095b0998086b53805591b5",
  "type": "transaction",
  "entry": [ {
    "fullUrl": "https://madie.cms.gov/Patient/aa9ec890-0dca-4b77-b488-f1dda2f32cbc",
    "resource": {
      "resourceType": "Patient",
      "id": "aa9ec890-0dca-4b77-b488-f1dda2f32cbc",
      "meta": {
        "profile": [ "http://hl7.org/fhir/us/qicore/StructureDefinition/qicore-patient" ]
      },
      "extension": [ {
        "url": "http://hl7.org/fhir/us/core/StructureDefinition/us-core-race",
        "extension": [ {
          "url": "ombCategory",
          "valueCoding": {
            "system": "urn:oid:2.16.840.1.113883.6.238",
            "code": "1002-5",
            "display": "American Indian or Alaska Native",
            "userSelected": true
          }
        }, {
          "url": "text",
          "valueString": "American Indian or Alaska Native"
        } ]
      }, {
        "url": "http://hl7.org/fhir/us/core/StructureDefinition/us-core-ethnicity",
        "extension": [ {
          "url": "ombCategory",
          "valueCoding": {
            "system": "urn:oid:2.16.840.1.113883.6.238",
            "code": "2135-2",
            "display": "Hispanic or Latino",
            "userSelected": true
          }
        }, {
          "url": "text",
          "valueString": "Hispanic or Latino"
        } ]
      } ],
      "identifier": [ {
        "type": {
          "coding": [ {
            "system": "http://terminology.hl7.org/CodeSystem/v2-0203",
            "code": "MR"
          } ]
        },
        "system": "https://bonnie-fhir.healthit.gov/",
        "value": "61095b0998086b53805591b5"
      } ],
      "active": true,
      "name": [ {
        "use": "usual",
        "family": "DENEXPASS",
        "given": [ "DisordersOverlapsCatSurg" ]
      } ],
      "gender": "female",
      "birthDate": "1996-01-01"
    },
    "request": {
      "method": "PUT",
      "url": "Patient/aa9ec890-0dca-4b77-b488-f1dda2f32cbc"
    }
  }, {
    "fullUrl": "https://madie.cms.gov/Observation/ff53f1c3-eab9-4fb2-89a7-91d6e8f8533a",
    "resource": {
      "resourceType": "Observation",
      "id": "ff53f1c3-eab9-4fb2-89a7-91d6e8f8533a",
      "meta": {
        "profile": [ "http://hl7.org/fhir/us/qicore/StructureDefinition/qicore-observation-clinical-result" ]
      },
      "status": "final",
      "category": [ {
        "coding": [ {
          "system": "http://terminology.hl7.org/CodeSystem/observation-category",
          "code": "exam",
          "display": "Exam"
        } ]
      } ],
      "code": {
        "coding": [ {
          "system": "http://snomed.info/sct",
          "code": "419775003"
        } ]
      },
      "subject": {
        "reference": "Patient/aa9ec890-0dca-4b77-b488-f1dda2f32cbc"
      },
      "effectivePeriod": {
        "start": "2026-03-13T09:00:00+00:00",
        "end": "2026-03-13T09:30:00+00:00"
      }
    },
    "request": {
      "method": "PUT",
      "url": "Observation/ff53f1c3-eab9-4fb2-89a7-91d6e8f8533a"
    }
  }, {
    "fullUrl": "https://madie.cms.gov/Procedure/77370014-3728-420f-a604-f7d52a600826",
    "resource": {
      "resourceType": "Procedure",
      "id": "77370014-3728-420f-a604-f7d52a600826",
      "meta": {
        "profile": [ "http://hl7.org/fhir/us/qicore/StructureDefinition/qicore-procedure" ]
      },
      "extension": [ {
        "url": "http://hl7.org/fhir/us/qicore/StructureDefinition/qicore-recorded",
        "valueDateTime": "2026-03-05T09:35:00-04:00"
      } ],
      "status": "completed",
      "code": {
        "coding": [ {
          "system": "http://snomed.info/sct",
          "code": "84149000"
        } ]
      },
      "subject": {
        "reference": "Patient/aa9ec890-0dca-4b77-b488-f1dda2f32cbc"
      },
      "performedPeriod": {
        "start": "2026-03-05T09:20:00-04:00",
        "end": "2026-04-05T10:30:00-04:00"
      }
    },
    "request": {
      "method": "PUT",
      "url": "Procedure/77370014-3728-420f-a604-f7d52a600826"
    }
  }, {
    "fullUrl": "https://madie.cms.gov/Condition/9dc7d645-3261-4359-8bad-1aec8831ecf1",
    "resource": {
      "resourceType": "Condition",
      "id": "9dc7d645-3261-4359-8bad-1aec8831ecf1",
      "meta": {
        "profile": [ "http://hl7.org/fhir/us/qicore/StructureDefinition/qicore-condition-encounter-diagnosis" ]
      },
      "clinicalStatus": {
        "coding": [ {
          "system": "http://terminology.hl7.org/CodeSystem/condition-clinical",
          "code": "active",
          "display": "active",
          "userSelected": true
        } ]
      },
      "category": [ {
        "coding": [ {
          "system": "http://terminology.hl7.org/CodeSystem/condition-clinical",
          "code": "active",
          "display": "active",
          "userSelected": true
        } ]
      } ],
      "code": {
        "coding": [ {
          "system": "http://hl7.org/fhir/sid/icd-10-cm",
          "code": "H16.013",
          "userSelected": true
        }, {
          "system": "http://hl7.org/fhir/sid/icd-10-cm",
          "code": "H17.13",
          "userSelected": true
        }, {
          "system": "http://hl7.org/fhir/sid/icd-10-cm",
          "code": "H47.013",
          "userSelected": true
        }, {
          "system": "http://hl7.org/fhir/sid/icd-10-cm",
          "code": "H21.1X3",
          "userSelected": true
        }, {
          "system": "http://snomed.info/sct",
          "code": "67733005",
          "userSelected": true
        } ]
      },
      "subject": {
        "reference": "Patient/aa9ec890-0dca-4b77-b488-f1dda2f32cbc"
      },
      "onsetDateTime": "2024-11-01T08:00:00.000+00:00"
    },
    "request": {
      "method": "PUT",
      "url": "Condition/9dc7d645-3261-4359-8bad-1aec8831ecf1"
    }
  }, {
    "fullUrl": "https://madie.cms.gov/Coverage/d680fb6c-166e-4a47-9e46-2e5eccb78841",
    "resource": {
      "resourceType": "Coverage",
      "id": "d680fb6c-166e-4a47-9e46-2e5eccb78841",
      "meta": {
        "profile": [ "http://hl7.org/fhir/us/qicore/StructureDefinition/qicore-coverage" ]
      },
      "status": "active",
      "beneficiary": {
        "reference": "Patient/aa9ec890-0dca-4b77-b488-f1dda2f32cbc"
      },
      "payor": [ {
        "reference": "Organization/fa67e57b-86a0-483d-b15b-dd67a65a2978"
      } ]
    },
    "request": {
      "method": "PUT",
      "url": "Coverage/d680fb6c-166e-4a47-9e46-2e5eccb78841"
    }
  }, {
    "fullUrl": "https://madie.cms.gov/Organization/fa67e57b-86a0-483d-b15b-dd67a65a2978",
    "resource": {
      "resourceType": "Organization",
      "id": "fa67e57b-86a0-483d-b15b-dd67a65a2978",
      "meta": {
        "profile": [ "http://hl7.org/fhir/us/qicore/StructureDefinition/qicore-organization" ]
      },
      "identifier": [ {
        "use": "temp",
        "system": "urn:oid:2.16.840.1.113883.4.4",
        "value": "21-3259825"
      } ],
      "active": true,
      "type": [ {
        "coding": [ {
          "system": "http://terminology.hl7.org/CodeSystem/organization-type",
          "code": "pay",
          "display": "Payer"
        } ]
      } ],
      "name": "Blue Cross Blue Shield of Texas",
      "telecom": [ {
        "system": "phone",
        "value": "(+1) 972-766-6900"
      } ],
      "address": [ {
        "use": "billing",
        "type": "postal",
        "line": [ "P.O. Box 660044" ],
        "city": "Dallas",
        "state": "TX",
        "postalCode": "75266-0044",
        "country": "USA"
      } ]
    },
    "request": {
      "method": "PUT",
      "url": "Organization/fa67e57b-86a0-483d-b15b-dd67a65a2978"
    }
  }, {
    "fullUrl": "https://madie.cms.gov/Practitioner/40a15044-6224-42e6-8e86-5c72b79d6bd4",
    "resource": {
      "resourceType": "Practitioner",
      "id": "40a15044-6224-42e6-8e86-5c72b79d6bd4",
      "meta": {
        "profile": [ "http://hl7.org/fhir/us/qicore/StructureDefinition/qicore-practitioner" ]
      },
      "identifier": [ {
        "system": "http://hl7.org/fhir/sid/us-npi",
        "value": "123456"
      } ],
      "name": [ {
        "family": "Evil",
        "prefix": [ "Dr" ]
      } ]
    },
    "request": {
      "method": "PUT",
      "url": "Practitioner/40a15044-6224-42e6-8e86-5c72b79d6bd4"
    }
  }, {
    "fullUrl": "https://madie.cms.gov/MeasureReport/f33094bd-4211-47cd-810e-932a27c900d5",
    "resource": {
      "resourceType": "MeasureReport",
      "id": "f33094bd-4211-47cd-810e-932a27c900d5",
      "meta": {
        "profile": [ "http://hl7.org/fhir/us/cqfmeasures/StructureDefinition/test-case-cqfm" ]
      },
      "contained": [ {
        "resourceType": "Parameters",
        "id": "7ac7db10-76e9-4326-a402-b678646aca6a-parameters",
        "parameter": [ {
          "name": "subject",
          "valueString": "aa9ec890-0dca-4b77-b488-f1dda2f32cbc"
        } ]
      } ],
      "extension": [ {
        "url": "http://hl7.org/fhir/StructureDefinition/cqf-inputParameters",
        "valueReference": {
          "reference": "#7ac7db10-76e9-4326-a402-b678646aca6a-parameters"
        }
      }, {
        "url": "http://hl7.org/fhir/us/cqfmeasures/StructureDefinition/cqfm-testCaseDescription",
        "valueMarkdown": "Patient with disorders of cornea and nerve overlapping cataract surgery"
      } ],
      "modifierExtension": [ {
        "url": "http://hl7.org/fhir/us/cqfmeasures/StructureDefinition/cqfm-isTestCase",
        "valueBoolean": true
      } ],
      "status": "complete",
      "type": "individual",
      "measure": "https://madie.cms.gov/Measure/CMS133FHIRCataracts2040BCVAwithin90Days",
      "period": {
        "start": "2026-01-01",
        "end": "2026-12-31"
      },
      "group": [ {
        "id": "Group_1",
        "population": [ {
          "id": "InitialPopulation_1",
          "code": {
            "coding": [ {
              "system": "http://terminology.hl7.org/CodeSystem/measure-population",
              "code": "initial-population",
              "display": "Initial Population"
            } ]
          },
          "count": 1
        }, {
          "id": "Denominator_1",
          "code": {
            "coding": [ {
              "system": "http://terminology.hl7.org/CodeSystem/measure-population",
              "code": "denominator",
              "display": "Denominator"
            } ]
          },
          "count": 1
        }, {
          "id": "DenominatorExclusion_1",
          "code": {
            "coding": [ {
              "system": "http://terminology.hl7.org/CodeSystem/measure-population",
              "code": "denominator-exclusion",
              "display": "Denominator Exclusion"
            } ]
          },
          "count": 1
        }, {
          "id": "Numerator_1",
          "code": {
            "coding": [ {
              "system": "http://terminology.hl7.org/CodeSystem/measure-population",
              "code": "numerator",
              "display": "Numerator"
            } ]
          },
          "count": 0
        } ],
        "measureScore": {
          "value": 0.0
        }
      } ],
      "evaluatedResource": [ {
        "reference": "Patient/aa9ec890-0dca-4b77-b488-f1dda2f32cbc"
      }, {
        "reference": "Observation/ff53f1c3-eab9-4fb2-89a7-91d6e8f8533a"
      }, {
        "reference": "Procedure/77370014-3728-420f-a604-f7d52a600826"
      }, {
        "reference": "Condition/9dc7d645-3261-4359-8bad-1aec8831ecf1"
      }, {
        "reference": "Coverage/d680fb6c-166e-4a47-9e46-2e5eccb78841"
      }, {
        "reference": "Organization/fa67e57b-86a0-483d-b15b-dd67a65a2978"
      }, {
        "reference": "Practitioner/40a15044-6224-42e6-8e86-5c72b79d6bd4"
      } ]
    },
    "request": {
      "method": "PUT",
      "url": "MeasureReport/f33094bd-4211-47cd-810e-932a27c900d5"
    }
  } ]
}