{
  "resourceType": "Bundle",
  "id": "63233350414ba67d4e1d1c2f",
  "type": "transaction",
  "entry": [ {
    "fullUrl": "https://madie.cms.gov/Patient/cdb80ca8-b110-436d-83e8-b339ebc09a44",
    "resource": {
      "resourceType": "Patient",
      "id": "cdb80ca8-b110-436d-83e8-b339ebc09a44",
      "meta": {
        "profile": [ "http://hl7.org/fhir/us/qicore/StructureDefinition/qicore-patient" ]
      },
      "extension": [ {
        "url": "http://hl7.org/fhir/us/core/StructureDefinition/us-core-race",
        "extension": [ {
          "url": "ombCategory",
          "valueCoding": {
            "system": "urn:oid:2.16.840.1.113883.6.238",
            "code": "2028-9",
            "display": "Asian",
            "userSelected": true
          }
        }, {
          "url": "text",
          "valueString": "Asian"
        }, {
          "url": "detailed",
          "valueCoding": {
            "system": "urn:oid:2.16.840.1.113883.6.238",
            "code": "1653-5",
            "display": "Tohono O'Odham"
          }
        } ]
      }, {
        "url": "http://hl7.org/fhir/us/core/StructureDefinition/us-core-ethnicity",
        "extension": [ {
          "url": "ombCategory",
          "valueCoding": {
            "system": "urn:oid:2.16.840.1.113883.6.238",
            "code": "2186-5",
            "display": "Not Hispanic or Latino",
            "userSelected": true
          }
        }, {
          "url": "text",
          "valueString": "Not Hispanic or Latino"
        }, {
          "url": "detailed",
          "valueCoding": {
            "system": "urn:oid:2.16.840.1.113883.6.238",
            "code": "2153-5",
            "display": "Mexican American Indian"
          }
        } ]
      } ],
      "identifier": [ {
        "type": {
          "coding": [ {
            "system": "http://terminology.hl7.org/CodeSystem/v2-0203",
            "code": "MR"
          } ]
        },
        "system": "https://bonnie-fhir.healthit.gov/",
        "value": "63233350414ba67d4e1d1c2f"
      } ],
      "name": [ {
        "family": "DENEXPass",
        "given": [ "SickleDisease" ]
      } ],
      "gender": "female",
      "birthDate": "1944-02-01"
    },
    "request": {
      "method": "PUT",
      "url": "Patient/cdb80ca8-b110-436d-83e8-b339ebc09a44"
    }
  }, {
    "fullUrl": "https://madie.cms.gov/Encounter/81a30196-0d83-40a5-b652-3b53778b9038",
    "resource": {
      "resourceType": "Encounter",
      "id": "81a30196-0d83-40a5-b652-3b53778b9038",
      "meta": {
        "profile": [ "http://hl7.org/fhir/us/qicore/StructureDefinition/qicore-encounter" ]
      },
      "status": "finished",
      "class": {
        "system": "http://terminology.hl7.org/CodeSystem/v3-ActCode",
        "code": "AMB",
        "display": "ambulatory"
      },
      "type": [ {
        "coding": [ {
          "system": "http://snomed.info/sct",
          "version": "2022-03",
          "code": "183452005",
          "display": "Emergency hospital admission (procedure)",
          "userSelected": true
        } ]
      } ],
      "subject": {
        "reference": "Patient/cdb80ca8-b110-436d-83e8-b339ebc09a44"
      },
      "period": {
        "start": "2026-01-01T11:45:00.000+00:00",
        "end": "2026-01-03T11:59:00.000+00:00"
      }
    },
    "request": {
      "method": "PUT",
      "url": "Encounter/81a30196-0d83-40a5-b652-3b53778b9038"
    }
  }, {
    "fullUrl": "https://madie.cms.gov/MedicationRequest/1c5d2cb1-d000-4180-9f5e-91c3ea769360",
    "resource": {
      "resourceType": "MedicationRequest",
      "id": "1c5d2cb1-d000-4180-9f5e-91c3ea769360",
      "meta": {
        "profile": [ "http://hl7.org/fhir/us/qicore/StructureDefinition/qicore-medicationrequest" ]
      },
      "status": "completed",
      "intent": "order",
      "category": [ {
        "coding": [ {
          "system": "http://terminology.hl7.org/CodeSystem/medicationrequest-category",
          "code": "discharge",
          "display": "Discharge",
          "userSelected": true
        } ]
      } ],
      "doNotPerform": false,
      "medicationCodeableConcept": {
        "coding": [ {
          "system": "http://www.nlm.nih.gov/research/umls/rxnorm",
          "code": "2103192",
          "display": "sufentanil 0.03 MG Sublingual Tablet",
          "userSelected": true
        } ]
      },
      "subject": {
        "reference": "Patient/cdb80ca8-b110-436d-83e8-b339ebc09a44"
      },
      "authoredOn": "2026-01-03T11:59:00.000+00:00",
      "requester": {
        "reference": "Practitioner/1cfba9b2-1dde-484d-ade4-1c571ef3f758"
      }
    },
    "request": {
      "method": "PUT",
      "url": "MedicationRequest/1c5d2cb1-d000-4180-9f5e-91c3ea769360"
    }
  }, {
    "fullUrl": "https://madie.cms.gov/Practitioner/1cfba9b2-1dde-484d-ade4-1c571ef3f758",
    "resource": {
      "resourceType": "Practitioner",
      "id": "1cfba9b2-1dde-484d-ade4-1c571ef3f758",
      "meta": {
        "profile": [ "http://hl7.org/fhir/us/qicore/StructureDefinition/qicore-practitioner" ]
      },
      "identifier": [ {
        "system": "http://hl7.org/fhir/sid/us-npi",
        "value": "9999999896"
      } ],
      "active": true,
      "name": [ {
        "family": "Ramires",
        "given": [ "Alma" ],
        "prefix": [ "Dr" ]
      } ],
      "address": [ {
        "use": "home",
        "line": [ "534 Erewhon St" ],
        "city": "Netherville",
        "state": "IN",
        "postalCode": "46131"
      } ],
      "qualification": [ {
        "identifier": [ {
          "system": "http://goodhealth.org/prIdentifier",
          "value": "12345"
        } ],
        "code": {
          "coding": [ {
            "system": "http://terminology.hl7.org/CodeSystem/v2-0360|2.7",
            "code": "BS",
            "display": "Bachelor of Science"
          } ],
          "text": "Bachelor of Science"
        },
        "period": {
          "start": "1995"
        },
        "issuer": {
          "display": "Example University"
        }
      } ]
    },
    "request": {
      "method": "PUT",
      "url": "Practitioner/1cfba9b2-1dde-484d-ade4-1c571ef3f758"
    }
  }, {
    "fullUrl": "https://madie.cms.gov/Condition/cebe0988-491e-4080-b86a-d75f20d0efd7",
    "resource": {
      "resourceType": "Condition",
      "id": "cebe0988-491e-4080-b86a-d75f20d0efd7",
      "meta": {
        "profile": [ "http://hl7.org/fhir/us/qicore/StructureDefinition/qicore-condition-problems-health-concerns" ]
      },
      "clinicalStatus": {
        "coding": [ {
          "system": "http://terminology.hl7.org/CodeSystem/condition-clinical",
          "code": "active",
          "display": "active",
          "userSelected": true
        } ]
      },
      "verificationStatus": {
        "coding": [ {
          "system": "http://hl7.org/fhir/ValueSet/condition-ver-status",
          "code": "confirmed",
          "display": "confirmed",
          "userSelected": true
        } ]
      },
      "category": [ {
        "coding": [ {
          "system": "http://terminology.hl7.org/CodeSystem/condition-category",
          "code": "problem-list-item",
          "display": "Problem List Item"
        }, {
          "system": "http://snomed.info/sct",
          "code": "439401001",
          "display": "Diagnosis"
        } ]
      } ],
      "code": {
        "coding": [ {
          "system": "http://snomed.info/sct",
          "version": "2022-03",
          "code": "417517009",
          "display": "Sickle cell-hemoglobin C disease with crisis (disorder)",
          "userSelected": true
        } ]
      },
      "subject": {
        "reference": "Patient/cdb80ca8-b110-436d-83e8-b339ebc09a44"
      },
      "onsetPeriod": {
        "start": "2025-12-31T08:00:00.000+00:00"
      }
    },
    "request": {
      "method": "PUT",
      "url": "Condition/cebe0988-491e-4080-b86a-d75f20d0efd7"
    }
  }, {
    "fullUrl": "https://madie.cms.gov/Coverage/1dc0a783-8ba6-4563-9679-f05cc12b7794",
    "resource": {
      "resourceType": "Coverage",
      "id": "1dc0a783-8ba6-4563-9679-f05cc12b7794",
      "meta": {
        "profile": [ "http://hl7.org/fhir/us/qicore/StructureDefinition/qicore-coverage" ]
      },
      "status": "active",
      "subscriberId": "523435",
      "beneficiary": {
        "reference": "Patient/cdb80ca8-b110-436d-83e8-b339ebc09a44"
      },
      "relationship": {
        "coding": [ {
          "system": "http://terminology.hl7.org/CodeSystem/subscriber-relationship",
          "code": "self"
        } ]
      },
      "payor": [ {
        "reference": "Organization/ce6fe834-e83f-4186-bcba-9ddc6f7b193b"
      } ]
    },
    "request": {
      "method": "PUT",
      "url": "Coverage/1dc0a783-8ba6-4563-9679-f05cc12b7794"
    }
  }, {
    "fullUrl": "https://madie.cms.gov/Organization/ce6fe834-e83f-4186-bcba-9ddc6f7b193b",
    "resource": {
      "resourceType": "Organization",
      "id": "ce6fe834-e83f-4186-bcba-9ddc6f7b193b",
      "meta": {
        "profile": [ "http://hl7.org/fhir/us/qicore/StructureDefinition/qicore-organization" ]
      },
      "identifier": [ {
        "use": "temp",
        "system": "urn:oid:2.16.840.1.113883.4.4",
        "value": "21-3259825"
      } ],
      "active": true,
      "type": [ {
        "coding": [ {
          "system": "http://terminology.hl7.org/CodeSystem/organization-type",
          "code": "pay",
          "display": "Payer"
        } ]
      } ],
      "name": "Blue Cross Blue Shield of Texas",
      "telecom": [ {
        "system": "phone",
        "value": "(+1) 972-766-6900"
      } ],
      "address": [ {
        "use": "billing",
        "type": "postal",
        "line": [ "P.O. Box 660044" ],
        "city": "Dallas",
        "state": "TX",
        "postalCode": "75266-0044",
        "country": "USA"
      } ]
    },
    "request": {
      "method": "PUT",
      "url": "Organization/ce6fe834-e83f-4186-bcba-9ddc6f7b193b"
    }
  }, {
    "fullUrl": "https://madie.cms.gov/MeasureReport/b56f354e-7868-48b0-934d-da5f1850e10f",
    "resource": {
      "resourceType": "MeasureReport",
      "id": "b56f354e-7868-48b0-934d-da5f1850e10f",
      "meta": {
        "profile": [ "http://hl7.org/fhir/us/cqfmeasures/StructureDefinition/test-case-cqfm" ]
      },
      "contained": [ {
        "resourceType": "Parameters",
        "id": "4e10d8c3-d423-4cb1-837d-abf3611b3edb-parameters",
        "parameter": [ {
          "name": "subject",
          "valueString": "cdb80ca8-b110-436d-83e8-b339ebc09a44"
        } ]
      } ],
      "extension": [ {
        "url": "http://hl7.org/fhir/StructureDefinition/cqf-inputParameters",
        "valueReference": {
          "reference": "#4e10d8c3-d423-4cb1-837d-abf3611b3edb-parameters"
        }
      }, {
        "url": "http://hl7.org/fhir/us/cqfmeasures/StructureDefinition/cqfm-testCaseDescription",
        "valueMarkdown": "Enc 1st day of MP, pt has dx of sickle cell disease, has opioid at discharge"
      } ],
      "modifierExtension": [ {
        "url": "http://hl7.org/fhir/us/cqfmeasures/StructureDefinition/cqfm-isTestCase",
        "valueBoolean": true
      } ],
      "status": "complete",
      "type": "individual",
      "measure": "https://madie.cms.gov/Measure/CMS506FHIRSafeUseofOpioids",
      "period": {
        "start": "2026-01-01",
        "end": "2026-12-31"
      },
      "group": [ {
        "id": "Group_1",
        "population": [ {
          "id": "InitialPopulation_1",
          "code": {
            "coding": [ {
              "system": "http://terminology.hl7.org/CodeSystem/measure-population",
              "code": "initial-population",
              "display": "Initial Population"
            } ]
          },
          "count": 1
        }, {
          "id": "Denominator_1",
          "code": {
            "coding": [ {
              "system": "http://terminology.hl7.org/CodeSystem/measure-population",
              "code": "denominator",
              "display": "Denominator"
            } ]
          },
          "count": 1
        }, {
          "id": "DenominatorExclusion_1",
          "code": {
            "coding": [ {
              "system": "http://terminology.hl7.org/CodeSystem/measure-population",
              "code": "denominator-exclusion",
              "display": "Denominator Exclusion"
            } ]
          },
          "count": 1
        }, {
          "id": "Numerator_1",
          "code": {
            "coding": [ {
              "system": "http://terminology.hl7.org/CodeSystem/measure-population",
              "code": "numerator",
              "display": "Numerator"
            } ]
          },
          "count": 0
        } ],
        "measureScore": {
          "value": 0.0
        }
      } ],
      "evaluatedResource": [ {
        "reference": "Patient/cdb80ca8-b110-436d-83e8-b339ebc09a44"
      }, {
        "reference": "Encounter/81a30196-0d83-40a5-b652-3b53778b9038"
      }, {
        "reference": "MedicationRequest/1c5d2cb1-d000-4180-9f5e-91c3ea769360"
      }, {
        "reference": "Practitioner/1cfba9b2-1dde-484d-ade4-1c571ef3f758"
      }, {
        "reference": "Condition/cebe0988-491e-4080-b86a-d75f20d0efd7"
      }, {
        "reference": "Coverage/1dc0a783-8ba6-4563-9679-f05cc12b7794"
      }, {
        "reference": "Organization/ce6fe834-e83f-4186-bcba-9ddc6f7b193b"
      } ]
    },
    "request": {
      "method": "PUT",
      "url": "MeasureReport/b56f354e-7868-48b0-934d-da5f1850e10f"
    }
  } ]
}