{
  "resourceType": "Bundle",
  "id": "60ec6943bc72857e238afa20",
  "type": "transaction",
  "entry": [ {
    "fullUrl": "https://madie.cms.gov/Patient/4788274e-9b09-45fa-a9a7-d97237a40f58",
    "resource": {
      "resourceType": "Patient",
      "id": "4788274e-9b09-45fa-a9a7-d97237a40f58",
      "meta": {
        "profile": [ "http://hl7.org/fhir/us/qicore/StructureDefinition/qicore-patient" ]
      },
      "extension": [ {
        "url": "http://hl7.org/fhir/us/core/StructureDefinition/us-core-race",
        "extension": [ {
          "url": "ombCategory",
          "valueCoding": {
            "system": "urn:oid:2.16.840.1.113883.6.238",
            "code": "1002-5",
            "display": "American Indian or Alaska Native",
            "userSelected": true
          }
        }, {
          "url": "text",
          "valueString": "American Indian or Alaska Native"
        } ]
      }, {
        "url": "http://hl7.org/fhir/us/core/StructureDefinition/us-core-ethnicity",
        "extension": [ {
          "url": "ombCategory",
          "valueCoding": {
            "system": "urn:oid:2.16.840.1.113883.6.238",
            "code": "2186-5",
            "display": "Not Hispanic or Latino",
            "userSelected": true
          }
        }, {
          "url": "text",
          "valueString": "Not Hispanic or Latino"
        } ]
      } ],
      "identifier": [ {
        "type": {
          "coding": [ {
            "system": "http://terminology.hl7.org/CodeSystem/v2-0203",
            "code": "MR"
          } ]
        },
        "system": "https://bonnie-fhir.healthit.gov/",
        "value": "60ec6943bc72857e238afa20"
      } ],
      "name": [ {
        "family": "DENEXFail",
        "given": [ "ScleritisAfterCatSurg" ]
      } ],
      "gender": "male",
      "birthDate": "1969-06-15"
    },
    "request": {
      "method": "PUT",
      "url": "Patient/4788274e-9b09-45fa-a9a7-d97237a40f58"
    }
  }, {
    "fullUrl": "https://madie.cms.gov/Condition/175473cf-71ff-4d63-868c-72047b0eab6c",
    "resource": {
      "resourceType": "Condition",
      "id": "175473cf-71ff-4d63-868c-72047b0eab6c",
      "meta": {
        "profile": [ "http://hl7.org/fhir/us/qicore/StructureDefinition/qicore-condition-problems-health-concerns" ]
      },
      "category": [ {
        "coding": [ {
          "system": "http://terminology.hl7.org/CodeSystem/condition-category",
          "code": "problem-list-item",
          "display": "Problem List Item"
        } ]
      } ],
      "code": {
        "coding": [ {
          "system": "http://snomed.info/sct",
          "version": "http://snomed.info/sct/731000124108/version/20230301",
          "code": "78370002"
        } ]
      },
      "subject": {
        "reference": "Patient/4788274e-9b09-45fa-a9a7-d97237a40f58"
      },
      "recordedDate": "2026-08-12T02:00:00.000+00:00"
    },
    "request": {
      "method": "PUT",
      "url": "Condition/175473cf-71ff-4d63-868c-72047b0eab6c"
    }
  }, {
    "fullUrl": "https://madie.cms.gov/Procedure/d1b7bdbd-4f59-4666-977a-8c9fff3d9731",
    "resource": {
      "resourceType": "Procedure",
      "id": "d1b7bdbd-4f59-4666-977a-8c9fff3d9731",
      "meta": {
        "profile": [ "http://hl7.org/fhir/us/qicore/StructureDefinition/qicore-procedure" ]
      },
      "extension": [ {
        "url": "http://hl7.org/fhir/us/qicore/StructureDefinition/qicore-recorded",
        "valueDateTime": "2026-08-30T09:35:00-08:00"
      } ],
      "status": "completed",
      "code": {
        "coding": [ {
          "system": "http://snomed.info/sct",
          "version": "http://snomed.info/sct/731000124108/version/20230301",
          "code": "5130002"
        } ]
      },
      "subject": {
        "reference": "Patient/4788274e-9b09-45fa-a9a7-d97237a40f58"
      },
      "performedDateTime": "2026-08-15T08:00:00.000+00:00"
    },
    "request": {
      "method": "PUT",
      "url": "Procedure/d1b7bdbd-4f59-4666-977a-8c9fff3d9731"
    }
  }, {
    "fullUrl": "https://madie.cms.gov/Coverage/354304a8-81ad-40c6-ba32-223c05e628c7",
    "resource": {
      "resourceType": "Coverage",
      "id": "354304a8-81ad-40c6-ba32-223c05e628c7",
      "meta": {
        "profile": [ "http://hl7.org/fhir/us/qicore/StructureDefinition/qicore-coverage" ]
      },
      "status": "active",
      "beneficiary": {
        "reference": "Patient/4788274e-9b09-45fa-a9a7-d97237a40f58"
      },
      "payor": [ {
        "reference": "Organization/4b17b314-2c0e-4db0-b1ce-78ba0e4ba7b8"
      } ]
    },
    "request": {
      "method": "PUT",
      "url": "Coverage/354304a8-81ad-40c6-ba32-223c05e628c7"
    }
  }, {
    "fullUrl": "https://madie.cms.gov/Organization/4b17b314-2c0e-4db0-b1ce-78ba0e4ba7b8",
    "resource": {
      "resourceType": "Organization",
      "id": "4b17b314-2c0e-4db0-b1ce-78ba0e4ba7b8",
      "meta": {
        "profile": [ "http://hl7.org/fhir/us/qicore/StructureDefinition/qicore-organization" ]
      },
      "identifier": [ {
        "use": "temp",
        "system": "urn:oid:2.16.840.1.113883.4.4",
        "value": "21-3259825"
      } ],
      "active": true,
      "type": [ {
        "coding": [ {
          "system": "http://terminology.hl7.org/CodeSystem/organization-type",
          "code": "pay",
          "display": "Payer"
        } ]
      } ],
      "name": "Blue Cross Blue Shield of Texas",
      "telecom": [ {
        "system": "phone",
        "value": "(+1) 972-766-6900"
      } ],
      "address": [ {
        "use": "billing",
        "type": "postal",
        "line": [ "P.O. Box 660044" ],
        "city": "Dallas",
        "state": "TX",
        "postalCode": "75266-0044",
        "country": "USA"
      } ]
    },
    "request": {
      "method": "PUT",
      "url": "Organization/4b17b314-2c0e-4db0-b1ce-78ba0e4ba7b8"
    }
  }, {
    "fullUrl": "https://madie.cms.gov/Practitioner/d6ddf8e5-8aed-4cad-afcb-4feb2e361fea",
    "resource": {
      "resourceType": "Practitioner",
      "id": "d6ddf8e5-8aed-4cad-afcb-4feb2e361fea",
      "meta": {
        "profile": [ "http://hl7.org/fhir/us/qicore/StructureDefinition/qicore-practitioner" ]
      },
      "identifier": [ {
        "system": "http://hl7.org/fhir/sid/us-npi",
        "value": "2496541684"
      } ],
      "name": [ {
        "family": "Smith",
        "prefix": [ "Dr" ]
      } ]
    },
    "request": {
      "method": "PUT",
      "url": "Practitioner/d6ddf8e5-8aed-4cad-afcb-4feb2e361fea"
    }
  }, {
    "fullUrl": "https://madie.cms.gov/MeasureReport/32d571b0-8aae-41ed-9224-84cd8e8d477d",
    "resource": {
      "resourceType": "MeasureReport",
      "id": "32d571b0-8aae-41ed-9224-84cd8e8d477d",
      "meta": {
        "profile": [ "http://hl7.org/fhir/us/cqfmeasures/StructureDefinition/test-case-cqfm" ]
      },
      "contained": [ {
        "resourceType": "Parameters",
        "id": "9e36ac6d-8cd6-480b-b2cb-8a9c359a4427-parameters",
        "parameter": [ {
          "name": "subject",
          "valueString": "4788274e-9b09-45fa-a9a7-d97237a40f58"
        } ]
      } ],
      "extension": [ {
        "url": "http://hl7.org/fhir/StructureDefinition/cqf-inputParameters",
        "valueReference": {
          "reference": "#9e36ac6d-8cd6-480b-b2cb-8a9c359a4427-parameters"
        }
      }, {
        "url": "http://hl7.org/fhir/us/cqfmeasures/StructureDefinition/cqfm-testCaseDescription",
        "valueMarkdown": "Patient with scleritis starting after cataract surgery"
      } ],
      "modifierExtension": [ {
        "url": "http://hl7.org/fhir/us/cqfmeasures/StructureDefinition/cqfm-isTestCase",
        "valueBoolean": true
      } ],
      "status": "complete",
      "type": "individual",
      "measure": "https://madie.cms.gov/Measure/CMS133FHIRCataracts2040BCVAwithin90Days",
      "period": {
        "start": "2026-01-01",
        "end": "2026-12-31"
      },
      "group": [ {
        "id": "Group_1",
        "population": [ {
          "id": "InitialPopulation_1",
          "code": {
            "coding": [ {
              "system": "http://terminology.hl7.org/CodeSystem/measure-population",
              "code": "initial-population",
              "display": "Initial Population"
            } ]
          },
          "count": 1
        }, {
          "id": "Denominator_1",
          "code": {
            "coding": [ {
              "system": "http://terminology.hl7.org/CodeSystem/measure-population",
              "code": "denominator",
              "display": "Denominator"
            } ]
          },
          "count": 1
        }, {
          "id": "DenominatorExclusion_1",
          "code": {
            "coding": [ {
              "system": "http://terminology.hl7.org/CodeSystem/measure-population",
              "code": "denominator-exclusion",
              "display": "Denominator Exclusion"
            } ]
          },
          "count": 0
        }, {
          "id": "Numerator_1",
          "code": {
            "coding": [ {
              "system": "http://terminology.hl7.org/CodeSystem/measure-population",
              "code": "numerator",
              "display": "Numerator"
            } ]
          },
          "count": 0
        } ],
        "measureScore": {
          "value": 0.0
        }
      } ],
      "evaluatedResource": [ {
        "reference": "Patient/4788274e-9b09-45fa-a9a7-d97237a40f58"
      }, {
        "reference": "Condition/175473cf-71ff-4d63-868c-72047b0eab6c"
      }, {
        "reference": "Procedure/d1b7bdbd-4f59-4666-977a-8c9fff3d9731"
      }, {
        "reference": "Coverage/354304a8-81ad-40c6-ba32-223c05e628c7"
      }, {
        "reference": "Organization/4b17b314-2c0e-4db0-b1ce-78ba0e4ba7b8"
      }, {
        "reference": "Practitioner/d6ddf8e5-8aed-4cad-afcb-4feb2e361fea"
      } ]
    },
    "request": {
      "method": "PUT",
      "url": "MeasureReport/32d571b0-8aae-41ed-9224-84cd8e8d477d"
    }
  } ]
}