{"resourceType":"Bundle","id":"tests-a06352f7-fddc-4b37-a037-dbbbf107f66d-bundle","type":"transaction","entry":[{"resource":{"resourceType":"MeasureReport","id":"c16155a3-3c6d-46a1-969d-efcfa87fdf4d","meta":{"profile":["http://hl7.org/fhir/us/cqfmeasures/StructureDefinition/test-case-cqfm"]},"contained":[{"resourceType":"Parameters","id":"a4898470-6b01-4e30-b9ad-cc9afd052ef0-parameters","parameter":[{"name":"subject","valueString":"a06352f7-fddc-4b37-a037-dbbbf107f66d"}]}],"extension":[{"url":"http://hl7.org/fhir/StructureDefinition/cqf-inputParameters","valueReference":{"reference":"#a4898470-6b01-4e30-b9ad-cc9afd052ef0-parameters"}},{"url":"http://hl7.org/fhir/us/cqfmeasures/StructureDefinition/cqfm-testCaseDescription","valueMarkdown":"Patient with certain types of iridocyclitis overlapping cataract surgery. "}],"modifierExtension":[{"url":"http://hl7.org/fhir/us/cqfmeasures/StructureDefinition/cqfm-isTestCase","valueBoolean":true}],"status":"complete","type":"individual","measure":"https://madie.cms.gov/Measure/CMS133FHIRCataracts2040BCVAwithin90Days","period":{"start":"2026-01-01","end":"2026-12-31"},"group":[{"id":"Group_1","population":[{"id":"InitialPopulation_1","code":{"coding":[{"system":"http://terminology.hl7.org/CodeSystem/measure-population","code":"initial-population","display":"Initial Population"}]},"count":1},{"id":"Denominator_1","code":{"coding":[{"system":"http://terminology.hl7.org/CodeSystem/measure-population","code":"denominator","display":"Denominator"}]},"count":1},{"id":"DenominatorExclusion_1","code":{"coding":[{"system":"http://terminology.hl7.org/CodeSystem/measure-population","code":"denominator-exclusion","display":"Denominator Exclusion"}]},"count":1},{"id":"Numerator_1","code":{"coding":[{"system":"http://terminology.hl7.org/CodeSystem/measure-population","code":"numerator","display":"Numerator"}]},"count":0}],"measureScore":{"value":0.0}}],"evaluatedResource":[{"reference":"Patient/a06352f7-fddc-4b37-a037-dbbbf107f66d"},{"reference":"Observation/5c68beed-a4e9-4360-b8d7-b4cd21ec50b5"},{"reference":"Procedure/cc7ca5d6-c7c5-4df5-9dc9-c284c0a62843"},{"reference":"Condition/62e55bf2-29fb-4746-ae24-8bdf3bb41b29"},{"reference":"Coverage/6612304f-9c61-4640-b1d3-f49a3378471d"},{"reference":"Organization/5897070f-5893-4fec-8508-f962be1f8402"},{"reference":"Practitioner/d0b1f7bd-6671-4a67-badc-052919843652"}]},"request":{"method":"PUT","url":"MeasureReport/c16155a3-3c6d-46a1-969d-efcfa87fdf4d"}},{"resource":{"resourceType":"Organization","id":"5897070f-5893-4fec-8508-f962be1f8402","meta":{"profile":["http://hl7.org/fhir/us/qicore/StructureDefinition/qicore-organization"]},"identifier":[{"use":"temp","system":"urn:oid:2.16.840.1.113883.4.4","value":"21-3259825"}],"active":true,"type":[{"coding":[{"system":"http://terminology.hl7.org/CodeSystem/organization-type","code":"pay","display":"Payer"}]}],"name":"Blue Cross Blue Shield of Texas","telecom":[{"system":"phone","value":"(+1) 972-766-6900"}],"address":[{"use":"billing","type":"postal","line":["P.O. Box 660044"],"city":"Dallas","state":"TX","postalCode":"75266-0044","country":"USA"}]},"request":{"method":"PUT","url":"Organization/5897070f-5893-4fec-8508-f962be1f8402"}},{"resource":{"resourceType":"Procedure","id":"cc7ca5d6-c7c5-4df5-9dc9-c284c0a62843","meta":{"profile":["http://hl7.org/fhir/us/qicore/StructureDefinition/qicore-procedure"]},"extension":[{"url":"http://hl7.org/fhir/us/qicore/StructureDefinition/qicore-recorded","valueDateTime":"2026-03-05T09:35:00-04:00"}],"status":"completed","code":{"coding":[{"system":"http://snomed.info/sct","code":"84149000"}]},"subject":{"reference":"Patient/a06352f7-fddc-4b37-a037-dbbbf107f66d"},"performedPeriod":{"start":"2026-03-05T09:20:00-04:00","end":"2026-04-05T10:30:00-04:00"}},"request":{"method":"PUT","url":"Procedure/cc7ca5d6-c7c5-4df5-9dc9-c284c0a62843"}},{"resource":{"resourceType":"Observation","id":"5c68beed-a4e9-4360-b8d7-b4cd21ec50b5","meta":{"profile":["http://hl7.org/fhir/us/qicore/StructureDefinition/qicore-observation-clinical-result"]},"status":"final","category":[{"coding":[{"system":"http://terminology.hl7.org/CodeSystem/observation-category","code":"exam","display":"exam"}]}],"code":{"coding":[{"system":"http://snomed.info/sct","code":"419775003"}]},"subject":{"reference":"Patient/a06352f7-fddc-4b37-a037-dbbbf107f66d"},"effectivePeriod":{"start":"2026-03-13T09:00:00+00:00","end":"2026-03-13T09:30:00+00:00"}},"request":{"method":"PUT","url":"Observation/5c68beed-a4e9-4360-b8d7-b4cd21ec50b5"}},{"resource":{"resourceType":"Patient","id":"a06352f7-fddc-4b37-a037-dbbbf107f66d","meta":{"profile":["http://hl7.org/fhir/us/qicore/StructureDefinition/qicore-patient"]},"text":{"status":"generated","div":"<div xmlns=\"http://www.w3.org/1999/xhtml\"><div class=\"hapiHeaderText\">Age@18 <b>DENOMPASS </b></div><table class=\"hapiPropertyTable\"><tbody><tr><td>Identifier</td><td>67f3e33acf17bcb386e754d726ed064ccd48ba21ff0ffb2eb678740a684398be</td></tr><tr><td>Date of birth</td><td><span>01 January 1994</span></td></tr></tbody></table></div>"},"extension":[{"url":"http://hl7.org/fhir/us/core/StructureDefinition/us-core-race","extension":[{"url":"ombCategory","valueCoding":{"system":"urn:oid:2.16.840.1.113883.6.238","code":"1002-5","display":"American Indian or Alaska Native","userSelected":true}},{"url":"text","valueString":"American Indian or Alaska Native"}]},{"url":"http://hl7.org/fhir/us/core/StructureDefinition/us-core-ethnicity","extension":[{"url":"ombCategory","valueCoding":{"system":"urn:oid:2.16.840.1.113883.6.238","code":"2135-2","display":"Hispanic or Latino","userSelected":true}},{"url":"text","valueString":"Hispanic or Latino"}]}],"identifier":[{"type":{"coding":[{"system":"http://terminology.hl7.org/CodeSystem/v2-0203","code":"MR"}]},"system":"https://bonnie-fhir.healthit.gov/","value":"61095b0998086b53805591a5"}],"active":true,"name":[{"use":"usual","family":"DENEXPASS","given":["CertainTypeIridOverlapsCatSurg"]}],"gender":"female","birthDate":"1996-01-01"},"request":{"method":"PUT","url":"Patient/a06352f7-fddc-4b37-a037-dbbbf107f66d"}},{"resource":{"resourceType":"Coverage","id":"6612304f-9c61-4640-b1d3-f49a3378471d","meta":{"profile":["http://hl7.org/fhir/us/qicore/StructureDefinition/qicore-coverage"]},"status":"active","beneficiary":{"reference":"Patient/a06352f7-fddc-4b37-a037-dbbbf107f66d"},"payor":[{"reference":"Organization/5897070f-5893-4fec-8508-f962be1f8402"}]},"request":{"method":"PUT","url":"Coverage/6612304f-9c61-4640-b1d3-f49a3378471d"}},{"resource":{"resourceType":"Condition","id":"62e55bf2-29fb-4746-ae24-8bdf3bb41b29","meta":{"profile":["http://hl7.org/fhir/us/qicore/StructureDefinition/qicore-condition-encounter-diagnosis"]},"clinicalStatus":{"coding":[{"system":"http://terminology.hl7.org/CodeSystem/condition-clinical","code":"active","display":"active","userSelected":true}]},"category":[{"coding":[{"system":"http://terminology.hl7.org/CodeSystem/condition-clinical","code":"active","display":"active","userSelected":true}]}],"code":{"coding":[{"system":"http://hl7.org/fhir/sid/icd-10-cm","code":"H20.9","userSelected":true},{"system":"http://snomed.info/sct","code":"9091006","userSelected":true}]},"subject":{"reference":"Patient/a06352f7-fddc-4b37-a037-dbbbf107f66d"},"onsetDateTime":"2024-11-01T08:00:00.000+00:00"},"request":{"method":"PUT","url":"Condition/62e55bf2-29fb-4746-ae24-8bdf3bb41b29"}},{"resource":{"resourceType":"Bundle","id":"61095b0998086b53805591a5","type":"transaction","entry":[{"fullUrl":"https://madie.cms.gov/Patient/a06352f7-fddc-4b37-a037-dbbbf107f66d","resource":{"resourceType":"Patient","id":"a06352f7-fddc-4b37-a037-dbbbf107f66d","meta":{"profile":["http://hl7.org/fhir/us/qicore/StructureDefinition/qicore-patient"]},"text":{"status":"generated","div":"<div xmlns=\"http://www.w3.org/1999/xhtml\"><div class=\"hapiHeaderText\">Age@18 <b>DENOMPASS </b></div><table class=\"hapiPropertyTable\"><tbody><tr><td>Identifier</td><td>67f3e33acf17bcb386e754d726ed064ccd48ba21ff0ffb2eb678740a684398be</td></tr><tr><td>Date of birth</td><td><span>01 January 1994</span></td></tr></tbody></table></div>"},"extension":[{"url":"http://hl7.org/fhir/us/core/StructureDefinition/us-core-race","extension":[{"url":"ombCategory","valueCoding":{"system":"urn:oid:2.16.840.1.113883.6.238","code":"1002-5","display":"American Indian or Alaska Native","userSelected":true}},{"url":"text","valueString":"American Indian or Alaska Native"}]},{"url":"http://hl7.org/fhir/us/core/StructureDefinition/us-core-ethnicity","extension":[{"url":"ombCategory","valueCoding":{"system":"urn:oid:2.16.840.1.113883.6.238","code":"2135-2","display":"Hispanic or Latino","userSelected":true}},{"url":"text","valueString":"Hispanic or Latino"}]}],"identifier":[{"type":{"coding":[{"system":"http://terminology.hl7.org/CodeSystem/v2-0203","code":"MR"}]},"system":"https://bonnie-fhir.healthit.gov/","value":"61095b0998086b53805591a5"}],"active":true,"name":[{"use":"usual","family":"DENEXPASS","given":["CertainTypeIridOverlapsCatSurg"]}],"gender":"female","birthDate":"1996-01-01"},"request":{"method":"PUT","url":"Patient/a06352f7-fddc-4b37-a037-dbbbf107f66d"}},{"fullUrl":"https://madie.cms.gov/Observation/5c68beed-a4e9-4360-b8d7-b4cd21ec50b5","resource":{"resourceType":"Observation","id":"5c68beed-a4e9-4360-b8d7-b4cd21ec50b5","meta":{"profile":["http://hl7.org/fhir/us/qicore/StructureDefinition/qicore-observation-clinical-result"]},"status":"final","category":[{"coding":[{"system":"http://terminology.hl7.org/CodeSystem/observation-category","code":"exam","display":"exam"}]}],"code":{"coding":[{"system":"http://snomed.info/sct","code":"419775003"}]},"subject":{"reference":"Patient/a06352f7-fddc-4b37-a037-dbbbf107f66d"},"effectivePeriod":{"start":"2026-03-13T09:00:00+00:00","end":"2026-03-13T09:30:00+00:00"}},"request":{"method":"PUT","url":"Observation/5c68beed-a4e9-4360-b8d7-b4cd21ec50b5"}},{"fullUrl":"https://madie.cms.gov/Procedure/cc7ca5d6-c7c5-4df5-9dc9-c284c0a62843","resource":{"resourceType":"Procedure","id":"cc7ca5d6-c7c5-4df5-9dc9-c284c0a62843","meta":{"profile":["http://hl7.org/fhir/us/qicore/StructureDefinition/qicore-procedure"]},"extension":[{"url":"http://hl7.org/fhir/us/qicore/StructureDefinition/qicore-recorded","valueDateTime":"2026-03-05T09:35:00-04:00"}],"status":"completed","code":{"coding":[{"system":"http://snomed.info/sct","code":"84149000"}]},"subject":{"reference":"Patient/a06352f7-fddc-4b37-a037-dbbbf107f66d"},"performedPeriod":{"start":"2026-03-05T09:20:00-04:00","end":"2026-04-05T10:30:00-04:00"}},"request":{"method":"PUT","url":"Procedure/cc7ca5d6-c7c5-4df5-9dc9-c284c0a62843"}},{"fullUrl":"https://madie.cms.gov/Condition/62e55bf2-29fb-4746-ae24-8bdf3bb41b29","resource":{"resourceType":"Condition","id":"62e55bf2-29fb-4746-ae24-8bdf3bb41b29","meta":{"profile":["http://hl7.org/fhir/us/qicore/StructureDefinition/qicore-condition-encounter-diagnosis"]},"clinicalStatus":{"coding":[{"system":"http://terminology.hl7.org/CodeSystem/condition-clinical","code":"active","display":"active","userSelected":true}]},"category":[{"coding":[{"system":"http://terminology.hl7.org/CodeSystem/condition-clinical","code":"active","display":"active","userSelected":true}]}],"code":{"coding":[{"system":"http://hl7.org/fhir/sid/icd-10-cm","code":"H20.9","userSelected":true},{"system":"http://snomed.info/sct","code":"9091006","userSelected":true}]},"subject":{"reference":"Patient/a06352f7-fddc-4b37-a037-dbbbf107f66d"},"onsetDateTime":"2024-11-01T08:00:00.000+00:00"},"request":{"method":"PUT","url":"Condition/62e55bf2-29fb-4746-ae24-8bdf3bb41b29"}},{"fullUrl":"https://madie.cms.gov/Coverage/6612304f-9c61-4640-b1d3-f49a3378471d","resource":{"resourceType":"Coverage","id":"6612304f-9c61-4640-b1d3-f49a3378471d","meta":{"profile":["http://hl7.org/fhir/us/qicore/StructureDefinition/qicore-coverage"]},"status":"active","beneficiary":{"reference":"Patient/a06352f7-fddc-4b37-a037-dbbbf107f66d"},"payor":[{"reference":"Organization/5897070f-5893-4fec-8508-f962be1f8402"}]},"request":{"method":"PUT","url":"Coverage/6612304f-9c61-4640-b1d3-f49a3378471d"}},{"fullUrl":"https://madie.cms.gov/Organization/5897070f-5893-4fec-8508-f962be1f8402","resource":{"resourceType":"Organization","id":"5897070f-5893-4fec-8508-f962be1f8402","meta":{"profile":["http://hl7.org/fhir/us/qicore/StructureDefinition/qicore-organization"]},"identifier":[{"use":"temp","system":"urn:oid:2.16.840.1.113883.4.4","value":"21-3259825"}],"active":true,"type":[{"coding":[{"system":"http://terminology.hl7.org/CodeSystem/organization-type","code":"pay","display":"Payer"}]}],"name":"Blue Cross Blue Shield of Texas","telecom":[{"system":"phone","value":"(+1) 972-766-6900"}],"address":[{"use":"billing","type":"postal","line":["P.O. Box 660044"],"city":"Dallas","state":"TX","postalCode":"75266-0044","country":"USA"}]},"request":{"method":"PUT","url":"Organization/5897070f-5893-4fec-8508-f962be1f8402"}},{"fullUrl":"https://madie.cms.gov/Practitioner/d0b1f7bd-6671-4a67-badc-052919843652","resource":{"resourceType":"Practitioner","id":"d0b1f7bd-6671-4a67-badc-052919843652","meta":{"profile":["http://hl7.org/fhir/us/qicore/StructureDefinition/qicore-practitioner"]},"identifier":[{"system":"http://hl7.org/fhir/sid/us-npi","value":"123456"}],"name":[{"family":"Evil","prefix":["Dr"]}]},"request":{"method":"PUT","url":"Practitioner/d0b1f7bd-6671-4a67-badc-052919843652"}},{"fullUrl":"https://madie.cms.gov/MeasureReport/c16155a3-3c6d-46a1-969d-efcfa87fdf4d","resource":{"resourceType":"MeasureReport","id":"c16155a3-3c6d-46a1-969d-efcfa87fdf4d","meta":{"profile":["http://hl7.org/fhir/us/cqfmeasures/StructureDefinition/test-case-cqfm"]},"contained":[{"resourceType":"Parameters","id":"a4898470-6b01-4e30-b9ad-cc9afd052ef0-parameters","parameter":[{"name":"subject","valueString":"a06352f7-fddc-4b37-a037-dbbbf107f66d"}]}],"extension":[{"url":"http://hl7.org/fhir/StructureDefinition/cqf-inputParameters","valueReference":{"reference":"#a4898470-6b01-4e30-b9ad-cc9afd052ef0-parameters"}},{"url":"http://hl7.org/fhir/us/cqfmeasures/StructureDefinition/cqfm-testCaseDescription","valueMarkdown":"Patient with certain types of iridocyclitis overlapping cataract surgery. "}],"modifierExtension":[{"url":"http://hl7.org/fhir/us/cqfmeasures/StructureDefinition/cqfm-isTestCase","valueBoolean":true}],"status":"complete","type":"individual","measure":"https://madie.cms.gov/Measure/CMS133FHIRCataracts2040BCVAwithin90Days","period":{"start":"2026-01-01","end":"2026-12-31"},"group":[{"id":"Group_1","population":[{"id":"InitialPopulation_1","code":{"coding":[{"system":"http://terminology.hl7.org/CodeSystem/measure-population","code":"initial-population","display":"Initial Population"}]},"count":1},{"id":"Denominator_1","code":{"coding":[{"system":"http://terminology.hl7.org/CodeSystem/measure-population","code":"denominator","display":"Denominator"}]},"count":1},{"id":"DenominatorExclusion_1","code":{"coding":[{"system":"http://terminology.hl7.org/CodeSystem/measure-population","code":"denominator-exclusion","display":"Denominator Exclusion"}]},"count":1},{"id":"Numerator_1","code":{"coding":[{"system":"http://terminology.hl7.org/CodeSystem/measure-population","code":"numerator","display":"Numerator"}]},"count":0}],"measureScore":{"value":0.0}}],"evaluatedResource":[{"reference":"Patient/a06352f7-fddc-4b37-a037-dbbbf107f66d"},{"reference":"Observation/5c68beed-a4e9-4360-b8d7-b4cd21ec50b5"},{"reference":"Procedure/cc7ca5d6-c7c5-4df5-9dc9-c284c0a62843"},{"reference":"Condition/62e55bf2-29fb-4746-ae24-8bdf3bb41b29"},{"reference":"Coverage/6612304f-9c61-4640-b1d3-f49a3378471d"},{"reference":"Organization/5897070f-5893-4fec-8508-f962be1f8402"},{"reference":"Practitioner/d0b1f7bd-6671-4a67-badc-052919843652"}]},"request":{"method":"PUT","url":"MeasureReport/c16155a3-3c6d-46a1-969d-efcfa87fdf4d"}}]},"request":{"method":"PUT","url":"Bundle/61095b0998086b53805591a5"}},{"resource":{"resourceType":"Practitioner","id":"d0b1f7bd-6671-4a67-badc-052919843652","meta":{"profile":["http://hl7.org/fhir/us/qicore/StructureDefinition/qicore-practitioner"]},"identifier":[{"system":"http://hl7.org/fhir/sid/us-npi","value":"123456"}],"name":[{"family":"Evil","prefix":["Dr"]}]},"request":{"method":"PUT","url":"Practitioner/d0b1f7bd-6671-4a67-badc-052919843652"}}]}