{"resourceType":"Bundle","id":"tests-61ca9664-580e-4f01-8015-8cb3bcf00a01-bundle","type":"transaction","entry":[{"fullUrl":"MeasureReport/ee7abc13-dceb-476a-a0c0-e7f14ce8f241","resource":{"resourceType":"MeasureReport","id":"ee7abc13-dceb-476a-a0c0-e7f14ce8f241","meta":{"profile":["http://hl7.org/fhir/us/cqfmeasures/StructureDefinition/test-case-cqfm"]},"contained":[{"resourceType":"Parameters","id":"8bb738d3-e566-4ac4-a8c2-4875d1f35afd-parameters","parameter":[{"name":"subject","valueString":"61ca9664-580e-4f01-8015-8cb3bcf00a01"}]}],"extension":[{"url":"http://hl7.org/fhir/StructureDefinition/cqf-inputParameters","valueReference":{"reference":"#8bb738d3-e566-4ac4-a8c2-4875d1f35afd-parameters"}},{"url":"http://hl7.org/fhir/us/cqfmeasures/StructureDefinition/cqfm-testCaseDescription","valueMarkdown":"Patient with scleritis started but ended before cataract surgery. "}],"modifierExtension":[{"url":"http://hl7.org/fhir/us/cqfmeasures/StructureDefinition/cqfm-isTestCase","valueBoolean":true}],"status":"complete","type":"individual","measure":"https://madie.cms.gov/Measure/CMS133FHIRCataracts2040BCVAwithin90Days","period":{"start":"2026-01-01","end":"2026-12-31"},"group":[{"id":"Group_1","population":[{"id":"InitialPopulation_1","code":{"coding":[{"system":"http://terminology.hl7.org/CodeSystem/measure-population","code":"initial-population","display":"Initial Population"}]},"count":1},{"id":"Denominator_1","code":{"coding":[{"system":"http://terminology.hl7.org/CodeSystem/measure-population","code":"denominator","display":"Denominator"}]},"count":1},{"id":"DenominatorExclusion_1","code":{"coding":[{"system":"http://terminology.hl7.org/CodeSystem/measure-population","code":"denominator-exclusion","display":"Denominator Exclusion"}]},"count":0},{"id":"Numerator_1","code":{"coding":[{"system":"http://terminology.hl7.org/CodeSystem/measure-population","code":"numerator","display":"Numerator"}]},"count":0}],"measureScore":{"value":0.0}}],"evaluatedResource":[{"reference":"Patient/61ca9664-580e-4f01-8015-8cb3bcf00a01"},{"reference":"Condition/4f6b8e2f-66f2-4d98-abb2-4cd576736f6c"},{"reference":"Procedure/8916e7e1-ded4-4349-b00b-d9237f15df4e"},{"reference":"Coverage/d1567a70-521e-4281-b412-1fc373e34d2b"},{"reference":"Organization/f46b91f8-057f-4c5e-bba9-6be5079c86b6"},{"reference":"Practitioner/bf84905c-6b69-42ef-b69f-156957b16e28"}]},"request":{"method":"PUT","url":"MeasureReport/ee7abc13-dceb-476a-a0c0-e7f14ce8f241"}},{"fullUrl":"Patient/61ca9664-580e-4f01-8015-8cb3bcf00a01","resource":{"resourceType":"Patient","id":"61ca9664-580e-4f01-8015-8cb3bcf00a01","meta":{"profile":["http://hl7.org/fhir/us/qicore/StructureDefinition/qicore-patient"]},"extension":[{"url":"http://hl7.org/fhir/us/core/StructureDefinition/us-core-race","extension":[{"url":"ombCategory","valueCoding":{"system":"urn:oid:2.16.840.1.113883.6.238","code":"1002-5","display":"American Indian or Alaska Native","userSelected":true}},{"url":"text","valueString":"American Indian or Alaska Native"}]},{"url":"http://hl7.org/fhir/us/core/StructureDefinition/us-core-ethnicity","extension":[{"url":"ombCategory","valueCoding":{"system":"urn:oid:2.16.840.1.113883.6.238","code":"2186-5","display":"Not Hispanic or Latino","userSelected":true}},{"url":"text","valueString":"Not Hispanic or Latino"}]}],"identifier":[{"type":{"coding":[{"system":"http://terminology.hl7.org/CodeSystem/v2-0203","code":"MR"}]},"system":"https://bonnie-fhir.healthit.gov/","value":"60ec6943bc72857e238afa20"}],"name":[{"family":"DENEXFail","given":["ScleritisEndB4CatSurg"]}],"gender":"male","birthDate":"1969-06-15"},"request":{"method":"PUT","url":"Patient/61ca9664-580e-4f01-8015-8cb3bcf00a01"}},{"fullUrl":"Condition/4f6b8e2f-66f2-4d98-abb2-4cd576736f6c","resource":{"resourceType":"Condition","id":"4f6b8e2f-66f2-4d98-abb2-4cd576736f6c","meta":{"profile":["http://hl7.org/fhir/us/qicore/StructureDefinition/qicore-condition-problems-health-concerns"]},"category":[{"coding":[{"system":"http://terminology.hl7.org/CodeSystem/condition-category","code":"problem-list-item","display":"Problem List Item"}]}],"code":{"coding":[{"system":"http://snomed.info/sct","version":"http://snomed.info/sct/731000124108/version/20230301","code":"78370002"}]},"subject":{"reference":"Patient/61ca9664-580e-4f01-8015-8cb3bcf00a01"},"recordedDate":"2026-08-12T02:00:00.000+00:00"},"request":{"method":"PUT","url":"Condition/4f6b8e2f-66f2-4d98-abb2-4cd576736f6c"}},{"fullUrl":"Bundle/60ec6943bc72857e238afa20","resource":{"resourceType":"Bundle","id":"60ec6943bc72857e238afa20","type":"transaction","entry":[{"fullUrl":"https://madie.cms.gov/Patient/61ca9664-580e-4f01-8015-8cb3bcf00a01","resource":{"resourceType":"Patient","id":"61ca9664-580e-4f01-8015-8cb3bcf00a01","meta":{"profile":["http://hl7.org/fhir/us/qicore/StructureDefinition/qicore-patient"]},"extension":[{"url":"http://hl7.org/fhir/us/core/StructureDefinition/us-core-race","extension":[{"url":"ombCategory","valueCoding":{"system":"urn:oid:2.16.840.1.113883.6.238","code":"1002-5","display":"American Indian or Alaska Native","userSelected":true}},{"url":"text","valueString":"American Indian or Alaska Native"}]},{"url":"http://hl7.org/fhir/us/core/StructureDefinition/us-core-ethnicity","extension":[{"url":"ombCategory","valueCoding":{"system":"urn:oid:2.16.840.1.113883.6.238","code":"2186-5","display":"Not Hispanic or Latino","userSelected":true}},{"url":"text","valueString":"Not Hispanic or Latino"}]}],"identifier":[{"type":{"coding":[{"system":"http://terminology.hl7.org/CodeSystem/v2-0203","code":"MR"}]},"system":"https://bonnie-fhir.healthit.gov/","value":"60ec6943bc72857e238afa20"}],"name":[{"family":"DENEXFail","given":["ScleritisEndB4CatSurg"]}],"gender":"male","birthDate":"1969-06-15"},"request":{"method":"PUT","url":"Patient/61ca9664-580e-4f01-8015-8cb3bcf00a01"}},{"fullUrl":"https://madie.cms.gov/Condition/4f6b8e2f-66f2-4d98-abb2-4cd576736f6c","resource":{"resourceType":"Condition","id":"4f6b8e2f-66f2-4d98-abb2-4cd576736f6c","meta":{"profile":["http://hl7.org/fhir/us/qicore/StructureDefinition/qicore-condition-problems-health-concerns"]},"category":[{"coding":[{"system":"http://terminology.hl7.org/CodeSystem/condition-category","code":"problem-list-item","display":"Problem List Item"}]}],"code":{"coding":[{"system":"http://snomed.info/sct","version":"http://snomed.info/sct/731000124108/version/20230301","code":"78370002"}]},"subject":{"reference":"Patient/61ca9664-580e-4f01-8015-8cb3bcf00a01"},"recordedDate":"2026-08-12T02:00:00.000+00:00"},"request":{"method":"PUT","url":"Condition/4f6b8e2f-66f2-4d98-abb2-4cd576736f6c"}},{"fullUrl":"https://madie.cms.gov/Procedure/8916e7e1-ded4-4349-b00b-d9237f15df4e","resource":{"resourceType":"Procedure","id":"8916e7e1-ded4-4349-b00b-d9237f15df4e","meta":{"profile":["http://hl7.org/fhir/us/qicore/StructureDefinition/qicore-procedure"]},"extension":[{"url":"http://hl7.org/fhir/us/qicore/StructureDefinition/qicore-recorded","valueDateTime":"2026-08-30T09:35:00-08:00"}],"status":"completed","code":{"coding":[{"system":"http://snomed.info/sct","version":"http://snomed.info/sct/731000124108/version/20230301","code":"5130002"}]},"subject":{"reference":"Patient/61ca9664-580e-4f01-8015-8cb3bcf00a01"},"performedDateTime":"2026-08-15T08:00:00.000+00:00"},"request":{"method":"PUT","url":"Procedure/8916e7e1-ded4-4349-b00b-d9237f15df4e"}},{"fullUrl":"https://madie.cms.gov/Coverage/d1567a70-521e-4281-b412-1fc373e34d2b","resource":{"resourceType":"Coverage","id":"d1567a70-521e-4281-b412-1fc373e34d2b","meta":{"profile":["http://hl7.org/fhir/us/qicore/StructureDefinition/qicore-coverage"]},"status":"active","beneficiary":{"reference":"Patient/61ca9664-580e-4f01-8015-8cb3bcf00a01"},"payor":[{"reference":"Organization/f46b91f8-057f-4c5e-bba9-6be5079c86b6"}]},"request":{"method":"PUT","url":"Coverage/d1567a70-521e-4281-b412-1fc373e34d2b"}},{"fullUrl":"https://madie.cms.gov/Organization/f46b91f8-057f-4c5e-bba9-6be5079c86b6","resource":{"resourceType":"Organization","id":"f46b91f8-057f-4c5e-bba9-6be5079c86b6","meta":{"profile":["http://hl7.org/fhir/us/qicore/StructureDefinition/qicore-organization"]},"identifier":[{"use":"temp","system":"urn:oid:2.16.840.1.113883.4.4","value":"21-3259825"}],"active":true,"type":[{"coding":[{"system":"http://terminology.hl7.org/CodeSystem/organization-type","code":"pay","display":"Payer"}]}],"name":"Blue Cross Blue Shield of Texas","telecom":[{"system":"phone","value":"(+1) 972-766-6900"}],"address":[{"use":"billing","type":"postal","line":["P.O. Box 660044"],"city":"Dallas","state":"TX","postalCode":"75266-0044","country":"USA"}]},"request":{"method":"PUT","url":"Organization/f46b91f8-057f-4c5e-bba9-6be5079c86b6"}},{"fullUrl":"https://madie.cms.gov/Practitioner/bf84905c-6b69-42ef-b69f-156957b16e28","resource":{"resourceType":"Practitioner","id":"bf84905c-6b69-42ef-b69f-156957b16e28","meta":{"profile":["http://hl7.org/fhir/us/qicore/StructureDefinition/qicore-practitioner"]},"identifier":[{"system":"http://hl7.org/fhir/sid/us-npi","value":"2496541684"}],"name":[{"family":"Smith","prefix":["Dr"]}]},"request":{"method":"PUT","url":"Practitioner/bf84905c-6b69-42ef-b69f-156957b16e28"}},{"fullUrl":"https://madie.cms.gov/MeasureReport/ee7abc13-dceb-476a-a0c0-e7f14ce8f241","resource":{"resourceType":"MeasureReport","id":"ee7abc13-dceb-476a-a0c0-e7f14ce8f241","meta":{"profile":["http://hl7.org/fhir/us/cqfmeasures/StructureDefinition/test-case-cqfm"]},"contained":[{"resourceType":"Parameters","id":"8bb738d3-e566-4ac4-a8c2-4875d1f35afd-parameters","parameter":[{"name":"subject","valueString":"61ca9664-580e-4f01-8015-8cb3bcf00a01"}]}],"extension":[{"url":"http://hl7.org/fhir/StructureDefinition/cqf-inputParameters","valueReference":{"reference":"#8bb738d3-e566-4ac4-a8c2-4875d1f35afd-parameters"}},{"url":"http://hl7.org/fhir/us/cqfmeasures/StructureDefinition/cqfm-testCaseDescription","valueMarkdown":"Patient with scleritis started but ended before cataract surgery. "}],"modifierExtension":[{"url":"http://hl7.org/fhir/us/cqfmeasures/StructureDefinition/cqfm-isTestCase","valueBoolean":true}],"status":"complete","type":"individual","measure":"https://madie.cms.gov/Measure/CMS133FHIRCataracts2040BCVAwithin90Days","period":{"start":"2026-01-01","end":"2026-12-31"},"group":[{"id":"Group_1","population":[{"id":"InitialPopulation_1","code":{"coding":[{"system":"http://terminology.hl7.org/CodeSystem/measure-population","code":"initial-population","display":"Initial Population"}]},"count":1},{"id":"Denominator_1","code":{"coding":[{"system":"http://terminology.hl7.org/CodeSystem/measure-population","code":"denominator","display":"Denominator"}]},"count":1},{"id":"DenominatorExclusion_1","code":{"coding":[{"system":"http://terminology.hl7.org/CodeSystem/measure-population","code":"denominator-exclusion","display":"Denominator Exclusion"}]},"count":0},{"id":"Numerator_1","code":{"coding":[{"system":"http://terminology.hl7.org/CodeSystem/measure-population","code":"numerator","display":"Numerator"}]},"count":0}],"measureScore":{"value":0.0}}],"evaluatedResource":[{"reference":"Patient/61ca9664-580e-4f01-8015-8cb3bcf00a01"},{"reference":"Condition/4f6b8e2f-66f2-4d98-abb2-4cd576736f6c"},{"reference":"Procedure/8916e7e1-ded4-4349-b00b-d9237f15df4e"},{"reference":"Coverage/d1567a70-521e-4281-b412-1fc373e34d2b"},{"reference":"Organization/f46b91f8-057f-4c5e-bba9-6be5079c86b6"},{"reference":"Practitioner/bf84905c-6b69-42ef-b69f-156957b16e28"}]},"request":{"method":"PUT","url":"MeasureReport/ee7abc13-dceb-476a-a0c0-e7f14ce8f241"}}]},"request":{"method":"PUT","url":"Bundle/60ec6943bc72857e238afa20"}},{"fullUrl":"Organization/f46b91f8-057f-4c5e-bba9-6be5079c86b6","resource":{"resourceType":"Organization","id":"f46b91f8-057f-4c5e-bba9-6be5079c86b6","meta":{"profile":["http://hl7.org/fhir/us/qicore/StructureDefinition/qicore-organization"]},"identifier":[{"use":"temp","system":"urn:oid:2.16.840.1.113883.4.4","value":"21-3259825"}],"active":true,"type":[{"coding":[{"system":"http://terminology.hl7.org/CodeSystem/organization-type","code":"pay","display":"Payer"}]}],"name":"Blue Cross Blue Shield of Texas","telecom":[{"system":"phone","value":"(+1) 972-766-6900"}],"address":[{"use":"billing","type":"postal","line":["P.O. Box 660044"],"city":"Dallas","state":"TX","postalCode":"75266-0044","country":"USA"}]},"request":{"method":"PUT","url":"Organization/f46b91f8-057f-4c5e-bba9-6be5079c86b6"}},{"fullUrl":"Practitioner/bf84905c-6b69-42ef-b69f-156957b16e28","resource":{"resourceType":"Practitioner","id":"bf84905c-6b69-42ef-b69f-156957b16e28","meta":{"profile":["http://hl7.org/fhir/us/qicore/StructureDefinition/qicore-practitioner"]},"identifier":[{"system":"http://hl7.org/fhir/sid/us-npi","value":"2496541684"}],"name":[{"family":"Smith","prefix":["Dr"]}]},"request":{"method":"PUT","url":"Practitioner/bf84905c-6b69-42ef-b69f-156957b16e28"}},{"fullUrl":"Procedure/8916e7e1-ded4-4349-b00b-d9237f15df4e","resource":{"resourceType":"Procedure","id":"8916e7e1-ded4-4349-b00b-d9237f15df4e","meta":{"profile":["http://hl7.org/fhir/us/qicore/StructureDefinition/qicore-procedure"]},"extension":[{"url":"http://hl7.org/fhir/us/qicore/StructureDefinition/qicore-recorded","valueDateTime":"2026-08-30T09:35:00-08:00"}],"status":"completed","code":{"coding":[{"system":"http://snomed.info/sct","version":"http://snomed.info/sct/731000124108/version/20230301","code":"5130002"}]},"subject":{"reference":"Patient/61ca9664-580e-4f01-8015-8cb3bcf00a01"},"performedDateTime":"2026-08-15T08:00:00.000+00:00"},"request":{"method":"PUT","url":"Procedure/8916e7e1-ded4-4349-b00b-d9237f15df4e"}},{"fullUrl":"Coverage/d1567a70-521e-4281-b412-1fc373e34d2b","resource":{"resourceType":"Coverage","id":"d1567a70-521e-4281-b412-1fc373e34d2b","meta":{"profile":["http://hl7.org/fhir/us/qicore/StructureDefinition/qicore-coverage"]},"status":"active","beneficiary":{"reference":"Patient/61ca9664-580e-4f01-8015-8cb3bcf00a01"},"payor":[{"reference":"Organization/f46b91f8-057f-4c5e-bba9-6be5079c86b6"}]},"request":{"method":"PUT","url":"Coverage/d1567a70-521e-4281-b412-1fc373e34d2b"}}]}