{"resourceType":"Bundle","id":"tests-3f9e96d8-a941-46c5-8e97-35f9498e82c3-bundle","type":"transaction","entry":[{"resource":{"resourceType":"Practitioner","id":"47ef36f0-236a-4692-a7a4-cdf3d0512539","meta":{"profile":["http://hl7.org/fhir/us/qicore/StructureDefinition/qicore-practitioner"]},"identifier":[{"system":"http://hl7.org/fhir/sid/us-npi","value":"123456"}],"name":[{"family":"Evil","prefix":["Dr"]}]},"request":{"method":"PUT","url":"Practitioner/47ef36f0-236a-4692-a7a4-cdf3d0512539"}},{"resource":{"resourceType":"Patient","id":"3f9e96d8-a941-46c5-8e97-35f9498e82c3","meta":{"profile":["http://hl7.org/fhir/us/qicore/StructureDefinition/qicore-patient"]},"text":{"status":"generated","div":"<div xmlns=\"http://www.w3.org/1999/xhtml\"><div class=\"hapiHeaderText\">Age@18 <b>DENOMPASS </b></div><table class=\"hapiPropertyTable\"><tbody><tr><td>Identifier</td><td>67f3e33acf17bcb386e754d726ed064ccd48ba21ff0ffb2eb678740a684398be</td></tr><tr><td>Date of birth</td><td><span>01 January 1994</span></td></tr></tbody></table></div>"},"extension":[{"url":"http://hl7.org/fhir/us/core/StructureDefinition/us-core-race","extension":[{"url":"ombCategory","valueCoding":{"system":"urn:oid:2.16.840.1.113883.6.238","code":"1002-5","display":"American Indian or Alaska Native","userSelected":true}},{"url":"text","valueString":"American Indian or Alaska Native"}]},{"url":"http://hl7.org/fhir/us/core/StructureDefinition/us-core-ethnicity","extension":[{"url":"ombCategory","valueCoding":{"system":"urn:oid:2.16.840.1.113883.6.238","code":"2135-2","display":"Hispanic or Latino","userSelected":true}},{"url":"text","valueString":"Hispanic or Latino"}]}],"identifier":[{"type":{"coding":[{"system":"http://terminology.hl7.org/CodeSystem/v2-0203","code":"MR"}]},"system":"https://bonnie-fhir.healthit.gov/","value":"61095b0998086b53805591a5"}],"active":true,"name":[{"use":"usual","family":"IPFail","given":["CatSurgAfterMP"]}],"gender":"female","birthDate":"1980-01-01"},"request":{"method":"PUT","url":"Patient/3f9e96d8-a941-46c5-8e97-35f9498e82c3"}},{"resource":{"resourceType":"Procedure","id":"bc142a7d-8846-458f-8b7e-1232846cfc8c","meta":{"profile":["http://hl7.org/fhir/us/qicore/StructureDefinition/qicore-procedure"]},"extension":[{"url":"http://hl7.org/fhir/us/qicore/StructureDefinition/qicore-recorded","valueDateTime":"2026-03-05T09:35:00-04:00"}],"status":"completed","code":{"coding":[{"system":"http://snomed.info/sct","code":"84149000"}]},"subject":{"reference":"Patient/3f9e96d8-a941-46c5-8e97-35f9498e82c3"},"performedPeriod":{"start":"2026-10-05T09:20:00-04:00","end":"2026-10-05T10:30:00-04:00"}},"request":{"method":"PUT","url":"Procedure/bc142a7d-8846-458f-8b7e-1232846cfc8c"}},{"resource":{"resourceType":"Bundle","id":"61095b0998086b53805591a5","type":"transaction","entry":[{"fullUrl":"https://madie.cms.gov/Patient/3f9e96d8-a941-46c5-8e97-35f9498e82c3","resource":{"resourceType":"Patient","id":"3f9e96d8-a941-46c5-8e97-35f9498e82c3","meta":{"profile":["http://hl7.org/fhir/us/qicore/StructureDefinition/qicore-patient"]},"text":{"status":"generated","div":"<div xmlns=\"http://www.w3.org/1999/xhtml\"><div class=\"hapiHeaderText\">Age@18 <b>DENOMPASS </b></div><table class=\"hapiPropertyTable\"><tbody><tr><td>Identifier</td><td>67f3e33acf17bcb386e754d726ed064ccd48ba21ff0ffb2eb678740a684398be</td></tr><tr><td>Date of birth</td><td><span>01 January 1994</span></td></tr></tbody></table></div>"},"extension":[{"url":"http://hl7.org/fhir/us/core/StructureDefinition/us-core-race","extension":[{"url":"ombCategory","valueCoding":{"system":"urn:oid:2.16.840.1.113883.6.238","code":"1002-5","display":"American Indian or Alaska Native","userSelected":true}},{"url":"text","valueString":"American Indian or Alaska Native"}]},{"url":"http://hl7.org/fhir/us/core/StructureDefinition/us-core-ethnicity","extension":[{"url":"ombCategory","valueCoding":{"system":"urn:oid:2.16.840.1.113883.6.238","code":"2135-2","display":"Hispanic or Latino","userSelected":true}},{"url":"text","valueString":"Hispanic or Latino"}]}],"identifier":[{"type":{"coding":[{"system":"http://terminology.hl7.org/CodeSystem/v2-0203","code":"MR"}]},"system":"https://bonnie-fhir.healthit.gov/","value":"61095b0998086b53805591a5"}],"active":true,"name":[{"use":"usual","family":"IPFail","given":["CatSurgAfterMP"]}],"gender":"female","birthDate":"1980-01-01"},"request":{"method":"PUT","url":"Patient/3f9e96d8-a941-46c5-8e97-35f9498e82c3"}},{"fullUrl":"https://madie.cms.gov/Observation/5383d91c-55ab-4dac-b45d-ef719673267a","resource":{"resourceType":"Observation","id":"5383d91c-55ab-4dac-b45d-ef719673267a","meta":{"profile":["http://hl7.org/fhir/us/qicore/StructureDefinition/qicore-observation-clinical-result"]},"status":"final","category":[{"coding":[{"system":"http://terminology.hl7.org/CodeSystem/observation-category","code":"exam","display":"exam"}]}],"code":{"coding":[{"system":"http://snomed.info/sct","code":"419775003"}]},"subject":{"reference":"Patient/3f9e96d8-a941-46c5-8e97-35f9498e82c3"},"effectivePeriod":{"start":"2026-03-13T09:00:00+00:00","end":"2026-03-13T09:30:00+00:00"}},"request":{"method":"PUT","url":"Observation/5383d91c-55ab-4dac-b45d-ef719673267a"}},{"fullUrl":"https://madie.cms.gov/Procedure/bc142a7d-8846-458f-8b7e-1232846cfc8c","resource":{"resourceType":"Procedure","id":"bc142a7d-8846-458f-8b7e-1232846cfc8c","meta":{"profile":["http://hl7.org/fhir/us/qicore/StructureDefinition/qicore-procedure"]},"extension":[{"url":"http://hl7.org/fhir/us/qicore/StructureDefinition/qicore-recorded","valueDateTime":"2026-03-05T09:35:00-04:00"}],"status":"completed","code":{"coding":[{"system":"http://snomed.info/sct","code":"84149000"}]},"subject":{"reference":"Patient/3f9e96d8-a941-46c5-8e97-35f9498e82c3"},"performedPeriod":{"start":"2026-10-05T09:20:00-04:00","end":"2026-10-05T10:30:00-04:00"}},"request":{"method":"PUT","url":"Procedure/bc142a7d-8846-458f-8b7e-1232846cfc8c"}},{"fullUrl":"https://madie.cms.gov/Coverage/1debca62-f671-453e-adf8-ef508c9a8930","resource":{"resourceType":"Coverage","id":"1debca62-f671-453e-adf8-ef508c9a8930","meta":{"profile":["http://hl7.org/fhir/us/qicore/StructureDefinition/qicore-coverage"]},"status":"active","beneficiary":{"reference":"Patient/3f9e96d8-a941-46c5-8e97-35f9498e82c3"},"payor":[{"reference":"Organization/b5f6e938-b051-4548-83dc-618ddb249d1c"}]},"request":{"method":"PUT","url":"Coverage/1debca62-f671-453e-adf8-ef508c9a8930"}},{"fullUrl":"https://madie.cms.gov/Organization/b5f6e938-b051-4548-83dc-618ddb249d1c","resource":{"resourceType":"Organization","id":"b5f6e938-b051-4548-83dc-618ddb249d1c","meta":{"profile":["http://hl7.org/fhir/us/qicore/StructureDefinition/qicore-organization"]},"identifier":[{"use":"temp","system":"urn:oid:2.16.840.1.113883.4.4","value":"21-3259825"}],"active":true,"type":[{"coding":[{"system":"http://terminology.hl7.org/CodeSystem/organization-type","code":"pay","display":"Payer"}]}],"name":"Blue Cross Blue Shield of Texas","telecom":[{"system":"phone","value":"(+1) 972-766-6900"}],"address":[{"use":"billing","type":"postal","line":["P.O. Box 660044"],"city":"Dallas","state":"TX","postalCode":"75266-0044","country":"USA"}]},"request":{"method":"PUT","url":"Organization/b5f6e938-b051-4548-83dc-618ddb249d1c"}},{"fullUrl":"https://madie.cms.gov/Practitioner/47ef36f0-236a-4692-a7a4-cdf3d0512539","resource":{"resourceType":"Practitioner","id":"47ef36f0-236a-4692-a7a4-cdf3d0512539","meta":{"profile":["http://hl7.org/fhir/us/qicore/StructureDefinition/qicore-practitioner"]},"identifier":[{"system":"http://hl7.org/fhir/sid/us-npi","value":"123456"}],"name":[{"family":"Evil","prefix":["Dr"]}]},"request":{"method":"PUT","url":"Practitioner/47ef36f0-236a-4692-a7a4-cdf3d0512539"}},{"fullUrl":"https://madie.cms.gov/MeasureReport/e6c91ab5-34dd-4c98-82e4-b380860d5a92","resource":{"resourceType":"MeasureReport","id":"e6c91ab5-34dd-4c98-82e4-b380860d5a92","meta":{"profile":["http://hl7.org/fhir/us/cqfmeasures/StructureDefinition/test-case-cqfm"]},"contained":[{"resourceType":"Parameters","id":"57b0f417-f02b-4ea9-8544-a1d3e8eee8b1-parameters","parameter":[{"name":"subject","valueString":"3f9e96d8-a941-46c5-8e97-35f9498e82c3"}]}],"extension":[{"url":"http://hl7.org/fhir/StructureDefinition/cqf-inputParameters","valueReference":{"reference":"#57b0f417-f02b-4ea9-8544-a1d3e8eee8b1-parameters"}},{"url":"http://hl7.org/fhir/us/cqfmeasures/StructureDefinition/cqfm-testCaseDescription","valueMarkdown":"Patient with cataract surgery after measurement period. "}],"modifierExtension":[{"url":"http://hl7.org/fhir/us/cqfmeasures/StructureDefinition/cqfm-isTestCase","valueBoolean":true}],"status":"complete","type":"individual","measure":"https://madie.cms.gov/Measure/CMS133FHIRCataracts2040BCVAwithin90Days","period":{"start":"2026-01-01","end":"2026-12-31"},"group":[{"id":"Group_1","population":[{"id":"InitialPopulation_1","code":{"coding":[{"system":"http://terminology.hl7.org/CodeSystem/measure-population","code":"initial-population","display":"Initial Population"}]},"count":0},{"id":"Denominator_1","code":{"coding":[{"system":"http://terminology.hl7.org/CodeSystem/measure-population","code":"denominator","display":"Denominator"}]},"count":0},{"id":"DenominatorExclusion_1","code":{"coding":[{"system":"http://terminology.hl7.org/CodeSystem/measure-population","code":"denominator-exclusion","display":"Denominator Exclusion"}]},"count":0},{"id":"Numerator_1","code":{"coding":[{"system":"http://terminology.hl7.org/CodeSystem/measure-population","code":"numerator","display":"Numerator"}]},"count":0}],"measureScore":{"value":0.0}}],"evaluatedResource":[{"reference":"Patient/3f9e96d8-a941-46c5-8e97-35f9498e82c3"},{"reference":"Observation/5383d91c-55ab-4dac-b45d-ef719673267a"},{"reference":"Procedure/bc142a7d-8846-458f-8b7e-1232846cfc8c"},{"reference":"Coverage/1debca62-f671-453e-adf8-ef508c9a8930"},{"reference":"Organization/b5f6e938-b051-4548-83dc-618ddb249d1c"},{"reference":"Practitioner/47ef36f0-236a-4692-a7a4-cdf3d0512539"}]},"request":{"method":"PUT","url":"MeasureReport/e6c91ab5-34dd-4c98-82e4-b380860d5a92"}}]},"request":{"method":"PUT","url":"Bundle/61095b0998086b53805591a5"}},{"resource":{"resourceType":"Organization","id":"b5f6e938-b051-4548-83dc-618ddb249d1c","meta":{"profile":["http://hl7.org/fhir/us/qicore/StructureDefinition/qicore-organization"]},"identifier":[{"use":"temp","system":"urn:oid:2.16.840.1.113883.4.4","value":"21-3259825"}],"active":true,"type":[{"coding":[{"system":"http://terminology.hl7.org/CodeSystem/organization-type","code":"pay","display":"Payer"}]}],"name":"Blue Cross Blue Shield of Texas","telecom":[{"system":"phone","value":"(+1) 972-766-6900"}],"address":[{"use":"billing","type":"postal","line":["P.O. Box 660044"],"city":"Dallas","state":"TX","postalCode":"75266-0044","country":"USA"}]},"request":{"method":"PUT","url":"Organization/b5f6e938-b051-4548-83dc-618ddb249d1c"}},{"resource":{"resourceType":"Observation","id":"5383d91c-55ab-4dac-b45d-ef719673267a","meta":{"profile":["http://hl7.org/fhir/us/qicore/StructureDefinition/qicore-observation-clinical-result"]},"status":"final","category":[{"coding":[{"system":"http://terminology.hl7.org/CodeSystem/observation-category","code":"exam","display":"exam"}]}],"code":{"coding":[{"system":"http://snomed.info/sct","code":"419775003"}]},"subject":{"reference":"Patient/3f9e96d8-a941-46c5-8e97-35f9498e82c3"},"effectivePeriod":{"start":"2026-03-13T09:00:00+00:00","end":"2026-03-13T09:30:00+00:00"}},"request":{"method":"PUT","url":"Observation/5383d91c-55ab-4dac-b45d-ef719673267a"}},{"resource":{"resourceType":"MeasureReport","id":"e6c91ab5-34dd-4c98-82e4-b380860d5a92","meta":{"profile":["http://hl7.org/fhir/us/cqfmeasures/StructureDefinition/test-case-cqfm"]},"contained":[{"resourceType":"Parameters","id":"57b0f417-f02b-4ea9-8544-a1d3e8eee8b1-parameters","parameter":[{"name":"subject","valueString":"3f9e96d8-a941-46c5-8e97-35f9498e82c3"}]}],"extension":[{"url":"http://hl7.org/fhir/StructureDefinition/cqf-inputParameters","valueReference":{"reference":"#57b0f417-f02b-4ea9-8544-a1d3e8eee8b1-parameters"}},{"url":"http://hl7.org/fhir/us/cqfmeasures/StructureDefinition/cqfm-testCaseDescription","valueMarkdown":"Patient with cataract surgery after measurement period. "}],"modifierExtension":[{"url":"http://hl7.org/fhir/us/cqfmeasures/StructureDefinition/cqfm-isTestCase","valueBoolean":true}],"status":"complete","type":"individual","measure":"https://madie.cms.gov/Measure/CMS133FHIRCataracts2040BCVAwithin90Days","period":{"start":"2026-01-01","end":"2026-12-31"},"group":[{"id":"Group_1","population":[{"id":"InitialPopulation_1","code":{"coding":[{"system":"http://terminology.hl7.org/CodeSystem/measure-population","code":"initial-population","display":"Initial Population"}]},"count":0},{"id":"Denominator_1","code":{"coding":[{"system":"http://terminology.hl7.org/CodeSystem/measure-population","code":"denominator","display":"Denominator"}]},"count":0},{"id":"DenominatorExclusion_1","code":{"coding":[{"system":"http://terminology.hl7.org/CodeSystem/measure-population","code":"denominator-exclusion","display":"Denominator Exclusion"}]},"count":0},{"id":"Numerator_1","code":{"coding":[{"system":"http://terminology.hl7.org/CodeSystem/measure-population","code":"numerator","display":"Numerator"}]},"count":0}],"measureScore":{"value":0.0}}],"evaluatedResource":[{"reference":"Patient/3f9e96d8-a941-46c5-8e97-35f9498e82c3"},{"reference":"Observation/5383d91c-55ab-4dac-b45d-ef719673267a"},{"reference":"Procedure/bc142a7d-8846-458f-8b7e-1232846cfc8c"},{"reference":"Coverage/1debca62-f671-453e-adf8-ef508c9a8930"},{"reference":"Organization/b5f6e938-b051-4548-83dc-618ddb249d1c"},{"reference":"Practitioner/47ef36f0-236a-4692-a7a4-cdf3d0512539"}]},"request":{"method":"PUT","url":"MeasureReport/e6c91ab5-34dd-4c98-82e4-b380860d5a92"}},{"resource":{"resourceType":"Coverage","id":"1debca62-f671-453e-adf8-ef508c9a8930","meta":{"profile":["http://hl7.org/fhir/us/qicore/StructureDefinition/qicore-coverage"]},"status":"active","beneficiary":{"reference":"Patient/3f9e96d8-a941-46c5-8e97-35f9498e82c3"},"payor":[{"reference":"Organization/b5f6e938-b051-4548-83dc-618ddb249d1c"}]},"request":{"method":"PUT","url":"Coverage/1debca62-f671-453e-adf8-ef508c9a8930"}}]}