{"resourceType":"Bundle","id":"tests-61b582fe-c745-41cb-94a2-f0cf547f3455-bundle","type":"transaction","entry":[{"resource":{"resourceType":"Bundle","id":"61095b0998086b53805591a5","type":"transaction","entry":[{"fullUrl":"https://madie.cms.gov/Patient/61b582fe-c745-41cb-94a2-f0cf547f3455","resource":{"resourceType":"Patient","id":"61b582fe-c745-41cb-94a2-f0cf547f3455","meta":{"profile":["http://hl7.org/fhir/us/qicore/StructureDefinition/qicore-patient"]},"text":{"status":"generated","div":"<div xmlns=\"http://www.w3.org/1999/xhtml\"><div class=\"hapiHeaderText\">Age@18 <b>DENOMPASS </b></div><table class=\"hapiPropertyTable\"><tbody><tr><td>Identifier</td><td>67f3e33acf17bcb386e754d726ed064ccd48ba21ff0ffb2eb678740a684398be</td></tr><tr><td>Date of birth</td><td><span>01 January 1994</span></td></tr></tbody></table></div>"},"extension":[{"url":"http://hl7.org/fhir/us/core/StructureDefinition/us-core-race","extension":[{"url":"ombCategory","valueCoding":{"system":"urn:oid:2.16.840.1.113883.6.238","code":"1002-5","display":"American Indian or Alaska Native","userSelected":true}},{"url":"text","valueString":"American Indian or Alaska Native"}]},{"url":"http://hl7.org/fhir/us/core/StructureDefinition/us-core-ethnicity","extension":[{"url":"ombCategory","valueCoding":{"system":"urn:oid:2.16.840.1.113883.6.238","code":"2135-2","display":"Hispanic or Latino","userSelected":true}},{"url":"text","valueString":"Hispanic or Latino"}]}],"identifier":[{"type":{"coding":[{"system":"http://terminology.hl7.org/CodeSystem/v2-0203","code":"MR"}]},"system":"https://bonnie-fhir.healthit.gov/","value":"61095b0998086b53805591a5"}],"active":true,"name":[{"use":"usual","family":"DENEXPASS","given":["PathologicMyopiaWithCatSurg"]}],"gender":"female","birthDate":"1996-01-01"},"request":{"method":"PUT","url":"Patient/61b582fe-c745-41cb-94a2-f0cf547f3455"}},{"fullUrl":"https://madie.cms.gov/Observation/61727aa7-0208-43e0-9c88-6e4f1cee84dd","resource":{"resourceType":"Observation","id":"61727aa7-0208-43e0-9c88-6e4f1cee84dd","meta":{"profile":["http://hl7.org/fhir/us/qicore/StructureDefinition/qicore-observation-clinical-result"]},"status":"final","category":[{"coding":[{"system":"http://terminology.hl7.org/CodeSystem/observation-category","code":"exam","display":"exam"}]}],"code":{"coding":[{"system":"http://snomed.info/sct","code":"419775003"}]},"subject":{"reference":"Patient/61b582fe-c745-41cb-94a2-f0cf547f3455"},"effectivePeriod":{"start":"2026-03-13T09:00:00+00:00","end":"2026-03-13T09:30:00+00:00"}},"request":{"method":"PUT","url":"Observation/61727aa7-0208-43e0-9c88-6e4f1cee84dd"}},{"fullUrl":"https://madie.cms.gov/Procedure/b2cc3132-4695-47ea-acef-26754b576c7f","resource":{"resourceType":"Procedure","id":"b2cc3132-4695-47ea-acef-26754b576c7f","meta":{"profile":["http://hl7.org/fhir/us/qicore/StructureDefinition/qicore-procedure"]},"extension":[{"url":"http://hl7.org/fhir/us/qicore/StructureDefinition/qicore-recorded","valueDateTime":"2026-03-05T09:35:00-04:00"}],"status":"completed","code":{"coding":[{"system":"http://snomed.info/sct","code":"84149000"}]},"subject":{"reference":"Patient/61b582fe-c745-41cb-94a2-f0cf547f3455"},"performedPeriod":{"start":"2026-03-05T09:20:00-04:00","end":"2026-04-05T10:30:00-04:00"}},"request":{"method":"PUT","url":"Procedure/b2cc3132-4695-47ea-acef-26754b576c7f"}},{"fullUrl":"https://madie.cms.gov/Condition/69ef1517-6e39-4077-abb6-84bb7652161f","resource":{"resourceType":"Condition","id":"69ef1517-6e39-4077-abb6-84bb7652161f","meta":{"profile":["http://hl7.org/fhir/us/qicore/StructureDefinition/qicore-condition-encounter-diagnosis"]},"clinicalStatus":{"coding":[{"system":"http://terminology.hl7.org/CodeSystem/condition-clinical","code":"active","display":"active","userSelected":true}]},"category":[{"coding":[{"system":"http://terminology.hl7.org/CodeSystem/condition-clinical","code":"active","display":"active","userSelected":true}]}],"code":{"coding":[{"system":"http://hl7.org/fhir/sid/icd-10-cm","code":"H44.21","userSelected":true},{"system":"http://snomed.info/sct","code":"232072004","userSelected":true}]},"subject":{"reference":"Patient/61b582fe-c745-41cb-94a2-f0cf547f3455"},"onsetDateTime":"2024-11-01T08:00:00.000+00:00"},"request":{"method":"PUT","url":"Condition/69ef1517-6e39-4077-abb6-84bb7652161f"}},{"fullUrl":"https://madie.cms.gov/Coverage/dbfe1c56-ce4e-45d9-8fd6-ddcd474fb68f","resource":{"resourceType":"Coverage","id":"dbfe1c56-ce4e-45d9-8fd6-ddcd474fb68f","meta":{"profile":["http://hl7.org/fhir/us/qicore/StructureDefinition/qicore-coverage"]},"status":"active","beneficiary":{"reference":"Patient/61b582fe-c745-41cb-94a2-f0cf547f3455"},"payor":[{"reference":"Organization/876762cb-0da7-4939-ae0c-4b3bc26fd292"}]},"request":{"method":"PUT","url":"Coverage/dbfe1c56-ce4e-45d9-8fd6-ddcd474fb68f"}},{"fullUrl":"https://madie.cms.gov/Organization/876762cb-0da7-4939-ae0c-4b3bc26fd292","resource":{"resourceType":"Organization","id":"876762cb-0da7-4939-ae0c-4b3bc26fd292","meta":{"profile":["http://hl7.org/fhir/us/qicore/StructureDefinition/qicore-organization"]},"identifier":[{"use":"temp","system":"urn:oid:2.16.840.1.113883.4.4","value":"21-3259825"}],"active":true,"type":[{"coding":[{"system":"http://terminology.hl7.org/CodeSystem/organization-type","code":"pay","display":"Payer"}]}],"name":"Blue Cross Blue Shield of Texas","telecom":[{"system":"phone","value":"(+1) 972-766-6900"}],"address":[{"use":"billing","type":"postal","line":["P.O. Box 660044"],"city":"Dallas","state":"TX","postalCode":"75266-0044","country":"USA"}]},"request":{"method":"PUT","url":"Organization/876762cb-0da7-4939-ae0c-4b3bc26fd292"}},{"fullUrl":"https://madie.cms.gov/Practitioner/4b11ff94-6758-42e8-a86e-e82328f8f489","resource":{"resourceType":"Practitioner","id":"4b11ff94-6758-42e8-a86e-e82328f8f489","meta":{"profile":["http://hl7.org/fhir/us/qicore/StructureDefinition/qicore-practitioner"]},"identifier":[{"system":"http://hl7.org/fhir/sid/us-npi","value":"123456"}],"name":[{"family":"Evil","prefix":["Dr"]}]},"request":{"method":"PUT","url":"Practitioner/4b11ff94-6758-42e8-a86e-e82328f8f489"}},{"fullUrl":"https://madie.cms.gov/MeasureReport/d4fd38a1-60ec-42a6-b57a-cc2487ba3ee2","resource":{"resourceType":"MeasureReport","id":"d4fd38a1-60ec-42a6-b57a-cc2487ba3ee2","meta":{"profile":["http://hl7.org/fhir/us/cqfmeasures/StructureDefinition/test-case-cqfm"]},"contained":[{"resourceType":"Parameters","id":"131ad1cd-67c4-425f-bbba-a0105c4c1f0d-parameters","parameter":[{"name":"subject","valueString":"61b582fe-c745-41cb-94a2-f0cf547f3455"}]}],"extension":[{"url":"http://hl7.org/fhir/StructureDefinition/cqf-inputParameters","valueReference":{"reference":"#131ad1cd-67c4-425f-bbba-a0105c4c1f0d-parameters"}},{"url":"http://hl7.org/fhir/us/cqfmeasures/StructureDefinition/cqfm-testCaseDescription","valueMarkdown":"Patient with Pathologic Myopia with cataract surgery. "}],"modifierExtension":[{"url":"http://hl7.org/fhir/us/cqfmeasures/StructureDefinition/cqfm-isTestCase","valueBoolean":true}],"status":"complete","type":"individual","measure":"https://madie.cms.gov/Measure/CMS133FHIRCataracts2040BCVAwithin90Days","period":{"start":"2026-01-01","end":"2026-12-31"},"group":[{"id":"Group_1","population":[{"id":"InitialPopulation_1","code":{"coding":[{"system":"http://terminology.hl7.org/CodeSystem/measure-population","code":"initial-population","display":"Initial Population"}]},"count":1},{"id":"Denominator_1","code":{"coding":[{"system":"http://terminology.hl7.org/CodeSystem/measure-population","code":"denominator","display":"Denominator"}]},"count":1},{"id":"DenominatorExclusion_1","code":{"coding":[{"system":"http://terminology.hl7.org/CodeSystem/measure-population","code":"denominator-exclusion","display":"Denominator Exclusion"}]},"count":1},{"id":"Numerator_1","code":{"coding":[{"system":"http://terminology.hl7.org/CodeSystem/measure-population","code":"numerator","display":"Numerator"}]},"count":0}],"measureScore":{"value":0.0}}],"evaluatedResource":[{"reference":"Patient/61b582fe-c745-41cb-94a2-f0cf547f3455"},{"reference":"Observation/61727aa7-0208-43e0-9c88-6e4f1cee84dd"},{"reference":"Procedure/b2cc3132-4695-47ea-acef-26754b576c7f"},{"reference":"Condition/69ef1517-6e39-4077-abb6-84bb7652161f"},{"reference":"Coverage/dbfe1c56-ce4e-45d9-8fd6-ddcd474fb68f"},{"reference":"Organization/876762cb-0da7-4939-ae0c-4b3bc26fd292"},{"reference":"Practitioner/4b11ff94-6758-42e8-a86e-e82328f8f489"}]},"request":{"method":"PUT","url":"MeasureReport/d4fd38a1-60ec-42a6-b57a-cc2487ba3ee2"}}]},"request":{"method":"PUT","url":"Bundle/61095b0998086b53805591a5"}},{"resource":{"resourceType":"Organization","id":"876762cb-0da7-4939-ae0c-4b3bc26fd292","meta":{"profile":["http://hl7.org/fhir/us/qicore/StructureDefinition/qicore-organization"]},"identifier":[{"use":"temp","system":"urn:oid:2.16.840.1.113883.4.4","value":"21-3259825"}],"active":true,"type":[{"coding":[{"system":"http://terminology.hl7.org/CodeSystem/organization-type","code":"pay","display":"Payer"}]}],"name":"Blue Cross Blue Shield of Texas","telecom":[{"system":"phone","value":"(+1) 972-766-6900"}],"address":[{"use":"billing","type":"postal","line":["P.O. Box 660044"],"city":"Dallas","state":"TX","postalCode":"75266-0044","country":"USA"}]},"request":{"method":"PUT","url":"Organization/876762cb-0da7-4939-ae0c-4b3bc26fd292"}},{"resource":{"resourceType":"Coverage","id":"dbfe1c56-ce4e-45d9-8fd6-ddcd474fb68f","meta":{"profile":["http://hl7.org/fhir/us/qicore/StructureDefinition/qicore-coverage"]},"status":"active","beneficiary":{"reference":"Patient/61b582fe-c745-41cb-94a2-f0cf547f3455"},"payor":[{"reference":"Organization/876762cb-0da7-4939-ae0c-4b3bc26fd292"}]},"request":{"method":"PUT","url":"Coverage/dbfe1c56-ce4e-45d9-8fd6-ddcd474fb68f"}},{"resource":{"resourceType":"Procedure","id":"b2cc3132-4695-47ea-acef-26754b576c7f","meta":{"profile":["http://hl7.org/fhir/us/qicore/StructureDefinition/qicore-procedure"]},"extension":[{"url":"http://hl7.org/fhir/us/qicore/StructureDefinition/qicore-recorded","valueDateTime":"2026-03-05T09:35:00-04:00"}],"status":"completed","code":{"coding":[{"system":"http://snomed.info/sct","code":"84149000"}]},"subject":{"reference":"Patient/61b582fe-c745-41cb-94a2-f0cf547f3455"},"performedPeriod":{"start":"2026-03-05T09:20:00-04:00","end":"2026-04-05T10:30:00-04:00"}},"request":{"method":"PUT","url":"Procedure/b2cc3132-4695-47ea-acef-26754b576c7f"}},{"resource":{"resourceType":"Condition","id":"69ef1517-6e39-4077-abb6-84bb7652161f","meta":{"profile":["http://hl7.org/fhir/us/qicore/StructureDefinition/qicore-condition-encounter-diagnosis"]},"clinicalStatus":{"coding":[{"system":"http://terminology.hl7.org/CodeSystem/condition-clinical","code":"active","display":"active","userSelected":true}]},"category":[{"coding":[{"system":"http://terminology.hl7.org/CodeSystem/condition-clinical","code":"active","display":"active","userSelected":true}]}],"code":{"coding":[{"system":"http://hl7.org/fhir/sid/icd-10-cm","code":"H44.21","userSelected":true},{"system":"http://snomed.info/sct","code":"232072004","userSelected":true}]},"subject":{"reference":"Patient/61b582fe-c745-41cb-94a2-f0cf547f3455"},"onsetDateTime":"2024-11-01T08:00:00.000+00:00"},"request":{"method":"PUT","url":"Condition/69ef1517-6e39-4077-abb6-84bb7652161f"}},{"resource":{"resourceType":"Patient","id":"61b582fe-c745-41cb-94a2-f0cf547f3455","meta":{"profile":["http://hl7.org/fhir/us/qicore/StructureDefinition/qicore-patient"]},"text":{"status":"generated","div":"<div xmlns=\"http://www.w3.org/1999/xhtml\"><div class=\"hapiHeaderText\">Age@18 <b>DENOMPASS </b></div><table class=\"hapiPropertyTable\"><tbody><tr><td>Identifier</td><td>67f3e33acf17bcb386e754d726ed064ccd48ba21ff0ffb2eb678740a684398be</td></tr><tr><td>Date of birth</td><td><span>01 January 1994</span></td></tr></tbody></table></div>"},"extension":[{"url":"http://hl7.org/fhir/us/core/StructureDefinition/us-core-race","extension":[{"url":"ombCategory","valueCoding":{"system":"urn:oid:2.16.840.1.113883.6.238","code":"1002-5","display":"American Indian or Alaska Native","userSelected":true}},{"url":"text","valueString":"American Indian or Alaska Native"}]},{"url":"http://hl7.org/fhir/us/core/StructureDefinition/us-core-ethnicity","extension":[{"url":"ombCategory","valueCoding":{"system":"urn:oid:2.16.840.1.113883.6.238","code":"2135-2","display":"Hispanic or Latino","userSelected":true}},{"url":"text","valueString":"Hispanic or Latino"}]}],"identifier":[{"type":{"coding":[{"system":"http://terminology.hl7.org/CodeSystem/v2-0203","code":"MR"}]},"system":"https://bonnie-fhir.healthit.gov/","value":"61095b0998086b53805591a5"}],"active":true,"name":[{"use":"usual","family":"DENEXPASS","given":["PathologicMyopiaWithCatSurg"]}],"gender":"female","birthDate":"1996-01-01"},"request":{"method":"PUT","url":"Patient/61b582fe-c745-41cb-94a2-f0cf547f3455"}},{"resource":{"resourceType":"Observation","id":"61727aa7-0208-43e0-9c88-6e4f1cee84dd","meta":{"profile":["http://hl7.org/fhir/us/qicore/StructureDefinition/qicore-observation-clinical-result"]},"status":"final","category":[{"coding":[{"system":"http://terminology.hl7.org/CodeSystem/observation-category","code":"exam","display":"exam"}]}],"code":{"coding":[{"system":"http://snomed.info/sct","code":"419775003"}]},"subject":{"reference":"Patient/61b582fe-c745-41cb-94a2-f0cf547f3455"},"effectivePeriod":{"start":"2026-03-13T09:00:00+00:00","end":"2026-03-13T09:30:00+00:00"}},"request":{"method":"PUT","url":"Observation/61727aa7-0208-43e0-9c88-6e4f1cee84dd"}},{"resource":{"resourceType":"Practitioner","id":"4b11ff94-6758-42e8-a86e-e82328f8f489","meta":{"profile":["http://hl7.org/fhir/us/qicore/StructureDefinition/qicore-practitioner"]},"identifier":[{"system":"http://hl7.org/fhir/sid/us-npi","value":"123456"}],"name":[{"family":"Evil","prefix":["Dr"]}]},"request":{"method":"PUT","url":"Practitioner/4b11ff94-6758-42e8-a86e-e82328f8f489"}},{"resource":{"resourceType":"MeasureReport","id":"d4fd38a1-60ec-42a6-b57a-cc2487ba3ee2","meta":{"profile":["http://hl7.org/fhir/us/cqfmeasures/StructureDefinition/test-case-cqfm"]},"contained":[{"resourceType":"Parameters","id":"131ad1cd-67c4-425f-bbba-a0105c4c1f0d-parameters","parameter":[{"name":"subject","valueString":"61b582fe-c745-41cb-94a2-f0cf547f3455"}]}],"extension":[{"url":"http://hl7.org/fhir/StructureDefinition/cqf-inputParameters","valueReference":{"reference":"#131ad1cd-67c4-425f-bbba-a0105c4c1f0d-parameters"}},{"url":"http://hl7.org/fhir/us/cqfmeasures/StructureDefinition/cqfm-testCaseDescription","valueMarkdown":"Patient with Pathologic Myopia with cataract surgery. "}],"modifierExtension":[{"url":"http://hl7.org/fhir/us/cqfmeasures/StructureDefinition/cqfm-isTestCase","valueBoolean":true}],"status":"complete","type":"individual","measure":"https://madie.cms.gov/Measure/CMS133FHIRCataracts2040BCVAwithin90Days","period":{"start":"2026-01-01","end":"2026-12-31"},"group":[{"id":"Group_1","population":[{"id":"InitialPopulation_1","code":{"coding":[{"system":"http://terminology.hl7.org/CodeSystem/measure-population","code":"initial-population","display":"Initial Population"}]},"count":1},{"id":"Denominator_1","code":{"coding":[{"system":"http://terminology.hl7.org/CodeSystem/measure-population","code":"denominator","display":"Denominator"}]},"count":1},{"id":"DenominatorExclusion_1","code":{"coding":[{"system":"http://terminology.hl7.org/CodeSystem/measure-population","code":"denominator-exclusion","display":"Denominator Exclusion"}]},"count":1},{"id":"Numerator_1","code":{"coding":[{"system":"http://terminology.hl7.org/CodeSystem/measure-population","code":"numerator","display":"Numerator"}]},"count":0}],"measureScore":{"value":0.0}}],"evaluatedResource":[{"reference":"Patient/61b582fe-c745-41cb-94a2-f0cf547f3455"},{"reference":"Observation/61727aa7-0208-43e0-9c88-6e4f1cee84dd"},{"reference":"Procedure/b2cc3132-4695-47ea-acef-26754b576c7f"},{"reference":"Condition/69ef1517-6e39-4077-abb6-84bb7652161f"},{"reference":"Coverage/dbfe1c56-ce4e-45d9-8fd6-ddcd474fb68f"},{"reference":"Organization/876762cb-0da7-4939-ae0c-4b3bc26fd292"},{"reference":"Practitioner/4b11ff94-6758-42e8-a86e-e82328f8f489"}]},"request":{"method":"PUT","url":"MeasureReport/d4fd38a1-60ec-42a6-b57a-cc2487ba3ee2"}}]}