{"resourceType":"Bundle","id":"tests-1b854323-2f47-4bdb-88ee-d34e6d28ba63-bundle","type":"transaction","entry":[{"fullUrl":"Procedure/c8f21ee7-aa53-48c7-b5df-3388309cbf1b","resource":{"resourceType":"Procedure","id":"c8f21ee7-aa53-48c7-b5df-3388309cbf1b","meta":{"profile":["http://hl7.org/fhir/us/qicore/StructureDefinition/qicore-procedure"]},"extension":[{"url":"http://hl7.org/fhir/us/qicore/StructureDefinition/qicore-recorded","valueDateTime":"2026-09-30T09:35:00-08:00"}],"status":"completed","code":{"coding":[{"system":"http://snomed.info/sct","code":"84149000"}]},"subject":{"reference":"Patient/1b854323-2f47-4bdb-88ee-d34e6d28ba63"},"performedPeriod":{"start":"2026-09-30T09:20:00-08:00","end":"2026-09-30T10:30:00-08:00"}},"request":{"method":"PUT","url":"Procedure/c8f21ee7-aa53-48c7-b5df-3388309cbf1b"}},{"fullUrl":"Organization/4ae2607e-0a31-49a6-aca9-189c10e5b5c7","resource":{"resourceType":"Organization","id":"4ae2607e-0a31-49a6-aca9-189c10e5b5c7","meta":{"profile":["http://hl7.org/fhir/us/qicore/StructureDefinition/qicore-organization"]},"identifier":[{"use":"temp","system":"urn:oid:2.16.840.1.113883.4.4","value":"21-3259825"}],"active":true,"type":[{"coding":[{"system":"http://terminology.hl7.org/CodeSystem/organization-type","code":"pay","display":"Payer"}]}],"name":"Blue Cross Blue Shield of Texas","telecom":[{"system":"phone","value":"(+1) 972-766-6900"}],"address":[{"use":"billing","type":"postal","line":["P.O. Box 660044"],"city":"Dallas","state":"TX","postalCode":"75266-0044","country":"USA"}]},"request":{"method":"PUT","url":"Organization/4ae2607e-0a31-49a6-aca9-189c10e5b5c7"}},{"fullUrl":"Patient/1b854323-2f47-4bdb-88ee-d34e6d28ba63","resource":{"resourceType":"Patient","id":"1b854323-2f47-4bdb-88ee-d34e6d28ba63","meta":{"profile":["http://hl7.org/fhir/us/qicore/StructureDefinition/qicore-patient"]},"text":{"status":"generated","div":"<div xmlns=\"http://www.w3.org/1999/xhtml\"><div class=\"hapiHeaderText\">Age@18 <b>DENOMPASS </b></div><table class=\"hapiPropertyTable\"><tbody><tr><td>Identifier</td><td>67f3e33acf17bcb386e754d726ed064ccd48ba21ff0ffb2eb678740a684398be</td></tr><tr><td>Date of birth</td><td><span>01 January 1994</span></td></tr></tbody></table></div>"},"extension":[{"url":"http://hl7.org/fhir/us/core/StructureDefinition/us-core-race","extension":[{"url":"ombCategory","valueCoding":{"system":"urn:oid:2.16.840.1.113883.6.238","code":"1002-5","display":"American Indian or Alaska Native","userSelected":true}},{"url":"text","valueString":"American Indian or Alaska Native"}]},{"url":"http://hl7.org/fhir/us/core/StructureDefinition/us-core-ethnicity","extension":[{"url":"ombCategory","valueCoding":{"system":"urn:oid:2.16.840.1.113883.6.238","code":"2135-2","display":"Hispanic or Latino","userSelected":true}},{"url":"text","valueString":"Hispanic or Latino"}]},{"url":"http://hl7.org/fhir/us/core/StructureDefinition/us-core-sex","valueCode":"248152002"}],"identifier":[{"type":{"coding":[{"system":"http://terminology.hl7.org/CodeSystem/v2-0203","code":"MR"}]},"system":"https://bonnie-fhir.healthit.gov/","value":"61095b0998086b53805591a5"}],"active":true,"name":[{"use":"usual","family":"NUMPASS","given":["VisAcuity20/40=90DaysAfter"]}],"gender":"female","birthDate":"1996-01-01"},"request":{"method":"PUT","url":"Patient/1b854323-2f47-4bdb-88ee-d34e6d28ba63"}},{"fullUrl":"Coverage/0ee33a4d-8367-4ec1-a17f-62e2d3ef88c9","resource":{"resourceType":"Coverage","id":"0ee33a4d-8367-4ec1-a17f-62e2d3ef88c9","meta":{"profile":["http://hl7.org/fhir/us/qicore/StructureDefinition/qicore-coverage"]},"status":"active","beneficiary":{"reference":"Patient/1b854323-2f47-4bdb-88ee-d34e6d28ba63"},"payor":[{"reference":"Organization/4ae2607e-0a31-49a6-aca9-189c10e5b5c7"}]},"request":{"method":"PUT","url":"Coverage/0ee33a4d-8367-4ec1-a17f-62e2d3ef88c9"}},{"fullUrl":"Observation/8bc079fe-b089-4514-aba7-e446193a9b1b","resource":{"resourceType":"Observation","id":"8bc079fe-b089-4514-aba7-e446193a9b1b","meta":{"profile":["http://hl7.org/fhir/us/qicore/StructureDefinition/qicore-observation-clinical-result"]},"status":"final","category":[{"coding":[{"system":"http://terminology.hl7.org/CodeSystem/observation-category","code":"exam","display":"exam"}]}],"code":{"coding":[{"system":"http://snomed.info/sct","code":"419775003"}]},"subject":{"reference":"Patient/1b854323-2f47-4bdb-88ee-d34e6d28ba63"},"effectivePeriod":{"start":"2026-11-27T09:00:00+00:00","end":"2026-11-27T09:30:00+00:00"}},"request":{"method":"PUT","url":"Observation/8bc079fe-b089-4514-aba7-e446193a9b1b"}},{"fullUrl":"Observation/804620e5-f613-4235-9163-e2bba07619fb","resource":{"resourceType":"Observation","id":"804620e5-f613-4235-9163-e2bba07619fb","meta":{"profile":["http://hl7.org/fhir/us/qicore/StructureDefinition/qicore-observation-clinical-result"]},"status":"final","category":[{"coding":[{"system":"http://terminology.hl7.org/CodeSystem/observation-category","code":"exam","display":"Exam","userSelected":true}]}],"code":{"coding":[{"system":"http://snomed.info/sct","code":"419775003","display":"Best corrected visual acuity (observable entity)","userSelected":true}]},"subject":{"reference":"Patient/1b854323-2f47-4bdb-88ee-d34e6d28ba63"},"effectiveDateTime":"2026-11-27T08:00:00.000Z","valueCodeableConcept":{"coding":[{"system":"http://snomed.info/sct","version":"2021-09","code":"424703005","display":"Distance vision 20/40 (finding)","userSelected":true}]}},"request":{"method":"PUT","url":"Observation/804620e5-f613-4235-9163-e2bba07619fb"}},{"fullUrl":"Practitioner/c6ba4b87-35cc-41f0-97f5-4b7e63e3ff25","resource":{"resourceType":"Practitioner","id":"c6ba4b87-35cc-41f0-97f5-4b7e63e3ff25","meta":{"profile":["http://hl7.org/fhir/us/qicore/StructureDefinition/qicore-practitioner"]},"identifier":[{"system":"http://hl7.org/fhir/sid/us-npi","value":"123456"}],"name":[{"family":"Evil","prefix":["Dr"]}]},"request":{"method":"PUT","url":"Practitioner/c6ba4b87-35cc-41f0-97f5-4b7e63e3ff25"}},{"fullUrl":"MeasureReport/3d38828d-e92a-43d5-8119-95f0a56eef4a","resource":{"resourceType":"MeasureReport","id":"3d38828d-e92a-43d5-8119-95f0a56eef4a","meta":{"profile":["http://hl7.org/fhir/us/cqfmeasures/StructureDefinition/test-case-cqfm"]},"contained":[{"resourceType":"Parameters","id":"658e3489-f1a8-4db2-a74b-16e83b091590-parameters","parameter":[{"name":"subject","valueString":"1b854323-2f47-4bdb-88ee-d34e6d28ba63"}]}],"extension":[{"url":"http://hl7.org/fhir/StructureDefinition/cqf-inputParameters","valueReference":{"reference":"#658e3489-f1a8-4db2-a74b-16e83b091590-parameters"}},{"url":"http://hl7.org/fhir/us/cqfmeasures/StructureDefinition/cqfm-testCaseDescription","valueMarkdown":"Patient with cat surg September 30 and visual acuity 20/40 or better within 90 days of cataract surgery. "}],"modifierExtension":[{"url":"http://hl7.org/fhir/us/cqfmeasures/StructureDefinition/cqfm-isTestCase","valueBoolean":true}],"status":"complete","type":"individual","measure":"https://madie.cms.gov/Measure/CMS133FHIRCataracts2040BCVAwithin90Days","period":{"start":"2026-01-01","end":"2026-12-31"},"group":[{"id":"Group_1","population":[{"id":"InitialPopulation_1","code":{"coding":[{"system":"http://terminology.hl7.org/CodeSystem/measure-population","code":"initial-population","display":"Initial Population"}]},"count":1},{"id":"Denominator_1","code":{"coding":[{"system":"http://terminology.hl7.org/CodeSystem/measure-population","code":"denominator","display":"Denominator"}]},"count":1},{"id":"DenominatorExclusion_1","code":{"coding":[{"system":"http://terminology.hl7.org/CodeSystem/measure-population","code":"denominator-exclusion","display":"Denominator Exclusion"}]},"count":0},{"id":"Numerator_1","code":{"coding":[{"system":"http://terminology.hl7.org/CodeSystem/measure-population","code":"numerator","display":"Numerator"}]},"count":1}],"measureScore":{"value":0.0}}],"evaluatedResource":[{"reference":"Patient/1b854323-2f47-4bdb-88ee-d34e6d28ba63"},{"reference":"Observation/8bc079fe-b089-4514-aba7-e446193a9b1b"},{"reference":"Observation/804620e5-f613-4235-9163-e2bba07619fb"},{"reference":"Procedure/c8f21ee7-aa53-48c7-b5df-3388309cbf1b"},{"reference":"Coverage/0ee33a4d-8367-4ec1-a17f-62e2d3ef88c9"},{"reference":"Organization/4ae2607e-0a31-49a6-aca9-189c10e5b5c7"},{"reference":"Practitioner/c6ba4b87-35cc-41f0-97f5-4b7e63e3ff25"}]},"request":{"method":"PUT","url":"MeasureReport/3d38828d-e92a-43d5-8119-95f0a56eef4a"}},{"fullUrl":"Bundle/61095b0998086b53805591a5","resource":{"resourceType":"Bundle","id":"61095b0998086b53805591a5","type":"transaction","entry":[{"fullUrl":"https://madie.cms.gov/Patient/1b854323-2f47-4bdb-88ee-d34e6d28ba63","resource":{"resourceType":"Patient","id":"1b854323-2f47-4bdb-88ee-d34e6d28ba63","meta":{"profile":["http://hl7.org/fhir/us/qicore/StructureDefinition/qicore-patient"]},"text":{"status":"generated","div":"<div xmlns=\"http://www.w3.org/1999/xhtml\"><div class=\"hapiHeaderText\">Age@18 <b>DENOMPASS </b></div><table class=\"hapiPropertyTable\"><tbody><tr><td>Identifier</td><td>67f3e33acf17bcb386e754d726ed064ccd48ba21ff0ffb2eb678740a684398be</td></tr><tr><td>Date of birth</td><td><span>01 January 1994</span></td></tr></tbody></table></div>"},"extension":[{"url":"http://hl7.org/fhir/us/core/StructureDefinition/us-core-race","extension":[{"url":"ombCategory","valueCoding":{"system":"urn:oid:2.16.840.1.113883.6.238","code":"1002-5","display":"American Indian or Alaska Native","userSelected":true}},{"url":"text","valueString":"American Indian or Alaska Native"}]},{"url":"http://hl7.org/fhir/us/core/StructureDefinition/us-core-ethnicity","extension":[{"url":"ombCategory","valueCoding":{"system":"urn:oid:2.16.840.1.113883.6.238","code":"2135-2","display":"Hispanic or Latino","userSelected":true}},{"url":"text","valueString":"Hispanic or Latino"}]},{"url":"http://hl7.org/fhir/us/core/StructureDefinition/us-core-sex","valueCode":"248152002"}],"identifier":[{"type":{"coding":[{"system":"http://terminology.hl7.org/CodeSystem/v2-0203","code":"MR"}]},"system":"https://bonnie-fhir.healthit.gov/","value":"61095b0998086b53805591a5"}],"active":true,"name":[{"use":"usual","family":"NUMPASS","given":["VisAcuity20/40=90DaysAfter"]}],"gender":"female","birthDate":"1996-01-01"},"request":{"method":"PUT","url":"Patient/1b854323-2f47-4bdb-88ee-d34e6d28ba63"}},{"fullUrl":"https://madie.cms.gov/Observation/8bc079fe-b089-4514-aba7-e446193a9b1b","resource":{"resourceType":"Observation","id":"8bc079fe-b089-4514-aba7-e446193a9b1b","meta":{"profile":["http://hl7.org/fhir/us/qicore/StructureDefinition/qicore-observation-clinical-result"]},"status":"final","category":[{"coding":[{"system":"http://terminology.hl7.org/CodeSystem/observation-category","code":"exam","display":"exam"}]}],"code":{"coding":[{"system":"http://snomed.info/sct","code":"419775003"}]},"subject":{"reference":"Patient/1b854323-2f47-4bdb-88ee-d34e6d28ba63"},"effectivePeriod":{"start":"2026-11-27T09:00:00+00:00","end":"2026-11-27T09:30:00+00:00"}},"request":{"method":"PUT","url":"Observation/8bc079fe-b089-4514-aba7-e446193a9b1b"}},{"fullUrl":"https://madie.cms.gov/Observation/804620e5-f613-4235-9163-e2bba07619fb","resource":{"resourceType":"Observation","id":"804620e5-f613-4235-9163-e2bba07619fb","meta":{"profile":["http://hl7.org/fhir/us/qicore/StructureDefinition/qicore-observation-clinical-result"]},"status":"final","category":[{"coding":[{"system":"http://terminology.hl7.org/CodeSystem/observation-category","code":"exam","display":"Exam","userSelected":true}]}],"code":{"coding":[{"system":"http://snomed.info/sct","code":"419775003","display":"Best corrected visual acuity (observable entity)","userSelected":true}]},"subject":{"reference":"Patient/1b854323-2f47-4bdb-88ee-d34e6d28ba63"},"effectiveDateTime":"2026-11-27T08:00:00.000Z","valueCodeableConcept":{"coding":[{"system":"http://snomed.info/sct","version":"2021-09","code":"424703005","display":"Distance vision 20/40 (finding)","userSelected":true}]}},"request":{"method":"PUT","url":"Observation/804620e5-f613-4235-9163-e2bba07619fb"}},{"fullUrl":"https://madie.cms.gov/Procedure/c8f21ee7-aa53-48c7-b5df-3388309cbf1b","resource":{"resourceType":"Procedure","id":"c8f21ee7-aa53-48c7-b5df-3388309cbf1b","meta":{"profile":["http://hl7.org/fhir/us/qicore/StructureDefinition/qicore-procedure"]},"extension":[{"url":"http://hl7.org/fhir/us/qicore/StructureDefinition/qicore-recorded","valueDateTime":"2026-09-30T09:35:00-08:00"}],"status":"completed","code":{"coding":[{"system":"http://snomed.info/sct","code":"84149000"}]},"subject":{"reference":"Patient/1b854323-2f47-4bdb-88ee-d34e6d28ba63"},"performedPeriod":{"start":"2026-09-30T09:20:00-08:00","end":"2026-09-30T10:30:00-08:00"}},"request":{"method":"PUT","url":"Procedure/c8f21ee7-aa53-48c7-b5df-3388309cbf1b"}},{"fullUrl":"https://madie.cms.gov/Coverage/0ee33a4d-8367-4ec1-a17f-62e2d3ef88c9","resource":{"resourceType":"Coverage","id":"0ee33a4d-8367-4ec1-a17f-62e2d3ef88c9","meta":{"profile":["http://hl7.org/fhir/us/qicore/StructureDefinition/qicore-coverage"]},"status":"active","beneficiary":{"reference":"Patient/1b854323-2f47-4bdb-88ee-d34e6d28ba63"},"payor":[{"reference":"Organization/4ae2607e-0a31-49a6-aca9-189c10e5b5c7"}]},"request":{"method":"PUT","url":"Coverage/0ee33a4d-8367-4ec1-a17f-62e2d3ef88c9"}},{"fullUrl":"https://madie.cms.gov/Organization/4ae2607e-0a31-49a6-aca9-189c10e5b5c7","resource":{"resourceType":"Organization","id":"4ae2607e-0a31-49a6-aca9-189c10e5b5c7","meta":{"profile":["http://hl7.org/fhir/us/qicore/StructureDefinition/qicore-organization"]},"identifier":[{"use":"temp","system":"urn:oid:2.16.840.1.113883.4.4","value":"21-3259825"}],"active":true,"type":[{"coding":[{"system":"http://terminology.hl7.org/CodeSystem/organization-type","code":"pay","display":"Payer"}]}],"name":"Blue Cross Blue Shield of Texas","telecom":[{"system":"phone","value":"(+1) 972-766-6900"}],"address":[{"use":"billing","type":"postal","line":["P.O. Box 660044"],"city":"Dallas","state":"TX","postalCode":"75266-0044","country":"USA"}]},"request":{"method":"PUT","url":"Organization/4ae2607e-0a31-49a6-aca9-189c10e5b5c7"}},{"fullUrl":"https://madie.cms.gov/Practitioner/c6ba4b87-35cc-41f0-97f5-4b7e63e3ff25","resource":{"resourceType":"Practitioner","id":"c6ba4b87-35cc-41f0-97f5-4b7e63e3ff25","meta":{"profile":["http://hl7.org/fhir/us/qicore/StructureDefinition/qicore-practitioner"]},"identifier":[{"system":"http://hl7.org/fhir/sid/us-npi","value":"123456"}],"name":[{"family":"Evil","prefix":["Dr"]}]},"request":{"method":"PUT","url":"Practitioner/c6ba4b87-35cc-41f0-97f5-4b7e63e3ff25"}},{"fullUrl":"https://madie.cms.gov/MeasureReport/3d38828d-e92a-43d5-8119-95f0a56eef4a","resource":{"resourceType":"MeasureReport","id":"3d38828d-e92a-43d5-8119-95f0a56eef4a","meta":{"profile":["http://hl7.org/fhir/us/cqfmeasures/StructureDefinition/test-case-cqfm"]},"contained":[{"resourceType":"Parameters","id":"658e3489-f1a8-4db2-a74b-16e83b091590-parameters","parameter":[{"name":"subject","valueString":"1b854323-2f47-4bdb-88ee-d34e6d28ba63"}]}],"extension":[{"url":"http://hl7.org/fhir/StructureDefinition/cqf-inputParameters","valueReference":{"reference":"#658e3489-f1a8-4db2-a74b-16e83b091590-parameters"}},{"url":"http://hl7.org/fhir/us/cqfmeasures/StructureDefinition/cqfm-testCaseDescription","valueMarkdown":"Patient with cat surg September 30 and visual acuity 20/40 or better within 90 days of cataract surgery. "}],"modifierExtension":[{"url":"http://hl7.org/fhir/us/cqfmeasures/StructureDefinition/cqfm-isTestCase","valueBoolean":true}],"status":"complete","type":"individual","measure":"https://madie.cms.gov/Measure/CMS133FHIRCataracts2040BCVAwithin90Days","period":{"start":"2026-01-01","end":"2026-12-31"},"group":[{"id":"Group_1","population":[{"id":"InitialPopulation_1","code":{"coding":[{"system":"http://terminology.hl7.org/CodeSystem/measure-population","code":"initial-population","display":"Initial Population"}]},"count":1},{"id":"Denominator_1","code":{"coding":[{"system":"http://terminology.hl7.org/CodeSystem/measure-population","code":"denominator","display":"Denominator"}]},"count":1},{"id":"DenominatorExclusion_1","code":{"coding":[{"system":"http://terminology.hl7.org/CodeSystem/measure-population","code":"denominator-exclusion","display":"Denominator Exclusion"}]},"count":0},{"id":"Numerator_1","code":{"coding":[{"system":"http://terminology.hl7.org/CodeSystem/measure-population","code":"numerator","display":"Numerator"}]},"count":1}],"measureScore":{"value":0.0}}],"evaluatedResource":[{"reference":"Patient/1b854323-2f47-4bdb-88ee-d34e6d28ba63"},{"reference":"Observation/8bc079fe-b089-4514-aba7-e446193a9b1b"},{"reference":"Observation/804620e5-f613-4235-9163-e2bba07619fb"},{"reference":"Procedure/c8f21ee7-aa53-48c7-b5df-3388309cbf1b"},{"reference":"Coverage/0ee33a4d-8367-4ec1-a17f-62e2d3ef88c9"},{"reference":"Organization/4ae2607e-0a31-49a6-aca9-189c10e5b5c7"},{"reference":"Practitioner/c6ba4b87-35cc-41f0-97f5-4b7e63e3ff25"}]},"request":{"method":"PUT","url":"MeasureReport/3d38828d-e92a-43d5-8119-95f0a56eef4a"}}]},"request":{"method":"PUT","url":"Bundle/61095b0998086b53805591a5"}}]}