{"resourceType":"Bundle","id":"tests-d4d830c6-ddf5-4506-b24b-0b7fb6ba9c3b-bundle","type":"transaction","entry":[{"resource":{"resourceType":"Procedure","id":"a4564783-1cb7-4402-a84a-c64df4946f1b","meta":{"profile":["http://hl7.org/fhir/us/qicore/StructureDefinition/qicore-procedure"]},"extension":[{"url":"http://hl7.org/fhir/us/qicore/StructureDefinition/qicore-recorded","valueDateTime":"2026-03-05T09:35:00-04:00"}],"status":"completed","code":{"coding":[{"system":"http://snomed.info/sct","code":"84149000"}]},"subject":{"reference":"Patient/d4d830c6-ddf5-4506-b24b-0b7fb6ba9c3b"},"performedPeriod":{"start":"2026-03-05T09:20:00-04:00","end":"2026-04-05T10:30:00-04:00"}},"request":{"method":"PUT","url":"Procedure/a4564783-1cb7-4402-a84a-c64df4946f1b"}},{"resource":{"resourceType":"Practitioner","id":"f05857c7-6708-47de-b74b-b3adb9b533ce","meta":{"profile":["http://hl7.org/fhir/us/qicore/StructureDefinition/qicore-practitioner"]},"identifier":[{"system":"http://hl7.org/fhir/sid/us-npi","value":"123456"}],"name":[{"family":"Evil","prefix":["Dr"]}]},"request":{"method":"PUT","url":"Practitioner/f05857c7-6708-47de-b74b-b3adb9b533ce"}},{"resource":{"resourceType":"Observation","id":"6b76bf62-3165-4da1-9a4f-2569f9c0dcfd","meta":{"profile":["http://hl7.org/fhir/us/qicore/StructureDefinition/qicore-observation-clinical-result"]},"status":"final","category":[{"coding":[{"system":"http://terminology.hl7.org/CodeSystem/observation-category","code":"exam","display":"exam"}]}],"code":{"coding":[{"system":"http://snomed.info/sct","code":"419775003"}]},"subject":{"reference":"Patient/d4d830c6-ddf5-4506-b24b-0b7fb6ba9c3b"},"effectivePeriod":{"start":"2026-03-13T09:00:00+00:00","end":"2026-03-13T09:30:00+00:00"}},"request":{"method":"PUT","url":"Observation/6b76bf62-3165-4da1-9a4f-2569f9c0dcfd"}},{"resource":{"resourceType":"Coverage","id":"339240f7-b789-404f-b2e3-09b311c70fee","meta":{"profile":["http://hl7.org/fhir/us/qicore/StructureDefinition/qicore-coverage"]},"status":"active","beneficiary":{"reference":"Patient/d4d830c6-ddf5-4506-b24b-0b7fb6ba9c3b"},"payor":[{"reference":"Organization/514552eb-67eb-42f2-8b4e-e2f8cd22835b"}]},"request":{"method":"PUT","url":"Coverage/339240f7-b789-404f-b2e3-09b311c70fee"}},{"resource":{"resourceType":"Bundle","id":"61095b0998086b53805591a5","type":"transaction","entry":[{"fullUrl":"https://madie.cms.gov/Patient/d4d830c6-ddf5-4506-b24b-0b7fb6ba9c3b","resource":{"resourceType":"Patient","id":"d4d830c6-ddf5-4506-b24b-0b7fb6ba9c3b","meta":{"profile":["http://hl7.org/fhir/us/qicore/StructureDefinition/qicore-patient"]},"text":{"status":"generated","div":"<div xmlns=\"http://www.w3.org/1999/xhtml\"><div class=\"hapiHeaderText\">Age@18 <b>DENOMPASS </b></div><table class=\"hapiPropertyTable\"><tbody><tr><td>Identifier</td><td>67f3e33acf17bcb386e754d726ed064ccd48ba21ff0ffb2eb678740a684398be</td></tr><tr><td>Date of birth</td><td><span>01 January 1994</span></td></tr></tbody></table></div>"},"extension":[{"url":"http://hl7.org/fhir/us/core/StructureDefinition/us-core-race","extension":[{"url":"ombCategory","valueCoding":{"system":"urn:oid:2.16.840.1.113883.6.238","code":"1002-5","display":"American Indian or Alaska Native","userSelected":true}},{"url":"text","valueString":"American Indian or Alaska Native"}]},{"url":"http://hl7.org/fhir/us/core/StructureDefinition/us-core-ethnicity","extension":[{"url":"ombCategory","valueCoding":{"system":"urn:oid:2.16.840.1.113883.6.238","code":"2135-2","display":"Hispanic or Latino","userSelected":true}},{"url":"text","valueString":"Hispanic or Latino"}]}],"identifier":[{"type":{"coding":[{"system":"http://terminology.hl7.org/CodeSystem/v2-0203","code":"MR"}]},"system":"https://bonnie-fhir.healthit.gov/","value":"61095b0998086b53805591a5"}],"active":true,"name":[{"use":"usual","family":"DENEXPASS","given":["DisordersofOpticWithCatSurg"]}],"gender":"female","birthDate":"1996-01-01"},"request":{"method":"PUT","url":"Patient/d4d830c6-ddf5-4506-b24b-0b7fb6ba9c3b"}},{"fullUrl":"https://madie.cms.gov/Observation/6b76bf62-3165-4da1-9a4f-2569f9c0dcfd","resource":{"resourceType":"Observation","id":"6b76bf62-3165-4da1-9a4f-2569f9c0dcfd","meta":{"profile":["http://hl7.org/fhir/us/qicore/StructureDefinition/qicore-observation-clinical-result"]},"status":"final","category":[{"coding":[{"system":"http://terminology.hl7.org/CodeSystem/observation-category","code":"exam","display":"exam"}]}],"code":{"coding":[{"system":"http://snomed.info/sct","code":"419775003"}]},"subject":{"reference":"Patient/d4d830c6-ddf5-4506-b24b-0b7fb6ba9c3b"},"effectivePeriod":{"start":"2026-03-13T09:00:00+00:00","end":"2026-03-13T09:30:00+00:00"}},"request":{"method":"PUT","url":"Observation/6b76bf62-3165-4da1-9a4f-2569f9c0dcfd"}},{"fullUrl":"https://madie.cms.gov/Procedure/a4564783-1cb7-4402-a84a-c64df4946f1b","resource":{"resourceType":"Procedure","id":"a4564783-1cb7-4402-a84a-c64df4946f1b","meta":{"profile":["http://hl7.org/fhir/us/qicore/StructureDefinition/qicore-procedure"]},"extension":[{"url":"http://hl7.org/fhir/us/qicore/StructureDefinition/qicore-recorded","valueDateTime":"2026-03-05T09:35:00-04:00"}],"status":"completed","code":{"coding":[{"system":"http://snomed.info/sct","code":"84149000"}]},"subject":{"reference":"Patient/d4d830c6-ddf5-4506-b24b-0b7fb6ba9c3b"},"performedPeriod":{"start":"2026-03-05T09:20:00-04:00","end":"2026-04-05T10:30:00-04:00"}},"request":{"method":"PUT","url":"Procedure/a4564783-1cb7-4402-a84a-c64df4946f1b"}},{"fullUrl":"https://madie.cms.gov/Condition/634ab39c-7456-4e37-967a-c7287b1d5b57","resource":{"resourceType":"Condition","id":"634ab39c-7456-4e37-967a-c7287b1d5b57","meta":{"profile":["http://hl7.org/fhir/us/qicore/StructureDefinition/qicore-condition-encounter-diagnosis"]},"clinicalStatus":{"coding":[{"system":"http://terminology.hl7.org/CodeSystem/condition-clinical","code":"active","display":"active","userSelected":true}]},"category":[{"coding":[{"system":"http://terminology.hl7.org/CodeSystem/condition-clinical","code":"active","display":"active","userSelected":true}]}],"code":{"coding":[{"system":"http://hl7.org/fhir/sid/icd-10-cm","code":"H47.41","userSelected":true},{"system":"http://snomed.info/sct","code":"89654006","userSelected":true}]},"subject":{"reference":"Patient/d4d830c6-ddf5-4506-b24b-0b7fb6ba9c3b"},"onsetDateTime":"2024-11-01T08:00:00.000+00:00"},"request":{"method":"PUT","url":"Condition/634ab39c-7456-4e37-967a-c7287b1d5b57"}},{"fullUrl":"https://madie.cms.gov/Coverage/339240f7-b789-404f-b2e3-09b311c70fee","resource":{"resourceType":"Coverage","id":"339240f7-b789-404f-b2e3-09b311c70fee","meta":{"profile":["http://hl7.org/fhir/us/qicore/StructureDefinition/qicore-coverage"]},"status":"active","beneficiary":{"reference":"Patient/d4d830c6-ddf5-4506-b24b-0b7fb6ba9c3b"},"payor":[{"reference":"Organization/514552eb-67eb-42f2-8b4e-e2f8cd22835b"}]},"request":{"method":"PUT","url":"Coverage/339240f7-b789-404f-b2e3-09b311c70fee"}},{"fullUrl":"https://madie.cms.gov/Organization/514552eb-67eb-42f2-8b4e-e2f8cd22835b","resource":{"resourceType":"Organization","id":"514552eb-67eb-42f2-8b4e-e2f8cd22835b","meta":{"profile":["http://hl7.org/fhir/us/qicore/StructureDefinition/qicore-organization"]},"identifier":[{"use":"temp","system":"urn:oid:2.16.840.1.113883.4.4","value":"21-3259825"}],"active":true,"type":[{"coding":[{"system":"http://terminology.hl7.org/CodeSystem/organization-type","code":"pay","display":"Payer"}]}],"name":"Blue Cross Blue Shield of Texas","telecom":[{"system":"phone","value":"(+1) 972-766-6900"}],"address":[{"use":"billing","type":"postal","line":["P.O. Box 660044"],"city":"Dallas","state":"TX","postalCode":"75266-0044","country":"USA"}]},"request":{"method":"PUT","url":"Organization/514552eb-67eb-42f2-8b4e-e2f8cd22835b"}},{"fullUrl":"https://madie.cms.gov/Practitioner/f05857c7-6708-47de-b74b-b3adb9b533ce","resource":{"resourceType":"Practitioner","id":"f05857c7-6708-47de-b74b-b3adb9b533ce","meta":{"profile":["http://hl7.org/fhir/us/qicore/StructureDefinition/qicore-practitioner"]},"identifier":[{"system":"http://hl7.org/fhir/sid/us-npi","value":"123456"}],"name":[{"family":"Evil","prefix":["Dr"]}]},"request":{"method":"PUT","url":"Practitioner/f05857c7-6708-47de-b74b-b3adb9b533ce"}},{"fullUrl":"https://madie.cms.gov/MeasureReport/787640e5-d67e-473b-89a0-327312289751","resource":{"resourceType":"MeasureReport","id":"787640e5-d67e-473b-89a0-327312289751","meta":{"profile":["http://hl7.org/fhir/us/cqfmeasures/StructureDefinition/test-case-cqfm"]},"contained":[{"resourceType":"Parameters","id":"bc7b25d4-ede0-4ca0-b679-79b5c02b0129-parameters","parameter":[{"name":"subject","valueString":"d4d830c6-ddf5-4506-b24b-0b7fb6ba9c3b"}]}],"extension":[{"url":"http://hl7.org/fhir/StructureDefinition/cqf-inputParameters","valueReference":{"reference":"#bc7b25d4-ede0-4ca0-b679-79b5c02b0129-parameters"}},{"url":"http://hl7.org/fhir/us/cqfmeasures/StructureDefinition/cqfm-testCaseDescription","valueMarkdown":"Patient with Disorders of Optic with cataract surgery. "}],"modifierExtension":[{"url":"http://hl7.org/fhir/us/cqfmeasures/StructureDefinition/cqfm-isTestCase","valueBoolean":true}],"status":"complete","type":"individual","measure":"https://madie.cms.gov/Measure/CMS133FHIRCataracts2040BCVAwithin90Days","period":{"start":"2026-01-01","end":"2026-12-31"},"group":[{"id":"Group_1","population":[{"id":"InitialPopulation_1","code":{"coding":[{"system":"http://terminology.hl7.org/CodeSystem/measure-population","code":"initial-population","display":"Initial Population"}]},"count":1},{"id":"Denominator_1","code":{"coding":[{"system":"http://terminology.hl7.org/CodeSystem/measure-population","code":"denominator","display":"Denominator"}]},"count":1},{"id":"DenominatorExclusion_1","code":{"coding":[{"system":"http://terminology.hl7.org/CodeSystem/measure-population","code":"denominator-exclusion","display":"Denominator Exclusion"}]},"count":1},{"id":"Numerator_1","code":{"coding":[{"system":"http://terminology.hl7.org/CodeSystem/measure-population","code":"numerator","display":"Numerator"}]},"count":0}],"measureScore":{"value":0.0}}],"evaluatedResource":[{"reference":"Patient/d4d830c6-ddf5-4506-b24b-0b7fb6ba9c3b"},{"reference":"Observation/6b76bf62-3165-4da1-9a4f-2569f9c0dcfd"},{"reference":"Procedure/a4564783-1cb7-4402-a84a-c64df4946f1b"},{"reference":"Condition/634ab39c-7456-4e37-967a-c7287b1d5b57"},{"reference":"Coverage/339240f7-b789-404f-b2e3-09b311c70fee"},{"reference":"Organization/514552eb-67eb-42f2-8b4e-e2f8cd22835b"},{"reference":"Practitioner/f05857c7-6708-47de-b74b-b3adb9b533ce"}]},"request":{"method":"PUT","url":"MeasureReport/787640e5-d67e-473b-89a0-327312289751"}}]},"request":{"method":"PUT","url":"Bundle/61095b0998086b53805591a5"}},{"resource":{"resourceType":"Condition","id":"634ab39c-7456-4e37-967a-c7287b1d5b57","meta":{"profile":["http://hl7.org/fhir/us/qicore/StructureDefinition/qicore-condition-encounter-diagnosis"]},"clinicalStatus":{"coding":[{"system":"http://terminology.hl7.org/CodeSystem/condition-clinical","code":"active","display":"active","userSelected":true}]},"category":[{"coding":[{"system":"http://terminology.hl7.org/CodeSystem/condition-clinical","code":"active","display":"active","userSelected":true}]}],"code":{"coding":[{"system":"http://hl7.org/fhir/sid/icd-10-cm","code":"H47.41","userSelected":true},{"system":"http://snomed.info/sct","code":"89654006","userSelected":true}]},"subject":{"reference":"Patient/d4d830c6-ddf5-4506-b24b-0b7fb6ba9c3b"},"onsetDateTime":"2024-11-01T08:00:00.000+00:00"},"request":{"method":"PUT","url":"Condition/634ab39c-7456-4e37-967a-c7287b1d5b57"}},{"resource":{"resourceType":"Organization","id":"514552eb-67eb-42f2-8b4e-e2f8cd22835b","meta":{"profile":["http://hl7.org/fhir/us/qicore/StructureDefinition/qicore-organization"]},"identifier":[{"use":"temp","system":"urn:oid:2.16.840.1.113883.4.4","value":"21-3259825"}],"active":true,"type":[{"coding":[{"system":"http://terminology.hl7.org/CodeSystem/organization-type","code":"pay","display":"Payer"}]}],"name":"Blue Cross Blue Shield of Texas","telecom":[{"system":"phone","value":"(+1) 972-766-6900"}],"address":[{"use":"billing","type":"postal","line":["P.O. Box 660044"],"city":"Dallas","state":"TX","postalCode":"75266-0044","country":"USA"}]},"request":{"method":"PUT","url":"Organization/514552eb-67eb-42f2-8b4e-e2f8cd22835b"}},{"resource":{"resourceType":"MeasureReport","id":"787640e5-d67e-473b-89a0-327312289751","meta":{"profile":["http://hl7.org/fhir/us/cqfmeasures/StructureDefinition/test-case-cqfm"]},"contained":[{"resourceType":"Parameters","id":"bc7b25d4-ede0-4ca0-b679-79b5c02b0129-parameters","parameter":[{"name":"subject","valueString":"d4d830c6-ddf5-4506-b24b-0b7fb6ba9c3b"}]}],"extension":[{"url":"http://hl7.org/fhir/StructureDefinition/cqf-inputParameters","valueReference":{"reference":"#bc7b25d4-ede0-4ca0-b679-79b5c02b0129-parameters"}},{"url":"http://hl7.org/fhir/us/cqfmeasures/StructureDefinition/cqfm-testCaseDescription","valueMarkdown":"Patient with Disorders of Optic with cataract surgery. "}],"modifierExtension":[{"url":"http://hl7.org/fhir/us/cqfmeasures/StructureDefinition/cqfm-isTestCase","valueBoolean":true}],"status":"complete","type":"individual","measure":"https://madie.cms.gov/Measure/CMS133FHIRCataracts2040BCVAwithin90Days","period":{"start":"2026-01-01","end":"2026-12-31"},"group":[{"id":"Group_1","population":[{"id":"InitialPopulation_1","code":{"coding":[{"system":"http://terminology.hl7.org/CodeSystem/measure-population","code":"initial-population","display":"Initial Population"}]},"count":1},{"id":"Denominator_1","code":{"coding":[{"system":"http://terminology.hl7.org/CodeSystem/measure-population","code":"denominator","display":"Denominator"}]},"count":1},{"id":"DenominatorExclusion_1","code":{"coding":[{"system":"http://terminology.hl7.org/CodeSystem/measure-population","code":"denominator-exclusion","display":"Denominator Exclusion"}]},"count":1},{"id":"Numerator_1","code":{"coding":[{"system":"http://terminology.hl7.org/CodeSystem/measure-population","code":"numerator","display":"Numerator"}]},"count":0}],"measureScore":{"value":0.0}}],"evaluatedResource":[{"reference":"Patient/d4d830c6-ddf5-4506-b24b-0b7fb6ba9c3b"},{"reference":"Observation/6b76bf62-3165-4da1-9a4f-2569f9c0dcfd"},{"reference":"Procedure/a4564783-1cb7-4402-a84a-c64df4946f1b"},{"reference":"Condition/634ab39c-7456-4e37-967a-c7287b1d5b57"},{"reference":"Coverage/339240f7-b789-404f-b2e3-09b311c70fee"},{"reference":"Organization/514552eb-67eb-42f2-8b4e-e2f8cd22835b"},{"reference":"Practitioner/f05857c7-6708-47de-b74b-b3adb9b533ce"}]},"request":{"method":"PUT","url":"MeasureReport/787640e5-d67e-473b-89a0-327312289751"}},{"resource":{"resourceType":"Patient","id":"d4d830c6-ddf5-4506-b24b-0b7fb6ba9c3b","meta":{"profile":["http://hl7.org/fhir/us/qicore/StructureDefinition/qicore-patient"]},"text":{"status":"generated","div":"<div xmlns=\"http://www.w3.org/1999/xhtml\"><div class=\"hapiHeaderText\">Age@18 <b>DENOMPASS </b></div><table class=\"hapiPropertyTable\"><tbody><tr><td>Identifier</td><td>67f3e33acf17bcb386e754d726ed064ccd48ba21ff0ffb2eb678740a684398be</td></tr><tr><td>Date of birth</td><td><span>01 January 1994</span></td></tr></tbody></table></div>"},"extension":[{"url":"http://hl7.org/fhir/us/core/StructureDefinition/us-core-race","extension":[{"url":"ombCategory","valueCoding":{"system":"urn:oid:2.16.840.1.113883.6.238","code":"1002-5","display":"American Indian or Alaska Native","userSelected":true}},{"url":"text","valueString":"American Indian or Alaska Native"}]},{"url":"http://hl7.org/fhir/us/core/StructureDefinition/us-core-ethnicity","extension":[{"url":"ombCategory","valueCoding":{"system":"urn:oid:2.16.840.1.113883.6.238","code":"2135-2","display":"Hispanic or Latino","userSelected":true}},{"url":"text","valueString":"Hispanic or Latino"}]}],"identifier":[{"type":{"coding":[{"system":"http://terminology.hl7.org/CodeSystem/v2-0203","code":"MR"}]},"system":"https://bonnie-fhir.healthit.gov/","value":"61095b0998086b53805591a5"}],"active":true,"name":[{"use":"usual","family":"DENEXPASS","given":["DisordersofOpticWithCatSurg"]}],"gender":"female","birthDate":"1996-01-01"},"request":{"method":"PUT","url":"Patient/d4d830c6-ddf5-4506-b24b-0b7fb6ba9c3b"}}]}