{"resourceType":"Bundle","id":"tests-9ee4773e-75ac-468f-8c38-82e9af379e0e-bundle","type":"transaction","entry":[{"resource":{"resourceType":"Organization","id":"ea8b638b-02fb-4ad0-ba3c-f9c48ee5b3ec","meta":{"profile":["http://hl7.org/fhir/us/qicore/StructureDefinition/qicore-organization"]},"identifier":[{"use":"temp","system":"urn:oid:2.16.840.1.113883.4.4","value":"21-3259825"}],"active":true,"type":[{"coding":[{"system":"http://terminology.hl7.org/CodeSystem/organization-type","code":"pay","display":"Payer"}]}],"name":"Blue Cross Blue Shield of Texas","telecom":[{"system":"phone","value":"(+1) 972-766-6900"}],"address":[{"use":"billing","type":"postal","line":["P.O. Box 660044"],"city":"Dallas","state":"TX","postalCode":"75266-0044","country":"USA"}]},"request":{"method":"PUT","url":"Organization/ea8b638b-02fb-4ad0-ba3c-f9c48ee5b3ec"}},{"resource":{"resourceType":"Condition","id":"b0eb6b77-0dad-461f-a17b-48142c6bce83","meta":{"profile":["http://hl7.org/fhir/us/qicore/StructureDefinition/qicore-condition-encounter-diagnosis"]},"clinicalStatus":{"coding":[{"system":"http://terminology.hl7.org/CodeSystem/condition-clinical","code":"active","display":"active","userSelected":true}]},"category":[{"coding":[{"system":"http://terminology.hl7.org/CodeSystem/condition-clinical","code":"active","display":"active","userSelected":true}]}],"code":{"coding":[{"system":"http://hl7.org/fhir/sid/icd-10-cm","code":"H44.113","userSelected":true},{"system":"http://snomed.info/sct","code":"16553002","userSelected":true}]},"subject":{"reference":"Patient/9ee4773e-75ac-468f-8c38-82e9af379e0e"},"onsetDateTime":"2024-11-01T08:00:00.000+00:00"},"request":{"method":"PUT","url":"Condition/b0eb6b77-0dad-461f-a17b-48142c6bce83"}},{"resource":{"resourceType":"MeasureReport","id":"00685c99-2f0d-4a45-972c-87ef10bc48de","meta":{"profile":["http://hl7.org/fhir/us/cqfmeasures/StructureDefinition/test-case-cqfm"]},"contained":[{"resourceType":"Parameters","id":"a43eb78b-7b3d-4fc7-bbb8-0951de59b3d1-parameters","parameter":[{"name":"subject","valueString":"9ee4773e-75ac-468f-8c38-82e9af379e0e"}]}],"extension":[{"url":"http://hl7.org/fhir/StructureDefinition/cqf-inputParameters","valueReference":{"reference":"#a43eb78b-7b3d-4fc7-bbb8-0951de59b3d1-parameters"}},{"url":"http://hl7.org/fhir/us/cqfmeasures/StructureDefinition/cqfm-testCaseDescription","valueMarkdown":"Patient with Uveitis with cataract surgery. "}],"modifierExtension":[{"url":"http://hl7.org/fhir/us/cqfmeasures/StructureDefinition/cqfm-isTestCase","valueBoolean":true}],"status":"complete","type":"individual","measure":"https://madie.cms.gov/Measure/CMS133FHIRCataracts2040BCVAwithin90Days","period":{"start":"2026-01-01","end":"2026-12-31"},"group":[{"id":"Group_1","population":[{"id":"InitialPopulation_1","code":{"coding":[{"system":"http://terminology.hl7.org/CodeSystem/measure-population","code":"initial-population","display":"Initial Population"}]},"count":1},{"id":"Denominator_1","code":{"coding":[{"system":"http://terminology.hl7.org/CodeSystem/measure-population","code":"denominator","display":"Denominator"}]},"count":1},{"id":"DenominatorExclusion_1","code":{"coding":[{"system":"http://terminology.hl7.org/CodeSystem/measure-population","code":"denominator-exclusion","display":"Denominator Exclusion"}]},"count":1},{"id":"Numerator_1","code":{"coding":[{"system":"http://terminology.hl7.org/CodeSystem/measure-population","code":"numerator","display":"Numerator"}]},"count":0}],"measureScore":{"value":0.0}}],"evaluatedResource":[{"reference":"Patient/9ee4773e-75ac-468f-8c38-82e9af379e0e"},{"reference":"Observation/d5651675-4056-46e6-9e84-9f0f347a1706"},{"reference":"Procedure/a0b5aea5-90dc-40a1-964f-8c714511fe8f"},{"reference":"Condition/b0eb6b77-0dad-461f-a17b-48142c6bce83"},{"reference":"Coverage/b626b4ac-6976-464a-8522-13342b95bb32"},{"reference":"Organization/ea8b638b-02fb-4ad0-ba3c-f9c48ee5b3ec"},{"reference":"Practitioner/c3d92ba2-6835-4649-8547-1ff7320ad48b"}]},"request":{"method":"PUT","url":"MeasureReport/00685c99-2f0d-4a45-972c-87ef10bc48de"}},{"resource":{"resourceType":"Patient","id":"9ee4773e-75ac-468f-8c38-82e9af379e0e","meta":{"profile":["http://hl7.org/fhir/us/qicore/StructureDefinition/qicore-patient"]},"text":{"status":"generated","div":"<div xmlns=\"http://www.w3.org/1999/xhtml\"><div class=\"hapiHeaderText\">Age@18 <b>DENOMPASS </b></div><table class=\"hapiPropertyTable\"><tbody><tr><td>Identifier</td><td>67f3e33acf17bcb386e754d726ed064ccd48ba21ff0ffb2eb678740a684398be</td></tr><tr><td>Date of birth</td><td><span>01 January 1994</span></td></tr></tbody></table></div>"},"extension":[{"url":"http://hl7.org/fhir/us/core/StructureDefinition/us-core-race","extension":[{"url":"ombCategory","valueCoding":{"system":"urn:oid:2.16.840.1.113883.6.238","code":"1002-5","display":"American Indian or Alaska Native","userSelected":true}},{"url":"text","valueString":"American Indian or Alaska Native"}]},{"url":"http://hl7.org/fhir/us/core/StructureDefinition/us-core-ethnicity","extension":[{"url":"ombCategory","valueCoding":{"system":"urn:oid:2.16.840.1.113883.6.238","code":"2135-2","display":"Hispanic or Latino","userSelected":true}},{"url":"text","valueString":"Hispanic or Latino"}]}],"identifier":[{"type":{"coding":[{"system":"http://terminology.hl7.org/CodeSystem/v2-0203","code":"MR"}]},"system":"https://bonnie-fhir.healthit.gov/","value":"61095b0998086b53805591a5"}],"active":true,"name":[{"use":"usual","family":"DENEXPASS","given":["UveitisWithCatSurg"]}],"gender":"female","birthDate":"1996-01-01"},"request":{"method":"PUT","url":"Patient/9ee4773e-75ac-468f-8c38-82e9af379e0e"}},{"resource":{"resourceType":"Coverage","id":"b626b4ac-6976-464a-8522-13342b95bb32","meta":{"profile":["http://hl7.org/fhir/us/qicore/StructureDefinition/qicore-coverage"]},"status":"active","beneficiary":{"reference":"Patient/9ee4773e-75ac-468f-8c38-82e9af379e0e"},"payor":[{"reference":"Organization/ea8b638b-02fb-4ad0-ba3c-f9c48ee5b3ec"}]},"request":{"method":"PUT","url":"Coverage/b626b4ac-6976-464a-8522-13342b95bb32"}},{"resource":{"resourceType":"Observation","id":"d5651675-4056-46e6-9e84-9f0f347a1706","meta":{"profile":["http://hl7.org/fhir/us/qicore/StructureDefinition/qicore-observation-clinical-result"]},"status":"final","category":[{"coding":[{"system":"http://terminology.hl7.org/CodeSystem/observation-category","code":"exam","display":"Exam"}]}],"code":{"coding":[{"system":"http://snomed.info/sct","code":"419775003"}]},"subject":{"reference":"Patient/9ee4773e-75ac-468f-8c38-82e9af379e0e"},"effectivePeriod":{"start":"2026-03-13T09:00:00+00:00","end":"2026-03-13T09:30:00+00:00"}},"request":{"method":"PUT","url":"Observation/d5651675-4056-46e6-9e84-9f0f347a1706"}},{"resource":{"resourceType":"Bundle","id":"61095b0998086b53805591a5","type":"transaction","entry":[{"fullUrl":"https://madie.cms.gov/Patient/9ee4773e-75ac-468f-8c38-82e9af379e0e","resource":{"resourceType":"Patient","id":"9ee4773e-75ac-468f-8c38-82e9af379e0e","meta":{"profile":["http://hl7.org/fhir/us/qicore/StructureDefinition/qicore-patient"]},"text":{"status":"generated","div":"<div xmlns=\"http://www.w3.org/1999/xhtml\"><div class=\"hapiHeaderText\">Age@18 <b>DENOMPASS </b></div><table class=\"hapiPropertyTable\"><tbody><tr><td>Identifier</td><td>67f3e33acf17bcb386e754d726ed064ccd48ba21ff0ffb2eb678740a684398be</td></tr><tr><td>Date of birth</td><td><span>01 January 1994</span></td></tr></tbody></table></div>"},"extension":[{"url":"http://hl7.org/fhir/us/core/StructureDefinition/us-core-race","extension":[{"url":"ombCategory","valueCoding":{"system":"urn:oid:2.16.840.1.113883.6.238","code":"1002-5","display":"American Indian or Alaska Native","userSelected":true}},{"url":"text","valueString":"American Indian or Alaska Native"}]},{"url":"http://hl7.org/fhir/us/core/StructureDefinition/us-core-ethnicity","extension":[{"url":"ombCategory","valueCoding":{"system":"urn:oid:2.16.840.1.113883.6.238","code":"2135-2","display":"Hispanic or Latino","userSelected":true}},{"url":"text","valueString":"Hispanic or Latino"}]}],"identifier":[{"type":{"coding":[{"system":"http://terminology.hl7.org/CodeSystem/v2-0203","code":"MR"}]},"system":"https://bonnie-fhir.healthit.gov/","value":"61095b0998086b53805591a5"}],"active":true,"name":[{"use":"usual","family":"DENEXPASS","given":["UveitisWithCatSurg"]}],"gender":"female","birthDate":"1996-01-01"},"request":{"method":"PUT","url":"Patient/9ee4773e-75ac-468f-8c38-82e9af379e0e"}},{"fullUrl":"https://madie.cms.gov/Observation/d5651675-4056-46e6-9e84-9f0f347a1706","resource":{"resourceType":"Observation","id":"d5651675-4056-46e6-9e84-9f0f347a1706","meta":{"profile":["http://hl7.org/fhir/us/qicore/StructureDefinition/qicore-observation-clinical-result"]},"status":"final","category":[{"coding":[{"system":"http://terminology.hl7.org/CodeSystem/observation-category","code":"exam","display":"Exam"}]}],"code":{"coding":[{"system":"http://snomed.info/sct","code":"419775003"}]},"subject":{"reference":"Patient/9ee4773e-75ac-468f-8c38-82e9af379e0e"},"effectivePeriod":{"start":"2026-03-13T09:00:00+00:00","end":"2026-03-13T09:30:00+00:00"}},"request":{"method":"PUT","url":"Observation/d5651675-4056-46e6-9e84-9f0f347a1706"}},{"fullUrl":"https://madie.cms.gov/Procedure/a0b5aea5-90dc-40a1-964f-8c714511fe8f","resource":{"resourceType":"Procedure","id":"a0b5aea5-90dc-40a1-964f-8c714511fe8f","meta":{"profile":["http://hl7.org/fhir/us/qicore/StructureDefinition/qicore-procedure"]},"extension":[{"url":"http://hl7.org/fhir/us/qicore/StructureDefinition/qicore-recorded","valueDateTime":"2026-03-05T09:35:00-04:00"}],"status":"completed","code":{"coding":[{"system":"http://snomed.info/sct","code":"84149000"}]},"subject":{"reference":"Patient/9ee4773e-75ac-468f-8c38-82e9af379e0e"},"performedPeriod":{"start":"2026-03-05T09:20:00-04:00","end":"2026-04-05T10:30:00-04:00"}},"request":{"method":"PUT","url":"Procedure/a0b5aea5-90dc-40a1-964f-8c714511fe8f"}},{"fullUrl":"https://madie.cms.gov/Condition/b0eb6b77-0dad-461f-a17b-48142c6bce83","resource":{"resourceType":"Condition","id":"b0eb6b77-0dad-461f-a17b-48142c6bce83","meta":{"profile":["http://hl7.org/fhir/us/qicore/StructureDefinition/qicore-condition-encounter-diagnosis"]},"clinicalStatus":{"coding":[{"system":"http://terminology.hl7.org/CodeSystem/condition-clinical","code":"active","display":"active","userSelected":true}]},"category":[{"coding":[{"system":"http://terminology.hl7.org/CodeSystem/condition-clinical","code":"active","display":"active","userSelected":true}]}],"code":{"coding":[{"system":"http://hl7.org/fhir/sid/icd-10-cm","code":"H44.113","userSelected":true},{"system":"http://snomed.info/sct","code":"16553002","userSelected":true}]},"subject":{"reference":"Patient/9ee4773e-75ac-468f-8c38-82e9af379e0e"},"onsetDateTime":"2024-11-01T08:00:00.000+00:00"},"request":{"method":"PUT","url":"Condition/b0eb6b77-0dad-461f-a17b-48142c6bce83"}},{"fullUrl":"https://madie.cms.gov/Coverage/b626b4ac-6976-464a-8522-13342b95bb32","resource":{"resourceType":"Coverage","id":"b626b4ac-6976-464a-8522-13342b95bb32","meta":{"profile":["http://hl7.org/fhir/us/qicore/StructureDefinition/qicore-coverage"]},"status":"active","beneficiary":{"reference":"Patient/9ee4773e-75ac-468f-8c38-82e9af379e0e"},"payor":[{"reference":"Organization/ea8b638b-02fb-4ad0-ba3c-f9c48ee5b3ec"}]},"request":{"method":"PUT","url":"Coverage/b626b4ac-6976-464a-8522-13342b95bb32"}},{"fullUrl":"https://madie.cms.gov/Organization/ea8b638b-02fb-4ad0-ba3c-f9c48ee5b3ec","resource":{"resourceType":"Organization","id":"ea8b638b-02fb-4ad0-ba3c-f9c48ee5b3ec","meta":{"profile":["http://hl7.org/fhir/us/qicore/StructureDefinition/qicore-organization"]},"identifier":[{"use":"temp","system":"urn:oid:2.16.840.1.113883.4.4","value":"21-3259825"}],"active":true,"type":[{"coding":[{"system":"http://terminology.hl7.org/CodeSystem/organization-type","code":"pay","display":"Payer"}]}],"name":"Blue Cross Blue Shield of Texas","telecom":[{"system":"phone","value":"(+1) 972-766-6900"}],"address":[{"use":"billing","type":"postal","line":["P.O. Box 660044"],"city":"Dallas","state":"TX","postalCode":"75266-0044","country":"USA"}]},"request":{"method":"PUT","url":"Organization/ea8b638b-02fb-4ad0-ba3c-f9c48ee5b3ec"}},{"fullUrl":"https://madie.cms.gov/Practitioner/c3d92ba2-6835-4649-8547-1ff7320ad48b","resource":{"resourceType":"Practitioner","id":"c3d92ba2-6835-4649-8547-1ff7320ad48b","meta":{"profile":["http://hl7.org/fhir/us/qicore/StructureDefinition/qicore-practitioner"]},"identifier":[{"system":"http://hl7.org/fhir/sid/us-npi","value":"123456"}],"name":[{"family":"Evil","prefix":["Dr"]}]},"request":{"method":"PUT","url":"Practitioner/c3d92ba2-6835-4649-8547-1ff7320ad48b"}},{"fullUrl":"https://madie.cms.gov/MeasureReport/00685c99-2f0d-4a45-972c-87ef10bc48de","resource":{"resourceType":"MeasureReport","id":"00685c99-2f0d-4a45-972c-87ef10bc48de","meta":{"profile":["http://hl7.org/fhir/us/cqfmeasures/StructureDefinition/test-case-cqfm"]},"contained":[{"resourceType":"Parameters","id":"a43eb78b-7b3d-4fc7-bbb8-0951de59b3d1-parameters","parameter":[{"name":"subject","valueString":"9ee4773e-75ac-468f-8c38-82e9af379e0e"}]}],"extension":[{"url":"http://hl7.org/fhir/StructureDefinition/cqf-inputParameters","valueReference":{"reference":"#a43eb78b-7b3d-4fc7-bbb8-0951de59b3d1-parameters"}},{"url":"http://hl7.org/fhir/us/cqfmeasures/StructureDefinition/cqfm-testCaseDescription","valueMarkdown":"Patient with Uveitis with cataract surgery. "}],"modifierExtension":[{"url":"http://hl7.org/fhir/us/cqfmeasures/StructureDefinition/cqfm-isTestCase","valueBoolean":true}],"status":"complete","type":"individual","measure":"https://madie.cms.gov/Measure/CMS133FHIRCataracts2040BCVAwithin90Days","period":{"start":"2026-01-01","end":"2026-12-31"},"group":[{"id":"Group_1","population":[{"id":"InitialPopulation_1","code":{"coding":[{"system":"http://terminology.hl7.org/CodeSystem/measure-population","code":"initial-population","display":"Initial Population"}]},"count":1},{"id":"Denominator_1","code":{"coding":[{"system":"http://terminology.hl7.org/CodeSystem/measure-population","code":"denominator","display":"Denominator"}]},"count":1},{"id":"DenominatorExclusion_1","code":{"coding":[{"system":"http://terminology.hl7.org/CodeSystem/measure-population","code":"denominator-exclusion","display":"Denominator Exclusion"}]},"count":1},{"id":"Numerator_1","code":{"coding":[{"system":"http://terminology.hl7.org/CodeSystem/measure-population","code":"numerator","display":"Numerator"}]},"count":0}],"measureScore":{"value":0.0}}],"evaluatedResource":[{"reference":"Patient/9ee4773e-75ac-468f-8c38-82e9af379e0e"},{"reference":"Observation/d5651675-4056-46e6-9e84-9f0f347a1706"},{"reference":"Procedure/a0b5aea5-90dc-40a1-964f-8c714511fe8f"},{"reference":"Condition/b0eb6b77-0dad-461f-a17b-48142c6bce83"},{"reference":"Coverage/b626b4ac-6976-464a-8522-13342b95bb32"},{"reference":"Organization/ea8b638b-02fb-4ad0-ba3c-f9c48ee5b3ec"},{"reference":"Practitioner/c3d92ba2-6835-4649-8547-1ff7320ad48b"}]},"request":{"method":"PUT","url":"MeasureReport/00685c99-2f0d-4a45-972c-87ef10bc48de"}}]},"request":{"method":"PUT","url":"Bundle/61095b0998086b53805591a5"}},{"resource":{"resourceType":"Procedure","id":"a0b5aea5-90dc-40a1-964f-8c714511fe8f","meta":{"profile":["http://hl7.org/fhir/us/qicore/StructureDefinition/qicore-procedure"]},"extension":[{"url":"http://hl7.org/fhir/us/qicore/StructureDefinition/qicore-recorded","valueDateTime":"2026-03-05T09:35:00-04:00"}],"status":"completed","code":{"coding":[{"system":"http://snomed.info/sct","code":"84149000"}]},"subject":{"reference":"Patient/9ee4773e-75ac-468f-8c38-82e9af379e0e"},"performedPeriod":{"start":"2026-03-05T09:20:00-04:00","end":"2026-04-05T10:30:00-04:00"}},"request":{"method":"PUT","url":"Procedure/a0b5aea5-90dc-40a1-964f-8c714511fe8f"}},{"resource":{"resourceType":"Practitioner","id":"c3d92ba2-6835-4649-8547-1ff7320ad48b","meta":{"profile":["http://hl7.org/fhir/us/qicore/StructureDefinition/qicore-practitioner"]},"identifier":[{"system":"http://hl7.org/fhir/sid/us-npi","value":"123456"}],"name":[{"family":"Evil","prefix":["Dr"]}]},"request":{"method":"PUT","url":"Practitioner/c3d92ba2-6835-4649-8547-1ff7320ad48b"}}]}