{"resourceType":"Bundle","id":"tests-3d233a38-583f-40bc-a7b9-110d420277ff-bundle","type":"transaction","entry":[{"fullUrl":"Bundle/61095b0998086b53805591a5","resource":{"resourceType":"Bundle","id":"61095b0998086b53805591a5","type":"transaction","entry":[{"fullUrl":"https://madie.cms.gov/Patient/3d233a38-583f-40bc-a7b9-110d420277ff","resource":{"resourceType":"Patient","id":"3d233a38-583f-40bc-a7b9-110d420277ff","meta":{"profile":["http://hl7.org/fhir/us/qicore/StructureDefinition/qicore-patient"]},"text":{"status":"generated","div":"<div xmlns=\"http://www.w3.org/1999/xhtml\"><div class=\"hapiHeaderText\">Age@18 <b>DENOMPASS </b></div><table class=\"hapiPropertyTable\"><tbody><tr><td>Identifier</td><td>67f3e33acf17bcb386e754d726ed064ccd48ba21ff0ffb2eb678740a684398be</td></tr><tr><td>Date of birth</td><td><span>01 January 1994</span></td></tr></tbody></table></div>"},"extension":[{"url":"http://hl7.org/fhir/us/core/StructureDefinition/us-core-race","extension":[{"url":"ombCategory","valueCoding":{"system":"urn:oid:2.16.840.1.113883.6.238","code":"1002-5","display":"American Indian or Alaska Native","userSelected":true}},{"url":"text","valueString":"American Indian or Alaska Native"}]},{"url":"http://hl7.org/fhir/us/core/StructureDefinition/us-core-ethnicity","extension":[{"url":"ombCategory","valueCoding":{"system":"urn:oid:2.16.840.1.113883.6.238","code":"2135-2","display":"Hispanic or Latino","userSelected":true}},{"url":"text","valueString":"Hispanic or Latino"}]}],"identifier":[{"type":{"coding":[{"system":"http://terminology.hl7.org/CodeSystem/v2-0203","code":"MR"}]},"system":"https://bonnie-fhir.healthit.gov/","value":"61095b0998086b53805591a5"}],"active":true,"name":[{"use":"usual","family":"DENEXPASS","given":["PriorPenetratingKeratoplastyWithCatSurg"]}],"gender":"female","birthDate":"1996-01-01"},"request":{"method":"PUT","url":"Patient/3d233a38-583f-40bc-a7b9-110d420277ff"}},{"fullUrl":"https://madie.cms.gov/Observation/e111813e-68ef-4dae-8f3c-b8681ab1dd65","resource":{"resourceType":"Observation","id":"e111813e-68ef-4dae-8f3c-b8681ab1dd65","meta":{"profile":["http://hl7.org/fhir/us/qicore/StructureDefinition/qicore-observation-clinical-result"]},"status":"final","category":[{"coding":[{"system":"http://terminology.hl7.org/CodeSystem/observation-category","code":"exam","display":"exam"}]}],"code":{"coding":[{"system":"http://snomed.info/sct","code":"419775003"}]},"subject":{"reference":"Patient/3d233a38-583f-40bc-a7b9-110d420277ff"},"effectivePeriod":{"start":"2026-03-13T09:00:00+00:00","end":"2026-03-13T09:30:00+00:00"}},"request":{"method":"PUT","url":"Observation/e111813e-68ef-4dae-8f3c-b8681ab1dd65"}},{"fullUrl":"https://madie.cms.gov/Procedure/4d4ea674-7d4c-4a85-8a93-fea670dc3b63","resource":{"resourceType":"Procedure","id":"4d4ea674-7d4c-4a85-8a93-fea670dc3b63","meta":{"profile":["http://hl7.org/fhir/us/qicore/StructureDefinition/qicore-procedure"]},"extension":[{"url":"http://hl7.org/fhir/us/qicore/StructureDefinition/qicore-recorded","valueDateTime":"2026-03-05T09:35:00-04:00"}],"status":"completed","code":{"coding":[{"system":"http://snomed.info/sct","code":"84149000"}]},"subject":{"reference":"Patient/3d233a38-583f-40bc-a7b9-110d420277ff"},"performedPeriod":{"start":"2026-03-05T09:20:00-04:00","end":"2026-04-05T10:30:00-04:00"}},"request":{"method":"PUT","url":"Procedure/4d4ea674-7d4c-4a85-8a93-fea670dc3b63"}},{"fullUrl":"https://madie.cms.gov/Condition/3ded50fd-60f6-41a4-8fe0-8b827547a533","resource":{"resourceType":"Condition","id":"3ded50fd-60f6-41a4-8fe0-8b827547a533","meta":{"profile":["http://hl7.org/fhir/us/qicore/StructureDefinition/qicore-condition-encounter-diagnosis"]},"clinicalStatus":{"coding":[{"system":"http://terminology.hl7.org/CodeSystem/condition-clinical","code":"active","display":"active","userSelected":true}]},"category":[{"coding":[{"system":"http://terminology.hl7.org/CodeSystem/condition-clinical","code":"active","display":"active","userSelected":true}]}],"code":{"coding":[{"system":"http://hl7.org/fhir/sid/icd-10-cm","code":"H18.601","userSelected":true},{"system":"http://snomed.info/sct","code":"65636009","userSelected":true}]},"subject":{"reference":"Patient/3d233a38-583f-40bc-a7b9-110d420277ff"},"onsetDateTime":"2024-11-01T08:00:00.000+00:00"},"request":{"method":"PUT","url":"Condition/3ded50fd-60f6-41a4-8fe0-8b827547a533"}},{"fullUrl":"https://madie.cms.gov/Coverage/e1c0c56a-455e-4de6-a9ad-9d59faf64ab1","resource":{"resourceType":"Coverage","id":"e1c0c56a-455e-4de6-a9ad-9d59faf64ab1","meta":{"profile":["http://hl7.org/fhir/us/qicore/StructureDefinition/qicore-coverage"]},"status":"active","beneficiary":{"reference":"Patient/3d233a38-583f-40bc-a7b9-110d420277ff"},"payor":[{"reference":"Organization/30b27dd8-bc7b-43ac-8652-192c34572fdb"}]},"request":{"method":"PUT","url":"Coverage/e1c0c56a-455e-4de6-a9ad-9d59faf64ab1"}},{"fullUrl":"https://madie.cms.gov/Organization/30b27dd8-bc7b-43ac-8652-192c34572fdb","resource":{"resourceType":"Organization","id":"30b27dd8-bc7b-43ac-8652-192c34572fdb","meta":{"profile":["http://hl7.org/fhir/us/qicore/StructureDefinition/qicore-organization"]},"identifier":[{"use":"temp","system":"urn:oid:2.16.840.1.113883.4.4","value":"21-3259825"}],"active":true,"type":[{"coding":[{"system":"http://terminology.hl7.org/CodeSystem/organization-type","code":"pay","display":"Payer"}]}],"name":"Blue Cross Blue Shield of Texas","telecom":[{"system":"phone","value":"(+1) 972-766-6900"}],"address":[{"use":"billing","type":"postal","line":["P.O. Box 660044"],"city":"Dallas","state":"TX","postalCode":"75266-0044","country":"USA"}]},"request":{"method":"PUT","url":"Organization/30b27dd8-bc7b-43ac-8652-192c34572fdb"}},{"fullUrl":"https://madie.cms.gov/Practitioner/a126e7c9-d13f-49c1-ae22-2bfc70684ad5","resource":{"resourceType":"Practitioner","id":"a126e7c9-d13f-49c1-ae22-2bfc70684ad5","meta":{"profile":["http://hl7.org/fhir/us/qicore/StructureDefinition/qicore-practitioner"]},"identifier":[{"system":"http://hl7.org/fhir/sid/us-npi","value":"123456"}],"name":[{"family":"Evil","prefix":["Dr"]}]},"request":{"method":"PUT","url":"Practitioner/a126e7c9-d13f-49c1-ae22-2bfc70684ad5"}},{"fullUrl":"https://madie.cms.gov/MeasureReport/1976e6c7-b5e8-4922-a0c6-10e59e47fb51","resource":{"resourceType":"MeasureReport","id":"1976e6c7-b5e8-4922-a0c6-10e59e47fb51","meta":{"profile":["http://hl7.org/fhir/us/cqfmeasures/StructureDefinition/test-case-cqfm"]},"contained":[{"resourceType":"Parameters","id":"58f75c54-f9dd-43ef-a79e-47b5bb636d70-parameters","parameter":[{"name":"subject","valueString":"3d233a38-583f-40bc-a7b9-110d420277ff"}]}],"extension":[{"url":"http://hl7.org/fhir/StructureDefinition/cqf-inputParameters","valueReference":{"reference":"#58f75c54-f9dd-43ef-a79e-47b5bb636d70-parameters"}},{"url":"http://hl7.org/fhir/us/cqfmeasures/StructureDefinition/cqfm-testCaseDescription","valueMarkdown":"Patient with Prior Penetrating Keratoplasty with cataract surgery. "}],"modifierExtension":[{"url":"http://hl7.org/fhir/us/cqfmeasures/StructureDefinition/cqfm-isTestCase","valueBoolean":true}],"status":"complete","type":"individual","measure":"https://madie.cms.gov/Measure/CMS133FHIRCataracts2040BCVAwithin90Days","period":{"start":"2026-01-01","end":"2026-12-31"},"group":[{"id":"Group_1","population":[{"id":"InitialPopulation_1","code":{"coding":[{"system":"http://terminology.hl7.org/CodeSystem/measure-population","code":"initial-population","display":"Initial Population"}]},"count":1},{"id":"Denominator_1","code":{"coding":[{"system":"http://terminology.hl7.org/CodeSystem/measure-population","code":"denominator","display":"Denominator"}]},"count":1},{"id":"DenominatorExclusion_1","code":{"coding":[{"system":"http://terminology.hl7.org/CodeSystem/measure-population","code":"denominator-exclusion","display":"Denominator Exclusion"}]},"count":1},{"id":"Numerator_1","code":{"coding":[{"system":"http://terminology.hl7.org/CodeSystem/measure-population","code":"numerator","display":"Numerator"}]},"count":0}],"measureScore":{"value":0.0}}],"evaluatedResource":[{"reference":"Patient/3d233a38-583f-40bc-a7b9-110d420277ff"},{"reference":"Observation/e111813e-68ef-4dae-8f3c-b8681ab1dd65"},{"reference":"Procedure/4d4ea674-7d4c-4a85-8a93-fea670dc3b63"},{"reference":"Condition/3ded50fd-60f6-41a4-8fe0-8b827547a533"},{"reference":"Coverage/e1c0c56a-455e-4de6-a9ad-9d59faf64ab1"},{"reference":"Organization/30b27dd8-bc7b-43ac-8652-192c34572fdb"},{"reference":"Practitioner/a126e7c9-d13f-49c1-ae22-2bfc70684ad5"}]},"request":{"method":"PUT","url":"MeasureReport/1976e6c7-b5e8-4922-a0c6-10e59e47fb51"}}]},"request":{"method":"PUT","url":"Bundle/61095b0998086b53805591a5"}},{"fullUrl":"MeasureReport/1976e6c7-b5e8-4922-a0c6-10e59e47fb51","resource":{"resourceType":"MeasureReport","id":"1976e6c7-b5e8-4922-a0c6-10e59e47fb51","meta":{"profile":["http://hl7.org/fhir/us/cqfmeasures/StructureDefinition/test-case-cqfm"]},"contained":[{"resourceType":"Parameters","id":"58f75c54-f9dd-43ef-a79e-47b5bb636d70-parameters","parameter":[{"name":"subject","valueString":"3d233a38-583f-40bc-a7b9-110d420277ff"}]}],"extension":[{"url":"http://hl7.org/fhir/StructureDefinition/cqf-inputParameters","valueReference":{"reference":"#58f75c54-f9dd-43ef-a79e-47b5bb636d70-parameters"}},{"url":"http://hl7.org/fhir/us/cqfmeasures/StructureDefinition/cqfm-testCaseDescription","valueMarkdown":"Patient with Prior Penetrating Keratoplasty with cataract surgery. "}],"modifierExtension":[{"url":"http://hl7.org/fhir/us/cqfmeasures/StructureDefinition/cqfm-isTestCase","valueBoolean":true}],"status":"complete","type":"individual","measure":"https://madie.cms.gov/Measure/CMS133FHIRCataracts2040BCVAwithin90Days","period":{"start":"2026-01-01","end":"2026-12-31"},"group":[{"id":"Group_1","population":[{"id":"InitialPopulation_1","code":{"coding":[{"system":"http://terminology.hl7.org/CodeSystem/measure-population","code":"initial-population","display":"Initial Population"}]},"count":1},{"id":"Denominator_1","code":{"coding":[{"system":"http://terminology.hl7.org/CodeSystem/measure-population","code":"denominator","display":"Denominator"}]},"count":1},{"id":"DenominatorExclusion_1","code":{"coding":[{"system":"http://terminology.hl7.org/CodeSystem/measure-population","code":"denominator-exclusion","display":"Denominator Exclusion"}]},"count":1},{"id":"Numerator_1","code":{"coding":[{"system":"http://terminology.hl7.org/CodeSystem/measure-population","code":"numerator","display":"Numerator"}]},"count":0}],"measureScore":{"value":0.0}}],"evaluatedResource":[{"reference":"Patient/3d233a38-583f-40bc-a7b9-110d420277ff"},{"reference":"Observation/e111813e-68ef-4dae-8f3c-b8681ab1dd65"},{"reference":"Procedure/4d4ea674-7d4c-4a85-8a93-fea670dc3b63"},{"reference":"Condition/3ded50fd-60f6-41a4-8fe0-8b827547a533"},{"reference":"Coverage/e1c0c56a-455e-4de6-a9ad-9d59faf64ab1"},{"reference":"Organization/30b27dd8-bc7b-43ac-8652-192c34572fdb"},{"reference":"Practitioner/a126e7c9-d13f-49c1-ae22-2bfc70684ad5"}]},"request":{"method":"PUT","url":"MeasureReport/1976e6c7-b5e8-4922-a0c6-10e59e47fb51"}},{"fullUrl":"Practitioner/a126e7c9-d13f-49c1-ae22-2bfc70684ad5","resource":{"resourceType":"Practitioner","id":"a126e7c9-d13f-49c1-ae22-2bfc70684ad5","meta":{"profile":["http://hl7.org/fhir/us/qicore/StructureDefinition/qicore-practitioner"]},"identifier":[{"system":"http://hl7.org/fhir/sid/us-npi","value":"123456"}],"name":[{"family":"Evil","prefix":["Dr"]}]},"request":{"method":"PUT","url":"Practitioner/a126e7c9-d13f-49c1-ae22-2bfc70684ad5"}},{"fullUrl":"Coverage/e1c0c56a-455e-4de6-a9ad-9d59faf64ab1","resource":{"resourceType":"Coverage","id":"e1c0c56a-455e-4de6-a9ad-9d59faf64ab1","meta":{"profile":["http://hl7.org/fhir/us/qicore/StructureDefinition/qicore-coverage"]},"status":"active","beneficiary":{"reference":"Patient/3d233a38-583f-40bc-a7b9-110d420277ff"},"payor":[{"reference":"Organization/30b27dd8-bc7b-43ac-8652-192c34572fdb"}]},"request":{"method":"PUT","url":"Coverage/e1c0c56a-455e-4de6-a9ad-9d59faf64ab1"}},{"fullUrl":"Patient/3d233a38-583f-40bc-a7b9-110d420277ff","resource":{"resourceType":"Patient","id":"3d233a38-583f-40bc-a7b9-110d420277ff","meta":{"profile":["http://hl7.org/fhir/us/qicore/StructureDefinition/qicore-patient"]},"text":{"status":"generated","div":"<div xmlns=\"http://www.w3.org/1999/xhtml\"><div class=\"hapiHeaderText\">Age@18 <b>DENOMPASS </b></div><table class=\"hapiPropertyTable\"><tbody><tr><td>Identifier</td><td>67f3e33acf17bcb386e754d726ed064ccd48ba21ff0ffb2eb678740a684398be</td></tr><tr><td>Date of birth</td><td><span>01 January 1994</span></td></tr></tbody></table></div>"},"extension":[{"url":"http://hl7.org/fhir/us/core/StructureDefinition/us-core-race","extension":[{"url":"ombCategory","valueCoding":{"system":"urn:oid:2.16.840.1.113883.6.238","code":"1002-5","display":"American Indian or Alaska Native","userSelected":true}},{"url":"text","valueString":"American Indian or Alaska Native"}]},{"url":"http://hl7.org/fhir/us/core/StructureDefinition/us-core-ethnicity","extension":[{"url":"ombCategory","valueCoding":{"system":"urn:oid:2.16.840.1.113883.6.238","code":"2135-2","display":"Hispanic or Latino","userSelected":true}},{"url":"text","valueString":"Hispanic or Latino"}]}],"identifier":[{"type":{"coding":[{"system":"http://terminology.hl7.org/CodeSystem/v2-0203","code":"MR"}]},"system":"https://bonnie-fhir.healthit.gov/","value":"61095b0998086b53805591a5"}],"active":true,"name":[{"use":"usual","family":"DENEXPASS","given":["PriorPenetratingKeratoplastyWithCatSurg"]}],"gender":"female","birthDate":"1996-01-01"},"request":{"method":"PUT","url":"Patient/3d233a38-583f-40bc-a7b9-110d420277ff"}},{"fullUrl":"Procedure/4d4ea674-7d4c-4a85-8a93-fea670dc3b63","resource":{"resourceType":"Procedure","id":"4d4ea674-7d4c-4a85-8a93-fea670dc3b63","meta":{"profile":["http://hl7.org/fhir/us/qicore/StructureDefinition/qicore-procedure"]},"extension":[{"url":"http://hl7.org/fhir/us/qicore/StructureDefinition/qicore-recorded","valueDateTime":"2026-03-05T09:35:00-04:00"}],"status":"completed","code":{"coding":[{"system":"http://snomed.info/sct","code":"84149000"}]},"subject":{"reference":"Patient/3d233a38-583f-40bc-a7b9-110d420277ff"},"performedPeriod":{"start":"2026-03-05T09:20:00-04:00","end":"2026-04-05T10:30:00-04:00"}},"request":{"method":"PUT","url":"Procedure/4d4ea674-7d4c-4a85-8a93-fea670dc3b63"}},{"fullUrl":"Condition/3ded50fd-60f6-41a4-8fe0-8b827547a533","resource":{"resourceType":"Condition","id":"3ded50fd-60f6-41a4-8fe0-8b827547a533","meta":{"profile":["http://hl7.org/fhir/us/qicore/StructureDefinition/qicore-condition-encounter-diagnosis"]},"clinicalStatus":{"coding":[{"system":"http://terminology.hl7.org/CodeSystem/condition-clinical","code":"active","display":"active","userSelected":true}]},"category":[{"coding":[{"system":"http://terminology.hl7.org/CodeSystem/condition-clinical","code":"active","display":"active","userSelected":true}]}],"code":{"coding":[{"system":"http://hl7.org/fhir/sid/icd-10-cm","code":"H18.601","userSelected":true},{"system":"http://snomed.info/sct","code":"65636009","userSelected":true}]},"subject":{"reference":"Patient/3d233a38-583f-40bc-a7b9-110d420277ff"},"onsetDateTime":"2024-11-01T08:00:00.000+00:00"},"request":{"method":"PUT","url":"Condition/3ded50fd-60f6-41a4-8fe0-8b827547a533"}},{"fullUrl":"Organization/30b27dd8-bc7b-43ac-8652-192c34572fdb","resource":{"resourceType":"Organization","id":"30b27dd8-bc7b-43ac-8652-192c34572fdb","meta":{"profile":["http://hl7.org/fhir/us/qicore/StructureDefinition/qicore-organization"]},"identifier":[{"use":"temp","system":"urn:oid:2.16.840.1.113883.4.4","value":"21-3259825"}],"active":true,"type":[{"coding":[{"system":"http://terminology.hl7.org/CodeSystem/organization-type","code":"pay","display":"Payer"}]}],"name":"Blue Cross Blue Shield of Texas","telecom":[{"system":"phone","value":"(+1) 972-766-6900"}],"address":[{"use":"billing","type":"postal","line":["P.O. Box 660044"],"city":"Dallas","state":"TX","postalCode":"75266-0044","country":"USA"}]},"request":{"method":"PUT","url":"Organization/30b27dd8-bc7b-43ac-8652-192c34572fdb"}},{"fullUrl":"Observation/e111813e-68ef-4dae-8f3c-b8681ab1dd65","resource":{"resourceType":"Observation","id":"e111813e-68ef-4dae-8f3c-b8681ab1dd65","meta":{"profile":["http://hl7.org/fhir/us/qicore/StructureDefinition/qicore-observation-clinical-result"]},"status":"final","category":[{"coding":[{"system":"http://terminology.hl7.org/CodeSystem/observation-category","code":"exam","display":"exam"}]}],"code":{"coding":[{"system":"http://snomed.info/sct","code":"419775003"}]},"subject":{"reference":"Patient/3d233a38-583f-40bc-a7b9-110d420277ff"},"effectivePeriod":{"start":"2026-03-13T09:00:00+00:00","end":"2026-03-13T09:30:00+00:00"}},"request":{"method":"PUT","url":"Observation/e111813e-68ef-4dae-8f3c-b8681ab1dd65"}}]}