{"resourceType":"Bundle","id":"tests-f3b179c7-0d24-444c-9986-5a63951a733a-bundle","type":"transaction","entry":[{"resource":{"resourceType":"Bundle","id":"61095b0998086b53805591a5","type":"transaction","entry":[{"fullUrl":"https://madie.cms.gov/Patient/f3b179c7-0d24-444c-9986-5a63951a733a","resource":{"resourceType":"Patient","id":"f3b179c7-0d24-444c-9986-5a63951a733a","meta":{"profile":["http://hl7.org/fhir/us/qicore/StructureDefinition/qicore-patient"]},"text":{"status":"generated","div":"<div xmlns=\"http://www.w3.org/1999/xhtml\"><div class=\"hapiHeaderText\">Age@18 <b>DENOMPASS </b></div><table class=\"hapiPropertyTable\"><tbody><tr><td>Identifier</td><td>67f3e33acf17bcb386e754d726ed064ccd48ba21ff0ffb2eb678740a684398be</td></tr><tr><td>Date of birth</td><td><span>01 January 1994</span></td></tr></tbody></table></div>"},"extension":[{"url":"http://hl7.org/fhir/us/core/StructureDefinition/us-core-race","extension":[{"url":"ombCategory","valueCoding":{"system":"urn:oid:2.16.840.1.113883.6.238","code":"1002-5","display":"American Indian or Alaska Native","userSelected":true}},{"url":"text","valueString":"American Indian or Alaska Native"}]},{"url":"http://hl7.org/fhir/us/core/StructureDefinition/us-core-ethnicity","extension":[{"url":"ombCategory","valueCoding":{"system":"urn:oid:2.16.840.1.113883.6.238","code":"2135-2","display":"Hispanic or Latino","userSelected":true}},{"url":"text","valueString":"Hispanic or Latino"}]}],"identifier":[{"type":{"coding":[{"system":"http://terminology.hl7.org/CodeSystem/v2-0203","code":"MR"}]},"system":"https://bonnie-fhir.healthit.gov/","value":"61095b0998086b53805591a5"}],"active":true,"name":[{"use":"usual","family":"DENEXPASS","given":["CornealEdemaWithCatSurg"]}],"gender":"female","birthDate":"1996-01-01"},"request":{"method":"PUT","url":"Patient/f3b179c7-0d24-444c-9986-5a63951a733a"}},{"fullUrl":"https://madie.cms.gov/Observation/fdf9e6a1-49e7-49f7-ac2b-0849c59d2c87","resource":{"resourceType":"Observation","id":"fdf9e6a1-49e7-49f7-ac2b-0849c59d2c87","meta":{"profile":["http://hl7.org/fhir/us/qicore/StructureDefinition/qicore-observation-clinical-result"]},"status":"final","category":[{"coding":[{"system":"http://terminology.hl7.org/CodeSystem/observation-category","code":"exam","display":"exam"}]}],"code":{"coding":[{"system":"http://snomed.info/sct","code":"419775003"}]},"subject":{"reference":"Patient/f3b179c7-0d24-444c-9986-5a63951a733a"},"effectivePeriod":{"start":"2026-03-13T09:00:00+00:00","end":"2026-03-13T09:30:00+00:00"}},"request":{"method":"PUT","url":"Observation/fdf9e6a1-49e7-49f7-ac2b-0849c59d2c87"}},{"fullUrl":"https://madie.cms.gov/Procedure/ed61d133-adf9-4bf0-ba96-c22180b74221","resource":{"resourceType":"Procedure","id":"ed61d133-adf9-4bf0-ba96-c22180b74221","meta":{"profile":["http://hl7.org/fhir/us/qicore/StructureDefinition/qicore-procedure"]},"extension":[{"url":"http://hl7.org/fhir/us/qicore/StructureDefinition/qicore-recorded","valueDateTime":"2026-03-05T09:35:00-04:00"}],"status":"completed","code":{"coding":[{"system":"http://snomed.info/sct","code":"84149000"}]},"subject":{"reference":"Patient/f3b179c7-0d24-444c-9986-5a63951a733a"},"performedPeriod":{"start":"2026-03-05T09:20:00-04:00","end":"2026-04-05T10:30:00-04:00"}},"request":{"method":"PUT","url":"Procedure/ed61d133-adf9-4bf0-ba96-c22180b74221"}},{"fullUrl":"https://madie.cms.gov/Condition/c1a990a9-e0f9-4c7a-ba3f-078181ad062f","resource":{"resourceType":"Condition","id":"c1a990a9-e0f9-4c7a-ba3f-078181ad062f","meta":{"profile":["http://hl7.org/fhir/us/qicore/StructureDefinition/qicore-condition-encounter-diagnosis"]},"clinicalStatus":{"coding":[{"system":"http://terminology.hl7.org/CodeSystem/condition-clinical","code":"active","display":"active","userSelected":true}]},"category":[{"coding":[{"system":"http://terminology.hl7.org/CodeSystem/condition-clinical","code":"active","display":"active","userSelected":true}]}],"code":{"coding":[{"system":"http://hl7.org/fhir/sid/icd-10-cm","code":"H18.43","userSelected":true},{"system":"http://snomed.info/sct","code":"77797009","display":"Hereditary corneal dystrophy (disorder)","userSelected":true}]},"subject":{"reference":"Patient/f3b179c7-0d24-444c-9986-5a63951a733a"},"onsetDateTime":"2024-11-01T08:00:00.000+00:00"},"request":{"method":"PUT","url":"Condition/c1a990a9-e0f9-4c7a-ba3f-078181ad062f"}},{"fullUrl":"https://madie.cms.gov/Coverage/b5a83c9b-3644-4c0c-9a79-70084f251751","resource":{"resourceType":"Coverage","id":"b5a83c9b-3644-4c0c-9a79-70084f251751","meta":{"profile":["http://hl7.org/fhir/us/qicore/StructureDefinition/qicore-coverage"]},"status":"active","beneficiary":{"reference":"Patient/f3b179c7-0d24-444c-9986-5a63951a733a"},"payor":[{"reference":"Organization/aa1e2120-c6e6-4b8f-96b3-a70f5a15f681"}]},"request":{"method":"PUT","url":"Coverage/b5a83c9b-3644-4c0c-9a79-70084f251751"}},{"fullUrl":"https://madie.cms.gov/Organization/aa1e2120-c6e6-4b8f-96b3-a70f5a15f681","resource":{"resourceType":"Organization","id":"aa1e2120-c6e6-4b8f-96b3-a70f5a15f681","meta":{"profile":["http://hl7.org/fhir/us/qicore/StructureDefinition/qicore-organization"]},"identifier":[{"use":"temp","system":"urn:oid:2.16.840.1.113883.4.4","value":"21-3259825"}],"active":true,"type":[{"coding":[{"system":"http://terminology.hl7.org/CodeSystem/organization-type","code":"pay","display":"Payer"}]}],"name":"Blue Cross Blue Shield of Texas","telecom":[{"system":"phone","value":"(+1) 972-766-6900"}],"address":[{"use":"billing","type":"postal","line":["P.O. Box 660044"],"city":"Dallas","state":"TX","postalCode":"75266-0044","country":"USA"}]},"request":{"method":"PUT","url":"Organization/aa1e2120-c6e6-4b8f-96b3-a70f5a15f681"}},{"fullUrl":"https://madie.cms.gov/Practitioner/e0b7fb4d-0d18-4553-83bf-309d7ff1d103","resource":{"resourceType":"Practitioner","id":"e0b7fb4d-0d18-4553-83bf-309d7ff1d103","meta":{"profile":["http://hl7.org/fhir/us/qicore/StructureDefinition/qicore-practitioner"]},"identifier":[{"system":"http://hl7.org/fhir/sid/us-npi","value":"123456"}],"name":[{"family":"Evil","prefix":["Dr"]}]},"request":{"method":"PUT","url":"Practitioner/e0b7fb4d-0d18-4553-83bf-309d7ff1d103"}},{"fullUrl":"https://madie.cms.gov/MeasureReport/635a57fb-b674-4083-b7bd-4e15a5baf70e","resource":{"resourceType":"MeasureReport","id":"635a57fb-b674-4083-b7bd-4e15a5baf70e","meta":{"profile":["http://hl7.org/fhir/us/cqfmeasures/StructureDefinition/test-case-cqfm"]},"contained":[{"resourceType":"Parameters","id":"9c1f73e4-e059-4df5-9b30-ace1afe48c3c-parameters","parameter":[{"name":"subject","valueString":"f3b179c7-0d24-444c-9986-5a63951a733a"}]}],"extension":[{"url":"http://hl7.org/fhir/StructureDefinition/cqf-inputParameters","valueReference":{"reference":"#9c1f73e4-e059-4df5-9b30-ace1afe48c3c-parameters"}},{"url":"http://hl7.org/fhir/us/cqfmeasures/StructureDefinition/cqfm-testCaseDescription","valueMarkdown":"Patient with corneal edema with cataract surgery. "}],"modifierExtension":[{"url":"http://hl7.org/fhir/us/cqfmeasures/StructureDefinition/cqfm-isTestCase","valueBoolean":true}],"status":"complete","type":"individual","measure":"https://madie.cms.gov/Measure/CMS133FHIRCataracts2040BCVAwithin90Days","period":{"start":"2026-01-01","end":"2026-12-31"},"group":[{"id":"Group_1","population":[{"id":"InitialPopulation_1","code":{"coding":[{"system":"http://terminology.hl7.org/CodeSystem/measure-population","code":"initial-population","display":"Initial Population"}]},"count":1},{"id":"Denominator_1","code":{"coding":[{"system":"http://terminology.hl7.org/CodeSystem/measure-population","code":"denominator","display":"Denominator"}]},"count":1},{"id":"DenominatorExclusion_1","code":{"coding":[{"system":"http://terminology.hl7.org/CodeSystem/measure-population","code":"denominator-exclusion","display":"Denominator Exclusion"}]},"count":1},{"id":"Numerator_1","code":{"coding":[{"system":"http://terminology.hl7.org/CodeSystem/measure-population","code":"numerator","display":"Numerator"}]},"count":0}],"measureScore":{"value":0.0}}],"evaluatedResource":[{"reference":"Patient/f3b179c7-0d24-444c-9986-5a63951a733a"},{"reference":"Observation/fdf9e6a1-49e7-49f7-ac2b-0849c59d2c87"},{"reference":"Procedure/ed61d133-adf9-4bf0-ba96-c22180b74221"},{"reference":"Condition/c1a990a9-e0f9-4c7a-ba3f-078181ad062f"},{"reference":"Coverage/b5a83c9b-3644-4c0c-9a79-70084f251751"},{"reference":"Organization/aa1e2120-c6e6-4b8f-96b3-a70f5a15f681"},{"reference":"Practitioner/e0b7fb4d-0d18-4553-83bf-309d7ff1d103"}]},"request":{"method":"PUT","url":"MeasureReport/635a57fb-b674-4083-b7bd-4e15a5baf70e"}}]},"request":{"method":"PUT","url":"Bundle/61095b0998086b53805591a5"}},{"resource":{"resourceType":"MeasureReport","id":"635a57fb-b674-4083-b7bd-4e15a5baf70e","meta":{"profile":["http://hl7.org/fhir/us/cqfmeasures/StructureDefinition/test-case-cqfm"]},"contained":[{"resourceType":"Parameters","id":"9c1f73e4-e059-4df5-9b30-ace1afe48c3c-parameters","parameter":[{"name":"subject","valueString":"f3b179c7-0d24-444c-9986-5a63951a733a"}]}],"extension":[{"url":"http://hl7.org/fhir/StructureDefinition/cqf-inputParameters","valueReference":{"reference":"#9c1f73e4-e059-4df5-9b30-ace1afe48c3c-parameters"}},{"url":"http://hl7.org/fhir/us/cqfmeasures/StructureDefinition/cqfm-testCaseDescription","valueMarkdown":"Patient with corneal edema with cataract surgery. "}],"modifierExtension":[{"url":"http://hl7.org/fhir/us/cqfmeasures/StructureDefinition/cqfm-isTestCase","valueBoolean":true}],"status":"complete","type":"individual","measure":"https://madie.cms.gov/Measure/CMS133FHIRCataracts2040BCVAwithin90Days","period":{"start":"2026-01-01","end":"2026-12-31"},"group":[{"id":"Group_1","population":[{"id":"InitialPopulation_1","code":{"coding":[{"system":"http://terminology.hl7.org/CodeSystem/measure-population","code":"initial-population","display":"Initial Population"}]},"count":1},{"id":"Denominator_1","code":{"coding":[{"system":"http://terminology.hl7.org/CodeSystem/measure-population","code":"denominator","display":"Denominator"}]},"count":1},{"id":"DenominatorExclusion_1","code":{"coding":[{"system":"http://terminology.hl7.org/CodeSystem/measure-population","code":"denominator-exclusion","display":"Denominator Exclusion"}]},"count":1},{"id":"Numerator_1","code":{"coding":[{"system":"http://terminology.hl7.org/CodeSystem/measure-population","code":"numerator","display":"Numerator"}]},"count":0}],"measureScore":{"value":0.0}}],"evaluatedResource":[{"reference":"Patient/f3b179c7-0d24-444c-9986-5a63951a733a"},{"reference":"Observation/fdf9e6a1-49e7-49f7-ac2b-0849c59d2c87"},{"reference":"Procedure/ed61d133-adf9-4bf0-ba96-c22180b74221"},{"reference":"Condition/c1a990a9-e0f9-4c7a-ba3f-078181ad062f"},{"reference":"Coverage/b5a83c9b-3644-4c0c-9a79-70084f251751"},{"reference":"Organization/aa1e2120-c6e6-4b8f-96b3-a70f5a15f681"},{"reference":"Practitioner/e0b7fb4d-0d18-4553-83bf-309d7ff1d103"}]},"request":{"method":"PUT","url":"MeasureReport/635a57fb-b674-4083-b7bd-4e15a5baf70e"}},{"resource":{"resourceType":"Organization","id":"aa1e2120-c6e6-4b8f-96b3-a70f5a15f681","meta":{"profile":["http://hl7.org/fhir/us/qicore/StructureDefinition/qicore-organization"]},"identifier":[{"use":"temp","system":"urn:oid:2.16.840.1.113883.4.4","value":"21-3259825"}],"active":true,"type":[{"coding":[{"system":"http://terminology.hl7.org/CodeSystem/organization-type","code":"pay","display":"Payer"}]}],"name":"Blue Cross Blue Shield of Texas","telecom":[{"system":"phone","value":"(+1) 972-766-6900"}],"address":[{"use":"billing","type":"postal","line":["P.O. Box 660044"],"city":"Dallas","state":"TX","postalCode":"75266-0044","country":"USA"}]},"request":{"method":"PUT","url":"Organization/aa1e2120-c6e6-4b8f-96b3-a70f5a15f681"}},{"resource":{"resourceType":"Procedure","id":"ed61d133-adf9-4bf0-ba96-c22180b74221","meta":{"profile":["http://hl7.org/fhir/us/qicore/StructureDefinition/qicore-procedure"]},"extension":[{"url":"http://hl7.org/fhir/us/qicore/StructureDefinition/qicore-recorded","valueDateTime":"2026-03-05T09:35:00-04:00"}],"status":"completed","code":{"coding":[{"system":"http://snomed.info/sct","code":"84149000"}]},"subject":{"reference":"Patient/f3b179c7-0d24-444c-9986-5a63951a733a"},"performedPeriod":{"start":"2026-03-05T09:20:00-04:00","end":"2026-04-05T10:30:00-04:00"}},"request":{"method":"PUT","url":"Procedure/ed61d133-adf9-4bf0-ba96-c22180b74221"}},{"resource":{"resourceType":"Patient","id":"f3b179c7-0d24-444c-9986-5a63951a733a","meta":{"profile":["http://hl7.org/fhir/us/qicore/StructureDefinition/qicore-patient"]},"text":{"status":"generated","div":"<div xmlns=\"http://www.w3.org/1999/xhtml\"><div class=\"hapiHeaderText\">Age@18 <b>DENOMPASS </b></div><table class=\"hapiPropertyTable\"><tbody><tr><td>Identifier</td><td>67f3e33acf17bcb386e754d726ed064ccd48ba21ff0ffb2eb678740a684398be</td></tr><tr><td>Date of birth</td><td><span>01 January 1994</span></td></tr></tbody></table></div>"},"extension":[{"url":"http://hl7.org/fhir/us/core/StructureDefinition/us-core-race","extension":[{"url":"ombCategory","valueCoding":{"system":"urn:oid:2.16.840.1.113883.6.238","code":"1002-5","display":"American Indian or Alaska Native","userSelected":true}},{"url":"text","valueString":"American Indian or Alaska Native"}]},{"url":"http://hl7.org/fhir/us/core/StructureDefinition/us-core-ethnicity","extension":[{"url":"ombCategory","valueCoding":{"system":"urn:oid:2.16.840.1.113883.6.238","code":"2135-2","display":"Hispanic or Latino","userSelected":true}},{"url":"text","valueString":"Hispanic or Latino"}]}],"identifier":[{"type":{"coding":[{"system":"http://terminology.hl7.org/CodeSystem/v2-0203","code":"MR"}]},"system":"https://bonnie-fhir.healthit.gov/","value":"61095b0998086b53805591a5"}],"active":true,"name":[{"use":"usual","family":"DENEXPASS","given":["CornealEdemaWithCatSurg"]}],"gender":"female","birthDate":"1996-01-01"},"request":{"method":"PUT","url":"Patient/f3b179c7-0d24-444c-9986-5a63951a733a"}},{"resource":{"resourceType":"Practitioner","id":"e0b7fb4d-0d18-4553-83bf-309d7ff1d103","meta":{"profile":["http://hl7.org/fhir/us/qicore/StructureDefinition/qicore-practitioner"]},"identifier":[{"system":"http://hl7.org/fhir/sid/us-npi","value":"123456"}],"name":[{"family":"Evil","prefix":["Dr"]}]},"request":{"method":"PUT","url":"Practitioner/e0b7fb4d-0d18-4553-83bf-309d7ff1d103"}},{"resource":{"resourceType":"Observation","id":"fdf9e6a1-49e7-49f7-ac2b-0849c59d2c87","meta":{"profile":["http://hl7.org/fhir/us/qicore/StructureDefinition/qicore-observation-clinical-result"]},"status":"final","category":[{"coding":[{"system":"http://terminology.hl7.org/CodeSystem/observation-category","code":"exam","display":"exam"}]}],"code":{"coding":[{"system":"http://snomed.info/sct","code":"419775003"}]},"subject":{"reference":"Patient/f3b179c7-0d24-444c-9986-5a63951a733a"},"effectivePeriod":{"start":"2026-03-13T09:00:00+00:00","end":"2026-03-13T09:30:00+00:00"}},"request":{"method":"PUT","url":"Observation/fdf9e6a1-49e7-49f7-ac2b-0849c59d2c87"}},{"resource":{"resourceType":"Condition","id":"c1a990a9-e0f9-4c7a-ba3f-078181ad062f","meta":{"profile":["http://hl7.org/fhir/us/qicore/StructureDefinition/qicore-condition-encounter-diagnosis"]},"clinicalStatus":{"coding":[{"system":"http://terminology.hl7.org/CodeSystem/condition-clinical","code":"active","display":"active","userSelected":true}]},"category":[{"coding":[{"system":"http://terminology.hl7.org/CodeSystem/condition-clinical","code":"active","display":"active","userSelected":true}]}],"code":{"coding":[{"system":"http://hl7.org/fhir/sid/icd-10-cm","code":"H18.43","userSelected":true},{"system":"http://snomed.info/sct","code":"77797009","display":"Hereditary corneal dystrophy (disorder)","userSelected":true}]},"subject":{"reference":"Patient/f3b179c7-0d24-444c-9986-5a63951a733a"},"onsetDateTime":"2024-11-01T08:00:00.000+00:00"},"request":{"method":"PUT","url":"Condition/c1a990a9-e0f9-4c7a-ba3f-078181ad062f"}},{"resource":{"resourceType":"Coverage","id":"b5a83c9b-3644-4c0c-9a79-70084f251751","meta":{"profile":["http://hl7.org/fhir/us/qicore/StructureDefinition/qicore-coverage"]},"status":"active","beneficiary":{"reference":"Patient/f3b179c7-0d24-444c-9986-5a63951a733a"},"payor":[{"reference":"Organization/aa1e2120-c6e6-4b8f-96b3-a70f5a15f681"}]},"request":{"method":"PUT","url":"Coverage/b5a83c9b-3644-4c0c-9a79-70084f251751"}}]}