{"resourceType":"Bundle","id":"tests-c289d40d-13ed-45a9-abcc-8bf6ab1f2926-bundle","type":"transaction","entry":[{"fullUrl":"Patient/c289d40d-13ed-45a9-abcc-8bf6ab1f2926","resource":{"resourceType":"Patient","id":"c289d40d-13ed-45a9-abcc-8bf6ab1f2926","meta":{"profile":["http://hl7.org/fhir/us/qicore/StructureDefinition/qicore-patient"]},"text":{"status":"generated","div":"<div xmlns=\"http://www.w3.org/1999/xhtml\"><div class=\"hapiHeaderText\">Age@18 <b>DENOMPASS </b></div><table class=\"hapiPropertyTable\"><tbody><tr><td>Identifier</td><td>67f3e33acf17bcb386e754d726ed064ccd48ba21ff0ffb2eb678740a684398be</td></tr><tr><td>Date of birth</td><td><span>01 January 1994</span></td></tr></tbody></table></div>"},"extension":[{"url":"http://hl7.org/fhir/us/core/StructureDefinition/us-core-race","extension":[{"url":"ombCategory","valueCoding":{"system":"urn:oid:2.16.840.1.113883.6.238","code":"1002-5","display":"American Indian or Alaska Native","userSelected":true}},{"url":"text","valueString":"American Indian or Alaska Native"}]},{"url":"http://hl7.org/fhir/us/core/StructureDefinition/us-core-ethnicity","extension":[{"url":"ombCategory","valueCoding":{"system":"urn:oid:2.16.840.1.113883.6.238","code":"2135-2","display":"Hispanic or Latino","userSelected":true}},{"url":"text","valueString":"Hispanic or Latino"}]}],"identifier":[{"type":{"coding":[{"system":"http://terminology.hl7.org/CodeSystem/v2-0203","code":"MR"}]},"system":"https://bonnie-fhir.healthit.gov/","value":"61095b0998086b53805591a5"}],"active":true,"name":[{"use":"usual","family":"DENEXPASS","given":["OpticNeuritisWithCatSurg"]}],"gender":"female","birthDate":"1996-01-01"},"request":{"method":"PUT","url":"Patient/c289d40d-13ed-45a9-abcc-8bf6ab1f2926"}},{"fullUrl":"Practitioner/ff9d6056-1645-4685-9971-98a367313fc9","resource":{"resourceType":"Practitioner","id":"ff9d6056-1645-4685-9971-98a367313fc9","meta":{"profile":["http://hl7.org/fhir/us/qicore/StructureDefinition/qicore-practitioner"]},"identifier":[{"system":"http://hl7.org/fhir/sid/us-npi","value":"123456"}],"name":[{"family":"Evil","prefix":["Dr"]}]},"request":{"method":"PUT","url":"Practitioner/ff9d6056-1645-4685-9971-98a367313fc9"}},{"fullUrl":"Observation/20e24e0b-0baf-4afe-b1d7-c368bb3805f7","resource":{"resourceType":"Observation","id":"20e24e0b-0baf-4afe-b1d7-c368bb3805f7","meta":{"profile":["http://hl7.org/fhir/us/qicore/StructureDefinition/qicore-observation-clinical-result"]},"status":"final","category":[{"coding":[{"system":"http://terminology.hl7.org/CodeSystem/observation-category","code":"exam","display":"exam"}]}],"code":{"coding":[{"system":"http://snomed.info/sct","code":"419775003"}]},"subject":{"reference":"Patient/c289d40d-13ed-45a9-abcc-8bf6ab1f2926"},"effectivePeriod":{"start":"2026-03-13T09:00:00+00:00","end":"2026-03-13T09:30:00+00:00"}},"request":{"method":"PUT","url":"Observation/20e24e0b-0baf-4afe-b1d7-c368bb3805f7"}},{"fullUrl":"Coverage/3494667d-846b-43e5-946f-8b921e86f9e2","resource":{"resourceType":"Coverage","id":"3494667d-846b-43e5-946f-8b921e86f9e2","meta":{"profile":["http://hl7.org/fhir/us/qicore/StructureDefinition/qicore-coverage"]},"status":"active","beneficiary":{"reference":"Patient/c289d40d-13ed-45a9-abcc-8bf6ab1f2926"},"payor":[{"reference":"Organization/0ae91c2c-0870-47bb-bb36-e2f869a83bf4"}]},"request":{"method":"PUT","url":"Coverage/3494667d-846b-43e5-946f-8b921e86f9e2"}},{"fullUrl":"MeasureReport/eaa31839-bd50-43c1-859e-1c99c9eaf0bf","resource":{"resourceType":"MeasureReport","id":"eaa31839-bd50-43c1-859e-1c99c9eaf0bf","meta":{"profile":["http://hl7.org/fhir/us/cqfmeasures/StructureDefinition/test-case-cqfm"]},"contained":[{"resourceType":"Parameters","id":"b02020a8-0bf8-4d03-82b3-fc248de185a7-parameters","parameter":[{"name":"subject","valueString":"c289d40d-13ed-45a9-abcc-8bf6ab1f2926"}]}],"extension":[{"url":"http://hl7.org/fhir/StructureDefinition/cqf-inputParameters","valueReference":{"reference":"#b02020a8-0bf8-4d03-82b3-fc248de185a7-parameters"}},{"url":"http://hl7.org/fhir/us/cqfmeasures/StructureDefinition/cqfm-testCaseDescription","valueMarkdown":"Patient with Optic Neuritis with cataract surgery. "}],"modifierExtension":[{"url":"http://hl7.org/fhir/us/cqfmeasures/StructureDefinition/cqfm-isTestCase","valueBoolean":true}],"status":"complete","type":"individual","measure":"https://madie.cms.gov/Measure/CMS133FHIRCataracts2040BCVAwithin90Days","period":{"start":"2026-01-01","end":"2026-12-31"},"group":[{"id":"Group_1","population":[{"id":"InitialPopulation_1","code":{"coding":[{"system":"http://terminology.hl7.org/CodeSystem/measure-population","code":"initial-population","display":"Initial Population"}]},"count":1},{"id":"Denominator_1","code":{"coding":[{"system":"http://terminology.hl7.org/CodeSystem/measure-population","code":"denominator","display":"Denominator"}]},"count":1},{"id":"DenominatorExclusion_1","code":{"coding":[{"system":"http://terminology.hl7.org/CodeSystem/measure-population","code":"denominator-exclusion","display":"Denominator Exclusion"}]},"count":1},{"id":"Numerator_1","code":{"coding":[{"system":"http://terminology.hl7.org/CodeSystem/measure-population","code":"numerator","display":"Numerator"}]},"count":0}],"measureScore":{"value":0.0}}],"evaluatedResource":[{"reference":"Patient/c289d40d-13ed-45a9-abcc-8bf6ab1f2926"},{"reference":"Observation/20e24e0b-0baf-4afe-b1d7-c368bb3805f7"},{"reference":"Procedure/c76ab2a7-319a-419b-aa48-d984506ae3b3"},{"reference":"Condition/4da446b1-5d2a-4c7e-aca9-593109377f14"},{"reference":"Coverage/3494667d-846b-43e5-946f-8b921e86f9e2"},{"reference":"Organization/0ae91c2c-0870-47bb-bb36-e2f869a83bf4"},{"reference":"Practitioner/ff9d6056-1645-4685-9971-98a367313fc9"}]},"request":{"method":"PUT","url":"MeasureReport/eaa31839-bd50-43c1-859e-1c99c9eaf0bf"}},{"fullUrl":"Organization/0ae91c2c-0870-47bb-bb36-e2f869a83bf4","resource":{"resourceType":"Organization","id":"0ae91c2c-0870-47bb-bb36-e2f869a83bf4","meta":{"profile":["http://hl7.org/fhir/us/qicore/StructureDefinition/qicore-organization"]},"identifier":[{"use":"temp","system":"urn:oid:2.16.840.1.113883.4.4","value":"21-3259825"}],"active":true,"type":[{"coding":[{"system":"http://terminology.hl7.org/CodeSystem/organization-type","code":"pay","display":"Payer"}]}],"name":"Blue Cross Blue Shield of Texas","telecom":[{"system":"phone","value":"(+1) 972-766-6900"}],"address":[{"use":"billing","type":"postal","line":["P.O. Box 660044"],"city":"Dallas","state":"TX","postalCode":"75266-0044","country":"USA"}]},"request":{"method":"PUT","url":"Organization/0ae91c2c-0870-47bb-bb36-e2f869a83bf4"}},{"fullUrl":"Procedure/c76ab2a7-319a-419b-aa48-d984506ae3b3","resource":{"resourceType":"Procedure","id":"c76ab2a7-319a-419b-aa48-d984506ae3b3","meta":{"profile":["http://hl7.org/fhir/us/qicore/StructureDefinition/qicore-procedure"]},"extension":[{"url":"http://hl7.org/fhir/us/qicore/StructureDefinition/qicore-recorded","valueDateTime":"2026-03-05T09:35:00-04:00"}],"status":"completed","code":{"coding":[{"system":"http://snomed.info/sct","code":"84149000"}]},"subject":{"reference":"Patient/c289d40d-13ed-45a9-abcc-8bf6ab1f2926"},"performedPeriod":{"start":"2026-03-05T09:20:00-04:00","end":"2026-04-05T10:30:00-04:00"}},"request":{"method":"PUT","url":"Procedure/c76ab2a7-319a-419b-aa48-d984506ae3b3"}},{"fullUrl":"Bundle/61095b0998086b53805591a5","resource":{"resourceType":"Bundle","id":"61095b0998086b53805591a5","type":"transaction","entry":[{"fullUrl":"https://madie.cms.gov/Patient/c289d40d-13ed-45a9-abcc-8bf6ab1f2926","resource":{"resourceType":"Patient","id":"c289d40d-13ed-45a9-abcc-8bf6ab1f2926","meta":{"profile":["http://hl7.org/fhir/us/qicore/StructureDefinition/qicore-patient"]},"text":{"status":"generated","div":"<div xmlns=\"http://www.w3.org/1999/xhtml\"><div class=\"hapiHeaderText\">Age@18 <b>DENOMPASS </b></div><table class=\"hapiPropertyTable\"><tbody><tr><td>Identifier</td><td>67f3e33acf17bcb386e754d726ed064ccd48ba21ff0ffb2eb678740a684398be</td></tr><tr><td>Date of birth</td><td><span>01 January 1994</span></td></tr></tbody></table></div>"},"extension":[{"url":"http://hl7.org/fhir/us/core/StructureDefinition/us-core-race","extension":[{"url":"ombCategory","valueCoding":{"system":"urn:oid:2.16.840.1.113883.6.238","code":"1002-5","display":"American Indian or Alaska Native","userSelected":true}},{"url":"text","valueString":"American Indian or Alaska Native"}]},{"url":"http://hl7.org/fhir/us/core/StructureDefinition/us-core-ethnicity","extension":[{"url":"ombCategory","valueCoding":{"system":"urn:oid:2.16.840.1.113883.6.238","code":"2135-2","display":"Hispanic or Latino","userSelected":true}},{"url":"text","valueString":"Hispanic or Latino"}]}],"identifier":[{"type":{"coding":[{"system":"http://terminology.hl7.org/CodeSystem/v2-0203","code":"MR"}]},"system":"https://bonnie-fhir.healthit.gov/","value":"61095b0998086b53805591a5"}],"active":true,"name":[{"use":"usual","family":"DENEXPASS","given":["OpticNeuritisWithCatSurg"]}],"gender":"female","birthDate":"1996-01-01"},"request":{"method":"PUT","url":"Patient/c289d40d-13ed-45a9-abcc-8bf6ab1f2926"}},{"fullUrl":"https://madie.cms.gov/Observation/20e24e0b-0baf-4afe-b1d7-c368bb3805f7","resource":{"resourceType":"Observation","id":"20e24e0b-0baf-4afe-b1d7-c368bb3805f7","meta":{"profile":["http://hl7.org/fhir/us/qicore/StructureDefinition/qicore-observation-clinical-result"]},"status":"final","category":[{"coding":[{"system":"http://terminology.hl7.org/CodeSystem/observation-category","code":"exam","display":"exam"}]}],"code":{"coding":[{"system":"http://snomed.info/sct","code":"419775003"}]},"subject":{"reference":"Patient/c289d40d-13ed-45a9-abcc-8bf6ab1f2926"},"effectivePeriod":{"start":"2026-03-13T09:00:00+00:00","end":"2026-03-13T09:30:00+00:00"}},"request":{"method":"PUT","url":"Observation/20e24e0b-0baf-4afe-b1d7-c368bb3805f7"}},{"fullUrl":"https://madie.cms.gov/Procedure/c76ab2a7-319a-419b-aa48-d984506ae3b3","resource":{"resourceType":"Procedure","id":"c76ab2a7-319a-419b-aa48-d984506ae3b3","meta":{"profile":["http://hl7.org/fhir/us/qicore/StructureDefinition/qicore-procedure"]},"extension":[{"url":"http://hl7.org/fhir/us/qicore/StructureDefinition/qicore-recorded","valueDateTime":"2026-03-05T09:35:00-04:00"}],"status":"completed","code":{"coding":[{"system":"http://snomed.info/sct","code":"84149000"}]},"subject":{"reference":"Patient/c289d40d-13ed-45a9-abcc-8bf6ab1f2926"},"performedPeriod":{"start":"2026-03-05T09:20:00-04:00","end":"2026-04-05T10:30:00-04:00"}},"request":{"method":"PUT","url":"Procedure/c76ab2a7-319a-419b-aa48-d984506ae3b3"}},{"fullUrl":"https://madie.cms.gov/Condition/4da446b1-5d2a-4c7e-aca9-593109377f14","resource":{"resourceType":"Condition","id":"4da446b1-5d2a-4c7e-aca9-593109377f14","meta":{"profile":["http://hl7.org/fhir/us/qicore/StructureDefinition/qicore-condition-encounter-diagnosis"]},"clinicalStatus":{"coding":[{"system":"http://terminology.hl7.org/CodeSystem/condition-clinical","code":"active","display":"active","userSelected":true}]},"category":[{"coding":[{"system":"http://terminology.hl7.org/CodeSystem/condition-clinical","code":"active","display":"active","userSelected":true}]}],"code":{"coding":[{"system":"http://hl7.org/fhir/sid/icd-10-cm","code":"H46.8","userSelected":true},{"system":"http://snomed.info/sct","code":"314537004","userSelected":true}]},"subject":{"reference":"Patient/c289d40d-13ed-45a9-abcc-8bf6ab1f2926"},"onsetDateTime":"2024-11-01T08:00:00.000+00:00"},"request":{"method":"PUT","url":"Condition/4da446b1-5d2a-4c7e-aca9-593109377f14"}},{"fullUrl":"https://madie.cms.gov/Coverage/3494667d-846b-43e5-946f-8b921e86f9e2","resource":{"resourceType":"Coverage","id":"3494667d-846b-43e5-946f-8b921e86f9e2","meta":{"profile":["http://hl7.org/fhir/us/qicore/StructureDefinition/qicore-coverage"]},"status":"active","beneficiary":{"reference":"Patient/c289d40d-13ed-45a9-abcc-8bf6ab1f2926"},"payor":[{"reference":"Organization/0ae91c2c-0870-47bb-bb36-e2f869a83bf4"}]},"request":{"method":"PUT","url":"Coverage/3494667d-846b-43e5-946f-8b921e86f9e2"}},{"fullUrl":"https://madie.cms.gov/Organization/0ae91c2c-0870-47bb-bb36-e2f869a83bf4","resource":{"resourceType":"Organization","id":"0ae91c2c-0870-47bb-bb36-e2f869a83bf4","meta":{"profile":["http://hl7.org/fhir/us/qicore/StructureDefinition/qicore-organization"]},"identifier":[{"use":"temp","system":"urn:oid:2.16.840.1.113883.4.4","value":"21-3259825"}],"active":true,"type":[{"coding":[{"system":"http://terminology.hl7.org/CodeSystem/organization-type","code":"pay","display":"Payer"}]}],"name":"Blue Cross Blue Shield of Texas","telecom":[{"system":"phone","value":"(+1) 972-766-6900"}],"address":[{"use":"billing","type":"postal","line":["P.O. Box 660044"],"city":"Dallas","state":"TX","postalCode":"75266-0044","country":"USA"}]},"request":{"method":"PUT","url":"Organization/0ae91c2c-0870-47bb-bb36-e2f869a83bf4"}},{"fullUrl":"https://madie.cms.gov/Practitioner/ff9d6056-1645-4685-9971-98a367313fc9","resource":{"resourceType":"Practitioner","id":"ff9d6056-1645-4685-9971-98a367313fc9","meta":{"profile":["http://hl7.org/fhir/us/qicore/StructureDefinition/qicore-practitioner"]},"identifier":[{"system":"http://hl7.org/fhir/sid/us-npi","value":"123456"}],"name":[{"family":"Evil","prefix":["Dr"]}]},"request":{"method":"PUT","url":"Practitioner/ff9d6056-1645-4685-9971-98a367313fc9"}},{"fullUrl":"https://madie.cms.gov/MeasureReport/eaa31839-bd50-43c1-859e-1c99c9eaf0bf","resource":{"resourceType":"MeasureReport","id":"eaa31839-bd50-43c1-859e-1c99c9eaf0bf","meta":{"profile":["http://hl7.org/fhir/us/cqfmeasures/StructureDefinition/test-case-cqfm"]},"contained":[{"resourceType":"Parameters","id":"b02020a8-0bf8-4d03-82b3-fc248de185a7-parameters","parameter":[{"name":"subject","valueString":"c289d40d-13ed-45a9-abcc-8bf6ab1f2926"}]}],"extension":[{"url":"http://hl7.org/fhir/StructureDefinition/cqf-inputParameters","valueReference":{"reference":"#b02020a8-0bf8-4d03-82b3-fc248de185a7-parameters"}},{"url":"http://hl7.org/fhir/us/cqfmeasures/StructureDefinition/cqfm-testCaseDescription","valueMarkdown":"Patient with Optic Neuritis with cataract surgery. "}],"modifierExtension":[{"url":"http://hl7.org/fhir/us/cqfmeasures/StructureDefinition/cqfm-isTestCase","valueBoolean":true}],"status":"complete","type":"individual","measure":"https://madie.cms.gov/Measure/CMS133FHIRCataracts2040BCVAwithin90Days","period":{"start":"2026-01-01","end":"2026-12-31"},"group":[{"id":"Group_1","population":[{"id":"InitialPopulation_1","code":{"coding":[{"system":"http://terminology.hl7.org/CodeSystem/measure-population","code":"initial-population","display":"Initial Population"}]},"count":1},{"id":"Denominator_1","code":{"coding":[{"system":"http://terminology.hl7.org/CodeSystem/measure-population","code":"denominator","display":"Denominator"}]},"count":1},{"id":"DenominatorExclusion_1","code":{"coding":[{"system":"http://terminology.hl7.org/CodeSystem/measure-population","code":"denominator-exclusion","display":"Denominator Exclusion"}]},"count":1},{"id":"Numerator_1","code":{"coding":[{"system":"http://terminology.hl7.org/CodeSystem/measure-population","code":"numerator","display":"Numerator"}]},"count":0}],"measureScore":{"value":0.0}}],"evaluatedResource":[{"reference":"Patient/c289d40d-13ed-45a9-abcc-8bf6ab1f2926"},{"reference":"Observation/20e24e0b-0baf-4afe-b1d7-c368bb3805f7"},{"reference":"Procedure/c76ab2a7-319a-419b-aa48-d984506ae3b3"},{"reference":"Condition/4da446b1-5d2a-4c7e-aca9-593109377f14"},{"reference":"Coverage/3494667d-846b-43e5-946f-8b921e86f9e2"},{"reference":"Organization/0ae91c2c-0870-47bb-bb36-e2f869a83bf4"},{"reference":"Practitioner/ff9d6056-1645-4685-9971-98a367313fc9"}]},"request":{"method":"PUT","url":"MeasureReport/eaa31839-bd50-43c1-859e-1c99c9eaf0bf"}}]},"request":{"method":"PUT","url":"Bundle/61095b0998086b53805591a5"}},{"fullUrl":"Condition/4da446b1-5d2a-4c7e-aca9-593109377f14","resource":{"resourceType":"Condition","id":"4da446b1-5d2a-4c7e-aca9-593109377f14","meta":{"profile":["http://hl7.org/fhir/us/qicore/StructureDefinition/qicore-condition-encounter-diagnosis"]},"clinicalStatus":{"coding":[{"system":"http://terminology.hl7.org/CodeSystem/condition-clinical","code":"active","display":"active","userSelected":true}]},"category":[{"coding":[{"system":"http://terminology.hl7.org/CodeSystem/condition-clinical","code":"active","display":"active","userSelected":true}]}],"code":{"coding":[{"system":"http://hl7.org/fhir/sid/icd-10-cm","code":"H46.8","userSelected":true},{"system":"http://snomed.info/sct","code":"314537004","userSelected":true}]},"subject":{"reference":"Patient/c289d40d-13ed-45a9-abcc-8bf6ab1f2926"},"onsetDateTime":"2024-11-01T08:00:00.000+00:00"},"request":{"method":"PUT","url":"Condition/4da446b1-5d2a-4c7e-aca9-593109377f14"}}]}