{"resourceType":"Bundle","id":"tests-b571d5a3-8e6f-4d4e-a5c7-cb5276882da3-bundle","type":"transaction","entry":[{"fullUrl":"Condition/6cff3690-abef-4400-a701-649cfd9ccf9d","resource":{"resourceType":"Condition","id":"6cff3690-abef-4400-a701-649cfd9ccf9d","meta":{"profile":["http://hl7.org/fhir/us/qicore/StructureDefinition/qicore-condition-encounter-diagnosis"]},"category":[{"coding":[{"system":"http://terminology.hl7.org/CodeSystem/condition-category","code":"problem-list-item","display":"Problem List Item"}]}],"code":{"coding":[{"system":"http://snomed.info/sct","version":"http://snomed.info/sct/731000124108/version/20230301","code":"78370002"}]},"subject":{"reference":"Patient/b571d5a3-8e6f-4d4e-a5c7-cb5276882da3"},"recordedDate":"2026-08-12T02:00:00.000+00:00"},"request":{"method":"PUT","url":"Condition/6cff3690-abef-4400-a701-649cfd9ccf9d"}},{"fullUrl":"Bundle/60ec6943bc72857e238afa20","resource":{"resourceType":"Bundle","id":"60ec6943bc72857e238afa20","type":"transaction","entry":[{"fullUrl":"https://madie.cms.gov/Patient/b571d5a3-8e6f-4d4e-a5c7-cb5276882da3","resource":{"resourceType":"Patient","id":"b571d5a3-8e6f-4d4e-a5c7-cb5276882da3","meta":{"profile":["http://hl7.org/fhir/us/qicore/StructureDefinition/qicore-patient"]},"extension":[{"url":"http://hl7.org/fhir/us/core/StructureDefinition/us-core-race","extension":[{"url":"ombCategory","valueCoding":{"system":"urn:oid:2.16.840.1.113883.6.238","code":"1002-5","display":"American Indian or Alaska Native","userSelected":true}},{"url":"text","valueString":"American Indian or Alaska Native"}]},{"url":"http://hl7.org/fhir/us/core/StructureDefinition/us-core-ethnicity","extension":[{"url":"ombCategory","valueCoding":{"system":"urn:oid:2.16.840.1.113883.6.238","code":"2186-5","display":"Not Hispanic or Latino","userSelected":true}},{"url":"text","valueString":"Not Hispanic or Latino"}]}],"identifier":[{"type":{"coding":[{"system":"http://terminology.hl7.org/CodeSystem/v2-0203","code":"MR"}]},"system":"https://bonnie-fhir.healthit.gov/","value":"60ec6943bc72857e238afa20"}],"name":[{"family":"DENEXFail","given":["ScleritisEndB4CatSurg"]}],"gender":"male","birthDate":"1969-06-15"},"request":{"method":"PUT","url":"Patient/b571d5a3-8e6f-4d4e-a5c7-cb5276882da3"}},{"fullUrl":"https://madie.cms.gov/Condition/6cff3690-abef-4400-a701-649cfd9ccf9d","resource":{"resourceType":"Condition","id":"6cff3690-abef-4400-a701-649cfd9ccf9d","meta":{"profile":["http://hl7.org/fhir/us/qicore/StructureDefinition/qicore-condition-encounter-diagnosis"]},"category":[{"coding":[{"system":"http://terminology.hl7.org/CodeSystem/condition-category","code":"problem-list-item","display":"Problem List Item"}]}],"code":{"coding":[{"system":"http://snomed.info/sct","version":"http://snomed.info/sct/731000124108/version/20230301","code":"78370002"}]},"subject":{"reference":"Patient/b571d5a3-8e6f-4d4e-a5c7-cb5276882da3"},"recordedDate":"2026-08-12T02:00:00.000+00:00"},"request":{"method":"PUT","url":"Condition/6cff3690-abef-4400-a701-649cfd9ccf9d"}},{"fullUrl":"https://madie.cms.gov/Procedure/6e1b9ec1-779f-4c80-b1a2-b3390ef9de7b","resource":{"resourceType":"Procedure","id":"6e1b9ec1-779f-4c80-b1a2-b3390ef9de7b","meta":{"profile":["http://hl7.org/fhir/us/qicore/StructureDefinition/qicore-procedure"]},"extension":[{"url":"http://hl7.org/fhir/us/qicore/StructureDefinition/qicore-recorded","valueDateTime":"2026-08-30T09:35:00-08:00"}],"status":"completed","code":{"coding":[{"system":"http://snomed.info/sct","version":"http://snomed.info/sct/731000124108/version/20230301","code":"5130002"}]},"subject":{"reference":"Patient/b571d5a3-8e6f-4d4e-a5c7-cb5276882da3"},"performedDateTime":"2026-08-15T08:00:00.000+00:00"},"request":{"method":"PUT","url":"Procedure/6e1b9ec1-779f-4c80-b1a2-b3390ef9de7b"}},{"fullUrl":"https://madie.cms.gov/Coverage/0ba6f187-fe01-4fcd-aa4e-2212aa511ad2","resource":{"resourceType":"Coverage","id":"0ba6f187-fe01-4fcd-aa4e-2212aa511ad2","meta":{"profile":["http://hl7.org/fhir/us/qicore/StructureDefinition/qicore-coverage"]},"status":"active","beneficiary":{"reference":"Patient/b571d5a3-8e6f-4d4e-a5c7-cb5276882da3"},"payor":[{"reference":"Organization/42ebce7f-0c60-409f-a184-698e2e9bbbfe"}]},"request":{"method":"PUT","url":"Coverage/0ba6f187-fe01-4fcd-aa4e-2212aa511ad2"}},{"fullUrl":"https://madie.cms.gov/Organization/42ebce7f-0c60-409f-a184-698e2e9bbbfe","resource":{"resourceType":"Organization","id":"42ebce7f-0c60-409f-a184-698e2e9bbbfe","meta":{"profile":["http://hl7.org/fhir/us/qicore/StructureDefinition/qicore-organization"]},"identifier":[{"use":"temp","system":"urn:oid:2.16.840.1.113883.4.4","value":"21-3259825"}],"active":true,"type":[{"coding":[{"system":"http://terminology.hl7.org/CodeSystem/organization-type","code":"pay","display":"Payer"}]}],"name":"Blue Cross Blue Shield of Texas","telecom":[{"system":"phone","value":"(+1) 972-766-6900"}],"address":[{"use":"billing","type":"postal","line":["P.O. Box 660044"],"city":"Dallas","state":"TX","postalCode":"75266-0044","country":"USA"}]},"request":{"method":"PUT","url":"Organization/42ebce7f-0c60-409f-a184-698e2e9bbbfe"}},{"fullUrl":"https://madie.cms.gov/Practitioner/44a18710-d947-423b-8d89-54279dc5b314","resource":{"resourceType":"Practitioner","id":"44a18710-d947-423b-8d89-54279dc5b314","meta":{"profile":["http://hl7.org/fhir/us/qicore/StructureDefinition/qicore-practitioner"]},"identifier":[{"system":"http://hl7.org/fhir/sid/us-npi","value":"2496541684"}],"name":[{"family":"Smith","prefix":["Dr"]}]},"request":{"method":"PUT","url":"Practitioner/44a18710-d947-423b-8d89-54279dc5b314"}},{"fullUrl":"https://madie.cms.gov/MeasureReport/abd4552b-8673-45bb-b16b-1b91e5692839","resource":{"resourceType":"MeasureReport","id":"abd4552b-8673-45bb-b16b-1b91e5692839","meta":{"profile":["http://hl7.org/fhir/us/cqfmeasures/StructureDefinition/test-case-cqfm"]},"contained":[{"resourceType":"Parameters","id":"6c6edbfe-79b7-4573-aa61-2f99424fff96-parameters","parameter":[{"name":"subject","valueString":"b571d5a3-8e6f-4d4e-a5c7-cb5276882da3"}]}],"extension":[{"url":"http://hl7.org/fhir/StructureDefinition/cqf-inputParameters","valueReference":{"reference":"#6c6edbfe-79b7-4573-aa61-2f99424fff96-parameters"}},{"url":"http://hl7.org/fhir/us/cqfmeasures/StructureDefinition/cqfm-testCaseDescription","valueMarkdown":"Patient with scleritis started but ended before cataract surgery. "}],"modifierExtension":[{"url":"http://hl7.org/fhir/us/cqfmeasures/StructureDefinition/cqfm-isTestCase","valueBoolean":true}],"status":"complete","type":"individual","measure":"https://madie.cms.gov/Measure/CMS133FHIRCataracts2040BCVAwithin90Days","period":{"start":"2026-01-01","end":"2026-12-31"},"group":[{"id":"Group_1","population":[{"id":"InitialPopulation_1","code":{"coding":[{"system":"http://terminology.hl7.org/CodeSystem/measure-population","code":"initial-population","display":"Initial Population"}]},"count":1},{"id":"Denominator_1","code":{"coding":[{"system":"http://terminology.hl7.org/CodeSystem/measure-population","code":"denominator","display":"Denominator"}]},"count":1},{"id":"DenominatorExclusion_1","code":{"coding":[{"system":"http://terminology.hl7.org/CodeSystem/measure-population","code":"denominator-exclusion","display":"Denominator Exclusion"}]},"count":0},{"id":"Numerator_1","code":{"coding":[{"system":"http://terminology.hl7.org/CodeSystem/measure-population","code":"numerator","display":"Numerator"}]},"count":0}],"measureScore":{"value":0.0}}],"evaluatedResource":[{"reference":"Patient/b571d5a3-8e6f-4d4e-a5c7-cb5276882da3"},{"reference":"Condition/6cff3690-abef-4400-a701-649cfd9ccf9d"},{"reference":"Procedure/6e1b9ec1-779f-4c80-b1a2-b3390ef9de7b"},{"reference":"Coverage/0ba6f187-fe01-4fcd-aa4e-2212aa511ad2"},{"reference":"Organization/42ebce7f-0c60-409f-a184-698e2e9bbbfe"},{"reference":"Practitioner/44a18710-d947-423b-8d89-54279dc5b314"}]},"request":{"method":"PUT","url":"MeasureReport/abd4552b-8673-45bb-b16b-1b91e5692839"}}]},"request":{"method":"PUT","url":"Bundle/60ec6943bc72857e238afa20"}},{"fullUrl":"Patient/b571d5a3-8e6f-4d4e-a5c7-cb5276882da3","resource":{"resourceType":"Patient","id":"b571d5a3-8e6f-4d4e-a5c7-cb5276882da3","meta":{"profile":["http://hl7.org/fhir/us/qicore/StructureDefinition/qicore-patient"]},"extension":[{"url":"http://hl7.org/fhir/us/core/StructureDefinition/us-core-race","extension":[{"url":"ombCategory","valueCoding":{"system":"urn:oid:2.16.840.1.113883.6.238","code":"1002-5","display":"American Indian or Alaska Native","userSelected":true}},{"url":"text","valueString":"American Indian or Alaska Native"}]},{"url":"http://hl7.org/fhir/us/core/StructureDefinition/us-core-ethnicity","extension":[{"url":"ombCategory","valueCoding":{"system":"urn:oid:2.16.840.1.113883.6.238","code":"2186-5","display":"Not Hispanic or Latino","userSelected":true}},{"url":"text","valueString":"Not Hispanic or Latino"}]}],"identifier":[{"type":{"coding":[{"system":"http://terminology.hl7.org/CodeSystem/v2-0203","code":"MR"}]},"system":"https://bonnie-fhir.healthit.gov/","value":"60ec6943bc72857e238afa20"}],"name":[{"family":"DENEXFail","given":["ScleritisEndB4CatSurg"]}],"gender":"male","birthDate":"1969-06-15"},"request":{"method":"PUT","url":"Patient/b571d5a3-8e6f-4d4e-a5c7-cb5276882da3"}},{"fullUrl":"Procedure/6e1b9ec1-779f-4c80-b1a2-b3390ef9de7b","resource":{"resourceType":"Procedure","id":"6e1b9ec1-779f-4c80-b1a2-b3390ef9de7b","meta":{"profile":["http://hl7.org/fhir/us/qicore/StructureDefinition/qicore-procedure"]},"extension":[{"url":"http://hl7.org/fhir/us/qicore/StructureDefinition/qicore-recorded","valueDateTime":"2026-08-30T09:35:00-08:00"}],"status":"completed","code":{"coding":[{"system":"http://snomed.info/sct","version":"http://snomed.info/sct/731000124108/version/20230301","code":"5130002"}]},"subject":{"reference":"Patient/b571d5a3-8e6f-4d4e-a5c7-cb5276882da3"},"performedDateTime":"2026-08-15T08:00:00.000+00:00"},"request":{"method":"PUT","url":"Procedure/6e1b9ec1-779f-4c80-b1a2-b3390ef9de7b"}},{"fullUrl":"Organization/42ebce7f-0c60-409f-a184-698e2e9bbbfe","resource":{"resourceType":"Organization","id":"42ebce7f-0c60-409f-a184-698e2e9bbbfe","meta":{"profile":["http://hl7.org/fhir/us/qicore/StructureDefinition/qicore-organization"]},"identifier":[{"use":"temp","system":"urn:oid:2.16.840.1.113883.4.4","value":"21-3259825"}],"active":true,"type":[{"coding":[{"system":"http://terminology.hl7.org/CodeSystem/organization-type","code":"pay","display":"Payer"}]}],"name":"Blue Cross Blue Shield of Texas","telecom":[{"system":"phone","value":"(+1) 972-766-6900"}],"address":[{"use":"billing","type":"postal","line":["P.O. Box 660044"],"city":"Dallas","state":"TX","postalCode":"75266-0044","country":"USA"}]},"request":{"method":"PUT","url":"Organization/42ebce7f-0c60-409f-a184-698e2e9bbbfe"}},{"fullUrl":"MeasureReport/abd4552b-8673-45bb-b16b-1b91e5692839","resource":{"resourceType":"MeasureReport","id":"abd4552b-8673-45bb-b16b-1b91e5692839","meta":{"profile":["http://hl7.org/fhir/us/cqfmeasures/StructureDefinition/test-case-cqfm"]},"contained":[{"resourceType":"Parameters","id":"6c6edbfe-79b7-4573-aa61-2f99424fff96-parameters","parameter":[{"name":"subject","valueString":"b571d5a3-8e6f-4d4e-a5c7-cb5276882da3"}]}],"extension":[{"url":"http://hl7.org/fhir/StructureDefinition/cqf-inputParameters","valueReference":{"reference":"#6c6edbfe-79b7-4573-aa61-2f99424fff96-parameters"}},{"url":"http://hl7.org/fhir/us/cqfmeasures/StructureDefinition/cqfm-testCaseDescription","valueMarkdown":"Patient with scleritis started but ended before cataract surgery. "}],"modifierExtension":[{"url":"http://hl7.org/fhir/us/cqfmeasures/StructureDefinition/cqfm-isTestCase","valueBoolean":true}],"status":"complete","type":"individual","measure":"https://madie.cms.gov/Measure/CMS133FHIRCataracts2040BCVAwithin90Days","period":{"start":"2026-01-01","end":"2026-12-31"},"group":[{"id":"Group_1","population":[{"id":"InitialPopulation_1","code":{"coding":[{"system":"http://terminology.hl7.org/CodeSystem/measure-population","code":"initial-population","display":"Initial Population"}]},"count":1},{"id":"Denominator_1","code":{"coding":[{"system":"http://terminology.hl7.org/CodeSystem/measure-population","code":"denominator","display":"Denominator"}]},"count":1},{"id":"DenominatorExclusion_1","code":{"coding":[{"system":"http://terminology.hl7.org/CodeSystem/measure-population","code":"denominator-exclusion","display":"Denominator Exclusion"}]},"count":0},{"id":"Numerator_1","code":{"coding":[{"system":"http://terminology.hl7.org/CodeSystem/measure-population","code":"numerator","display":"Numerator"}]},"count":0}],"measureScore":{"value":0.0}}],"evaluatedResource":[{"reference":"Patient/b571d5a3-8e6f-4d4e-a5c7-cb5276882da3"},{"reference":"Condition/6cff3690-abef-4400-a701-649cfd9ccf9d"},{"reference":"Procedure/6e1b9ec1-779f-4c80-b1a2-b3390ef9de7b"},{"reference":"Coverage/0ba6f187-fe01-4fcd-aa4e-2212aa511ad2"},{"reference":"Organization/42ebce7f-0c60-409f-a184-698e2e9bbbfe"},{"reference":"Practitioner/44a18710-d947-423b-8d89-54279dc5b314"}]},"request":{"method":"PUT","url":"MeasureReport/abd4552b-8673-45bb-b16b-1b91e5692839"}},{"fullUrl":"Practitioner/44a18710-d947-423b-8d89-54279dc5b314","resource":{"resourceType":"Practitioner","id":"44a18710-d947-423b-8d89-54279dc5b314","meta":{"profile":["http://hl7.org/fhir/us/qicore/StructureDefinition/qicore-practitioner"]},"identifier":[{"system":"http://hl7.org/fhir/sid/us-npi","value":"2496541684"}],"name":[{"family":"Smith","prefix":["Dr"]}]},"request":{"method":"PUT","url":"Practitioner/44a18710-d947-423b-8d89-54279dc5b314"}},{"fullUrl":"Coverage/0ba6f187-fe01-4fcd-aa4e-2212aa511ad2","resource":{"resourceType":"Coverage","id":"0ba6f187-fe01-4fcd-aa4e-2212aa511ad2","meta":{"profile":["http://hl7.org/fhir/us/qicore/StructureDefinition/qicore-coverage"]},"status":"active","beneficiary":{"reference":"Patient/b571d5a3-8e6f-4d4e-a5c7-cb5276882da3"},"payor":[{"reference":"Organization/42ebce7f-0c60-409f-a184-698e2e9bbbfe"}]},"request":{"method":"PUT","url":"Coverage/0ba6f187-fe01-4fcd-aa4e-2212aa511ad2"}}]}