{"resourceType":"Bundle","id":"tests-2e4a70e8-5331-4f90-ad15-a11e75e7c163-bundle","type":"transaction","entry":[{"resource":{"resourceType":"Patient","id":"2e4a70e8-5331-4f90-ad15-a11e75e7c163","meta":{"profile":["http://hl7.org/fhir/us/qicore/StructureDefinition/qicore-patient"]},"text":{"status":"generated","div":"<div xmlns=\"http://www.w3.org/1999/xhtml\"><div class=\"hapiHeaderText\">Age@18 <b>DENOMPASS </b></div><table class=\"hapiPropertyTable\"><tbody><tr><td>Identifier</td><td>67f3e33acf17bcb386e754d726ed064ccd48ba21ff0ffb2eb678740a684398be</td></tr><tr><td>Date of birth</td><td><span>01 January 1994</span></td></tr></tbody></table></div>"},"extension":[{"url":"http://hl7.org/fhir/us/core/StructureDefinition/us-core-race","extension":[{"url":"ombCategory","valueCoding":{"system":"urn:oid:2.16.840.1.113883.6.238","code":"1002-5","display":"American Indian or Alaska Native","userSelected":true}},{"url":"text","valueString":"American Indian or Alaska Native"}]},{"url":"http://hl7.org/fhir/us/core/StructureDefinition/us-core-ethnicity","extension":[{"url":"ombCategory","valueCoding":{"system":"urn:oid:2.16.840.1.113883.6.238","code":"2135-2","display":"Hispanic or Latino","userSelected":true}},{"url":"text","valueString":"Hispanic or Latino"}]}],"identifier":[{"type":{"coding":[{"system":"http://terminology.hl7.org/CodeSystem/v2-0203","code":"MR"}]},"system":"https://bonnie-fhir.healthit.gov/","value":"61095b0998086b53805591a5"}],"active":true,"name":[{"use":"usual","family":"DENEXPASS","given":["OpticNeuritisWithCatSurg"]}],"gender":"female","birthDate":"1996-01-01"},"request":{"method":"PUT","url":"Patient/2e4a70e8-5331-4f90-ad15-a11e75e7c163"}},{"resource":{"resourceType":"Bundle","id":"61095b0998086b53805591a5","type":"transaction","entry":[{"fullUrl":"https://madie.cms.gov/Patient/2e4a70e8-5331-4f90-ad15-a11e75e7c163","resource":{"resourceType":"Patient","id":"2e4a70e8-5331-4f90-ad15-a11e75e7c163","meta":{"profile":["http://hl7.org/fhir/us/qicore/StructureDefinition/qicore-patient"]},"text":{"status":"generated","div":"<div xmlns=\"http://www.w3.org/1999/xhtml\"><div class=\"hapiHeaderText\">Age@18 <b>DENOMPASS </b></div><table class=\"hapiPropertyTable\"><tbody><tr><td>Identifier</td><td>67f3e33acf17bcb386e754d726ed064ccd48ba21ff0ffb2eb678740a684398be</td></tr><tr><td>Date of birth</td><td><span>01 January 1994</span></td></tr></tbody></table></div>"},"extension":[{"url":"http://hl7.org/fhir/us/core/StructureDefinition/us-core-race","extension":[{"url":"ombCategory","valueCoding":{"system":"urn:oid:2.16.840.1.113883.6.238","code":"1002-5","display":"American Indian or Alaska Native","userSelected":true}},{"url":"text","valueString":"American Indian or Alaska Native"}]},{"url":"http://hl7.org/fhir/us/core/StructureDefinition/us-core-ethnicity","extension":[{"url":"ombCategory","valueCoding":{"system":"urn:oid:2.16.840.1.113883.6.238","code":"2135-2","display":"Hispanic or Latino","userSelected":true}},{"url":"text","valueString":"Hispanic or Latino"}]}],"identifier":[{"type":{"coding":[{"system":"http://terminology.hl7.org/CodeSystem/v2-0203","code":"MR"}]},"system":"https://bonnie-fhir.healthit.gov/","value":"61095b0998086b53805591a5"}],"active":true,"name":[{"use":"usual","family":"DENEXPASS","given":["OpticNeuritisWithCatSurg"]}],"gender":"female","birthDate":"1996-01-01"},"request":{"method":"PUT","url":"Patient/2e4a70e8-5331-4f90-ad15-a11e75e7c163"}},{"fullUrl":"https://madie.cms.gov/Observation/4fca22b1-e33a-41c9-8d75-1d8616140e9c","resource":{"resourceType":"Observation","id":"4fca22b1-e33a-41c9-8d75-1d8616140e9c","meta":{"profile":["http://hl7.org/fhir/us/qicore/StructureDefinition/qicore-observation-clinical-result"]},"status":"final","category":[{"coding":[{"system":"http://terminology.hl7.org/CodeSystem/observation-category","code":"exam","display":"exam"}]}],"code":{"coding":[{"system":"http://snomed.info/sct","code":"419775003"}]},"subject":{"reference":"Patient/2e4a70e8-5331-4f90-ad15-a11e75e7c163"},"effectivePeriod":{"start":"2026-03-13T09:00:00+00:00","end":"2026-03-13T09:30:00+00:00"}},"request":{"method":"PUT","url":"Observation/4fca22b1-e33a-41c9-8d75-1d8616140e9c"}},{"fullUrl":"https://madie.cms.gov/Procedure/17d6dbbc-0541-44ae-a5a9-3d2907ebcc9b","resource":{"resourceType":"Procedure","id":"17d6dbbc-0541-44ae-a5a9-3d2907ebcc9b","meta":{"profile":["http://hl7.org/fhir/us/qicore/StructureDefinition/qicore-procedure"]},"extension":[{"url":"http://hl7.org/fhir/us/qicore/StructureDefinition/qicore-recorded","valueDateTime":"2026-03-05T09:35:00-04:00"}],"status":"completed","code":{"coding":[{"system":"http://snomed.info/sct","code":"84149000"}]},"subject":{"reference":"Patient/2e4a70e8-5331-4f90-ad15-a11e75e7c163"},"performedPeriod":{"start":"2026-03-05T09:20:00-04:00","end":"2026-04-05T10:30:00-04:00"}},"request":{"method":"PUT","url":"Procedure/17d6dbbc-0541-44ae-a5a9-3d2907ebcc9b"}},{"fullUrl":"https://madie.cms.gov/Condition/8f8bf957-6422-4614-91de-401af99fe5eb","resource":{"resourceType":"Condition","id":"8f8bf957-6422-4614-91de-401af99fe5eb","meta":{"profile":["http://hl7.org/fhir/us/qicore/StructureDefinition/qicore-condition-problems-health-concerns"]},"clinicalStatus":{"coding":[{"system":"http://terminology.hl7.org/CodeSystem/condition-clinical","code":"active","display":"active","userSelected":true}]},"category":[{"coding":[{"system":"http://terminology.hl7.org/CodeSystem/condition-clinical","code":"active","display":"active","userSelected":true}]}],"code":{"coding":[{"system":"http://hl7.org/fhir/sid/icd-10-cm","code":"H46.8","userSelected":true},{"system":"http://snomed.info/sct","code":"314537004","userSelected":true}]},"subject":{"reference":"Patient/2e4a70e8-5331-4f90-ad15-a11e75e7c163"},"onsetDateTime":"2024-11-01T08:00:00.000+00:00"},"request":{"method":"PUT","url":"Condition/8f8bf957-6422-4614-91de-401af99fe5eb"}},{"fullUrl":"https://madie.cms.gov/Coverage/56e6a763-5ccc-4cce-b5a8-7515575695cc","resource":{"resourceType":"Coverage","id":"56e6a763-5ccc-4cce-b5a8-7515575695cc","meta":{"profile":["http://hl7.org/fhir/us/qicore/StructureDefinition/qicore-coverage"]},"status":"active","beneficiary":{"reference":"Patient/2e4a70e8-5331-4f90-ad15-a11e75e7c163"},"payor":[{"reference":"Organization/8e112e60-e934-4c96-8154-9bfd05eb9944"}]},"request":{"method":"PUT","url":"Coverage/56e6a763-5ccc-4cce-b5a8-7515575695cc"}},{"fullUrl":"https://madie.cms.gov/Organization/8e112e60-e934-4c96-8154-9bfd05eb9944","resource":{"resourceType":"Organization","id":"8e112e60-e934-4c96-8154-9bfd05eb9944","meta":{"profile":["http://hl7.org/fhir/us/qicore/StructureDefinition/qicore-organization"]},"identifier":[{"use":"temp","system":"urn:oid:2.16.840.1.113883.4.4","value":"21-3259825"}],"active":true,"type":[{"coding":[{"system":"http://terminology.hl7.org/CodeSystem/organization-type","code":"pay","display":"Payer"}]}],"name":"Blue Cross Blue Shield of Texas","telecom":[{"system":"phone","value":"(+1) 972-766-6900"}],"address":[{"use":"billing","type":"postal","line":["P.O. Box 660044"],"city":"Dallas","state":"TX","postalCode":"75266-0044","country":"USA"}]},"request":{"method":"PUT","url":"Organization/8e112e60-e934-4c96-8154-9bfd05eb9944"}},{"fullUrl":"https://madie.cms.gov/Practitioner/83bc52ff-a462-4183-b998-18601c3f7641","resource":{"resourceType":"Practitioner","id":"83bc52ff-a462-4183-b998-18601c3f7641","meta":{"profile":["http://hl7.org/fhir/us/qicore/StructureDefinition/qicore-practitioner"]},"identifier":[{"system":"http://hl7.org/fhir/sid/us-npi","value":"123456"}],"name":[{"family":"Evil","prefix":["Dr"]}]},"request":{"method":"PUT","url":"Practitioner/83bc52ff-a462-4183-b998-18601c3f7641"}},{"fullUrl":"https://madie.cms.gov/MeasureReport/0300960f-beec-407c-9f42-3cfb30ea904f","resource":{"resourceType":"MeasureReport","id":"0300960f-beec-407c-9f42-3cfb30ea904f","meta":{"profile":["http://hl7.org/fhir/us/cqfmeasures/StructureDefinition/test-case-cqfm"]},"contained":[{"resourceType":"Parameters","id":"3ed3e97d-873e-478e-84c6-5b882d525acc-parameters","parameter":[{"name":"subject","valueString":"2e4a70e8-5331-4f90-ad15-a11e75e7c163"}]}],"extension":[{"url":"http://hl7.org/fhir/StructureDefinition/cqf-inputParameters","valueReference":{"reference":"#3ed3e97d-873e-478e-84c6-5b882d525acc-parameters"}},{"url":"http://hl7.org/fhir/us/cqfmeasures/StructureDefinition/cqfm-testCaseDescription","valueMarkdown":"Patient with Optic Neuritis with cataract surgery. "}],"modifierExtension":[{"url":"http://hl7.org/fhir/us/cqfmeasures/StructureDefinition/cqfm-isTestCase","valueBoolean":true}],"status":"complete","type":"individual","measure":"https://madie.cms.gov/Measure/CMS133FHIRCataracts2040BCVAwithin90Days","period":{"start":"2026-01-01","end":"2026-12-31"},"group":[{"id":"Group_1","population":[{"id":"InitialPopulation_1","code":{"coding":[{"system":"http://terminology.hl7.org/CodeSystem/measure-population","code":"initial-population","display":"Initial Population"}]},"count":1},{"id":"Denominator_1","code":{"coding":[{"system":"http://terminology.hl7.org/CodeSystem/measure-population","code":"denominator","display":"Denominator"}]},"count":1},{"id":"DenominatorExclusion_1","code":{"coding":[{"system":"http://terminology.hl7.org/CodeSystem/measure-population","code":"denominator-exclusion","display":"Denominator Exclusion"}]},"count":1},{"id":"Numerator_1","code":{"coding":[{"system":"http://terminology.hl7.org/CodeSystem/measure-population","code":"numerator","display":"Numerator"}]},"count":0}],"measureScore":{"value":0.0}}],"evaluatedResource":[{"reference":"Patient/2e4a70e8-5331-4f90-ad15-a11e75e7c163"},{"reference":"Observation/4fca22b1-e33a-41c9-8d75-1d8616140e9c"},{"reference":"Procedure/17d6dbbc-0541-44ae-a5a9-3d2907ebcc9b"},{"reference":"Condition/8f8bf957-6422-4614-91de-401af99fe5eb"},{"reference":"Coverage/56e6a763-5ccc-4cce-b5a8-7515575695cc"},{"reference":"Organization/8e112e60-e934-4c96-8154-9bfd05eb9944"},{"reference":"Practitioner/83bc52ff-a462-4183-b998-18601c3f7641"}]},"request":{"method":"PUT","url":"MeasureReport/0300960f-beec-407c-9f42-3cfb30ea904f"}}]},"request":{"method":"PUT","url":"Bundle/61095b0998086b53805591a5"}},{"resource":{"resourceType":"Organization","id":"8e112e60-e934-4c96-8154-9bfd05eb9944","meta":{"profile":["http://hl7.org/fhir/us/qicore/StructureDefinition/qicore-organization"]},"identifier":[{"use":"temp","system":"urn:oid:2.16.840.1.113883.4.4","value":"21-3259825"}],"active":true,"type":[{"coding":[{"system":"http://terminology.hl7.org/CodeSystem/organization-type","code":"pay","display":"Payer"}]}],"name":"Blue Cross Blue Shield of Texas","telecom":[{"system":"phone","value":"(+1) 972-766-6900"}],"address":[{"use":"billing","type":"postal","line":["P.O. Box 660044"],"city":"Dallas","state":"TX","postalCode":"75266-0044","country":"USA"}]},"request":{"method":"PUT","url":"Organization/8e112e60-e934-4c96-8154-9bfd05eb9944"}},{"resource":{"resourceType":"MeasureReport","id":"0300960f-beec-407c-9f42-3cfb30ea904f","meta":{"profile":["http://hl7.org/fhir/us/cqfmeasures/StructureDefinition/test-case-cqfm"]},"contained":[{"resourceType":"Parameters","id":"3ed3e97d-873e-478e-84c6-5b882d525acc-parameters","parameter":[{"name":"subject","valueString":"2e4a70e8-5331-4f90-ad15-a11e75e7c163"}]}],"extension":[{"url":"http://hl7.org/fhir/StructureDefinition/cqf-inputParameters","valueReference":{"reference":"#3ed3e97d-873e-478e-84c6-5b882d525acc-parameters"}},{"url":"http://hl7.org/fhir/us/cqfmeasures/StructureDefinition/cqfm-testCaseDescription","valueMarkdown":"Patient with Optic Neuritis with cataract surgery. "}],"modifierExtension":[{"url":"http://hl7.org/fhir/us/cqfmeasures/StructureDefinition/cqfm-isTestCase","valueBoolean":true}],"status":"complete","type":"individual","measure":"https://madie.cms.gov/Measure/CMS133FHIRCataracts2040BCVAwithin90Days","period":{"start":"2026-01-01","end":"2026-12-31"},"group":[{"id":"Group_1","population":[{"id":"InitialPopulation_1","code":{"coding":[{"system":"http://terminology.hl7.org/CodeSystem/measure-population","code":"initial-population","display":"Initial Population"}]},"count":1},{"id":"Denominator_1","code":{"coding":[{"system":"http://terminology.hl7.org/CodeSystem/measure-population","code":"denominator","display":"Denominator"}]},"count":1},{"id":"DenominatorExclusion_1","code":{"coding":[{"system":"http://terminology.hl7.org/CodeSystem/measure-population","code":"denominator-exclusion","display":"Denominator Exclusion"}]},"count":1},{"id":"Numerator_1","code":{"coding":[{"system":"http://terminology.hl7.org/CodeSystem/measure-population","code":"numerator","display":"Numerator"}]},"count":0}],"measureScore":{"value":0.0}}],"evaluatedResource":[{"reference":"Patient/2e4a70e8-5331-4f90-ad15-a11e75e7c163"},{"reference":"Observation/4fca22b1-e33a-41c9-8d75-1d8616140e9c"},{"reference":"Procedure/17d6dbbc-0541-44ae-a5a9-3d2907ebcc9b"},{"reference":"Condition/8f8bf957-6422-4614-91de-401af99fe5eb"},{"reference":"Coverage/56e6a763-5ccc-4cce-b5a8-7515575695cc"},{"reference":"Organization/8e112e60-e934-4c96-8154-9bfd05eb9944"},{"reference":"Practitioner/83bc52ff-a462-4183-b998-18601c3f7641"}]},"request":{"method":"PUT","url":"MeasureReport/0300960f-beec-407c-9f42-3cfb30ea904f"}},{"resource":{"resourceType":"Observation","id":"4fca22b1-e33a-41c9-8d75-1d8616140e9c","meta":{"profile":["http://hl7.org/fhir/us/qicore/StructureDefinition/qicore-observation-clinical-result"]},"status":"final","category":[{"coding":[{"system":"http://terminology.hl7.org/CodeSystem/observation-category","code":"exam","display":"exam"}]}],"code":{"coding":[{"system":"http://snomed.info/sct","code":"419775003"}]},"subject":{"reference":"Patient/2e4a70e8-5331-4f90-ad15-a11e75e7c163"},"effectivePeriod":{"start":"2026-03-13T09:00:00+00:00","end":"2026-03-13T09:30:00+00:00"}},"request":{"method":"PUT","url":"Observation/4fca22b1-e33a-41c9-8d75-1d8616140e9c"}},{"resource":{"resourceType":"Procedure","id":"17d6dbbc-0541-44ae-a5a9-3d2907ebcc9b","meta":{"profile":["http://hl7.org/fhir/us/qicore/StructureDefinition/qicore-procedure"]},"extension":[{"url":"http://hl7.org/fhir/us/qicore/StructureDefinition/qicore-recorded","valueDateTime":"2026-03-05T09:35:00-04:00"}],"status":"completed","code":{"coding":[{"system":"http://snomed.info/sct","code":"84149000"}]},"subject":{"reference":"Patient/2e4a70e8-5331-4f90-ad15-a11e75e7c163"},"performedPeriod":{"start":"2026-03-05T09:20:00-04:00","end":"2026-04-05T10:30:00-04:00"}},"request":{"method":"PUT","url":"Procedure/17d6dbbc-0541-44ae-a5a9-3d2907ebcc9b"}},{"resource":{"resourceType":"Practitioner","id":"83bc52ff-a462-4183-b998-18601c3f7641","meta":{"profile":["http://hl7.org/fhir/us/qicore/StructureDefinition/qicore-practitioner"]},"identifier":[{"system":"http://hl7.org/fhir/sid/us-npi","value":"123456"}],"name":[{"family":"Evil","prefix":["Dr"]}]},"request":{"method":"PUT","url":"Practitioner/83bc52ff-a462-4183-b998-18601c3f7641"}},{"resource":{"resourceType":"Condition","id":"8f8bf957-6422-4614-91de-401af99fe5eb","meta":{"profile":["http://hl7.org/fhir/us/qicore/StructureDefinition/qicore-condition-problems-health-concerns"]},"clinicalStatus":{"coding":[{"system":"http://terminology.hl7.org/CodeSystem/condition-clinical","code":"active","display":"active","userSelected":true}]},"category":[{"coding":[{"system":"http://terminology.hl7.org/CodeSystem/condition-clinical","code":"active","display":"active","userSelected":true}]}],"code":{"coding":[{"system":"http://hl7.org/fhir/sid/icd-10-cm","code":"H46.8","userSelected":true},{"system":"http://snomed.info/sct","code":"314537004","userSelected":true}]},"subject":{"reference":"Patient/2e4a70e8-5331-4f90-ad15-a11e75e7c163"},"onsetDateTime":"2024-11-01T08:00:00.000+00:00"},"request":{"method":"PUT","url":"Condition/8f8bf957-6422-4614-91de-401af99fe5eb"}},{"resource":{"resourceType":"Coverage","id":"56e6a763-5ccc-4cce-b5a8-7515575695cc","meta":{"profile":["http://hl7.org/fhir/us/qicore/StructureDefinition/qicore-coverage"]},"status":"active","beneficiary":{"reference":"Patient/2e4a70e8-5331-4f90-ad15-a11e75e7c163"},"payor":[{"reference":"Organization/8e112e60-e934-4c96-8154-9bfd05eb9944"}]},"request":{"method":"PUT","url":"Coverage/56e6a763-5ccc-4cce-b5a8-7515575695cc"}}]}