{"resourceType":"Bundle","id":"tests-216ed2eb-6d8c-4f08-8769-120e03d60611-bundle","type":"transaction","entry":[{"resource":{"resourceType":"Procedure","id":"772d62a4-b1cc-4518-97cb-6ac55c7fc056","meta":{"profile":["http://hl7.org/fhir/us/qicore/StructureDefinition/qicore-procedure"]},"extension":[{"url":"http://hl7.org/fhir/us/qicore/StructureDefinition/qicore-recorded","valueDateTime":"2026-03-05T09:35:00-04:00"}],"status":"completed","code":{"coding":[{"system":"http://snomed.info/sct","code":"84149000"}]},"subject":{"reference":"Patient/216ed2eb-6d8c-4f08-8769-120e03d60611"},"performedPeriod":{"start":"2026-03-05T09:20:00-04:00","end":"2026-04-05T10:30:00-04:00"}},"request":{"method":"PUT","url":"Procedure/772d62a4-b1cc-4518-97cb-6ac55c7fc056"}},{"resource":{"resourceType":"Organization","id":"a6d88305-92f8-4cbd-97f1-12992f1f1cbf","meta":{"profile":["http://hl7.org/fhir/us/qicore/StructureDefinition/qicore-organization"]},"identifier":[{"use":"temp","system":"urn:oid:2.16.840.1.113883.4.4","value":"21-3259825"}],"active":true,"type":[{"coding":[{"system":"http://terminology.hl7.org/CodeSystem/organization-type","code":"pay","display":"Payer"}]}],"name":"Blue Cross Blue Shield of Texas","telecom":[{"system":"phone","value":"(+1) 972-766-6900"}],"address":[{"use":"billing","type":"postal","line":["P.O. Box 660044"],"city":"Dallas","state":"TX","postalCode":"75266-0044","country":"USA"}]},"request":{"method":"PUT","url":"Organization/a6d88305-92f8-4cbd-97f1-12992f1f1cbf"}},{"resource":{"resourceType":"Coverage","id":"7cb32751-5a5d-4ff4-9a22-23976aa6fe37","meta":{"profile":["http://hl7.org/fhir/us/qicore/StructureDefinition/qicore-coverage"]},"status":"active","beneficiary":{"reference":"Patient/216ed2eb-6d8c-4f08-8769-120e03d60611"},"payor":[{"reference":"Organization/a6d88305-92f8-4cbd-97f1-12992f1f1cbf"}]},"request":{"method":"PUT","url":"Coverage/7cb32751-5a5d-4ff4-9a22-23976aa6fe37"}},{"resource":{"resourceType":"MeasureReport","id":"ea1cee91-e27b-4254-b177-82f6644eb1ab","meta":{"profile":["http://hl7.org/fhir/us/cqfmeasures/StructureDefinition/test-case-cqfm"]},"contained":[{"resourceType":"Parameters","id":"949f50f2-fb8f-4f4a-8df2-b7187422788b-parameters","parameter":[{"name":"subject","valueString":"216ed2eb-6d8c-4f08-8769-120e03d60611"}]}],"extension":[{"url":"http://hl7.org/fhir/StructureDefinition/cqf-inputParameters","valueReference":{"reference":"#949f50f2-fb8f-4f4a-8df2-b7187422788b-parameters"}},{"url":"http://hl7.org/fhir/us/cqfmeasures/StructureDefinition/cqfm-testCaseDescription","valueMarkdown":"Patient with Retinal Detachment with cataract surgery. "}],"modifierExtension":[{"url":"http://hl7.org/fhir/us/cqfmeasures/StructureDefinition/cqfm-isTestCase","valueBoolean":true}],"status":"complete","type":"individual","measure":"https://madie.cms.gov/Measure/CMS133FHIRCataracts2040BCVAwithin90Days","period":{"start":"2026-01-01","end":"2026-12-31"},"group":[{"id":"Group_1","population":[{"id":"InitialPopulation_1","code":{"coding":[{"system":"http://terminology.hl7.org/CodeSystem/measure-population","code":"initial-population","display":"Initial Population"}]},"count":1},{"id":"Denominator_1","code":{"coding":[{"system":"http://terminology.hl7.org/CodeSystem/measure-population","code":"denominator","display":"Denominator"}]},"count":1},{"id":"DenominatorExclusion_1","code":{"coding":[{"system":"http://terminology.hl7.org/CodeSystem/measure-population","code":"denominator-exclusion","display":"Denominator Exclusion"}]},"count":1},{"id":"Numerator_1","code":{"coding":[{"system":"http://terminology.hl7.org/CodeSystem/measure-population","code":"numerator","display":"Numerator"}]},"count":0}],"measureScore":{"value":0.0}}],"evaluatedResource":[{"reference":"Patient/216ed2eb-6d8c-4f08-8769-120e03d60611"},{"reference":"Observation/61007253-ae59-459a-a04a-6645f550abfc"},{"reference":"Procedure/772d62a4-b1cc-4518-97cb-6ac55c7fc056"},{"reference":"Condition/996591b2-05ed-4d2b-b31a-df7144f0c066"},{"reference":"Coverage/7cb32751-5a5d-4ff4-9a22-23976aa6fe37"},{"reference":"Organization/a6d88305-92f8-4cbd-97f1-12992f1f1cbf"},{"reference":"Practitioner/5df9d181-9e68-4140-9169-5bd0e028cc51"}]},"request":{"method":"PUT","url":"MeasureReport/ea1cee91-e27b-4254-b177-82f6644eb1ab"}},{"resource":{"resourceType":"Bundle","id":"61095b0998086b53805591a5","type":"transaction","entry":[{"fullUrl":"https://madie.cms.gov/Patient/216ed2eb-6d8c-4f08-8769-120e03d60611","resource":{"resourceType":"Patient","id":"216ed2eb-6d8c-4f08-8769-120e03d60611","meta":{"profile":["http://hl7.org/fhir/us/qicore/StructureDefinition/qicore-patient"]},"text":{"status":"generated","div":"<div xmlns=\"http://www.w3.org/1999/xhtml\"><div class=\"hapiHeaderText\">Age@18 <b>DENOMPASS </b></div><table class=\"hapiPropertyTable\"><tbody><tr><td>Identifier</td><td>67f3e33acf17bcb386e754d726ed064ccd48ba21ff0ffb2eb678740a684398be</td></tr><tr><td>Date of birth</td><td><span>01 January 1994</span></td></tr></tbody></table></div>"},"extension":[{"url":"http://hl7.org/fhir/us/core/StructureDefinition/us-core-race","extension":[{"url":"ombCategory","valueCoding":{"system":"urn:oid:2.16.840.1.113883.6.238","code":"1002-5","display":"American Indian or Alaska Native","userSelected":true}},{"url":"text","valueString":"American Indian or Alaska Native"}]},{"url":"http://hl7.org/fhir/us/core/StructureDefinition/us-core-ethnicity","extension":[{"url":"ombCategory","valueCoding":{"system":"urn:oid:2.16.840.1.113883.6.238","code":"2135-2","display":"Hispanic or Latino","userSelected":true}},{"url":"text","valueString":"Hispanic or Latino"}]}],"identifier":[{"type":{"coding":[{"system":"http://terminology.hl7.org/CodeSystem/v2-0203","code":"MR"}]},"system":"https://bonnie-fhir.healthit.gov/","value":"61095b0998086b53805591a5"}],"active":true,"name":[{"use":"usual","family":"DENEXPASS","given":["RetinalDetachmentWithCatSurg"]}],"gender":"female","birthDate":"1996-01-01"},"request":{"method":"PUT","url":"Patient/216ed2eb-6d8c-4f08-8769-120e03d60611"}},{"fullUrl":"https://madie.cms.gov/Observation/61007253-ae59-459a-a04a-6645f550abfc","resource":{"resourceType":"Observation","id":"61007253-ae59-459a-a04a-6645f550abfc","meta":{"profile":["http://hl7.org/fhir/us/qicore/StructureDefinition/qicore-observation-clinical-result"]},"status":"final","category":[{"coding":[{"system":"http://terminology.hl7.org/CodeSystem/observation-category","code":"exam","display":"exam"}]}],"code":{"coding":[{"system":"http://snomed.info/sct","code":"419775003"}]},"subject":{"reference":"Patient/216ed2eb-6d8c-4f08-8769-120e03d60611"},"effectivePeriod":{"start":"2026-03-13T09:00:00+00:00","end":"2026-03-13T09:30:00+00:00"}},"request":{"method":"PUT","url":"Observation/61007253-ae59-459a-a04a-6645f550abfc"}},{"fullUrl":"https://madie.cms.gov/Procedure/772d62a4-b1cc-4518-97cb-6ac55c7fc056","resource":{"resourceType":"Procedure","id":"772d62a4-b1cc-4518-97cb-6ac55c7fc056","meta":{"profile":["http://hl7.org/fhir/us/qicore/StructureDefinition/qicore-procedure"]},"extension":[{"url":"http://hl7.org/fhir/us/qicore/StructureDefinition/qicore-recorded","valueDateTime":"2026-03-05T09:35:00-04:00"}],"status":"completed","code":{"coding":[{"system":"http://snomed.info/sct","code":"84149000"}]},"subject":{"reference":"Patient/216ed2eb-6d8c-4f08-8769-120e03d60611"},"performedPeriod":{"start":"2026-03-05T09:20:00-04:00","end":"2026-04-05T10:30:00-04:00"}},"request":{"method":"PUT","url":"Procedure/772d62a4-b1cc-4518-97cb-6ac55c7fc056"}},{"fullUrl":"https://madie.cms.gov/Condition/996591b2-05ed-4d2b-b31a-df7144f0c066","resource":{"resourceType":"Condition","id":"996591b2-05ed-4d2b-b31a-df7144f0c066","meta":{"profile":["http://hl7.org/fhir/us/qicore/StructureDefinition/qicore-condition-problems-health-concerns"]},"clinicalStatus":{"coding":[{"system":"http://terminology.hl7.org/CodeSystem/condition-clinical","code":"active","display":"active","userSelected":true}]},"category":[{"coding":[{"system":"http://terminology.hl7.org/CodeSystem/condition-clinical","code":"active","display":"active","userSelected":true}]}],"code":{"coding":[{"system":"http://hl7.org/fhir/sid/icd-10-cm","code":"H33.8","userSelected":true},{"system":"http://snomed.info/sct","code":"193319001","userSelected":true}]},"subject":{"reference":"Patient/216ed2eb-6d8c-4f08-8769-120e03d60611"},"onsetDateTime":"2024-11-01T08:00:00.000+00:00"},"request":{"method":"PUT","url":"Condition/996591b2-05ed-4d2b-b31a-df7144f0c066"}},{"fullUrl":"https://madie.cms.gov/Coverage/7cb32751-5a5d-4ff4-9a22-23976aa6fe37","resource":{"resourceType":"Coverage","id":"7cb32751-5a5d-4ff4-9a22-23976aa6fe37","meta":{"profile":["http://hl7.org/fhir/us/qicore/StructureDefinition/qicore-coverage"]},"status":"active","beneficiary":{"reference":"Patient/216ed2eb-6d8c-4f08-8769-120e03d60611"},"payor":[{"reference":"Organization/a6d88305-92f8-4cbd-97f1-12992f1f1cbf"}]},"request":{"method":"PUT","url":"Coverage/7cb32751-5a5d-4ff4-9a22-23976aa6fe37"}},{"fullUrl":"https://madie.cms.gov/Organization/a6d88305-92f8-4cbd-97f1-12992f1f1cbf","resource":{"resourceType":"Organization","id":"a6d88305-92f8-4cbd-97f1-12992f1f1cbf","meta":{"profile":["http://hl7.org/fhir/us/qicore/StructureDefinition/qicore-organization"]},"identifier":[{"use":"temp","system":"urn:oid:2.16.840.1.113883.4.4","value":"21-3259825"}],"active":true,"type":[{"coding":[{"system":"http://terminology.hl7.org/CodeSystem/organization-type","code":"pay","display":"Payer"}]}],"name":"Blue Cross Blue Shield of Texas","telecom":[{"system":"phone","value":"(+1) 972-766-6900"}],"address":[{"use":"billing","type":"postal","line":["P.O. Box 660044"],"city":"Dallas","state":"TX","postalCode":"75266-0044","country":"USA"}]},"request":{"method":"PUT","url":"Organization/a6d88305-92f8-4cbd-97f1-12992f1f1cbf"}},{"fullUrl":"https://madie.cms.gov/Practitioner/5df9d181-9e68-4140-9169-5bd0e028cc51","resource":{"resourceType":"Practitioner","id":"5df9d181-9e68-4140-9169-5bd0e028cc51","meta":{"profile":["http://hl7.org/fhir/us/qicore/StructureDefinition/qicore-practitioner"]},"identifier":[{"system":"http://hl7.org/fhir/sid/us-npi","value":"123456"}],"name":[{"family":"Evil","prefix":["Dr"]}]},"request":{"method":"PUT","url":"Practitioner/5df9d181-9e68-4140-9169-5bd0e028cc51"}},{"fullUrl":"https://madie.cms.gov/MeasureReport/ea1cee91-e27b-4254-b177-82f6644eb1ab","resource":{"resourceType":"MeasureReport","id":"ea1cee91-e27b-4254-b177-82f6644eb1ab","meta":{"profile":["http://hl7.org/fhir/us/cqfmeasures/StructureDefinition/test-case-cqfm"]},"contained":[{"resourceType":"Parameters","id":"949f50f2-fb8f-4f4a-8df2-b7187422788b-parameters","parameter":[{"name":"subject","valueString":"216ed2eb-6d8c-4f08-8769-120e03d60611"}]}],"extension":[{"url":"http://hl7.org/fhir/StructureDefinition/cqf-inputParameters","valueReference":{"reference":"#949f50f2-fb8f-4f4a-8df2-b7187422788b-parameters"}},{"url":"http://hl7.org/fhir/us/cqfmeasures/StructureDefinition/cqfm-testCaseDescription","valueMarkdown":"Patient with Retinal Detachment with cataract surgery. "}],"modifierExtension":[{"url":"http://hl7.org/fhir/us/cqfmeasures/StructureDefinition/cqfm-isTestCase","valueBoolean":true}],"status":"complete","type":"individual","measure":"https://madie.cms.gov/Measure/CMS133FHIRCataracts2040BCVAwithin90Days","period":{"start":"2026-01-01","end":"2026-12-31"},"group":[{"id":"Group_1","population":[{"id":"InitialPopulation_1","code":{"coding":[{"system":"http://terminology.hl7.org/CodeSystem/measure-population","code":"initial-population","display":"Initial Population"}]},"count":1},{"id":"Denominator_1","code":{"coding":[{"system":"http://terminology.hl7.org/CodeSystem/measure-population","code":"denominator","display":"Denominator"}]},"count":1},{"id":"DenominatorExclusion_1","code":{"coding":[{"system":"http://terminology.hl7.org/CodeSystem/measure-population","code":"denominator-exclusion","display":"Denominator Exclusion"}]},"count":1},{"id":"Numerator_1","code":{"coding":[{"system":"http://terminology.hl7.org/CodeSystem/measure-population","code":"numerator","display":"Numerator"}]},"count":0}],"measureScore":{"value":0.0}}],"evaluatedResource":[{"reference":"Patient/216ed2eb-6d8c-4f08-8769-120e03d60611"},{"reference":"Observation/61007253-ae59-459a-a04a-6645f550abfc"},{"reference":"Procedure/772d62a4-b1cc-4518-97cb-6ac55c7fc056"},{"reference":"Condition/996591b2-05ed-4d2b-b31a-df7144f0c066"},{"reference":"Coverage/7cb32751-5a5d-4ff4-9a22-23976aa6fe37"},{"reference":"Organization/a6d88305-92f8-4cbd-97f1-12992f1f1cbf"},{"reference":"Practitioner/5df9d181-9e68-4140-9169-5bd0e028cc51"}]},"request":{"method":"PUT","url":"MeasureReport/ea1cee91-e27b-4254-b177-82f6644eb1ab"}}]},"request":{"method":"PUT","url":"Bundle/61095b0998086b53805591a5"}},{"resource":{"resourceType":"Observation","id":"61007253-ae59-459a-a04a-6645f550abfc","meta":{"profile":["http://hl7.org/fhir/us/qicore/StructureDefinition/qicore-observation-clinical-result"]},"status":"final","category":[{"coding":[{"system":"http://terminology.hl7.org/CodeSystem/observation-category","code":"exam","display":"exam"}]}],"code":{"coding":[{"system":"http://snomed.info/sct","code":"419775003"}]},"subject":{"reference":"Patient/216ed2eb-6d8c-4f08-8769-120e03d60611"},"effectivePeriod":{"start":"2026-03-13T09:00:00+00:00","end":"2026-03-13T09:30:00+00:00"}},"request":{"method":"PUT","url":"Observation/61007253-ae59-459a-a04a-6645f550abfc"}},{"resource":{"resourceType":"Condition","id":"996591b2-05ed-4d2b-b31a-df7144f0c066","meta":{"profile":["http://hl7.org/fhir/us/qicore/StructureDefinition/qicore-condition-problems-health-concerns"]},"clinicalStatus":{"coding":[{"system":"http://terminology.hl7.org/CodeSystem/condition-clinical","code":"active","display":"active","userSelected":true}]},"category":[{"coding":[{"system":"http://terminology.hl7.org/CodeSystem/condition-clinical","code":"active","display":"active","userSelected":true}]}],"code":{"coding":[{"system":"http://hl7.org/fhir/sid/icd-10-cm","code":"H33.8","userSelected":true},{"system":"http://snomed.info/sct","code":"193319001","userSelected":true}]},"subject":{"reference":"Patient/216ed2eb-6d8c-4f08-8769-120e03d60611"},"onsetDateTime":"2024-11-01T08:00:00.000+00:00"},"request":{"method":"PUT","url":"Condition/996591b2-05ed-4d2b-b31a-df7144f0c066"}},{"resource":{"resourceType":"Patient","id":"216ed2eb-6d8c-4f08-8769-120e03d60611","meta":{"profile":["http://hl7.org/fhir/us/qicore/StructureDefinition/qicore-patient"]},"text":{"status":"generated","div":"<div xmlns=\"http://www.w3.org/1999/xhtml\"><div class=\"hapiHeaderText\">Age@18 <b>DENOMPASS </b></div><table class=\"hapiPropertyTable\"><tbody><tr><td>Identifier</td><td>67f3e33acf17bcb386e754d726ed064ccd48ba21ff0ffb2eb678740a684398be</td></tr><tr><td>Date of birth</td><td><span>01 January 1994</span></td></tr></tbody></table></div>"},"extension":[{"url":"http://hl7.org/fhir/us/core/StructureDefinition/us-core-race","extension":[{"url":"ombCategory","valueCoding":{"system":"urn:oid:2.16.840.1.113883.6.238","code":"1002-5","display":"American Indian or Alaska Native","userSelected":true}},{"url":"text","valueString":"American Indian or Alaska Native"}]},{"url":"http://hl7.org/fhir/us/core/StructureDefinition/us-core-ethnicity","extension":[{"url":"ombCategory","valueCoding":{"system":"urn:oid:2.16.840.1.113883.6.238","code":"2135-2","display":"Hispanic or Latino","userSelected":true}},{"url":"text","valueString":"Hispanic or Latino"}]}],"identifier":[{"type":{"coding":[{"system":"http://terminology.hl7.org/CodeSystem/v2-0203","code":"MR"}]},"system":"https://bonnie-fhir.healthit.gov/","value":"61095b0998086b53805591a5"}],"active":true,"name":[{"use":"usual","family":"DENEXPASS","given":["RetinalDetachmentWithCatSurg"]}],"gender":"female","birthDate":"1996-01-01"},"request":{"method":"PUT","url":"Patient/216ed2eb-6d8c-4f08-8769-120e03d60611"}},{"resource":{"resourceType":"Practitioner","id":"5df9d181-9e68-4140-9169-5bd0e028cc51","meta":{"profile":["http://hl7.org/fhir/us/qicore/StructureDefinition/qicore-practitioner"]},"identifier":[{"system":"http://hl7.org/fhir/sid/us-npi","value":"123456"}],"name":[{"family":"Evil","prefix":["Dr"]}]},"request":{"method":"PUT","url":"Practitioner/5df9d181-9e68-4140-9169-5bd0e028cc51"}}]}