{"resourceType":"Bundle","id":"tests-c4e0b756-c07b-49f6-80cc-23bb28d4b5f6-bundle","type":"transaction","entry":[{"fullUrl":"MeasureReport/83e7423b-8a20-48e0-b7ab-d9646f651bd8","resource":{"resourceType":"MeasureReport","id":"83e7423b-8a20-48e0-b7ab-d9646f651bd8","meta":{"profile":["http://hl7.org/fhir/us/cqfmeasures/StructureDefinition/test-case-cqfm"]},"contained":[{"resourceType":"Parameters","id":"da222791-b609-4b52-8fa2-245c79d1218d-parameters","parameter":[{"name":"subject","valueString":"c4e0b756-c07b-49f6-80cc-23bb28d4b5f6"}]}],"extension":[{"url":"http://hl7.org/fhir/StructureDefinition/cqf-inputParameters","valueReference":{"reference":"#da222791-b609-4b52-8fa2-245c79d1218d-parameters"}},{"url":"http://hl7.org/fhir/us/cqfmeasures/StructureDefinition/cqfm-testCaseDescription","valueMarkdown":"Patient with Diabetic Macular Edema with cataract surgery. "}],"modifierExtension":[{"url":"http://hl7.org/fhir/us/cqfmeasures/StructureDefinition/cqfm-isTestCase","valueBoolean":true}],"status":"complete","type":"individual","measure":"https://madie.cms.gov/Measure/CMS133FHIRCataracts2040BCVAwithin90Days","period":{"start":"2026-01-01","end":"2026-12-31"},"group":[{"id":"Group_1","population":[{"id":"InitialPopulation_1","code":{"coding":[{"system":"http://terminology.hl7.org/CodeSystem/measure-population","code":"initial-population","display":"Initial Population"}]},"count":1},{"id":"Denominator_1","code":{"coding":[{"system":"http://terminology.hl7.org/CodeSystem/measure-population","code":"denominator","display":"Denominator"}]},"count":1},{"id":"DenominatorExclusion_1","code":{"coding":[{"system":"http://terminology.hl7.org/CodeSystem/measure-population","code":"denominator-exclusion","display":"Denominator Exclusion"}]},"count":1},{"id":"Numerator_1","code":{"coding":[{"system":"http://terminology.hl7.org/CodeSystem/measure-population","code":"numerator","display":"Numerator"}]},"count":0}],"measureScore":{"value":0.0}}],"evaluatedResource":[{"reference":"Patient/c4e0b756-c07b-49f6-80cc-23bb28d4b5f6"},{"reference":"Observation/57c71a36-1654-4757-8833-c351e1edf314"},{"reference":"Procedure/7d5de081-547e-44c5-bd73-fa08247084a7"},{"reference":"Condition/f07383b5-7c90-4025-b7e7-ee579d7e68f8"},{"reference":"Coverage/1e1cf7ed-118a-4743-8eff-6fbdfd917fcd"},{"reference":"Organization/d11c8633-f5d4-4ecf-b5db-d5592d911f67"},{"reference":"Practitioner/022584f4-0cdc-4fb7-91ab-e67ebb3dd85d"}]},"request":{"method":"PUT","url":"MeasureReport/83e7423b-8a20-48e0-b7ab-d9646f651bd8"}},{"fullUrl":"Bundle/61095b0998086b53805591a5","resource":{"resourceType":"Bundle","id":"61095b0998086b53805591a5","type":"transaction","entry":[{"fullUrl":"https://madie.cms.gov/Patient/c4e0b756-c07b-49f6-80cc-23bb28d4b5f6","resource":{"resourceType":"Patient","id":"c4e0b756-c07b-49f6-80cc-23bb28d4b5f6","meta":{"profile":["http://hl7.org/fhir/us/qicore/StructureDefinition/qicore-patient"]},"text":{"status":"generated","div":"<div xmlns=\"http://www.w3.org/1999/xhtml\"><div class=\"hapiHeaderText\">Age@18 <b>DENOMPASS </b></div><table class=\"hapiPropertyTable\"><tbody><tr><td>Identifier</td><td>67f3e33acf17bcb386e754d726ed064ccd48ba21ff0ffb2eb678740a684398be</td></tr><tr><td>Date of birth</td><td><span>01 January 1994</span></td></tr></tbody></table></div>"},"extension":[{"url":"http://hl7.org/fhir/us/core/StructureDefinition/us-core-race","extension":[{"url":"ombCategory","valueCoding":{"system":"urn:oid:2.16.840.1.113883.6.238","code":"1002-5","display":"American Indian or Alaska Native","userSelected":true}},{"url":"text","valueString":"American Indian or Alaska Native"}]},{"url":"http://hl7.org/fhir/us/core/StructureDefinition/us-core-ethnicity","extension":[{"url":"ombCategory","valueCoding":{"system":"urn:oid:2.16.840.1.113883.6.238","code":"2135-2","display":"Hispanic or Latino","userSelected":true}},{"url":"text","valueString":"Hispanic or Latino"}]}],"identifier":[{"type":{"coding":[{"system":"http://terminology.hl7.org/CodeSystem/v2-0203","code":"MR"}]},"system":"https://bonnie-fhir.healthit.gov/","value":"61095b0998086b53805591a5"}],"active":true,"name":[{"use":"usual","family":"DENEXPASS","given":["DiabeticMacularEdemaWithCatSurg"]}],"gender":"female","birthDate":"1996-01-01"},"request":{"method":"PUT","url":"Patient/c4e0b756-c07b-49f6-80cc-23bb28d4b5f6"}},{"fullUrl":"https://madie.cms.gov/Observation/57c71a36-1654-4757-8833-c351e1edf314","resource":{"resourceType":"Observation","id":"57c71a36-1654-4757-8833-c351e1edf314","meta":{"profile":["http://hl7.org/fhir/us/qicore/StructureDefinition/qicore-observation-clinical-result"]},"status":"final","category":[{"coding":[{"system":"http://terminology.hl7.org/CodeSystem/observation-category","code":"exam","display":"exam"}]}],"code":{"coding":[{"system":"http://snomed.info/sct","code":"419775003"}]},"subject":{"reference":"Patient/c4e0b756-c07b-49f6-80cc-23bb28d4b5f6"},"effectivePeriod":{"start":"2026-03-13T09:00:00+00:00","end":"2026-03-13T09:30:00+00:00"}},"request":{"method":"PUT","url":"Observation/57c71a36-1654-4757-8833-c351e1edf314"}},{"fullUrl":"https://madie.cms.gov/Procedure/7d5de081-547e-44c5-bd73-fa08247084a7","resource":{"resourceType":"Procedure","id":"7d5de081-547e-44c5-bd73-fa08247084a7","meta":{"profile":["http://hl7.org/fhir/us/qicore/StructureDefinition/qicore-procedure"]},"extension":[{"url":"http://hl7.org/fhir/us/qicore/StructureDefinition/qicore-recorded","valueDateTime":"2026-03-05T09:35:00-04:00"}],"status":"completed","code":{"coding":[{"system":"http://snomed.info/sct","code":"84149000"}]},"subject":{"reference":"Patient/c4e0b756-c07b-49f6-80cc-23bb28d4b5f6"},"performedPeriod":{"start":"2026-03-05T09:20:00-04:00","end":"2026-04-05T10:30:00-04:00"}},"request":{"method":"PUT","url":"Procedure/7d5de081-547e-44c5-bd73-fa08247084a7"}},{"fullUrl":"https://madie.cms.gov/Condition/f07383b5-7c90-4025-b7e7-ee579d7e68f8","resource":{"resourceType":"Condition","id":"f07383b5-7c90-4025-b7e7-ee579d7e68f8","meta":{"profile":["http://hl7.org/fhir/us/qicore/StructureDefinition/qicore-condition-problems-health-concerns"]},"clinicalStatus":{"coding":[{"system":"http://terminology.hl7.org/CodeSystem/condition-clinical","code":"active","display":"active","userSelected":true}]},"category":[{"coding":[{"system":"http://terminology.hl7.org/CodeSystem/condition-clinical","code":"active","display":"active","userSelected":true}]}],"code":{"coding":[{"system":"http://hl7.org/fhir/sid/icd-10-cm","code":"E08.311","userSelected":true},{"system":"http://snomed.info/sct","code":"312912001","userSelected":true}]},"subject":{"reference":"Patient/c4e0b756-c07b-49f6-80cc-23bb28d4b5f6"},"onsetDateTime":"2024-11-01T08:00:00.000+00:00"},"request":{"method":"PUT","url":"Condition/f07383b5-7c90-4025-b7e7-ee579d7e68f8"}},{"fullUrl":"https://madie.cms.gov/Coverage/1e1cf7ed-118a-4743-8eff-6fbdfd917fcd","resource":{"resourceType":"Coverage","id":"1e1cf7ed-118a-4743-8eff-6fbdfd917fcd","meta":{"profile":["http://hl7.org/fhir/us/qicore/StructureDefinition/qicore-coverage"]},"status":"active","beneficiary":{"reference":"Patient/c4e0b756-c07b-49f6-80cc-23bb28d4b5f6"},"payor":[{"reference":"Organization/d11c8633-f5d4-4ecf-b5db-d5592d911f67"}]},"request":{"method":"PUT","url":"Coverage/1e1cf7ed-118a-4743-8eff-6fbdfd917fcd"}},{"fullUrl":"https://madie.cms.gov/Organization/d11c8633-f5d4-4ecf-b5db-d5592d911f67","resource":{"resourceType":"Organization","id":"d11c8633-f5d4-4ecf-b5db-d5592d911f67","meta":{"profile":["http://hl7.org/fhir/us/qicore/StructureDefinition/qicore-organization"]},"identifier":[{"use":"temp","system":"urn:oid:2.16.840.1.113883.4.4","value":"21-3259825"}],"active":true,"type":[{"coding":[{"system":"http://terminology.hl7.org/CodeSystem/organization-type","code":"pay","display":"Payer"}]}],"name":"Blue Cross Blue Shield of Texas","telecom":[{"system":"phone","value":"(+1) 972-766-6900"}],"address":[{"use":"billing","type":"postal","line":["P.O. Box 660044"],"city":"Dallas","state":"TX","postalCode":"75266-0044","country":"USA"}]},"request":{"method":"PUT","url":"Organization/d11c8633-f5d4-4ecf-b5db-d5592d911f67"}},{"fullUrl":"https://madie.cms.gov/Practitioner/022584f4-0cdc-4fb7-91ab-e67ebb3dd85d","resource":{"resourceType":"Practitioner","id":"022584f4-0cdc-4fb7-91ab-e67ebb3dd85d","meta":{"profile":["http://hl7.org/fhir/us/qicore/StructureDefinition/qicore-practitioner"]},"identifier":[{"system":"http://hl7.org/fhir/sid/us-npi","value":"123456"}],"name":[{"family":"Evil","prefix":["Dr"]}]},"request":{"method":"PUT","url":"Practitioner/022584f4-0cdc-4fb7-91ab-e67ebb3dd85d"}},{"fullUrl":"https://madie.cms.gov/MeasureReport/83e7423b-8a20-48e0-b7ab-d9646f651bd8","resource":{"resourceType":"MeasureReport","id":"83e7423b-8a20-48e0-b7ab-d9646f651bd8","meta":{"profile":["http://hl7.org/fhir/us/cqfmeasures/StructureDefinition/test-case-cqfm"]},"contained":[{"resourceType":"Parameters","id":"da222791-b609-4b52-8fa2-245c79d1218d-parameters","parameter":[{"name":"subject","valueString":"c4e0b756-c07b-49f6-80cc-23bb28d4b5f6"}]}],"extension":[{"url":"http://hl7.org/fhir/StructureDefinition/cqf-inputParameters","valueReference":{"reference":"#da222791-b609-4b52-8fa2-245c79d1218d-parameters"}},{"url":"http://hl7.org/fhir/us/cqfmeasures/StructureDefinition/cqfm-testCaseDescription","valueMarkdown":"Patient with Diabetic Macular Edema with cataract surgery. "}],"modifierExtension":[{"url":"http://hl7.org/fhir/us/cqfmeasures/StructureDefinition/cqfm-isTestCase","valueBoolean":true}],"status":"complete","type":"individual","measure":"https://madie.cms.gov/Measure/CMS133FHIRCataracts2040BCVAwithin90Days","period":{"start":"2026-01-01","end":"2026-12-31"},"group":[{"id":"Group_1","population":[{"id":"InitialPopulation_1","code":{"coding":[{"system":"http://terminology.hl7.org/CodeSystem/measure-population","code":"initial-population","display":"Initial Population"}]},"count":1},{"id":"Denominator_1","code":{"coding":[{"system":"http://terminology.hl7.org/CodeSystem/measure-population","code":"denominator","display":"Denominator"}]},"count":1},{"id":"DenominatorExclusion_1","code":{"coding":[{"system":"http://terminology.hl7.org/CodeSystem/measure-population","code":"denominator-exclusion","display":"Denominator Exclusion"}]},"count":1},{"id":"Numerator_1","code":{"coding":[{"system":"http://terminology.hl7.org/CodeSystem/measure-population","code":"numerator","display":"Numerator"}]},"count":0}],"measureScore":{"value":0.0}}],"evaluatedResource":[{"reference":"Patient/c4e0b756-c07b-49f6-80cc-23bb28d4b5f6"},{"reference":"Observation/57c71a36-1654-4757-8833-c351e1edf314"},{"reference":"Procedure/7d5de081-547e-44c5-bd73-fa08247084a7"},{"reference":"Condition/f07383b5-7c90-4025-b7e7-ee579d7e68f8"},{"reference":"Coverage/1e1cf7ed-118a-4743-8eff-6fbdfd917fcd"},{"reference":"Organization/d11c8633-f5d4-4ecf-b5db-d5592d911f67"},{"reference":"Practitioner/022584f4-0cdc-4fb7-91ab-e67ebb3dd85d"}]},"request":{"method":"PUT","url":"MeasureReport/83e7423b-8a20-48e0-b7ab-d9646f651bd8"}}]},"request":{"method":"PUT","url":"Bundle/61095b0998086b53805591a5"}},{"fullUrl":"Practitioner/022584f4-0cdc-4fb7-91ab-e67ebb3dd85d","resource":{"resourceType":"Practitioner","id":"022584f4-0cdc-4fb7-91ab-e67ebb3dd85d","meta":{"profile":["http://hl7.org/fhir/us/qicore/StructureDefinition/qicore-practitioner"]},"identifier":[{"system":"http://hl7.org/fhir/sid/us-npi","value":"123456"}],"name":[{"family":"Evil","prefix":["Dr"]}]},"request":{"method":"PUT","url":"Practitioner/022584f4-0cdc-4fb7-91ab-e67ebb3dd85d"}},{"fullUrl":"Organization/d11c8633-f5d4-4ecf-b5db-d5592d911f67","resource":{"resourceType":"Organization","id":"d11c8633-f5d4-4ecf-b5db-d5592d911f67","meta":{"profile":["http://hl7.org/fhir/us/qicore/StructureDefinition/qicore-organization"]},"identifier":[{"use":"temp","system":"urn:oid:2.16.840.1.113883.4.4","value":"21-3259825"}],"active":true,"type":[{"coding":[{"system":"http://terminology.hl7.org/CodeSystem/organization-type","code":"pay","display":"Payer"}]}],"name":"Blue Cross Blue Shield of Texas","telecom":[{"system":"phone","value":"(+1) 972-766-6900"}],"address":[{"use":"billing","type":"postal","line":["P.O. Box 660044"],"city":"Dallas","state":"TX","postalCode":"75266-0044","country":"USA"}]},"request":{"method":"PUT","url":"Organization/d11c8633-f5d4-4ecf-b5db-d5592d911f67"}},{"fullUrl":"Observation/57c71a36-1654-4757-8833-c351e1edf314","resource":{"resourceType":"Observation","id":"57c71a36-1654-4757-8833-c351e1edf314","meta":{"profile":["http://hl7.org/fhir/us/qicore/StructureDefinition/qicore-observation-clinical-result"]},"status":"final","category":[{"coding":[{"system":"http://terminology.hl7.org/CodeSystem/observation-category","code":"exam","display":"exam"}]}],"code":{"coding":[{"system":"http://snomed.info/sct","code":"419775003"}]},"subject":{"reference":"Patient/c4e0b756-c07b-49f6-80cc-23bb28d4b5f6"},"effectivePeriod":{"start":"2026-03-13T09:00:00+00:00","end":"2026-03-13T09:30:00+00:00"}},"request":{"method":"PUT","url":"Observation/57c71a36-1654-4757-8833-c351e1edf314"}},{"fullUrl":"Procedure/7d5de081-547e-44c5-bd73-fa08247084a7","resource":{"resourceType":"Procedure","id":"7d5de081-547e-44c5-bd73-fa08247084a7","meta":{"profile":["http://hl7.org/fhir/us/qicore/StructureDefinition/qicore-procedure"]},"extension":[{"url":"http://hl7.org/fhir/us/qicore/StructureDefinition/qicore-recorded","valueDateTime":"2026-03-05T09:35:00-04:00"}],"status":"completed","code":{"coding":[{"system":"http://snomed.info/sct","code":"84149000"}]},"subject":{"reference":"Patient/c4e0b756-c07b-49f6-80cc-23bb28d4b5f6"},"performedPeriod":{"start":"2026-03-05T09:20:00-04:00","end":"2026-04-05T10:30:00-04:00"}},"request":{"method":"PUT","url":"Procedure/7d5de081-547e-44c5-bd73-fa08247084a7"}},{"fullUrl":"Patient/c4e0b756-c07b-49f6-80cc-23bb28d4b5f6","resource":{"resourceType":"Patient","id":"c4e0b756-c07b-49f6-80cc-23bb28d4b5f6","meta":{"profile":["http://hl7.org/fhir/us/qicore/StructureDefinition/qicore-patient"]},"text":{"status":"generated","div":"<div xmlns=\"http://www.w3.org/1999/xhtml\"><div class=\"hapiHeaderText\">Age@18 <b>DENOMPASS </b></div><table class=\"hapiPropertyTable\"><tbody><tr><td>Identifier</td><td>67f3e33acf17bcb386e754d726ed064ccd48ba21ff0ffb2eb678740a684398be</td></tr><tr><td>Date of birth</td><td><span>01 January 1994</span></td></tr></tbody></table></div>"},"extension":[{"url":"http://hl7.org/fhir/us/core/StructureDefinition/us-core-race","extension":[{"url":"ombCategory","valueCoding":{"system":"urn:oid:2.16.840.1.113883.6.238","code":"1002-5","display":"American Indian or Alaska Native","userSelected":true}},{"url":"text","valueString":"American Indian or Alaska Native"}]},{"url":"http://hl7.org/fhir/us/core/StructureDefinition/us-core-ethnicity","extension":[{"url":"ombCategory","valueCoding":{"system":"urn:oid:2.16.840.1.113883.6.238","code":"2135-2","display":"Hispanic or Latino","userSelected":true}},{"url":"text","valueString":"Hispanic or Latino"}]}],"identifier":[{"type":{"coding":[{"system":"http://terminology.hl7.org/CodeSystem/v2-0203","code":"MR"}]},"system":"https://bonnie-fhir.healthit.gov/","value":"61095b0998086b53805591a5"}],"active":true,"name":[{"use":"usual","family":"DENEXPASS","given":["DiabeticMacularEdemaWithCatSurg"]}],"gender":"female","birthDate":"1996-01-01"},"request":{"method":"PUT","url":"Patient/c4e0b756-c07b-49f6-80cc-23bb28d4b5f6"}},{"fullUrl":"Condition/f07383b5-7c90-4025-b7e7-ee579d7e68f8","resource":{"resourceType":"Condition","id":"f07383b5-7c90-4025-b7e7-ee579d7e68f8","meta":{"profile":["http://hl7.org/fhir/us/qicore/StructureDefinition/qicore-condition-problems-health-concerns"]},"clinicalStatus":{"coding":[{"system":"http://terminology.hl7.org/CodeSystem/condition-clinical","code":"active","display":"active","userSelected":true}]},"category":[{"coding":[{"system":"http://terminology.hl7.org/CodeSystem/condition-clinical","code":"active","display":"active","userSelected":true}]}],"code":{"coding":[{"system":"http://hl7.org/fhir/sid/icd-10-cm","code":"E08.311","userSelected":true},{"system":"http://snomed.info/sct","code":"312912001","userSelected":true}]},"subject":{"reference":"Patient/c4e0b756-c07b-49f6-80cc-23bb28d4b5f6"},"onsetDateTime":"2024-11-01T08:00:00.000+00:00"},"request":{"method":"PUT","url":"Condition/f07383b5-7c90-4025-b7e7-ee579d7e68f8"}},{"fullUrl":"Coverage/1e1cf7ed-118a-4743-8eff-6fbdfd917fcd","resource":{"resourceType":"Coverage","id":"1e1cf7ed-118a-4743-8eff-6fbdfd917fcd","meta":{"profile":["http://hl7.org/fhir/us/qicore/StructureDefinition/qicore-coverage"]},"status":"active","beneficiary":{"reference":"Patient/c4e0b756-c07b-49f6-80cc-23bb28d4b5f6"},"payor":[{"reference":"Organization/d11c8633-f5d4-4ecf-b5db-d5592d911f67"}]},"request":{"method":"PUT","url":"Coverage/1e1cf7ed-118a-4743-8eff-6fbdfd917fcd"}}]}