{"resourceType":"Bundle","id":"tests-32a253b0-79d4-4bd8-a591-5557984392c6-bundle","type":"transaction","entry":[{"fullUrl":"Procedure/9217c78d-a3c7-4cd5-8fd4-170555e29a6e","resource":{"resourceType":"Procedure","id":"9217c78d-a3c7-4cd5-8fd4-170555e29a6e","meta":{"profile":["http://hl7.org/fhir/us/qicore/StructureDefinition/qicore-procedure"]},"extension":[{"url":"http://hl7.org/fhir/us/qicore/StructureDefinition/qicore-recorded","valueDateTime":"2026-03-05T09:35:00-04:00"}],"status":"completed","code":{"coding":[{"system":"http://snomed.info/sct","code":"84149000"}]},"subject":{"reference":"Patient/32a253b0-79d4-4bd8-a591-5557984392c6"},"performedPeriod":{"start":"2026-03-05T09:20:00-04:00","end":"2026-04-05T10:30:00-04:00"}},"request":{"method":"PUT","url":"Procedure/9217c78d-a3c7-4cd5-8fd4-170555e29a6e"}},{"fullUrl":"Observation/bdee7bff-331c-461b-9da0-1eb4a9e58b2e","resource":{"resourceType":"Observation","id":"bdee7bff-331c-461b-9da0-1eb4a9e58b2e","meta":{"profile":["http://hl7.org/fhir/us/qicore/StructureDefinition/qicore-observation-clinical-result"]},"status":"final","category":[{"coding":[{"system":"http://terminology.hl7.org/CodeSystem/observation-category","code":"exam","display":"Exam"}]}],"code":{"coding":[{"system":"http://snomed.info/sct","code":"419775003"}]},"subject":{"reference":"Patient/32a253b0-79d4-4bd8-a591-5557984392c6"},"effectivePeriod":{"start":"2026-03-13T09:00:00+00:00","end":"2026-03-13T09:30:00+00:00"}},"request":{"method":"PUT","url":"Observation/bdee7bff-331c-461b-9da0-1eb4a9e58b2e"}},{"fullUrl":"Practitioner/dab2f47b-e944-49a2-bb80-a98e9bebdab0","resource":{"resourceType":"Practitioner","id":"dab2f47b-e944-49a2-bb80-a98e9bebdab0","meta":{"profile":["http://hl7.org/fhir/us/qicore/StructureDefinition/qicore-practitioner"]},"identifier":[{"system":"http://hl7.org/fhir/sid/us-npi","value":"123456"}],"name":[{"family":"Evil","prefix":["Dr"]}]},"request":{"method":"PUT","url":"Practitioner/dab2f47b-e944-49a2-bb80-a98e9bebdab0"}},{"fullUrl":"Bundle/61095b0998086b53805591a5","resource":{"resourceType":"Bundle","id":"61095b0998086b53805591a5","type":"transaction","entry":[{"fullUrl":"https://madie.cms.gov/Patient/32a253b0-79d4-4bd8-a591-5557984392c6","resource":{"resourceType":"Patient","id":"32a253b0-79d4-4bd8-a591-5557984392c6","meta":{"profile":["http://hl7.org/fhir/us/qicore/StructureDefinition/qicore-patient"]},"text":{"status":"generated","div":"<div xmlns=\"http://www.w3.org/1999/xhtml\"><div class=\"hapiHeaderText\">Age@18 <b>DENOMPASS </b></div><table class=\"hapiPropertyTable\"><tbody><tr><td>Identifier</td><td>67f3e33acf17bcb386e754d726ed064ccd48ba21ff0ffb2eb678740a684398be</td></tr><tr><td>Date of birth</td><td><span>01 January 1994</span></td></tr></tbody></table></div>"},"extension":[{"url":"http://hl7.org/fhir/us/core/StructureDefinition/us-core-race","extension":[{"url":"ombCategory","valueCoding":{"system":"urn:oid:2.16.840.1.113883.6.238","code":"1002-5","display":"American Indian or Alaska Native","userSelected":true}},{"url":"text","valueString":"American Indian or Alaska Native"}]},{"url":"http://hl7.org/fhir/us/core/StructureDefinition/us-core-ethnicity","extension":[{"url":"ombCategory","valueCoding":{"system":"urn:oid:2.16.840.1.113883.6.238","code":"2135-2","display":"Hispanic or Latino","userSelected":true}},{"url":"text","valueString":"Hispanic or Latino"}]}],"identifier":[{"type":{"coding":[{"system":"http://terminology.hl7.org/CodeSystem/v2-0203","code":"MR"}]},"system":"https://bonnie-fhir.healthit.gov/","value":"61095b0998086b53805591a5"}],"active":true,"name":[{"use":"usual","family":"IPPass","given":["Age18Jan1"]}],"gender":"female","birthDate":"1996-01-01"},"request":{"method":"PUT","url":"Patient/32a253b0-79d4-4bd8-a591-5557984392c6"}},{"fullUrl":"https://madie.cms.gov/Observation/bdee7bff-331c-461b-9da0-1eb4a9e58b2e","resource":{"resourceType":"Observation","id":"bdee7bff-331c-461b-9da0-1eb4a9e58b2e","meta":{"profile":["http://hl7.org/fhir/us/qicore/StructureDefinition/qicore-observation-clinical-result"]},"status":"final","category":[{"coding":[{"system":"http://terminology.hl7.org/CodeSystem/observation-category","code":"exam","display":"Exam"}]}],"code":{"coding":[{"system":"http://snomed.info/sct","code":"419775003"}]},"subject":{"reference":"Patient/32a253b0-79d4-4bd8-a591-5557984392c6"},"effectivePeriod":{"start":"2026-03-13T09:00:00+00:00","end":"2026-03-13T09:30:00+00:00"}},"request":{"method":"PUT","url":"Observation/bdee7bff-331c-461b-9da0-1eb4a9e58b2e"}},{"fullUrl":"https://madie.cms.gov/Procedure/9217c78d-a3c7-4cd5-8fd4-170555e29a6e","resource":{"resourceType":"Procedure","id":"9217c78d-a3c7-4cd5-8fd4-170555e29a6e","meta":{"profile":["http://hl7.org/fhir/us/qicore/StructureDefinition/qicore-procedure"]},"extension":[{"url":"http://hl7.org/fhir/us/qicore/StructureDefinition/qicore-recorded","valueDateTime":"2026-03-05T09:35:00-04:00"}],"status":"completed","code":{"coding":[{"system":"http://snomed.info/sct","code":"84149000"}]},"subject":{"reference":"Patient/32a253b0-79d4-4bd8-a591-5557984392c6"},"performedPeriod":{"start":"2026-03-05T09:20:00-04:00","end":"2026-04-05T10:30:00-04:00"}},"request":{"method":"PUT","url":"Procedure/9217c78d-a3c7-4cd5-8fd4-170555e29a6e"}},{"fullUrl":"https://madie.cms.gov/Coverage/b62af6f2-af14-4663-aa86-f02948bf3d67","resource":{"resourceType":"Coverage","id":"b62af6f2-af14-4663-aa86-f02948bf3d67","meta":{"profile":["http://hl7.org/fhir/us/qicore/StructureDefinition/qicore-coverage"]},"status":"active","type":{"coding":[{"system":"https://nahdo.org/sopt","version":"1.0.1","code":"1","display":"Medicare payer","userSelected":true}]},"beneficiary":{"reference":"Patient/32a253b0-79d4-4bd8-a591-5557984392c6"},"period":{"start":"2022-12-01T08:00:00.000+00:00"},"payor":[{"reference":"Organization/d7317a3f-2b9e-4467-8c1c-57c3c9b335d5"}]},"request":{"method":"PUT","url":"Coverage/b62af6f2-af14-4663-aa86-f02948bf3d67"}},{"fullUrl":"https://madie.cms.gov/Organization/d7317a3f-2b9e-4467-8c1c-57c3c9b335d5","resource":{"resourceType":"Organization","id":"d7317a3f-2b9e-4467-8c1c-57c3c9b335d5","meta":{"profile":["http://hl7.org/fhir/us/qicore/StructureDefinition/qicore-organization"]},"identifier":[{"use":"temp","system":"urn:oid:2.16.840.1.113883.4.4","value":"21-3259825"}],"active":true,"type":[{"coding":[{"system":"http://terminology.hl7.org/CodeSystem/organization-type","code":"pay","display":"Payer"}]}],"name":"Blue Cross Blue Shield of Texas","telecom":[{"system":"phone","value":"(+1) 972-766-6900"}],"address":[{"use":"billing","type":"postal","line":["P.O. Box 660044"],"city":"Dallas","state":"TX","postalCode":"75266-0044","country":"USA"}]},"request":{"method":"PUT","url":"Organization/d7317a3f-2b9e-4467-8c1c-57c3c9b335d5"}},{"fullUrl":"https://madie.cms.gov/Practitioner/dab2f47b-e944-49a2-bb80-a98e9bebdab0","resource":{"resourceType":"Practitioner","id":"dab2f47b-e944-49a2-bb80-a98e9bebdab0","meta":{"profile":["http://hl7.org/fhir/us/qicore/StructureDefinition/qicore-practitioner"]},"identifier":[{"system":"http://hl7.org/fhir/sid/us-npi","value":"123456"}],"name":[{"family":"Evil","prefix":["Dr"]}]},"request":{"method":"PUT","url":"Practitioner/dab2f47b-e944-49a2-bb80-a98e9bebdab0"}},{"fullUrl":"https://madie.cms.gov/MeasureReport/f0e67da6-5bac-46b5-9553-2b8e42aa0e75","resource":{"resourceType":"MeasureReport","id":"f0e67da6-5bac-46b5-9553-2b8e42aa0e75","meta":{"profile":["http://hl7.org/fhir/us/cqfmeasures/StructureDefinition/test-case-cqfm"]},"contained":[{"resourceType":"Parameters","id":"87a0ba28-b16e-4144-ac4e-11695c640af8-parameters","parameter":[{"name":"subject","valueString":"32a253b0-79d4-4bd8-a591-5557984392c6"}]}],"extension":[{"url":"http://hl7.org/fhir/StructureDefinition/cqf-inputParameters","valueReference":{"reference":"#87a0ba28-b16e-4144-ac4e-11695c640af8-parameters"}},{"url":"http://hl7.org/fhir/us/cqfmeasures/StructureDefinition/cqfm-testCaseDescription","valueMarkdown":"Patient is age 18 on Jan 1"}],"modifierExtension":[{"url":"http://hl7.org/fhir/us/cqfmeasures/StructureDefinition/cqfm-isTestCase","valueBoolean":true}],"status":"complete","type":"individual","measure":"https://madie.cms.gov/Measure/CMS133FHIRCataracts2040BCVAwithin90Days","period":{"start":"2026-01-01","end":"2026-12-31"},"group":[{"id":"Group_1","population":[{"id":"InitialPopulation_1","code":{"coding":[{"system":"http://terminology.hl7.org/CodeSystem/measure-population","code":"initial-population","display":"Initial Population"}]},"count":1},{"id":"Denominator_1","code":{"coding":[{"system":"http://terminology.hl7.org/CodeSystem/measure-population","code":"denominator","display":"Denominator"}]},"count":1},{"id":"DenominatorExclusion_1","code":{"coding":[{"system":"http://terminology.hl7.org/CodeSystem/measure-population","code":"denominator-exclusion","display":"Denominator Exclusion"}]},"count":0},{"id":"Numerator_1","code":{"coding":[{"system":"http://terminology.hl7.org/CodeSystem/measure-population","code":"numerator","display":"Numerator"}]},"count":0}],"measureScore":{"value":0.0}}],"evaluatedResource":[{"reference":"Patient/32a253b0-79d4-4bd8-a591-5557984392c6"},{"reference":"Observation/bdee7bff-331c-461b-9da0-1eb4a9e58b2e"},{"reference":"Procedure/9217c78d-a3c7-4cd5-8fd4-170555e29a6e"},{"reference":"Coverage/b62af6f2-af14-4663-aa86-f02948bf3d67"},{"reference":"Organization/d7317a3f-2b9e-4467-8c1c-57c3c9b335d5"},{"reference":"Practitioner/dab2f47b-e944-49a2-bb80-a98e9bebdab0"}]},"request":{"method":"PUT","url":"MeasureReport/f0e67da6-5bac-46b5-9553-2b8e42aa0e75"}}]},"request":{"method":"PUT","url":"Bundle/61095b0998086b53805591a5"}},{"fullUrl":"MeasureReport/f0e67da6-5bac-46b5-9553-2b8e42aa0e75","resource":{"resourceType":"MeasureReport","id":"f0e67da6-5bac-46b5-9553-2b8e42aa0e75","meta":{"profile":["http://hl7.org/fhir/us/cqfmeasures/StructureDefinition/test-case-cqfm"]},"contained":[{"resourceType":"Parameters","id":"87a0ba28-b16e-4144-ac4e-11695c640af8-parameters","parameter":[{"name":"subject","valueString":"32a253b0-79d4-4bd8-a591-5557984392c6"}]}],"extension":[{"url":"http://hl7.org/fhir/StructureDefinition/cqf-inputParameters","valueReference":{"reference":"#87a0ba28-b16e-4144-ac4e-11695c640af8-parameters"}},{"url":"http://hl7.org/fhir/us/cqfmeasures/StructureDefinition/cqfm-testCaseDescription","valueMarkdown":"Patient is age 18 on Jan 1"}],"modifierExtension":[{"url":"http://hl7.org/fhir/us/cqfmeasures/StructureDefinition/cqfm-isTestCase","valueBoolean":true}],"status":"complete","type":"individual","measure":"https://madie.cms.gov/Measure/CMS133FHIRCataracts2040BCVAwithin90Days","period":{"start":"2026-01-01","end":"2026-12-31"},"group":[{"id":"Group_1","population":[{"id":"InitialPopulation_1","code":{"coding":[{"system":"http://terminology.hl7.org/CodeSystem/measure-population","code":"initial-population","display":"Initial Population"}]},"count":1},{"id":"Denominator_1","code":{"coding":[{"system":"http://terminology.hl7.org/CodeSystem/measure-population","code":"denominator","display":"Denominator"}]},"count":1},{"id":"DenominatorExclusion_1","code":{"coding":[{"system":"http://terminology.hl7.org/CodeSystem/measure-population","code":"denominator-exclusion","display":"Denominator Exclusion"}]},"count":0},{"id":"Numerator_1","code":{"coding":[{"system":"http://terminology.hl7.org/CodeSystem/measure-population","code":"numerator","display":"Numerator"}]},"count":0}],"measureScore":{"value":0.0}}],"evaluatedResource":[{"reference":"Patient/32a253b0-79d4-4bd8-a591-5557984392c6"},{"reference":"Observation/bdee7bff-331c-461b-9da0-1eb4a9e58b2e"},{"reference":"Procedure/9217c78d-a3c7-4cd5-8fd4-170555e29a6e"},{"reference":"Coverage/b62af6f2-af14-4663-aa86-f02948bf3d67"},{"reference":"Organization/d7317a3f-2b9e-4467-8c1c-57c3c9b335d5"},{"reference":"Practitioner/dab2f47b-e944-49a2-bb80-a98e9bebdab0"}]},"request":{"method":"PUT","url":"MeasureReport/f0e67da6-5bac-46b5-9553-2b8e42aa0e75"}},{"fullUrl":"Organization/d7317a3f-2b9e-4467-8c1c-57c3c9b335d5","resource":{"resourceType":"Organization","id":"d7317a3f-2b9e-4467-8c1c-57c3c9b335d5","meta":{"profile":["http://hl7.org/fhir/us/qicore/StructureDefinition/qicore-organization"]},"identifier":[{"use":"temp","system":"urn:oid:2.16.840.1.113883.4.4","value":"21-3259825"}],"active":true,"type":[{"coding":[{"system":"http://terminology.hl7.org/CodeSystem/organization-type","code":"pay","display":"Payer"}]}],"name":"Blue Cross Blue Shield of Texas","telecom":[{"system":"phone","value":"(+1) 972-766-6900"}],"address":[{"use":"billing","type":"postal","line":["P.O. Box 660044"],"city":"Dallas","state":"TX","postalCode":"75266-0044","country":"USA"}]},"request":{"method":"PUT","url":"Organization/d7317a3f-2b9e-4467-8c1c-57c3c9b335d5"}},{"fullUrl":"Coverage/b62af6f2-af14-4663-aa86-f02948bf3d67","resource":{"resourceType":"Coverage","id":"b62af6f2-af14-4663-aa86-f02948bf3d67","meta":{"profile":["http://hl7.org/fhir/us/qicore/StructureDefinition/qicore-coverage"]},"status":"active","type":{"coding":[{"system":"https://nahdo.org/sopt","version":"1.0.1","code":"1","display":"Medicare payer","userSelected":true}]},"beneficiary":{"reference":"Patient/32a253b0-79d4-4bd8-a591-5557984392c6"},"period":{"start":"2022-12-01T08:00:00.000+00:00"},"payor":[{"reference":"Organization/d7317a3f-2b9e-4467-8c1c-57c3c9b335d5"}]},"request":{"method":"PUT","url":"Coverage/b62af6f2-af14-4663-aa86-f02948bf3d67"}},{"fullUrl":"Patient/32a253b0-79d4-4bd8-a591-5557984392c6","resource":{"resourceType":"Patient","id":"32a253b0-79d4-4bd8-a591-5557984392c6","meta":{"profile":["http://hl7.org/fhir/us/qicore/StructureDefinition/qicore-patient"]},"text":{"status":"generated","div":"<div xmlns=\"http://www.w3.org/1999/xhtml\"><div class=\"hapiHeaderText\">Age@18 <b>DENOMPASS </b></div><table class=\"hapiPropertyTable\"><tbody><tr><td>Identifier</td><td>67f3e33acf17bcb386e754d726ed064ccd48ba21ff0ffb2eb678740a684398be</td></tr><tr><td>Date of birth</td><td><span>01 January 1994</span></td></tr></tbody></table></div>"},"extension":[{"url":"http://hl7.org/fhir/us/core/StructureDefinition/us-core-race","extension":[{"url":"ombCategory","valueCoding":{"system":"urn:oid:2.16.840.1.113883.6.238","code":"1002-5","display":"American Indian or Alaska Native","userSelected":true}},{"url":"text","valueString":"American Indian or Alaska Native"}]},{"url":"http://hl7.org/fhir/us/core/StructureDefinition/us-core-ethnicity","extension":[{"url":"ombCategory","valueCoding":{"system":"urn:oid:2.16.840.1.113883.6.238","code":"2135-2","display":"Hispanic or Latino","userSelected":true}},{"url":"text","valueString":"Hispanic or Latino"}]}],"identifier":[{"type":{"coding":[{"system":"http://terminology.hl7.org/CodeSystem/v2-0203","code":"MR"}]},"system":"https://bonnie-fhir.healthit.gov/","value":"61095b0998086b53805591a5"}],"active":true,"name":[{"use":"usual","family":"IPPass","given":["Age18Jan1"]}],"gender":"female","birthDate":"1996-01-01"},"request":{"method":"PUT","url":"Patient/32a253b0-79d4-4bd8-a591-5557984392c6"}}]}