{"resourceType":"Bundle","id":"tests-26e0ce01-b80d-40a0-b22b-cadcbfa3127f-bundle","type":"transaction","entry":[{"fullUrl":"Coverage/bc552ebc-a40e-4129-8bd2-d526906d81a8","resource":{"resourceType":"Coverage","id":"bc552ebc-a40e-4129-8bd2-d526906d81a8","meta":{"profile":["http://hl7.org/fhir/us/qicore/StructureDefinition/qicore-coverage"]},"status":"active","beneficiary":{"reference":"Patient/26e0ce01-b80d-40a0-b22b-cadcbfa3127f"},"payor":[{"reference":"Organization/aa56b54e-2ac0-41d4-b92c-9ac0cb595f02"}]},"request":{"method":"PUT","url":"Coverage/bc552ebc-a40e-4129-8bd2-d526906d81a8"}},{"fullUrl":"Organization/aa56b54e-2ac0-41d4-b92c-9ac0cb595f02","resource":{"resourceType":"Organization","id":"aa56b54e-2ac0-41d4-b92c-9ac0cb595f02","meta":{"profile":["http://hl7.org/fhir/us/qicore/StructureDefinition/qicore-organization"]},"identifier":[{"use":"temp","system":"urn:oid:2.16.840.1.113883.4.4","value":"21-3259825"}],"active":true,"type":[{"coding":[{"system":"http://terminology.hl7.org/CodeSystem/organization-type","code":"pay","display":"Payer"}]}],"name":"Blue Cross Blue Shield of Texas","telecom":[{"system":"phone","value":"(+1) 972-766-6900"}],"address":[{"use":"billing","type":"postal","line":["P.O. Box 660044"],"city":"Dallas","state":"TX","postalCode":"75266-0044","country":"USA"}]},"request":{"method":"PUT","url":"Organization/aa56b54e-2ac0-41d4-b92c-9ac0cb595f02"}},{"fullUrl":"Practitioner/11bdc678-e2b2-480f-b365-c6c8ce384713","resource":{"resourceType":"Practitioner","id":"11bdc678-e2b2-480f-b365-c6c8ce384713","meta":{"profile":["http://hl7.org/fhir/us/qicore/StructureDefinition/qicore-practitioner"]},"identifier":[{"system":"http://hl7.org/fhir/sid/us-npi","value":"123456"}],"name":[{"family":"Evil","prefix":["Dr"]}]},"request":{"method":"PUT","url":"Practitioner/11bdc678-e2b2-480f-b365-c6c8ce384713"}},{"fullUrl":"MeasureReport/579cce7e-bff6-4a29-8cb5-fc894bb3a126","resource":{"resourceType":"MeasureReport","id":"579cce7e-bff6-4a29-8cb5-fc894bb3a126","meta":{"profile":["http://hl7.org/fhir/us/cqfmeasures/StructureDefinition/test-case-cqfm"]},"contained":[{"resourceType":"Parameters","id":"722529de-3fdd-49d5-ba63-75d795cde5b1-parameters","parameter":[{"name":"subject","valueString":"26e0ce01-b80d-40a0-b22b-cadcbfa3127f"}]}],"extension":[{"url":"http://hl7.org/fhir/StructureDefinition/cqf-inputParameters","valueReference":{"reference":"#722529de-3fdd-49d5-ba63-75d795cde5b1-parameters"}},{"url":"http://hl7.org/fhir/us/cqfmeasures/StructureDefinition/cqfm-testCaseDescription","valueMarkdown":"Patient with Degeneration of Macula with cataract surgery. "}],"modifierExtension":[{"url":"http://hl7.org/fhir/us/cqfmeasures/StructureDefinition/cqfm-isTestCase","valueBoolean":true}],"status":"complete","type":"individual","measure":"https://madie.cms.gov/Measure/CMS133FHIRCataracts2040BCVAwithin90Days","period":{"start":"2026-01-01","end":"2026-12-31"},"group":[{"id":"Group_1","population":[{"id":"InitialPopulation_1","code":{"coding":[{"system":"http://terminology.hl7.org/CodeSystem/measure-population","code":"initial-population","display":"Initial Population"}]},"count":1},{"id":"Denominator_1","code":{"coding":[{"system":"http://terminology.hl7.org/CodeSystem/measure-population","code":"denominator","display":"Denominator"}]},"count":1},{"id":"DenominatorExclusion_1","code":{"coding":[{"system":"http://terminology.hl7.org/CodeSystem/measure-population","code":"denominator-exclusion","display":"Denominator Exclusion"}]},"count":1},{"id":"Numerator_1","code":{"coding":[{"system":"http://terminology.hl7.org/CodeSystem/measure-population","code":"numerator","display":"Numerator"}]},"count":0}],"measureScore":{"value":0.0}}],"evaluatedResource":[{"reference":"Patient/26e0ce01-b80d-40a0-b22b-cadcbfa3127f"},{"reference":"Observation/f8410b6d-c324-4a95-b30f-5ec94f2cb72d"},{"reference":"Procedure/3e94f6e7-8367-48d2-b335-a5da77d55b49"},{"reference":"Condition/21fff1d5-b384-43ef-9166-a45520b989c3"},{"reference":"Coverage/bc552ebc-a40e-4129-8bd2-d526906d81a8"},{"reference":"Organization/aa56b54e-2ac0-41d4-b92c-9ac0cb595f02"},{"reference":"Practitioner/11bdc678-e2b2-480f-b365-c6c8ce384713"}]},"request":{"method":"PUT","url":"MeasureReport/579cce7e-bff6-4a29-8cb5-fc894bb3a126"}},{"fullUrl":"Condition/21fff1d5-b384-43ef-9166-a45520b989c3","resource":{"resourceType":"Condition","id":"21fff1d5-b384-43ef-9166-a45520b989c3","meta":{"profile":["http://hl7.org/fhir/us/qicore/StructureDefinition/qicore-condition-encounter-diagnosis"]},"clinicalStatus":{"coding":[{"system":"http://terminology.hl7.org/CodeSystem/condition-clinical","code":"active","display":"active","userSelected":true}]},"category":[{"coding":[{"system":"http://terminology.hl7.org/CodeSystem/condition-clinical","code":"active","display":"active","userSelected":true}]}],"code":{"coding":[{"system":"http://hl7.org/fhir/sid/icd-10-cm","code":"H35.373","userSelected":true},{"system":"http://snomed.info/sct","code":"140446000","userSelected":true}]},"subject":{"reference":"Patient/26e0ce01-b80d-40a0-b22b-cadcbfa3127f"},"onsetDateTime":"2024-11-01T08:00:00.000+00:00"},"request":{"method":"PUT","url":"Condition/21fff1d5-b384-43ef-9166-a45520b989c3"}},{"fullUrl":"Bundle/61095b0998086b53805591a5","resource":{"resourceType":"Bundle","id":"61095b0998086b53805591a5","type":"transaction","entry":[{"fullUrl":"https://madie.cms.gov/Patient/26e0ce01-b80d-40a0-b22b-cadcbfa3127f","resource":{"resourceType":"Patient","id":"26e0ce01-b80d-40a0-b22b-cadcbfa3127f","meta":{"profile":["http://hl7.org/fhir/us/qicore/StructureDefinition/qicore-patient"]},"text":{"status":"generated","div":"<div xmlns=\"http://www.w3.org/1999/xhtml\"><div class=\"hapiHeaderText\">Age@18 <b>DENOMPASS </b></div><table class=\"hapiPropertyTable\"><tbody><tr><td>Identifier</td><td>67f3e33acf17bcb386e754d726ed064ccd48ba21ff0ffb2eb678740a684398be</td></tr><tr><td>Date of birth</td><td><span>01 January 1994</span></td></tr></tbody></table></div>"},"extension":[{"url":"http://hl7.org/fhir/us/core/StructureDefinition/us-core-race","extension":[{"url":"ombCategory","valueCoding":{"system":"urn:oid:2.16.840.1.113883.6.238","code":"1002-5","display":"American Indian or Alaska Native","userSelected":true}},{"url":"text","valueString":"American Indian or Alaska Native"}]},{"url":"http://hl7.org/fhir/us/core/StructureDefinition/us-core-ethnicity","extension":[{"url":"ombCategory","valueCoding":{"system":"urn:oid:2.16.840.1.113883.6.238","code":"2135-2","display":"Hispanic or Latino","userSelected":true}},{"url":"text","valueString":"Hispanic or Latino"}]}],"identifier":[{"type":{"coding":[{"system":"http://terminology.hl7.org/CodeSystem/v2-0203","code":"MR"}]},"system":"https://bonnie-fhir.healthit.gov/","value":"61095b0998086b53805591a5"}],"active":true,"name":[{"use":"usual","family":"DENEXPASS","given":["DegenerationofMaculaWithCatSurg"]}],"gender":"female","birthDate":"1996-01-01"},"request":{"method":"PUT","url":"Patient/26e0ce01-b80d-40a0-b22b-cadcbfa3127f"}},{"fullUrl":"https://madie.cms.gov/Observation/f8410b6d-c324-4a95-b30f-5ec94f2cb72d","resource":{"resourceType":"Observation","id":"f8410b6d-c324-4a95-b30f-5ec94f2cb72d","meta":{"profile":["http://hl7.org/fhir/us/qicore/StructureDefinition/qicore-observation-clinical-result"]},"status":"final","category":[{"coding":[{"system":"http://terminology.hl7.org/CodeSystem/observation-category","code":"exam","display":"exam"}]}],"code":{"coding":[{"system":"http://snomed.info/sct","code":"419775003"}]},"subject":{"reference":"Patient/26e0ce01-b80d-40a0-b22b-cadcbfa3127f"},"effectivePeriod":{"start":"2026-03-13T09:00:00+00:00","end":"2026-03-13T09:30:00+00:00"}},"request":{"method":"PUT","url":"Observation/f8410b6d-c324-4a95-b30f-5ec94f2cb72d"}},{"fullUrl":"https://madie.cms.gov/Procedure/3e94f6e7-8367-48d2-b335-a5da77d55b49","resource":{"resourceType":"Procedure","id":"3e94f6e7-8367-48d2-b335-a5da77d55b49","meta":{"profile":["http://hl7.org/fhir/us/qicore/StructureDefinition/qicore-procedure"]},"extension":[{"url":"http://hl7.org/fhir/us/qicore/StructureDefinition/qicore-recorded","valueDateTime":"2026-03-05T09:35:00-04:00"}],"status":"completed","code":{"coding":[{"system":"http://snomed.info/sct","code":"84149000"}]},"subject":{"reference":"Patient/26e0ce01-b80d-40a0-b22b-cadcbfa3127f"},"performedPeriod":{"start":"2026-03-05T09:20:00-04:00","end":"2026-04-05T10:30:00-04:00"}},"request":{"method":"PUT","url":"Procedure/3e94f6e7-8367-48d2-b335-a5da77d55b49"}},{"fullUrl":"https://madie.cms.gov/Condition/21fff1d5-b384-43ef-9166-a45520b989c3","resource":{"resourceType":"Condition","id":"21fff1d5-b384-43ef-9166-a45520b989c3","meta":{"profile":["http://hl7.org/fhir/us/qicore/StructureDefinition/qicore-condition-encounter-diagnosis"]},"clinicalStatus":{"coding":[{"system":"http://terminology.hl7.org/CodeSystem/condition-clinical","code":"active","display":"active","userSelected":true}]},"category":[{"coding":[{"system":"http://terminology.hl7.org/CodeSystem/condition-clinical","code":"active","display":"active","userSelected":true}]}],"code":{"coding":[{"system":"http://hl7.org/fhir/sid/icd-10-cm","code":"H35.373","userSelected":true},{"system":"http://snomed.info/sct","code":"140446000","userSelected":true}]},"subject":{"reference":"Patient/26e0ce01-b80d-40a0-b22b-cadcbfa3127f"},"onsetDateTime":"2024-11-01T08:00:00.000+00:00"},"request":{"method":"PUT","url":"Condition/21fff1d5-b384-43ef-9166-a45520b989c3"}},{"fullUrl":"https://madie.cms.gov/Coverage/bc552ebc-a40e-4129-8bd2-d526906d81a8","resource":{"resourceType":"Coverage","id":"bc552ebc-a40e-4129-8bd2-d526906d81a8","meta":{"profile":["http://hl7.org/fhir/us/qicore/StructureDefinition/qicore-coverage"]},"status":"active","beneficiary":{"reference":"Patient/26e0ce01-b80d-40a0-b22b-cadcbfa3127f"},"payor":[{"reference":"Organization/aa56b54e-2ac0-41d4-b92c-9ac0cb595f02"}]},"request":{"method":"PUT","url":"Coverage/bc552ebc-a40e-4129-8bd2-d526906d81a8"}},{"fullUrl":"https://madie.cms.gov/Organization/aa56b54e-2ac0-41d4-b92c-9ac0cb595f02","resource":{"resourceType":"Organization","id":"aa56b54e-2ac0-41d4-b92c-9ac0cb595f02","meta":{"profile":["http://hl7.org/fhir/us/qicore/StructureDefinition/qicore-organization"]},"identifier":[{"use":"temp","system":"urn:oid:2.16.840.1.113883.4.4","value":"21-3259825"}],"active":true,"type":[{"coding":[{"system":"http://terminology.hl7.org/CodeSystem/organization-type","code":"pay","display":"Payer"}]}],"name":"Blue Cross Blue Shield of Texas","telecom":[{"system":"phone","value":"(+1) 972-766-6900"}],"address":[{"use":"billing","type":"postal","line":["P.O. Box 660044"],"city":"Dallas","state":"TX","postalCode":"75266-0044","country":"USA"}]},"request":{"method":"PUT","url":"Organization/aa56b54e-2ac0-41d4-b92c-9ac0cb595f02"}},{"fullUrl":"https://madie.cms.gov/Practitioner/11bdc678-e2b2-480f-b365-c6c8ce384713","resource":{"resourceType":"Practitioner","id":"11bdc678-e2b2-480f-b365-c6c8ce384713","meta":{"profile":["http://hl7.org/fhir/us/qicore/StructureDefinition/qicore-practitioner"]},"identifier":[{"system":"http://hl7.org/fhir/sid/us-npi","value":"123456"}],"name":[{"family":"Evil","prefix":["Dr"]}]},"request":{"method":"PUT","url":"Practitioner/11bdc678-e2b2-480f-b365-c6c8ce384713"}},{"fullUrl":"https://madie.cms.gov/MeasureReport/579cce7e-bff6-4a29-8cb5-fc894bb3a126","resource":{"resourceType":"MeasureReport","id":"579cce7e-bff6-4a29-8cb5-fc894bb3a126","meta":{"profile":["http://hl7.org/fhir/us/cqfmeasures/StructureDefinition/test-case-cqfm"]},"contained":[{"resourceType":"Parameters","id":"722529de-3fdd-49d5-ba63-75d795cde5b1-parameters","parameter":[{"name":"subject","valueString":"26e0ce01-b80d-40a0-b22b-cadcbfa3127f"}]}],"extension":[{"url":"http://hl7.org/fhir/StructureDefinition/cqf-inputParameters","valueReference":{"reference":"#722529de-3fdd-49d5-ba63-75d795cde5b1-parameters"}},{"url":"http://hl7.org/fhir/us/cqfmeasures/StructureDefinition/cqfm-testCaseDescription","valueMarkdown":"Patient with Degeneration of Macula with cataract surgery. "}],"modifierExtension":[{"url":"http://hl7.org/fhir/us/cqfmeasures/StructureDefinition/cqfm-isTestCase","valueBoolean":true}],"status":"complete","type":"individual","measure":"https://madie.cms.gov/Measure/CMS133FHIRCataracts2040BCVAwithin90Days","period":{"start":"2026-01-01","end":"2026-12-31"},"group":[{"id":"Group_1","population":[{"id":"InitialPopulation_1","code":{"coding":[{"system":"http://terminology.hl7.org/CodeSystem/measure-population","code":"initial-population","display":"Initial Population"}]},"count":1},{"id":"Denominator_1","code":{"coding":[{"system":"http://terminology.hl7.org/CodeSystem/measure-population","code":"denominator","display":"Denominator"}]},"count":1},{"id":"DenominatorExclusion_1","code":{"coding":[{"system":"http://terminology.hl7.org/CodeSystem/measure-population","code":"denominator-exclusion","display":"Denominator Exclusion"}]},"count":1},{"id":"Numerator_1","code":{"coding":[{"system":"http://terminology.hl7.org/CodeSystem/measure-population","code":"numerator","display":"Numerator"}]},"count":0}],"measureScore":{"value":0.0}}],"evaluatedResource":[{"reference":"Patient/26e0ce01-b80d-40a0-b22b-cadcbfa3127f"},{"reference":"Observation/f8410b6d-c324-4a95-b30f-5ec94f2cb72d"},{"reference":"Procedure/3e94f6e7-8367-48d2-b335-a5da77d55b49"},{"reference":"Condition/21fff1d5-b384-43ef-9166-a45520b989c3"},{"reference":"Coverage/bc552ebc-a40e-4129-8bd2-d526906d81a8"},{"reference":"Organization/aa56b54e-2ac0-41d4-b92c-9ac0cb595f02"},{"reference":"Practitioner/11bdc678-e2b2-480f-b365-c6c8ce384713"}]},"request":{"method":"PUT","url":"MeasureReport/579cce7e-bff6-4a29-8cb5-fc894bb3a126"}}]},"request":{"method":"PUT","url":"Bundle/61095b0998086b53805591a5"}},{"fullUrl":"Procedure/3e94f6e7-8367-48d2-b335-a5da77d55b49","resource":{"resourceType":"Procedure","id":"3e94f6e7-8367-48d2-b335-a5da77d55b49","meta":{"profile":["http://hl7.org/fhir/us/qicore/StructureDefinition/qicore-procedure"]},"extension":[{"url":"http://hl7.org/fhir/us/qicore/StructureDefinition/qicore-recorded","valueDateTime":"2026-03-05T09:35:00-04:00"}],"status":"completed","code":{"coding":[{"system":"http://snomed.info/sct","code":"84149000"}]},"subject":{"reference":"Patient/26e0ce01-b80d-40a0-b22b-cadcbfa3127f"},"performedPeriod":{"start":"2026-03-05T09:20:00-04:00","end":"2026-04-05T10:30:00-04:00"}},"request":{"method":"PUT","url":"Procedure/3e94f6e7-8367-48d2-b335-a5da77d55b49"}},{"fullUrl":"Patient/26e0ce01-b80d-40a0-b22b-cadcbfa3127f","resource":{"resourceType":"Patient","id":"26e0ce01-b80d-40a0-b22b-cadcbfa3127f","meta":{"profile":["http://hl7.org/fhir/us/qicore/StructureDefinition/qicore-patient"]},"text":{"status":"generated","div":"<div xmlns=\"http://www.w3.org/1999/xhtml\"><div class=\"hapiHeaderText\">Age@18 <b>DENOMPASS </b></div><table class=\"hapiPropertyTable\"><tbody><tr><td>Identifier</td><td>67f3e33acf17bcb386e754d726ed064ccd48ba21ff0ffb2eb678740a684398be</td></tr><tr><td>Date of birth</td><td><span>01 January 1994</span></td></tr></tbody></table></div>"},"extension":[{"url":"http://hl7.org/fhir/us/core/StructureDefinition/us-core-race","extension":[{"url":"ombCategory","valueCoding":{"system":"urn:oid:2.16.840.1.113883.6.238","code":"1002-5","display":"American Indian or Alaska Native","userSelected":true}},{"url":"text","valueString":"American Indian or Alaska Native"}]},{"url":"http://hl7.org/fhir/us/core/StructureDefinition/us-core-ethnicity","extension":[{"url":"ombCategory","valueCoding":{"system":"urn:oid:2.16.840.1.113883.6.238","code":"2135-2","display":"Hispanic or Latino","userSelected":true}},{"url":"text","valueString":"Hispanic or Latino"}]}],"identifier":[{"type":{"coding":[{"system":"http://terminology.hl7.org/CodeSystem/v2-0203","code":"MR"}]},"system":"https://bonnie-fhir.healthit.gov/","value":"61095b0998086b53805591a5"}],"active":true,"name":[{"use":"usual","family":"DENEXPASS","given":["DegenerationofMaculaWithCatSurg"]}],"gender":"female","birthDate":"1996-01-01"},"request":{"method":"PUT","url":"Patient/26e0ce01-b80d-40a0-b22b-cadcbfa3127f"}},{"fullUrl":"Observation/f8410b6d-c324-4a95-b30f-5ec94f2cb72d","resource":{"resourceType":"Observation","id":"f8410b6d-c324-4a95-b30f-5ec94f2cb72d","meta":{"profile":["http://hl7.org/fhir/us/qicore/StructureDefinition/qicore-observation-clinical-result"]},"status":"final","category":[{"coding":[{"system":"http://terminology.hl7.org/CodeSystem/observation-category","code":"exam","display":"exam"}]}],"code":{"coding":[{"system":"http://snomed.info/sct","code":"419775003"}]},"subject":{"reference":"Patient/26e0ce01-b80d-40a0-b22b-cadcbfa3127f"},"effectivePeriod":{"start":"2026-03-13T09:00:00+00:00","end":"2026-03-13T09:30:00+00:00"}},"request":{"method":"PUT","url":"Observation/f8410b6d-c324-4a95-b30f-5ec94f2cb72d"}}]}