{"resourceType":"Bundle","id":"tests-e4f0c8b6-6004-4565-93d6-9df005b8061f-bundle","type":"transaction","entry":[{"resource":{"resourceType":"Practitioner","id":"f49e71cf-3ba3-4861-8901-d2527a63276a","meta":{"profile":["http://hl7.org/fhir/us/qicore/StructureDefinition/qicore-practitioner"]},"identifier":[{"system":"http://hl7.org/fhir/sid/us-npi","value":"123456"}],"name":[{"family":"Evil","prefix":["Dr"]}]},"request":{"method":"PUT","url":"Practitioner/f49e71cf-3ba3-4861-8901-d2527a63276a"}},{"resource":{"resourceType":"Coverage","id":"b8a7332e-9340-4d74-a3f1-6f0affc6ac40","meta":{"profile":["http://hl7.org/fhir/us/qicore/StructureDefinition/qicore-coverage"]},"status":"active","beneficiary":{"reference":"Patient/e4f0c8b6-6004-4565-93d6-9df005b8061f"},"payor":[{"reference":"Organization/4cd8cf69-dca7-429f-9e83-800fdca6b44c"}]},"request":{"method":"PUT","url":"Coverage/b8a7332e-9340-4d74-a3f1-6f0affc6ac40"}},{"resource":{"resourceType":"Patient","id":"e4f0c8b6-6004-4565-93d6-9df005b8061f","meta":{"profile":["http://hl7.org/fhir/us/qicore/StructureDefinition/qicore-patient"]},"text":{"status":"generated","div":"<div xmlns=\"http://www.w3.org/1999/xhtml\"><div class=\"hapiHeaderText\">Age@18 <b>DENOMPASS </b></div><table class=\"hapiPropertyTable\"><tbody><tr><td>Identifier</td><td>67f3e33acf17bcb386e754d726ed064ccd48ba21ff0ffb2eb678740a684398be</td></tr><tr><td>Date of birth</td><td><span>01 January 1994</span></td></tr></tbody></table></div>"},"extension":[{"url":"http://hl7.org/fhir/us/core/StructureDefinition/us-core-race","extension":[{"url":"ombCategory","valueCoding":{"system":"urn:oid:2.16.840.1.113883.6.238","code":"1002-5","display":"American Indian or Alaska Native","userSelected":true}},{"url":"text","valueString":"American Indian or Alaska Native"}]},{"url":"http://hl7.org/fhir/us/core/StructureDefinition/us-core-ethnicity","extension":[{"url":"ombCategory","valueCoding":{"system":"urn:oid:2.16.840.1.113883.6.238","code":"2135-2","display":"Hispanic or Latino","userSelected":true}},{"url":"text","valueString":"Hispanic or Latino"}]}],"identifier":[{"type":{"coding":[{"system":"http://terminology.hl7.org/CodeSystem/v2-0203","code":"MR"}]},"system":"https://bonnie-fhir.healthit.gov/","value":"61095b0998086b53805591a5"}],"active":true,"name":[{"use":"usual","family":"DENEXPASS","given":["UveitisWithCatSurg"]}],"gender":"female","birthDate":"1996-01-01"},"request":{"method":"PUT","url":"Patient/e4f0c8b6-6004-4565-93d6-9df005b8061f"}},{"resource":{"resourceType":"MeasureReport","id":"d014afe2-1512-4b4c-8380-5d0c210279ba","meta":{"profile":["http://hl7.org/fhir/us/cqfmeasures/StructureDefinition/test-case-cqfm"]},"contained":[{"resourceType":"Parameters","id":"61f1e0b5-b359-4ef3-8e9a-65c133648262-parameters","parameter":[{"name":"subject","valueString":"e4f0c8b6-6004-4565-93d6-9df005b8061f"}]}],"extension":[{"url":"http://hl7.org/fhir/StructureDefinition/cqf-inputParameters","valueReference":{"reference":"#61f1e0b5-b359-4ef3-8e9a-65c133648262-parameters"}},{"url":"http://hl7.org/fhir/us/cqfmeasures/StructureDefinition/cqfm-testCaseDescription","valueMarkdown":"Patient with Uveitis with cataract surgery. "}],"modifierExtension":[{"url":"http://hl7.org/fhir/us/cqfmeasures/StructureDefinition/cqfm-isTestCase","valueBoolean":true}],"status":"complete","type":"individual","measure":"https://madie.cms.gov/Measure/CMS133FHIRCataracts2040BCVAwithin90Days","period":{"start":"2026-01-01","end":"2026-12-31"},"group":[{"id":"Group_1","population":[{"id":"InitialPopulation_1","code":{"coding":[{"system":"http://terminology.hl7.org/CodeSystem/measure-population","code":"initial-population","display":"Initial Population"}]},"count":1},{"id":"Denominator_1","code":{"coding":[{"system":"http://terminology.hl7.org/CodeSystem/measure-population","code":"denominator","display":"Denominator"}]},"count":1},{"id":"DenominatorExclusion_1","code":{"coding":[{"system":"http://terminology.hl7.org/CodeSystem/measure-population","code":"denominator-exclusion","display":"Denominator Exclusion"}]},"count":1},{"id":"Numerator_1","code":{"coding":[{"system":"http://terminology.hl7.org/CodeSystem/measure-population","code":"numerator","display":"Numerator"}]},"count":0}],"measureScore":{"value":0.0}}],"evaluatedResource":[{"reference":"Patient/e4f0c8b6-6004-4565-93d6-9df005b8061f"},{"reference":"Observation/60747f8a-d19e-4e52-9cb9-97d7bc48ba1c"},{"reference":"Procedure/d36138bd-fae5-4694-848b-45e5074dd306"},{"reference":"Condition/6759b99c-f964-436d-83db-557139d85c37"},{"reference":"Coverage/b8a7332e-9340-4d74-a3f1-6f0affc6ac40"},{"reference":"Organization/4cd8cf69-dca7-429f-9e83-800fdca6b44c"},{"reference":"Practitioner/f49e71cf-3ba3-4861-8901-d2527a63276a"}]},"request":{"method":"PUT","url":"MeasureReport/d014afe2-1512-4b4c-8380-5d0c210279ba"}},{"resource":{"resourceType":"Procedure","id":"d36138bd-fae5-4694-848b-45e5074dd306","meta":{"profile":["http://hl7.org/fhir/us/qicore/StructureDefinition/qicore-procedure"]},"extension":[{"url":"http://hl7.org/fhir/us/qicore/StructureDefinition/qicore-recorded","valueDateTime":"2026-03-05T09:35:00-04:00"}],"status":"completed","code":{"coding":[{"system":"http://snomed.info/sct","code":"84149000"}]},"subject":{"reference":"Patient/e4f0c8b6-6004-4565-93d6-9df005b8061f"},"performedPeriod":{"start":"2026-03-05T09:20:00-04:00","end":"2026-04-05T10:30:00-04:00"}},"request":{"method":"PUT","url":"Procedure/d36138bd-fae5-4694-848b-45e5074dd306"}},{"resource":{"resourceType":"Condition","id":"6759b99c-f964-436d-83db-557139d85c37","meta":{"profile":["http://hl7.org/fhir/us/qicore/StructureDefinition/qicore-condition-problems-health-concerns"]},"clinicalStatus":{"coding":[{"system":"http://terminology.hl7.org/CodeSystem/condition-clinical","code":"active","display":"active","userSelected":true}]},"category":[{"coding":[{"system":"http://terminology.hl7.org/CodeSystem/condition-clinical","code":"active","display":"active","userSelected":true}]}],"code":{"coding":[{"system":"http://hl7.org/fhir/sid/icd-10-cm","code":"H44.113","userSelected":true},{"system":"http://snomed.info/sct","code":"16553002","userSelected":true}]},"subject":{"reference":"Patient/e4f0c8b6-6004-4565-93d6-9df005b8061f"},"onsetDateTime":"2024-11-01T08:00:00.000+00:00"},"request":{"method":"PUT","url":"Condition/6759b99c-f964-436d-83db-557139d85c37"}},{"resource":{"resourceType":"Organization","id":"4cd8cf69-dca7-429f-9e83-800fdca6b44c","meta":{"profile":["http://hl7.org/fhir/us/qicore/StructureDefinition/qicore-organization"]},"identifier":[{"use":"temp","system":"urn:oid:2.16.840.1.113883.4.4","value":"21-3259825"}],"active":true,"type":[{"coding":[{"system":"http://terminology.hl7.org/CodeSystem/organization-type","code":"pay","display":"Payer"}]}],"name":"Blue Cross Blue Shield of Texas","telecom":[{"system":"phone","value":"(+1) 972-766-6900"}],"address":[{"use":"billing","type":"postal","line":["P.O. Box 660044"],"city":"Dallas","state":"TX","postalCode":"75266-0044","country":"USA"}]},"request":{"method":"PUT","url":"Organization/4cd8cf69-dca7-429f-9e83-800fdca6b44c"}},{"resource":{"resourceType":"Observation","id":"60747f8a-d19e-4e52-9cb9-97d7bc48ba1c","meta":{"profile":["http://hl7.org/fhir/us/qicore/StructureDefinition/qicore-observation-clinical-result"]},"status":"final","category":[{"coding":[{"system":"http://terminology.hl7.org/CodeSystem/observation-category","code":"exam","display":"Exam"}]}],"code":{"coding":[{"system":"http://snomed.info/sct","code":"419775003"}]},"subject":{"reference":"Patient/e4f0c8b6-6004-4565-93d6-9df005b8061f"},"effectivePeriod":{"start":"2026-03-13T09:00:00+00:00","end":"2026-03-13T09:30:00+00:00"}},"request":{"method":"PUT","url":"Observation/60747f8a-d19e-4e52-9cb9-97d7bc48ba1c"}},{"resource":{"resourceType":"Bundle","id":"61095b0998086b53805591a5","type":"transaction","entry":[{"fullUrl":"https://madie.cms.gov/Patient/e4f0c8b6-6004-4565-93d6-9df005b8061f","resource":{"resourceType":"Patient","id":"e4f0c8b6-6004-4565-93d6-9df005b8061f","meta":{"profile":["http://hl7.org/fhir/us/qicore/StructureDefinition/qicore-patient"]},"text":{"status":"generated","div":"<div xmlns=\"http://www.w3.org/1999/xhtml\"><div class=\"hapiHeaderText\">Age@18 <b>DENOMPASS </b></div><table class=\"hapiPropertyTable\"><tbody><tr><td>Identifier</td><td>67f3e33acf17bcb386e754d726ed064ccd48ba21ff0ffb2eb678740a684398be</td></tr><tr><td>Date of birth</td><td><span>01 January 1994</span></td></tr></tbody></table></div>"},"extension":[{"url":"http://hl7.org/fhir/us/core/StructureDefinition/us-core-race","extension":[{"url":"ombCategory","valueCoding":{"system":"urn:oid:2.16.840.1.113883.6.238","code":"1002-5","display":"American Indian or Alaska Native","userSelected":true}},{"url":"text","valueString":"American Indian or Alaska Native"}]},{"url":"http://hl7.org/fhir/us/core/StructureDefinition/us-core-ethnicity","extension":[{"url":"ombCategory","valueCoding":{"system":"urn:oid:2.16.840.1.113883.6.238","code":"2135-2","display":"Hispanic or Latino","userSelected":true}},{"url":"text","valueString":"Hispanic or Latino"}]}],"identifier":[{"type":{"coding":[{"system":"http://terminology.hl7.org/CodeSystem/v2-0203","code":"MR"}]},"system":"https://bonnie-fhir.healthit.gov/","value":"61095b0998086b53805591a5"}],"active":true,"name":[{"use":"usual","family":"DENEXPASS","given":["UveitisWithCatSurg"]}],"gender":"female","birthDate":"1996-01-01"},"request":{"method":"PUT","url":"Patient/e4f0c8b6-6004-4565-93d6-9df005b8061f"}},{"fullUrl":"https://madie.cms.gov/Observation/60747f8a-d19e-4e52-9cb9-97d7bc48ba1c","resource":{"resourceType":"Observation","id":"60747f8a-d19e-4e52-9cb9-97d7bc48ba1c","meta":{"profile":["http://hl7.org/fhir/us/qicore/StructureDefinition/qicore-observation-clinical-result"]},"status":"final","category":[{"coding":[{"system":"http://terminology.hl7.org/CodeSystem/observation-category","code":"exam","display":"Exam"}]}],"code":{"coding":[{"system":"http://snomed.info/sct","code":"419775003"}]},"subject":{"reference":"Patient/e4f0c8b6-6004-4565-93d6-9df005b8061f"},"effectivePeriod":{"start":"2026-03-13T09:00:00+00:00","end":"2026-03-13T09:30:00+00:00"}},"request":{"method":"PUT","url":"Observation/60747f8a-d19e-4e52-9cb9-97d7bc48ba1c"}},{"fullUrl":"https://madie.cms.gov/Procedure/d36138bd-fae5-4694-848b-45e5074dd306","resource":{"resourceType":"Procedure","id":"d36138bd-fae5-4694-848b-45e5074dd306","meta":{"profile":["http://hl7.org/fhir/us/qicore/StructureDefinition/qicore-procedure"]},"extension":[{"url":"http://hl7.org/fhir/us/qicore/StructureDefinition/qicore-recorded","valueDateTime":"2026-03-05T09:35:00-04:00"}],"status":"completed","code":{"coding":[{"system":"http://snomed.info/sct","code":"84149000"}]},"subject":{"reference":"Patient/e4f0c8b6-6004-4565-93d6-9df005b8061f"},"performedPeriod":{"start":"2026-03-05T09:20:00-04:00","end":"2026-04-05T10:30:00-04:00"}},"request":{"method":"PUT","url":"Procedure/d36138bd-fae5-4694-848b-45e5074dd306"}},{"fullUrl":"https://madie.cms.gov/Condition/6759b99c-f964-436d-83db-557139d85c37","resource":{"resourceType":"Condition","id":"6759b99c-f964-436d-83db-557139d85c37","meta":{"profile":["http://hl7.org/fhir/us/qicore/StructureDefinition/qicore-condition-problems-health-concerns"]},"clinicalStatus":{"coding":[{"system":"http://terminology.hl7.org/CodeSystem/condition-clinical","code":"active","display":"active","userSelected":true}]},"category":[{"coding":[{"system":"http://terminology.hl7.org/CodeSystem/condition-clinical","code":"active","display":"active","userSelected":true}]}],"code":{"coding":[{"system":"http://hl7.org/fhir/sid/icd-10-cm","code":"H44.113","userSelected":true},{"system":"http://snomed.info/sct","code":"16553002","userSelected":true}]},"subject":{"reference":"Patient/e4f0c8b6-6004-4565-93d6-9df005b8061f"},"onsetDateTime":"2024-11-01T08:00:00.000+00:00"},"request":{"method":"PUT","url":"Condition/6759b99c-f964-436d-83db-557139d85c37"}},{"fullUrl":"https://madie.cms.gov/Coverage/b8a7332e-9340-4d74-a3f1-6f0affc6ac40","resource":{"resourceType":"Coverage","id":"b8a7332e-9340-4d74-a3f1-6f0affc6ac40","meta":{"profile":["http://hl7.org/fhir/us/qicore/StructureDefinition/qicore-coverage"]},"status":"active","beneficiary":{"reference":"Patient/e4f0c8b6-6004-4565-93d6-9df005b8061f"},"payor":[{"reference":"Organization/4cd8cf69-dca7-429f-9e83-800fdca6b44c"}]},"request":{"method":"PUT","url":"Coverage/b8a7332e-9340-4d74-a3f1-6f0affc6ac40"}},{"fullUrl":"https://madie.cms.gov/Organization/4cd8cf69-dca7-429f-9e83-800fdca6b44c","resource":{"resourceType":"Organization","id":"4cd8cf69-dca7-429f-9e83-800fdca6b44c","meta":{"profile":["http://hl7.org/fhir/us/qicore/StructureDefinition/qicore-organization"]},"identifier":[{"use":"temp","system":"urn:oid:2.16.840.1.113883.4.4","value":"21-3259825"}],"active":true,"type":[{"coding":[{"system":"http://terminology.hl7.org/CodeSystem/organization-type","code":"pay","display":"Payer"}]}],"name":"Blue Cross Blue Shield of Texas","telecom":[{"system":"phone","value":"(+1) 972-766-6900"}],"address":[{"use":"billing","type":"postal","line":["P.O. Box 660044"],"city":"Dallas","state":"TX","postalCode":"75266-0044","country":"USA"}]},"request":{"method":"PUT","url":"Organization/4cd8cf69-dca7-429f-9e83-800fdca6b44c"}},{"fullUrl":"https://madie.cms.gov/Practitioner/f49e71cf-3ba3-4861-8901-d2527a63276a","resource":{"resourceType":"Practitioner","id":"f49e71cf-3ba3-4861-8901-d2527a63276a","meta":{"profile":["http://hl7.org/fhir/us/qicore/StructureDefinition/qicore-practitioner"]},"identifier":[{"system":"http://hl7.org/fhir/sid/us-npi","value":"123456"}],"name":[{"family":"Evil","prefix":["Dr"]}]},"request":{"method":"PUT","url":"Practitioner/f49e71cf-3ba3-4861-8901-d2527a63276a"}},{"fullUrl":"https://madie.cms.gov/MeasureReport/d014afe2-1512-4b4c-8380-5d0c210279ba","resource":{"resourceType":"MeasureReport","id":"d014afe2-1512-4b4c-8380-5d0c210279ba","meta":{"profile":["http://hl7.org/fhir/us/cqfmeasures/StructureDefinition/test-case-cqfm"]},"contained":[{"resourceType":"Parameters","id":"61f1e0b5-b359-4ef3-8e9a-65c133648262-parameters","parameter":[{"name":"subject","valueString":"e4f0c8b6-6004-4565-93d6-9df005b8061f"}]}],"extension":[{"url":"http://hl7.org/fhir/StructureDefinition/cqf-inputParameters","valueReference":{"reference":"#61f1e0b5-b359-4ef3-8e9a-65c133648262-parameters"}},{"url":"http://hl7.org/fhir/us/cqfmeasures/StructureDefinition/cqfm-testCaseDescription","valueMarkdown":"Patient with Uveitis with cataract surgery. "}],"modifierExtension":[{"url":"http://hl7.org/fhir/us/cqfmeasures/StructureDefinition/cqfm-isTestCase","valueBoolean":true}],"status":"complete","type":"individual","measure":"https://madie.cms.gov/Measure/CMS133FHIRCataracts2040BCVAwithin90Days","period":{"start":"2026-01-01","end":"2026-12-31"},"group":[{"id":"Group_1","population":[{"id":"InitialPopulation_1","code":{"coding":[{"system":"http://terminology.hl7.org/CodeSystem/measure-population","code":"initial-population","display":"Initial Population"}]},"count":1},{"id":"Denominator_1","code":{"coding":[{"system":"http://terminology.hl7.org/CodeSystem/measure-population","code":"denominator","display":"Denominator"}]},"count":1},{"id":"DenominatorExclusion_1","code":{"coding":[{"system":"http://terminology.hl7.org/CodeSystem/measure-population","code":"denominator-exclusion","display":"Denominator Exclusion"}]},"count":1},{"id":"Numerator_1","code":{"coding":[{"system":"http://terminology.hl7.org/CodeSystem/measure-population","code":"numerator","display":"Numerator"}]},"count":0}],"measureScore":{"value":0.0}}],"evaluatedResource":[{"reference":"Patient/e4f0c8b6-6004-4565-93d6-9df005b8061f"},{"reference":"Observation/60747f8a-d19e-4e52-9cb9-97d7bc48ba1c"},{"reference":"Procedure/d36138bd-fae5-4694-848b-45e5074dd306"},{"reference":"Condition/6759b99c-f964-436d-83db-557139d85c37"},{"reference":"Coverage/b8a7332e-9340-4d74-a3f1-6f0affc6ac40"},{"reference":"Organization/4cd8cf69-dca7-429f-9e83-800fdca6b44c"},{"reference":"Practitioner/f49e71cf-3ba3-4861-8901-d2527a63276a"}]},"request":{"method":"PUT","url":"MeasureReport/d014afe2-1512-4b4c-8380-5d0c210279ba"}}]},"request":{"method":"PUT","url":"Bundle/61095b0998086b53805591a5"}}]}