{
  "resourceType": "Bundle",
  "id": "tests-NumerPass-OneHospitalizationTwoClaims-bundle",
  "type": "transaction",
  "entry": [ {
    "fullUrl": "https://madie.cms.gov/Encounter/788e8a7e-5c7e-49b1-b6b4-afe1557dd2d3",
    "resource": {
      "resourceType": "Encounter",
      "id": "788e8a7e-5c7e-49b1-b6b4-afe1557dd2d3",
      "meta": {
        "profile": [ "http://hl7.org/fhir/us/qicore/StructureDefinition/qicore-encounter" ]
      },
      "status": "finished",
      "class": {
        "system": "http://terminology.hl7.org/CodeSystem/v3-ActCode",
        "code": "IMP",
        "display": "inpatient encounter"
      },
      "type": [ {
        "coding": [ {
          "system": "http://snomed.info/sct",
          "code": "183452005",
          "display": "Inpatient encounter"
        } ]
      } ],
      "subject": {
        "reference": "Patient/f18417e1-5990-40b7-b927-5b50015380a2"
      },
      "period": {
        "start": "2026-10-19T08:30:00.000+00:00",
        "end": "2026-10-21T08:15:00.000+00:00"
      },
      "reasonCode": [ {
        "coding": [ {
          "system": "http://snomed.info/sct",
          "code": "14047009"
        } ]
      }, {
        "coding": [ {
          "system": "http://snomed.info/sct",
          "code": "64859006"
        } ]
      } ]
    },
    "request": {
      "method": "PUT",
      "url": "Encounter/788e8a7e-5c7e-49b1-b6b4-afe1557dd2d3"
    }
  }, {
    "fullUrl": "https://madie.cms.gov/Encounter/bd0e1d60-4057-4b76-a221-65b1941d7b97",
    "resource": {
      "resourceType": "Encounter",
      "id": "bd0e1d60-4057-4b76-a221-65b1941d7b97",
      "meta": {
        "profile": [ "http://hl7.org/fhir/us/qicore/StructureDefinition/qicore-encounter" ]
      },
      "status": "finished",
      "class": {
        "system": "http://terminology.hl7.org/CodeSystem/v3-ActCode",
        "code": "EMER",
        "display": "emergency encounter"
      },
      "type": [ {
        "coding": [ {
          "system": "http://snomed.info/sct",
          "code": "4525004",
          "display": "Emergency Department Visit"
        } ]
      } ],
      "subject": {
        "reference": "Patient/f18417e1-5990-40b7-b927-5b50015380a2"
      },
      "period": {
        "start": "2026-10-18T09:15:00.000+00:00",
        "end": "2026-10-19T08:15:00.000+00:00"
      }
    },
    "request": {
      "method": "PUT",
      "url": "Encounter/bd0e1d60-4057-4b76-a221-65b1941d7b97"
    }
  }, {
    "fullUrl": "https://madie.cms.gov/Patient/f18417e1-5990-40b7-b927-5b50015380a2",
    "resource": {
      "resourceType": "Patient",
      "id": "f18417e1-5990-40b7-b927-5b50015380a2",
      "meta": {
        "profile": [ "http://hl7.org/fhir/us/qicore/StructureDefinition/qicore-patient" ]
      },
      "extension": [ {
        "url": "http://hl7.org/fhir/us/core/StructureDefinition/us-core-race",
        "extension": [ {
          "url": "ombCategory",
          "valueCoding": {
            "system": "urn:oid:2.16.840.1.113883.6.238",
            "code": "2106-3",
            "display": "White"
          }
        }, {
          "url": "text",
          "valueString": "White"
        } ]
      }, {
        "url": "http://hl7.org/fhir/us/core/StructureDefinition/us-core-ethnicity",
        "extension": [ {
          "url": "ombCategory",
          "valueCoding": {
            "system": "urn:oid:2.16.840.1.113883.6.238",
            "code": "2135-2",
            "display": "Hispanic or Latino"
          }
        }, {
          "url": "text",
          "valueString": "Hispanic or Latino"
        } ]
      }, {
        "url": "http://hl7.org/fhir/us/core/StructureDefinition/us-core-sex",
        "valueCode": "248153007"
      } ],
      "identifier": [ {
        "system": "http://hospital.smarthealthit.org",
        "value": "999999999"
      } ],
      "name": [ {
        "family": "Example",
        "given": [ "Patient" ]
      } ],
      "gender": "female",
      "birthDate": "1956-01-01"
    },
    "request": {
      "method": "PUT",
      "url": "Patient/f18417e1-5990-40b7-b927-5b50015380a2"
    }
  }, {
    "fullUrl": "https://madie.cms.gov/Claim/fb9c447f-a5e5-4914-a23c-a16cf493ca14",
    "resource": {
      "resourceType": "Claim",
      "id": "fb9c447f-a5e5-4914-a23c-a16cf493ca14",
      "meta": {
        "profile": [ "http://hl7.org/fhir/us/qicore/StructureDefinition/qicore-claim" ]
      },
      "status": "active",
      "type": {
        "coding": [ {
          "system": "http://terminology.hl7.org/CodeSystem/claim-type",
          "code": "institutional",
          "display": "Institutional"
        } ]
      },
      "use": "claim",
      "patient": {
        "reference": "Patient/f18417e1-5990-40b7-b927-5b50015380a2"
      },
      "created": "2026-10-22",
      "priority": {
        "coding": [ {
          "system": "http://terminology.hl7.org/CodeSystem/processpriority",
          "code": "normal"
        } ]
      },
      "diagnosis": [ {
        "sequence": 1,
        "diagnosisCodeableConcept": {
          "coding": [ {
            "system": "http://snomed.info/sct",
            "code": "14047009"
          } ]
        }
      } ],
      "item": [ {
        "sequence": 1,
        "diagnosisSequence": [ 1, 2 ],
        "encounter": [ {
          "reference": "Encounter/788e8a7e-5c7e-49b1-b6b4-afe1557dd2d3"
        } ]
      } ]
    },
    "request": {
      "method": "PUT",
      "url": "Claim/fb9c447f-a5e5-4914-a23c-a16cf493ca14"
    }
  }, {
    "fullUrl": "https://madie.cms.gov/Claim/83de0bc2-e63c-4a06-8781-2da4b04c01f7",
    "resource": {
      "resourceType": "Claim",
      "id": "83de0bc2-e63c-4a06-8781-2da4b04c01f7",
      "meta": {
        "profile": [ "http://hl7.org/fhir/us/qicore/StructureDefinition/qicore-claim" ]
      },
      "status": "active",
      "type": {
        "coding": [ {
          "system": "http://terminology.hl7.org/CodeSystem/claim-type",
          "code": "institutional",
          "display": "Institutional"
        } ]
      },
      "use": "claim",
      "patient": {
        "reference": "Patient/f18417e1-5990-40b7-b927-5b50015380a2"
      },
      "created": "2026-11-01",
      "provider": {
        "reference": "Organization/Organization-1"
      },
      "priority": {
        "coding": [ {
          "system": "http://terminology.hl7.org/CodeSystem/processpriority",
          "code": "normal"
        } ]
      },
      "diagnosis": [ {
        "sequence": 1,
        "diagnosisCodeableConcept": {
          "coding": [ {
            "system": "http://hl7.org/fhir/sid/icd-10-cm",
            "code": "M80.00XA",
            "display": "Age-related osteoporosis with current pathological fracture, unspecified site, initial encounter for fracture"
          } ]
        }
      } ],
      "item": [ {
        "sequence": 1,
        "diagnosisSequence": [ 1, 2 ],
        "encounter": [ {
          "reference": "Encounter/788e8a7e-5c7e-49b1-b6b4-afe1557dd2d3"
        } ]
      } ]
    },
    "request": {
      "method": "PUT",
      "url": "Claim/83de0bc2-e63c-4a06-8781-2da4b04c01f7"
    }
  }, {
    "fullUrl": "https://madie.cms.gov/MeasureReport/301cfbe9-b5c8-430e-9a76-c2f3101a1681",
    "resource": {
      "resourceType": "MeasureReport",
      "id": "301cfbe9-b5c8-430e-9a76-c2f3101a1681",
      "meta": {
        "profile": [ "http://hl7.org/fhir/us/cqfmeasures/StructureDefinition/test-case-cqfm" ]
      },
      "contained": [ {
        "resourceType": "Parameters",
        "id": "95c8b703-0f63-4ddc-aff8-70db07cf9d68-parameters",
        "parameter": [ {
          "name": "subject",
          "valueString": "f18417e1-5990-40b7-b927-5b50015380a2"
        } ]
      } ],
      "extension": [ {
        "url": "http://hl7.org/fhir/StructureDefinition/cqf-inputParameters",
        "valueReference": {
          "reference": "#95c8b703-0f63-4ddc-aff8-70db07cf9d68-parameters"
        }
      }, {
        "url": "http://hl7.org/fhir/us/cqfmeasures/StructureDefinition/cqfm-testCaseDescription",
        "valueMarkdown": "Test Case - No POA in the bundle"
      } ],
      "modifierExtension": [ {
        "url": "http://hl7.org/fhir/us/cqfmeasures/StructureDefinition/cqfm-isTestCase",
        "valueBoolean": true
      } ],
      "status": "complete",
      "type": "individual",
      "measure": "https://madie.cms.gov/Measure/CMS1017FHIRHHFI",
      "period": {
        "start": "2026-01-01",
        "end": "2026-12-31"
      },
      "group": [ {
        "id": "Group_1",
        "population": [ {
          "id": "InitialPopulation_1",
          "code": {
            "coding": [ {
              "system": "http://terminology.hl7.org/CodeSystem/measure-population",
              "code": "initial-population",
              "display": "Initial Population"
            } ]
          },
          "count": 1
        }, {
          "id": "Denominator_1",
          "code": {
            "coding": [ {
              "system": "http://terminology.hl7.org/CodeSystem/measure-population",
              "code": "denominator",
              "display": "Denominator"
            } ]
          },
          "count": 1
        }, {
          "id": "DenominatorExclusion_1",
          "code": {
            "coding": [ {
              "system": "http://terminology.hl7.org/CodeSystem/measure-population",
              "code": "denominator-exclusion",
              "display": "Denominator Exclusion"
            } ]
          },
          "count": 0
        }, {
          "id": "Numerator_1",
          "code": {
            "coding": [ {
              "system": "http://terminology.hl7.org/CodeSystem/measure-population",
              "code": "numerator",
              "display": "Numerator"
            } ]
          },
          "count": 1
        }, {
          "id": "NumeratorExclusion_1",
          "code": {
            "coding": [ {
              "system": "http://terminology.hl7.org/CodeSystem/measure-population",
              "code": "numerator-exclusion",
              "display": "Numerator Exclusion"
            } ]
          },
          "count": 0
        }, {
          "id": "MeasureObservation_1_1_1",
          "code": {
            "coding": [ {
              "system": "http://terminology.hl7.org/CodeSystem/measure-population",
              "code": "measure-observation",
              "display": "Measure Observation"
            } ]
          },
          "count": 2
        }, {
          "id": "MeasureObservation_1_2_1",
          "code": {
            "coding": [ {
              "system": "http://terminology.hl7.org/CodeSystem/measure-population",
              "code": "measure-observation",
              "display": "Measure Observation"
            } ]
          },
          "count": 1
        } ],
        "measureScore": {
          "value": 0.0
        }
      } ],
      "evaluatedResource": [ {
        "reference": "Encounter/788e8a7e-5c7e-49b1-b6b4-afe1557dd2d3"
      }, {
        "reference": "Encounter/bd0e1d60-4057-4b76-a221-65b1941d7b97"
      }, {
        "reference": "Patient/f18417e1-5990-40b7-b927-5b50015380a2"
      }, {
        "reference": "Claim/fb9c447f-a5e5-4914-a23c-a16cf493ca14"
      }, {
        "reference": "Claim/83de0bc2-e63c-4a06-8781-2da4b04c01f7"
      } ]
    },
    "request": {
      "method": "PUT",
      "url": "MeasureReport/301cfbe9-b5c8-430e-9a76-c2f3101a1681"
    }
  } ]
}