{
  "resourceType": "Bundle",
  "id": "612e6b6b02c62a011f2edaae",
  "type": "transaction",
  "entry": [ {
    "fullUrl": "https://madie.cms.gov/Patient/861fe7f8-9bab-4e23-9b85-419e1aa0b1d8",
    "resource": {
      "resourceType": "Patient",
      "id": "861fe7f8-9bab-4e23-9b85-419e1aa0b1d8",
      "meta": {
        "profile": [ "http://hl7.org/fhir/us/qicore/StructureDefinition/qicore-patient" ]
      },
      "text": {
        "status": "generated",
        "div": "<div xmlns=\"http://www.w3.org/1999/xhtml\"><div class=\"hapiHeaderText\">PrincDxMHWRef <b>DENEXPASS </b></div><table class=\"hapiPropertyTable\"><tbody><tr><td>Identifier</td><td>29c9716eb5f48b54d7b337bf497e0e5e</td></tr><tr><td>Date of birth</td><td><span>01 December 2003</span></td></tr></tbody></table></div>"
      },
      "extension": [ {
        "url": "http://hl7.org/fhir/us/core/StructureDefinition/us-core-race",
        "extension": [ {
          "url": "ombCategory",
          "valueCoding": {
            "system": "urn:oid:2.16.840.1.113883.6.238",
            "code": "1002-5",
            "display": "American Indian or Alaska Native",
            "userSelected": true
          }
        }, {
          "url": "text",
          "valueString": "American Indian or Alaska Native"
        } ]
      }, {
        "url": "http://hl7.org/fhir/us/core/StructureDefinition/us-core-ethnicity",
        "extension": [ {
          "url": "ombCategory",
          "valueCoding": {
            "system": "urn:oid:2.16.840.1.113883.6.238",
            "code": "2135-2",
            "display": "Hispanic or Latino",
            "userSelected": true
          }
        }, {
          "url": "text",
          "valueString": "Hispanic or Latino"
        } ]
      } ],
      "identifier": [ {
        "type": {
          "coding": [ {
            "system": "http://terminology.hl7.org/CodeSystem/v2-0203",
            "code": "MR"
          } ]
        },
        "system": "https://bonnie-fhir.healthit.gov/",
        "value": "612e6b6b02c62a011f2edaae"
      } ],
      "active": true,
      "name": [ {
        "use": "usual",
        "family": "DENEXPass",
        "given": [ "PrincDxMHWRef" ]
      } ],
      "gender": "male",
      "birthDate": "2004-12-01"
    },
    "request": {
      "method": "PUT",
      "url": "Patient/861fe7f8-9bab-4e23-9b85-419e1aa0b1d8"
    }
  }, {
    "fullUrl": "https://madie.cms.gov/Encounter/202183e4-f746-4097-b6e9-73e7ab9b2501",
    "resource": {
      "resourceType": "Encounter",
      "id": "202183e4-f746-4097-b6e9-73e7ab9b2501",
      "meta": {
        "profile": [ "http://hl7.org/fhir/us/qicore/StructureDefinition/qicore-encounter" ]
      },
      "status": "finished",
      "class": {
        "system": "http://terminology.hl7.org/CodeSystem/v3-ActCode",
        "code": "IMP",
        "display": "inpatient encounter"
      },
      "type": [ {
        "coding": [ {
          "system": "http://snomed.info/sct",
          "code": "183452005"
        } ]
      } ],
      "subject": {
        "reference": "Patient/861fe7f8-9bab-4e23-9b85-419e1aa0b1d8"
      },
      "period": {
        "start": "2026-12-01T08:00:00.000+00:00",
        "end": "2026-12-31T23:59:00.000+00:00"
      },
      "length": {
        "value": 30,
        "unit": "days"
      }
    },
    "request": {
      "method": "PUT",
      "url": "Encounter/202183e4-f746-4097-b6e9-73e7ab9b2501"
    }
  }, {
    "fullUrl": "https://madie.cms.gov/claim/5ca62962b8484628b8de1ec5",
    "resource": {
      "resourceType": "Claim",
      "id": "5ca62962b8484628b8de1ec5",
      "meta": {
        "profile": [ "http://hl7.org/fhir/us/qicore/StructureDefinition/qicore-claim" ]
      },
      "status": "active",
      "type": {
        "coding": [ {
          "system": "http://terminology.hl7.org/CodeSystem/claim-type",
          "code": "institutional"
        } ]
      },
      "use": "claim",
      "patient": {
        "reference": "Patient/861fe7f8-9bab-4e23-9b85-419e1aa0b1d8"
      },
      "created": "2026-12-01",
      "provider": {
        "reference": "Practitioner/69db0ab2-7b35-4dfe-a647-d6a001ed26ab"
      },
      "priority": {
        "coding": [ {
          "system": "http://terminology.hl7.org/CodeSystem/processpriority",
          "code": "normal"
        } ]
      },
      "diagnosis": [ {
        "sequence": 1,
        "diagnosisReference": {
          "reference": "Condition/4a0a409b-4d71-44ff-a8f8-26d3e8c936bb"
        },
        "type": [ {
          "coding": [ {
            "system": "http://terminology.hl7.org/CodeSystem/ex-diagnosistype",
            "code": "principal"
          } ]
        } ]
      } ],
      "insurance": [ {
        "sequence": 1,
        "focal": true,
        "coverage": {
          "reference": "Coverage/ee52b552-1734-4aec-af2b-937c8b1595db"
        }
      } ],
      "item": [ {
        "sequence": 1,
        "diagnosisSequence": [ 1 ],
        "productOrService": {
          "coding": [ {
            "system": "http://terminology.hl7.org/CodeSystem/ex-USCLS",
            "code": "99555"
          } ]
        },
        "encounter": [ {
          "reference": "Encounter/202183e4-f746-4097-b6e9-73e7ab9b2501"
        } ]
      } ]
    },
    "request": {
      "method": "PUT",
      "url": "Claim/5ca62962b8484628b8de1ec5"
    }
  }, {
    "fullUrl": "https://madie.cms.gov/Coverage/ee52b552-1734-4aec-af2b-937c8b1595db",
    "resource": {
      "resourceType": "Coverage",
      "id": "ee52b552-1734-4aec-af2b-937c8b1595db",
      "status": "active",
      "beneficiary": {
        "reference": "Patient/861fe7f8-9bab-4e23-9b85-419e1aa0b1d8"
      },
      "period": {
        "start": "2004-12-01T00:00:00.000+00:00"
      },
      "payor": [ {
        "reference": "Organization/4d22e312-dee2-4cc6-ac09-ac3b34167e04"
      } ]
    },
    "request": {
      "method": "PUT",
      "url": "Coverage/ee52b552-1734-4aec-af2b-937c8b1595db"
    }
  }, {
    "fullUrl": "https://madie.cms.gov/Condition/4a0a409b-4d71-44ff-a8f8-26d3e8c936bb",
    "resource": {
      "resourceType": "Condition",
      "id": "4a0a409b-4d71-44ff-a8f8-26d3e8c936bb",
      "meta": {
        "profile": [ "http://hl7.org/fhir/us/qicore/StructureDefinition/qicore-condition-problems-health-concerns" ]
      },
      "category": [ {
        "coding": [ {
          "system": "http://terminology.hl7.org/CodeSystem/condition-category",
          "code": "encounter-diagnosis",
          "display": "Encounter Diagnosis"
        } ]
      } ],
      "code": {
        "coding": [ {
          "system": "http://snomed.info/sct",
          "code": "101421000119107",
          "display": "Dementia due to Parkinson's disease (disorder)",
          "userSelected": true
        } ]
      },
      "subject": {
        "reference": "Patient/861fe7f8-9bab-4e23-9b85-419e1aa0b1d8"
      },
      "recordedDate": "2026-07-13T08:00:00.000+00:00"
    },
    "request": {
      "method": "PUT",
      "url": "Condition/4a0a409b-4d71-44ff-a8f8-26d3e8c936bb"
    }
  }, {
    "fullUrl": "https://madie.cms.gov/Organization/4d22e312-dee2-4cc6-ac09-ac3b34167e04",
    "resource": {
      "resourceType": "Organization",
      "id": "4d22e312-dee2-4cc6-ac09-ac3b34167e04",
      "meta": {
        "profile": [ "http://hl7.org/fhir/us/qicore/StructureDefinition/qicore-organization" ]
      },
      "identifier": [ {
        "use": "temp",
        "system": "urn:oid:2.16.840.1.113883.4.4",
        "value": "21-3259825"
      } ],
      "active": true,
      "type": [ {
        "coding": [ {
          "system": "http://terminology.hl7.org/CodeSystem/organization-type",
          "code": "pay",
          "display": "Payer"
        } ]
      } ],
      "name": "Blue Cross Blue Shield of Texas",
      "telecom": [ {
        "system": "phone",
        "value": "(+1) 972-766-6900"
      } ],
      "address": [ {
        "use": "billing",
        "type": "postal",
        "line": [ "P.O. Box 660044" ],
        "city": "Dallas",
        "state": "TX",
        "postalCode": "75266-0044",
        "country": "USA"
      } ]
    },
    "request": {
      "method": "PUT",
      "url": "Organization/4d22e312-dee2-4cc6-ac09-ac3b34167e04"
    }
  }, {
    "fullUrl": "https://madie.cms.gov/Practitioner/69db0ab2-7b35-4dfe-a647-d6a001ed26ab",
    "resource": {
      "resourceType": "Practitioner",
      "id": "69db0ab2-7b35-4dfe-a647-d6a001ed26ab",
      "identifier": [ {
        "system": "http://hl7.org/fhir/sid/us-npi",
        "value": "123456"
      } ],
      "name": [ {
        "family": "Evil",
        "prefix": [ "Dr" ]
      } ]
    },
    "request": {
      "method": "PUT",
      "url": "Practitioner/69db0ab2-7b35-4dfe-a647-d6a001ed26ab"
    }
  }, {
    "fullUrl": "https://madie.cms.gov/MeasureReport/14cfe705-0553-4af2-bfa9-5807fdb7763e",
    "resource": {
      "resourceType": "MeasureReport",
      "id": "14cfe705-0553-4af2-bfa9-5807fdb7763e",
      "meta": {
        "profile": [ "http://hl7.org/fhir/us/cqfmeasures/StructureDefinition/test-case-cqfm" ]
      },
      "contained": [ {
        "resourceType": "Parameters",
        "id": "2ca34f18-2f52-4c50-83e8-14f8868bcb6f-parameters",
        "parameter": [ {
          "name": "subject",
          "valueString": "861fe7f8-9bab-4e23-9b85-419e1aa0b1d8"
        } ]
      } ],
      "extension": [ {
        "url": "http://hl7.org/fhir/StructureDefinition/cqf-inputParameters",
        "valueReference": {
          "reference": "#2ca34f18-2f52-4c50-83e8-14f8868bcb6f-parameters"
        }
      }, {
        "url": "http://hl7.org/fhir/us/cqfmeasures/StructureDefinition/cqfm-testCaseDescription",
        "valueMarkdown": "Principal Dx of mental health.\n"
      } ],
      "modifierExtension": [ {
        "url": "http://hl7.org/fhir/us/cqfmeasures/StructureDefinition/cqfm-isTestCase",
        "valueBoolean": true
      } ],
      "status": "complete",
      "type": "individual",
      "measure": "https://madie.cms.gov/Measure/CMS108FHIRVTEProphylaxis",
      "period": {
        "start": "2026-01-01",
        "end": "2026-12-31"
      },
      "group": [ {
        "id": "Group_1",
        "population": [ {
          "id": "InitialPopulation_1",
          "code": {
            "coding": [ {
              "system": "http://terminology.hl7.org/CodeSystem/measure-population",
              "code": "initial-population",
              "display": "Initial Population"
            } ]
          },
          "count": 1
        }, {
          "id": "Denominator_1",
          "code": {
            "coding": [ {
              "system": "http://terminology.hl7.org/CodeSystem/measure-population",
              "code": "denominator",
              "display": "Denominator"
            } ]
          },
          "count": 1
        }, {
          "id": "DenominatorExclusion_1",
          "code": {
            "coding": [ {
              "system": "http://terminology.hl7.org/CodeSystem/measure-population",
              "code": "denominator-exclusion",
              "display": "Denominator Exclusion"
            } ]
          },
          "count": 1
        }, {
          "id": "Numerator_1",
          "code": {
            "coding": [ {
              "system": "http://terminology.hl7.org/CodeSystem/measure-population",
              "code": "numerator",
              "display": "Numerator"
            } ]
          },
          "count": 0
        } ],
        "measureScore": {
          "value": 0.0
        }
      } ],
      "evaluatedResource": [ {
        "reference": "Patient/861fe7f8-9bab-4e23-9b85-419e1aa0b1d8"
      }, {
        "reference": "Encounter/202183e4-f746-4097-b6e9-73e7ab9b2501"
      }, {
        "reference": "Claim/5ca62962b8484628b8de1ec5"
      }, {
        "reference": "Coverage/ee52b552-1734-4aec-af2b-937c8b1595db"
      }, {
        "reference": "Condition/4a0a409b-4d71-44ff-a8f8-26d3e8c936bb"
      }, {
        "reference": "Organization/4d22e312-dee2-4cc6-ac09-ac3b34167e04"
      }, {
        "reference": "Practitioner/69db0ab2-7b35-4dfe-a647-d6a001ed26ab"
      } ]
    },
    "request": {
      "method": "PUT",
      "url": "MeasureReport/14cfe705-0553-4af2-bfa9-5807fdb7763e"
    }
  } ]
}