{
  "resourceType": "Bundle",
  "id": "tests-fe79603f-2876-45eb-a9d0-0be56d3d29a1-bundle",
  "type": "transaction",
  "entry": [ {
    "fullUrl": "https://madie.cms.gov/Observation/6e08aeca-6713-4474-ad4e-a1bc09710c4c",
    "resource": {
      "resourceType": "Observation",
      "id": "6e08aeca-6713-4474-ad4e-a1bc09710c4c",
      "meta": {
        "profile": [ "http://hl7.org/fhir/us/qicore/StructureDefinition/qicore-observation-lab" ]
      },
      "status": "final",
      "category": [ {
        "coding": [ {
          "system": "http://terminology.hl7.org/CodeSystem/observation-category",
          "code": "laboratory",
          "display": "Laboratory"
        } ],
        "text": "Laboratory"
      } ],
      "code": {
        "coding": [ {
          "system": "http://loinc.org",
          "code": "2703-7",
          "display": "Oxygen [Partial pressure] in Arterial blood"
        } ],
        "text": "Oxygen [Partial pressure] in Arterial blood"
      },
      "subject": {
        "reference": "Patient/fe79603f-2876-45eb-a9d0-0be56d3d29a1"
      },
      "encounter": {
        "reference": "Encounter/bcdb5da9-05b2-40ba-90d9-5739bbd14652"
      },
      "effectiveDateTime": "2026-04-11T07:59:00.000+00:00",
      "valueQuantity": {
        "value": 48,
        "unit": "mmHg",
        "system": "http://unitsofmeasure.org",
        "code": "mm[Hg]"
      }
    },
    "request": {
      "method": "PUT",
      "url": "Observation/6e08aeca-6713-4474-ad4e-a1bc09710c4c"
    }
  }, {
    "fullUrl": "https://madie.cms.gov/Encounter/187ca7fb-1445-425d-87fd-9a273ff850ba",
    "resource": {
      "resourceType": "Encounter",
      "id": "187ca7fb-1445-425d-87fd-9a273ff850ba",
      "meta": {
        "profile": [ "http://hl7.org/fhir/us/qicore/StructureDefinition/qicore-encounter" ]
      },
      "status": "finished",
      "class": {
        "system": "http://terminology.hl7.org/CodeSystem/v3-ActCode",
        "code": "IMP",
        "display": "inpatient encounter"
      },
      "type": [ {
        "coding": [ {
          "system": "http://snomed.info/sct",
          "code": "112689000",
          "display": "Hospital admission, elective, with complete pre-admission work-up"
        } ],
        "text": "Hospital admission, elective, with complete pre-admission work-up"
      } ],
      "priority": {
        "coding": [ {
          "system": "http://snomed.info/sct",
          "code": "103390000"
        } ]
      },
      "subject": {
        "reference": "Patient/fe79603f-2876-45eb-a9d0-0be56d3d29a1"
      },
      "period": {
        "start": "2026-04-18T08:00:00.000+00:00",
        "end": "2026-04-25T08:15:00.000+00:00"
      },
      "diagnosis": [ {
        "condition": {
          "reference": "Procedure/9dbc0237-0d2c-4a96-95d6-09b59be81f91"
        },
        "rank": 1
      } ]
    },
    "request": {
      "method": "PUT",
      "url": "Encounter/187ca7fb-1445-425d-87fd-9a273ff850ba"
    }
  }, {
    "fullUrl": "https://madie.cms.gov/Patient/fe79603f-2876-45eb-a9d0-0be56d3d29a1",
    "resource": {
      "resourceType": "Patient",
      "id": "fe79603f-2876-45eb-a9d0-0be56d3d29a1",
      "meta": {
        "profile": [ "http://hl7.org/fhir/us/qicore/StructureDefinition/qicore-patient" ]
      },
      "extension": [ {
        "url": "http://hl7.org/fhir/us/core/StructureDefinition/us-core-race",
        "extension": [ {
          "url": "ombCategory",
          "valueCoding": {
            "system": "urn:oid:2.16.840.1.113883.6.238",
            "code": "2054-5",
            "display": "Black or African American",
            "userSelected": true
          }
        }, {
          "url": "text",
          "valueString": "Black or African American"
        } ]
      }, {
        "url": "http://hl7.org/fhir/us/core/StructureDefinition/us-core-ethnicity",
        "extension": [ {
          "url": "ombCategory",
          "valueCoding": {
            "system": "urn:oid:2.16.840.1.113883.6.238",
            "code": "2186-5",
            "display": "Not Hispanic or Latino",
            "userSelected": true
          }
        }, {
          "url": "text",
          "valueString": "Not Hispanic or Latino"
        } ]
      } ],
      "identifier": [ {
        "type": {
          "coding": [ {
            "system": "http://terminology.hl7.org/CodeSystem/v2-0203",
            "code": "MR"
          } ]
        },
        "system": "https://bonnie-fhir.healthit.gov/",
        "value": "61152a3b98086b7a79cbd7c1"
      } ],
      "active": true,
      "name": [ {
        "use": "usual",
        "family": "DENEXFail",
        "given": [ "1EncPaO2Exc2EncNum" ]
      } ],
      "gender": "female",
      "birthDate": "1966-07-12"
    },
    "request": {
      "method": "PUT",
      "url": "Patient/fe79603f-2876-45eb-a9d0-0be56d3d29a1"
    }
  }, {
    "fullUrl": "https://madie.cms.gov/Procedure/d98ed7de-429b-48b6-a3ff-7c8a559bbdfb",
    "resource": {
      "resourceType": "Procedure",
      "id": "d98ed7de-429b-48b6-a3ff-7c8a559bbdfb",
      "meta": {
        "profile": [ "http://hl7.org/fhir/us/qicore/StructureDefinition/qicore-procedure" ]
      },
      "extension": [ {
        "url": "http://hl7.org/fhir/us/qicore/StructureDefinition/qicore-recorded",
        "valueDateTime": "2026-04-20T08:10:00.000+00:00"
      } ],
      "status": "completed",
      "code": {
        "coding": [ {
          "system": "http://www.cms.gov/Medicare/Coding/ICD10",
          "code": "0BH13EZ",
          "display": "Insertion of Endotracheal Airway into Trachea, Percutaneous Approach"
        } ],
        "text": "Insertion of Endotracheal Airway into Trachea, Percutaneous Approach"
      },
      "subject": {
        "reference": "Patient/fe79603f-2876-45eb-a9d0-0be56d3d29a1"
      },
      "performedDateTime": "2026-04-20T08:00:00.000+00:00"
    },
    "request": {
      "method": "PUT",
      "url": "Procedure/d98ed7de-429b-48b6-a3ff-7c8a559bbdfb"
    }
  }, {
    "fullUrl": "https://madie.cms.gov/MeasureReport/c05a5454-d9f0-41c7-b47d-74bd2371f8ce",
    "resource": {
      "resourceType": "MeasureReport",
      "id": "c05a5454-d9f0-41c7-b47d-74bd2371f8ce",
      "meta": {
        "profile": [ "http://hl7.org/fhir/us/cqfmeasures/StructureDefinition/test-case-cqfm" ]
      },
      "contained": [ {
        "resourceType": "Parameters",
        "id": "8ee0746a-12c9-47b5-b3d3-99fbe5203f4f-parameters",
        "parameter": [ {
          "name": "subject",
          "valueString": "fe79603f-2876-45eb-a9d0-0be56d3d29a1"
        } ]
      } ],
      "extension": [ {
        "url": "http://hl7.org/fhir/us/cqfmeasures/StructureDefinition/cqfm-inputParameters",
        "valueReference": {
          "reference": "#8ee0746a-12c9-47b5-b3d3-99fbe5203f4f-parameters"
        }
      }, {
        "url": "http://hl7.org/fhir/us/cqfmeasures/StructureDefinition/cqfm-testCaseDescription",
        "valueMarkdown": "Enc 1: Elective hosp with proc (anesthesia) within first 3 days of encounter. PaO2 <50 and within 48 hours of start of procedure. Meets Exc.\nEnc 2: Intubated outside of OR after first procedure. Meets Num 1. \nExc from enc 1 does not impact enc 2."
      } ],
      "modifierExtension": [ {
        "url": "http://hl7.org/fhir/us/cqfmeasures/StructureDefinition/cqfm-isTestCase",
        "valueBoolean": true
      } ],
      "status": "complete",
      "type": "individual",
      "measure": "https://madie.cms.gov/Measure/CMS1218HHRFFHIR",
      "period": {
        "start": "2026-01-01",
        "end": "2026-12-31"
      },
      "group": [ {
        "id": "67520e47670f1c0879cef598",
        "population": [ {
          "id": "EBD61368-EDA1-4A7F-B134-48A501C47028",
          "code": {
            "coding": [ {
              "system": "http://terminology.hl7.org/CodeSystem/measure-population",
              "code": "initial-population",
              "display": "Initial Population"
            } ]
          },
          "count": 2
        }, {
          "id": "A15EB430-6645-42AC-8FCE-0FF0BF0B4749",
          "code": {
            "coding": [ {
              "system": "http://terminology.hl7.org/CodeSystem/measure-population",
              "code": "denominator",
              "display": "Denominator"
            } ]
          },
          "count": 2
        }, {
          "id": "1389AFF6-741D-47CB-BED0-62D858980EE4",
          "code": {
            "coding": [ {
              "system": "http://terminology.hl7.org/CodeSystem/measure-population",
              "code": "denominator-exclusion",
              "display": "Denominator Exclusion"
            } ]
          },
          "count": 1
        }, {
          "id": "F1D273B8-1513-4C6E-B65F-22FD939174E6",
          "code": {
            "coding": [ {
              "system": "http://terminology.hl7.org/CodeSystem/measure-population",
              "code": "numerator",
              "display": "Numerator"
            } ]
          },
          "count": 1
        } ],
        "measureScore": {
          "value": 0.0
        }
      } ],
      "evaluatedResource": [ {
        "reference": "Encounter/bcdb5da9-05b2-40ba-90d9-5739bbd14652"
      }, {
        "reference": "Encounter/187ca7fb-1445-425d-87fd-9a273ff850ba"
      }, {
        "reference": "Observation/6e08aeca-6713-4474-ad4e-a1bc09710c4c"
      }, {
        "reference": "Patient/fe79603f-2876-45eb-a9d0-0be56d3d29a1"
      }, {
        "reference": "Procedure/2d62731e-b508-4976-bfe8-ca92094488ec"
      }, {
        "reference": "Procedure/9dbc0237-0d2c-4a96-95d6-09b59be81f91"
      }, {
        "reference": "Procedure/d98ed7de-429b-48b6-a3ff-7c8a559bbdfb"
      } ]
    },
    "request": {
      "method": "PUT",
      "url": "MeasureReport/c05a5454-d9f0-41c7-b47d-74bd2371f8ce"
    }
  }, {
    "fullUrl": "https://madie.cms.gov/Procedure/9dbc0237-0d2c-4a96-95d6-09b59be81f91",
    "resource": {
      "resourceType": "Procedure",
      "id": "9dbc0237-0d2c-4a96-95d6-09b59be81f91",
      "meta": {
        "profile": [ "http://hl7.org/fhir/us/qicore/StructureDefinition/qicore-procedure" ]
      },
      "extension": [ {
        "url": "http://hl7.org/fhir/us/qicore/StructureDefinition/qicore-recorded",
        "valueDateTime": "2026-04-19T10:30:00.000+00:00"
      } ],
      "status": "completed",
      "category": {
        "coding": [ {
          "system": "http://snomed.info/sct",
          "code": "18286008",
          "display": "General or neuraxial anesthesia"
        } ]
      },
      "code": {
        "coding": [ {
          "system": "http://snomed.info/sct",
          "code": "112943005",
          "display": "Epidural injection of anesthetic substance, diagnostic, caudal, continuous"
        } ]
      },
      "subject": {
        "reference": "Patient/fe79603f-2876-45eb-a9d0-0be56d3d29a1"
      },
      "performedPeriod": {
        "start": "2026-04-19T08:00:00.000+00:00",
        "end": "2026-04-19T10:15:00.000+00:00"
      }
    },
    "request": {
      "method": "PUT",
      "url": "Procedure/9dbc0237-0d2c-4a96-95d6-09b59be81f91"
    }
  }, {
    "fullUrl": "https://madie.cms.gov/Encounter/bcdb5da9-05b2-40ba-90d9-5739bbd14652",
    "resource": {
      "resourceType": "Encounter",
      "id": "bcdb5da9-05b2-40ba-90d9-5739bbd14652",
      "meta": {
        "profile": [ "http://hl7.org/fhir/us/qicore/StructureDefinition/qicore-encounter" ]
      },
      "status": "finished",
      "class": {
        "system": "http://terminology.hl7.org/CodeSystem/v3-ActCode",
        "code": "IMP",
        "display": "inpatient encounter"
      },
      "type": [ {
        "coding": [ {
          "system": "http://snomed.info/sct",
          "code": "112689000",
          "display": "Hospital admission, elective, with complete pre-admission work-up"
        } ],
        "text": "Hospital admission, elective, with complete pre-admission work-up"
      } ],
      "priority": {
        "coding": [ {
          "system": "http://snomed.info/sct",
          "code": "103390000"
        } ]
      },
      "subject": {
        "reference": "Patient/fe79603f-2876-45eb-a9d0-0be56d3d29a1"
      },
      "period": {
        "start": "2026-04-10T08:00:00.000+00:00",
        "end": "2026-04-14T08:15:00.000+00:00"
      },
      "diagnosis": [ {
        "condition": {
          "reference": "Procedure/2d62731e-b508-4976-bfe8-ca92094488ec"
        },
        "rank": 1
      } ]
    },
    "request": {
      "method": "PUT",
      "url": "Encounter/bcdb5da9-05b2-40ba-90d9-5739bbd14652"
    }
  }, {
    "fullUrl": "https://madie.cms.gov/Procedure/2d62731e-b508-4976-bfe8-ca92094488ec",
    "resource": {
      "resourceType": "Procedure",
      "id": "2d62731e-b508-4976-bfe8-ca92094488ec",
      "meta": {
        "profile": [ "http://hl7.org/fhir/us/qicore/StructureDefinition/qicore-procedure" ]
      },
      "extension": [ {
        "url": "http://hl7.org/fhir/us/qicore/StructureDefinition/qicore-recorded",
        "valueDateTime": "2026-04-11T10:30:00.000+00:00"
      } ],
      "status": "completed",
      "category": {
        "coding": [ {
          "system": "http://snomed.info/sct",
          "code": "18286008",
          "display": "General or neuraxial anesthesia"
        } ]
      },
      "code": {
        "coding": [ {
          "system": "http://snomed.info/sct",
          "code": "112943005",
          "display": "Epidural injection of anesthetic substance, diagnostic, caudal, continuous"
        } ]
      },
      "subject": {
        "reference": "Patient/fe79603f-2876-45eb-a9d0-0be56d3d29a1"
      },
      "performedPeriod": {
        "start": "2026-04-11T08:00:00.000+00:00",
        "end": "2026-04-11T10:15:00.000+00:00"
      }
    },
    "request": {
      "method": "PUT",
      "url": "Procedure/2d62731e-b508-4976-bfe8-ca92094488ec"
    }
  }, {
    "fullUrl": "https://madie.cms.gov/MeasureReport/8e8eddfb-56de-4df8-82d8-8fce026e4c8e",
    "resource": {
      "resourceType": "MeasureReport",
      "id": "8e8eddfb-56de-4df8-82d8-8fce026e4c8e",
      "meta": {
        "profile": [ "http://hl7.org/fhir/us/cqfmeasures/StructureDefinition/test-case-cqfm" ]
      },
      "contained": [ {
        "resourceType": "Parameters",
        "id": "ced1097b-9bcd-4799-acf5-6b778c2761df-parameters",
        "parameter": [ {
          "name": "subject",
          "valueString": "fe79603f-2876-45eb-a9d0-0be56d3d29a1"
        } ]
      } ],
      "extension": [ {
        "url": "http://hl7.org/fhir/StructureDefinition/cqf-inputParameters",
        "valueReference": {
          "reference": "#ced1097b-9bcd-4799-acf5-6b778c2761df-parameters"
        }
      }, {
        "url": "http://hl7.org/fhir/us/cqfmeasures/StructureDefinition/cqfm-testCaseDescription",
        "valueMarkdown": "Enc 1: Elective hosp with proc (anesthesia) within first 3 days of encounter. PaO2 <50 and within 48 hours of start of procedure. Meets Exc.\nEnc 2: Intubated outside of OR after first procedure. Meets Num 1. \nExc from enc 1 does not impact enc 2."
      } ],
      "modifierExtension": [ {
        "url": "http://hl7.org/fhir/us/cqfmeasures/StructureDefinition/cqfm-isTestCase",
        "valueBoolean": true
      } ],
      "status": "complete",
      "type": "individual",
      "measure": "https://madie.cms.gov/Measure/CMS1218FHIRHHRF",
      "period": {
        "start": "2026-01-01",
        "end": "2026-12-31"
      },
      "group": [ {
        "id": "Group_1",
        "population": [ {
          "id": "InitialPopulation_1",
          "code": {
            "coding": [ {
              "system": "http://terminology.hl7.org/CodeSystem/measure-population",
              "code": "initial-population",
              "display": "Initial Population"
            } ]
          },
          "count": 2
        }, {
          "id": "Denominator_1",
          "code": {
            "coding": [ {
              "system": "http://terminology.hl7.org/CodeSystem/measure-population",
              "code": "denominator",
              "display": "Denominator"
            } ]
          },
          "count": 2
        }, {
          "id": "DenominatorExclusion_1",
          "code": {
            "coding": [ {
              "system": "http://terminology.hl7.org/CodeSystem/measure-population",
              "code": "denominator-exclusion",
              "display": "Denominator Exclusion"
            } ]
          },
          "count": 1
        }, {
          "id": "Numerator_1",
          "code": {
            "coding": [ {
              "system": "http://terminology.hl7.org/CodeSystem/measure-population",
              "code": "numerator",
              "display": "Numerator"
            } ]
          },
          "count": 1
        } ],
        "measureScore": {
          "value": 0.0
        }
      } ],
      "evaluatedResource": [ {
        "reference": "Observation/6e08aeca-6713-4474-ad4e-a1bc09710c4c"
      }, {
        "reference": "Encounter/187ca7fb-1445-425d-87fd-9a273ff850ba"
      }, {
        "reference": "Patient/fe79603f-2876-45eb-a9d0-0be56d3d29a1"
      }, {
        "reference": "Procedure/d98ed7de-429b-48b6-a3ff-7c8a559bbdfb"
      }, {
        "reference": "MeasureReport/c05a5454-d9f0-41c7-b47d-74bd2371f8ce"
      }, {
        "reference": "Procedure/9dbc0237-0d2c-4a96-95d6-09b59be81f91"
      }, {
        "reference": "Encounter/bcdb5da9-05b2-40ba-90d9-5739bbd14652"
      }, {
        "reference": "Procedure/2d62731e-b508-4976-bfe8-ca92094488ec"
      } ]
    },
    "request": {
      "method": "PUT",
      "url": "MeasureReport/8e8eddfb-56de-4df8-82d8-8fce026e4c8e"
    }
  } ]
}