{
  "resourceType": "Bundle",
  "id": "612e6b9302c62a011f2ee63c",
  "type": "transaction",
  "entry": [ {
    "fullUrl": "https://madie.cms.gov/Patient/5f739500-ee12-4662-8980-ef95d8fa74c8",
    "resource": {
      "resourceType": "Patient",
      "id": "5f739500-ee12-4662-8980-ef95d8fa74c8",
      "meta": {
        "profile": [ "http://hl7.org/fhir/us/qicore/StructureDefinition/qicore-patient" ]
      },
      "text": {
        "status": "generated",
        "div": "<div xmlns=\"http://www.w3.org/1999/xhtml\"><div class=\"hapiHeaderText\">PtRefDOVFPTaskReject <b>NUMERPASS </b></div><table class=\"hapiPropertyTable\"><tbody><tr><td>Identifier</td><td>24fc1ce85ce14557dd4d9eba17df9f17</td></tr><tr><td>Date of birth</td><td><span>02 January 1974</span></td></tr></tbody></table></div>"
      },
      "extension": [ {
        "url": "http://hl7.org/fhir/us/core/StructureDefinition/us-core-race",
        "extension": [ {
          "url": "ombCategory",
          "valueCoding": {
            "system": "urn:oid:2.16.840.1.113883.6.238",
            "code": "1002-5",
            "display": "American Indian or Alaska Native",
            "userSelected": true
          }
        }, {
          "url": "text",
          "valueString": "American Indian or Alaska Native"
        } ]
      }, {
        "url": "http://hl7.org/fhir/us/core/StructureDefinition/us-core-ethnicity",
        "extension": [ {
          "url": "ombCategory",
          "valueCoding": {
            "system": "urn:oid:2.16.840.1.113883.6.238",
            "code": "2135-2",
            "display": "Hispanic or Latino",
            "userSelected": true
          }
        }, {
          "url": "text",
          "valueString": "Hispanic or Latino"
        } ]
      } ],
      "identifier": [ {
        "type": {
          "coding": [ {
            "system": "http://terminology.hl7.org/CodeSystem/v2-0203",
            "code": "MR"
          } ]
        },
        "system": "https://bonnie-fhir.healthit.gov/",
        "value": "612e6b9302c62a011f2ee63c"
      } ],
      "active": true,
      "name": [ {
        "use": "usual",
        "family": "NUMERPass",
        "given": [ "PtRefDOVFPTaskReject" ]
      } ],
      "gender": "male",
      "birthDate": "1975-01-02"
    },
    "request": {
      "method": "PUT",
      "url": "Patient/5f739500-ee12-4662-8980-ef95d8fa74c8"
    }
  }, {
    "fullUrl": "https://madie.cms.gov/Encounter/c7d5a348-5021-4fd1-ae9e-06a3421d2fb1",
    "resource": {
      "resourceType": "Encounter",
      "id": "c7d5a348-5021-4fd1-ae9e-06a3421d2fb1",
      "meta": {
        "profile": [ "http://hl7.org/fhir/us/qicore/StructureDefinition/qicore-encounter" ]
      },
      "status": "finished",
      "class": {
        "system": "http://terminology.hl7.org/CodeSystem/v3-ActCode",
        "code": "IMP",
        "display": "inpatient encounter"
      },
      "type": [ {
        "coding": [ {
          "system": "http://snomed.info/sct",
          "code": "8715000"
        } ]
      } ],
      "subject": {
        "reference": "Patient/5f739500-ee12-4662-8980-ef95d8fa74c8"
      },
      "period": {
        "start": "2026-11-01T08:00:00.000+00:00",
        "end": "2026-11-26T08:15:00.000+00:00"
      },
      "length": {
        "value": 25,
        "unit": "days"
      }
    },
    "request": {
      "method": "PUT",
      "url": "Encounter/c7d5a348-5021-4fd1-ae9e-06a3421d2fb1"
    }
  }, {
    "fullUrl": "https://madie.cms.gov/Coverage/b59cbf70-0661-4236-bc42-a11dd45d6a0c",
    "resource": {
      "resourceType": "Coverage",
      "id": "b59cbf70-0661-4236-bc42-a11dd45d6a0c",
      "status": "active",
      "beneficiary": {
        "reference": "Patient/5f739500-ee12-4662-8980-ef95d8fa74c8"
      },
      "period": {
        "start": "1975-01-02T08:00:00.000+00:00"
      },
      "payor": [ {
        "reference": "Organization/235a710e-bca4-4cbb-af6b-67c0d1194590"
      } ]
    },
    "request": {
      "method": "PUT",
      "url": "Coverage/b59cbf70-0661-4236-bc42-a11dd45d6a0c"
    }
  }, {
    "fullUrl": "https://madie.cms.gov/Procedure/c82df133-c7a2-4cfe-82ba-bae15671965d",
    "resource": {
      "resourceType": "Procedure",
      "id": "c82df133-c7a2-4cfe-82ba-bae15671965d",
      "meta": {
        "profile": [ "http://hl7.org/fhir/us/qicore/StructureDefinition/qicore-procedure" ]
      },
      "extension": [ {
        "url": "http://hl7.org/fhir/us/qicore/StructureDefinition/qicore-recorded",
        "valueDateTime": "2013-11-03T13:35:00.000+00:00"
      } ],
      "status": "completed",
      "code": {
        "coding": [ {
          "system": "http://www.icd10data.com/icd10pcs",
          "code": "3E030FZ"
        }, {
          "system": "http://snomed.info/sct",
          "code": "18946005"
        } ]
      },
      "subject": {
        "reference": "Patient/5f739500-ee12-4662-8980-ef95d8fa74c8"
      },
      "performedPeriod": {
        "start": "2026-11-02T09:00:00.000+00:00",
        "end": "2026-11-02T09:15:00.000+00:00"
      }
    },
    "request": {
      "method": "PUT",
      "url": "Procedure/c82df133-c7a2-4cfe-82ba-bae15671965d"
    }
  }, {
    "fullUrl": "https://madie.cms.gov/ServiceRequest/e55ffd74-244a-4dbc-a9a8-6d61917460ec",
    "resource": {
      "resourceType": "ServiceRequest",
      "id": "e55ffd74-244a-4dbc-a9a8-6d61917460ec",
      "meta": {
        "profile": [ "http://hl7.org/fhir/us/qicore/StructureDefinition/qicore-servicerequest" ]
      },
      "status": "active",
      "intent": "order",
      "doNotPerform": true,
      "code": {
        "coding": [ {
          "system": "http://snomed.info/sct",
          "version": "2025-03",
          "code": "442023007"
        } ]
      },
      "subject": {
        "reference": "Patient/5f739500-ee12-4662-8980-ef95d8fa74c8"
      },
      "authoredOn": "2026-11-02T11:00:00.000+00:00"
    },
    "request": {
      "method": "PUT",
      "url": "ServiceRequest/e55ffd74-244a-4dbc-a9a8-6d61917460ec"
    }
  }, {
    "fullUrl": "https://madie.cms.gov/Task/6a34381f-7a86-4528-8abc-82a90abac6c7",
    "resource": {
      "resourceType": "Task",
      "id": "6a34381f-7a86-4528-8abc-82a90abac6c7",
      "meta": {
        "profile": [ "http://hl7.org/fhir/us/qicore/StructureDefinition/qicore-taskrejected" ]
      },
      "status": "rejected",
      "statusReason": {
        "coding": [ {
          "system": "http://snomed.info/sct",
          "code": "443390004",
          "display": "Refusal of treatment by patient (situation)",
          "userSelected": true
        } ]
      },
      "code": {
        "coding": [ {
          "system": "http://hl7.org/fhir/CodeSystem/task-code",
          "code": "fulfill"
        } ]
      },
      "focus": {
        "reference": "ServiceRequest/e55ffd74-244a-4dbc-a9a8-6d61917460ec"
      },
      "executionPeriod": {
        "start": "2026-11-02T11:30:00.000+00:00",
        "end": "2026-11-02T11:35:00.000+00:00"
      }
    },
    "request": {
      "method": "PUT",
      "url": "Task/6a34381f-7a86-4528-8abc-82a90abac6c7"
    }
  }, {
    "fullUrl": "https://madie.cms.gov/Organization/235a710e-bca4-4cbb-af6b-67c0d1194590",
    "resource": {
      "resourceType": "Organization",
      "id": "235a710e-bca4-4cbb-af6b-67c0d1194590",
      "meta": {
        "profile": [ "http://hl7.org/fhir/us/qicore/StructureDefinition/qicore-organization" ]
      },
      "identifier": [ {
        "use": "temp",
        "system": "urn:oid:2.16.840.1.113883.4.4",
        "value": "21-3259825"
      } ],
      "active": true,
      "type": [ {
        "coding": [ {
          "system": "http://terminology.hl7.org/CodeSystem/organization-type",
          "code": "pay",
          "display": "Payer"
        } ]
      } ],
      "name": "Blue Cross Blue Shield of Texas",
      "telecom": [ {
        "system": "phone",
        "value": "(+1) 972-766-6900"
      } ],
      "address": [ {
        "use": "billing",
        "type": "postal",
        "line": [ "P.O. Box 660044" ],
        "city": "Dallas",
        "state": "TX",
        "postalCode": "75266-0044",
        "country": "USA"
      } ]
    },
    "request": {
      "method": "PUT",
      "url": "Organization/235a710e-bca4-4cbb-af6b-67c0d1194590"
    }
  }, {
    "fullUrl": "https://madie.cms.gov/Practitioner/7babb553-3c64-4034-adf6-c912ab5d371f",
    "resource": {
      "resourceType": "Practitioner",
      "id": "7babb553-3c64-4034-adf6-c912ab5d371f",
      "identifier": [ {
        "system": "http://hl7.org/fhir/sid/us-npi",
        "value": "123456"
      } ],
      "name": [ {
        "family": "Evil",
        "prefix": [ "Dr" ]
      } ]
    },
    "request": {
      "method": "PUT",
      "url": "Practitioner/7babb553-3c64-4034-adf6-c912ab5d371f"
    }
  }, {
    "fullUrl": "https://madie.cms.gov/MeasureReport/874bb468-162f-424e-9024-8c1b4f4d6af2",
    "resource": {
      "resourceType": "MeasureReport",
      "id": "874bb468-162f-424e-9024-8c1b4f4d6af2",
      "meta": {
        "profile": [ "http://hl7.org/fhir/us/cqfmeasures/StructureDefinition/test-case-cqfm" ]
      },
      "contained": [ {
        "resourceType": "Parameters",
        "id": "f86c599f-6cfd-473f-af28-a4483fb61e89-parameters",
        "parameter": [ {
          "name": "subject",
          "valueString": "5f739500-ee12-4662-8980-ef95d8fa74c8"
        } ]
      } ],
      "extension": [ {
        "url": "http://hl7.org/fhir/StructureDefinition/cqf-inputParameters",
        "valueReference": {
          "reference": "#f86c599f-6cfd-473f-af28-a4483fb61e89-parameters"
        }
      }, {
        "url": "http://hl7.org/fhir/us/cqfmeasures/StructureDefinition/cqfm-testCaseDescription",
        "valueMarkdown": "patient refused IPC order  rejected on 1 day after start of IP encounter and same day with Aneth\n"
      } ],
      "modifierExtension": [ {
        "url": "http://hl7.org/fhir/us/cqfmeasures/StructureDefinition/cqfm-isTestCase",
        "valueBoolean": true
      } ],
      "status": "complete",
      "type": "individual",
      "measure": "https://madie.cms.gov/Measure/CMS108FHIRVTEProphylaxis",
      "period": {
        "start": "2026-01-01",
        "end": "2026-12-31"
      },
      "group": [ {
        "id": "Group_1",
        "population": [ {
          "id": "InitialPopulation_1",
          "code": {
            "coding": [ {
              "system": "http://terminology.hl7.org/CodeSystem/measure-population",
              "code": "initial-population",
              "display": "Initial Population"
            } ]
          },
          "count": 1
        }, {
          "id": "Denominator_1",
          "code": {
            "coding": [ {
              "system": "http://terminology.hl7.org/CodeSystem/measure-population",
              "code": "denominator",
              "display": "Denominator"
            } ]
          },
          "count": 1
        }, {
          "id": "DenominatorExclusion_1",
          "code": {
            "coding": [ {
              "system": "http://terminology.hl7.org/CodeSystem/measure-population",
              "code": "denominator-exclusion",
              "display": "Denominator Exclusion"
            } ]
          },
          "count": 0
        }, {
          "id": "Numerator_1",
          "code": {
            "coding": [ {
              "system": "http://terminology.hl7.org/CodeSystem/measure-population",
              "code": "numerator",
              "display": "Numerator"
            } ]
          },
          "count": 1
        } ],
        "measureScore": {
          "value": 0.0
        }
      } ],
      "evaluatedResource": [ {
        "reference": "Patient/5f739500-ee12-4662-8980-ef95d8fa74c8"
      }, {
        "reference": "Encounter/c7d5a348-5021-4fd1-ae9e-06a3421d2fb1"
      }, {
        "reference": "Coverage/b59cbf70-0661-4236-bc42-a11dd45d6a0c"
      }, {
        "reference": "Procedure/c82df133-c7a2-4cfe-82ba-bae15671965d"
      }, {
        "reference": "ServiceRequest/e55ffd74-244a-4dbc-a9a8-6d61917460ec"
      }, {
        "reference": "Task/6a34381f-7a86-4528-8abc-82a90abac6c7"
      }, {
        "reference": "Organization/235a710e-bca4-4cbb-af6b-67c0d1194590"
      }, {
        "reference": "Practitioner/7babb553-3c64-4034-adf6-c912ab5d371f"
      } ]
    },
    "request": {
      "method": "PUT",
      "url": "MeasureReport/874bb468-162f-424e-9024-8c1b4f4d6af2"
    }
  } ]
}