{
  "resourceType": "Bundle",
  "id": "612e6b0d02c62a011f2ec3b3",
  "type": "transaction",
  "entry": [ {
    "fullUrl": "https://madie.cms.gov/Patient/3c35a3b2-736b-43e8-8514-43f5caa382ac",
    "resource": {
      "resourceType": "Patient",
      "id": "3c35a3b2-736b-43e8-8514-43f5caa382ac",
      "meta": {
        "profile": [ "http://hl7.org/fhir/us/qicore/StructureDefinition/qicore-patient" ]
      },
      "text": {
        "status": "generated",
        "div": "<div xmlns=\"http://www.w3.org/1999/xhtml\"><div class=\"hapiHeaderText\">SCIP_Neuro_Rank2 <b>DENEXFAIL </b></div><table class=\"hapiPropertyTable\"><tbody><tr><td>Identifier</td><td>66c70c125db369967b4b164e75338304</td></tr><tr><td>Date of birth</td><td><span>01 September 2000</span></td></tr></tbody></table></div>"
      },
      "extension": [ {
        "url": "http://hl7.org/fhir/us/core/StructureDefinition/us-core-race",
        "extension": [ {
          "url": "ombCategory",
          "valueCoding": {
            "system": "urn:oid:2.16.840.1.113883.6.238",
            "code": "1002-5",
            "display": "American Indian or Alaska Native",
            "userSelected": true
          }
        }, {
          "url": "text",
          "valueString": "American Indian or Alaska Native"
        } ]
      }, {
        "url": "http://hl7.org/fhir/us/core/StructureDefinition/us-core-ethnicity",
        "extension": [ {
          "url": "ombCategory",
          "valueCoding": {
            "system": "urn:oid:2.16.840.1.113883.6.238",
            "code": "2135-2",
            "display": "Hispanic or Latino",
            "userSelected": true
          }
        }, {
          "url": "text",
          "valueString": "Hispanic or Latino"
        } ]
      } ],
      "identifier": [ {
        "type": {
          "coding": [ {
            "system": "http://terminology.hl7.org/CodeSystem/v2-0203",
            "code": "MR"
          } ]
        },
        "system": "https://bonnie-fhir.healthit.gov/",
        "value": "612e6b0d02c62a011f2ec3b3"
      } ],
      "active": true,
      "name": [ {
        "use": "usual",
        "family": "DENEXFail ",
        "given": [ "SCIPNeuroRank2" ]
      } ],
      "gender": "male",
      "birthDate": "2001-09-01"
    },
    "request": {
      "method": "PUT",
      "url": "Patient/3c35a3b2-736b-43e8-8514-43f5caa382ac"
    }
  }, {
    "fullUrl": "https://madie.cms.gov/Encounter/ca3f1ccc-bbf8-441b-b7b9-930c7eb2a4ec",
    "resource": {
      "resourceType": "Encounter",
      "id": "ca3f1ccc-bbf8-441b-b7b9-930c7eb2a4ec",
      "meta": {
        "profile": [ "http://hl7.org/fhir/us/qicore/StructureDefinition/qicore-encounter" ]
      },
      "extension": [ {
        "url": "http://hl7.org/fhir/us/qicore/StructureDefinition/qicore-encounter-procedure",
        "extension": [ {
          "url": "type",
          "valueCodeableConcept": {
            "coding": [ {
              "system": "http://www.cms.gov/Medicare/Coding/ICD10",
              "code": "0W910ZZ",
              "display": "Drainage of Cranial Cavity, Open Approach"
            } ]
          }
        }, {
          "url": "rank",
          "valuePositiveInt": 2
        }, {
          "url": "procedure",
          "valueReference": {
            "reference": "Procedure/0d0e3774-e877-47eb-86e2-b4fc7b0af183"
          }
        } ]
      } ],
      "status": "finished",
      "class": {
        "system": "http://terminology.hl7.org/CodeSystem/v3-ActCode",
        "code": "IMP",
        "display": "inpatient encounter"
      },
      "type": [ {
        "coding": [ {
          "system": "http://snomed.info/sct",
          "code": "183452005"
        } ]
      } ],
      "subject": {
        "reference": "Patient/3c35a3b2-736b-43e8-8514-43f5caa382ac"
      },
      "period": {
        "start": "2026-09-02T06:00:00.000+00:00",
        "end": "2026-12-31T10:00:00.000+00:00"
      },
      "length": {
        "value": 120,
        "unit": "days"
      }
    },
    "request": {
      "method": "PUT",
      "url": "Encounter/ca3f1ccc-bbf8-441b-b7b9-930c7eb2a4ec"
    }
  }, {
    "fullUrl": "https://madie.cms.gov/claim/5ca62962b8484628b8de1ec5",
    "resource": {
      "resourceType": "Claim",
      "id": "5ca62962b8484628b8de1ec5",
      "meta": {
        "profile": [ "http://hl7.org/fhir/us/qicore/StructureDefinition/qicore-claim" ]
      },
      "status": "active",
      "type": {
        "coding": [ {
          "system": "http://terminology.hl7.org/CodeSystem/claim-type",
          "code": "institutional"
        } ]
      },
      "use": "claim",
      "patient": {
        "reference": "Patient/3c35a3b2-736b-43e8-8514-43f5caa382ac"
      },
      "created": "2026-12-01",
      "provider": {
        "reference": "Practitioner/cfbe720a-45bd-4afc-87f7-5475d9f7f944"
      },
      "priority": {
        "coding": [ {
          "system": "http://terminology.hl7.org/CodeSystem/processpriority",
          "code": "normal"
        } ]
      },
      "procedure": [ {
        "sequence": 2,
        "type": [ {
          "coding": [ {
            "system": "http://terminology.hl7.org/CodeSystem/ex-procedure-type",
            "code": "secondary"
          } ]
        } ],
        "procedureCodeableConcept": {
          "coding": [ {
            "system": "http://www.cms.gov/Medicare/Coding/ICD10",
            "code": "0W910ZZ"
          } ]
        }
      } ],
      "insurance": [ {
        "sequence": 1,
        "focal": true,
        "coverage": {
          "reference": "Coverage/b672f7e1-56fe-48fb-b92c-4a41fca37480"
        }
      } ],
      "item": [ {
        "sequence": 1,
        "procedureSequence": [ 1 ],
        "productOrService": {
          "coding": [ {
            "system": "http://terminology.hl7.org/CodeSystem/ex-USCLS",
            "code": "99555"
          } ]
        },
        "encounter": [ {
          "reference": "Encounter/ca3f1ccc-bbf8-441b-b7b9-930c7eb2a4ec"
        } ]
      } ]
    },
    "request": {
      "method": "PUT",
      "url": "Claim/5ca62962b8484628b8de1ec5"
    }
  }, {
    "fullUrl": "https://madie.cms.gov/Coverage/b672f7e1-56fe-48fb-b92c-4a41fca37480",
    "resource": {
      "resourceType": "Coverage",
      "id": "b672f7e1-56fe-48fb-b92c-4a41fca37480",
      "status": "active",
      "beneficiary": {
        "reference": "Patient/3c35a3b2-736b-43e8-8514-43f5caa382ac"
      },
      "period": {
        "start": "2001-09-01T08:00:00.000+00:00"
      },
      "payor": [ {
        "reference": "Organization/9e8a593a-b6f8-4005-a266-436c12c401cc"
      } ]
    },
    "request": {
      "method": "PUT",
      "url": "Coverage/b672f7e1-56fe-48fb-b92c-4a41fca37480"
    }
  }, {
    "fullUrl": "https://madie.cms.gov/Procedure/0d0e3774-e877-47eb-86e2-b4fc7b0af183",
    "resource": {
      "resourceType": "Procedure",
      "id": "0d0e3774-e877-47eb-86e2-b4fc7b0af183",
      "meta": {
        "profile": [ "http://hl7.org/fhir/us/qicore/StructureDefinition/qicore-procedure" ]
      },
      "extension": [ {
        "url": "http://hl7.org/fhir/us/qicore/StructureDefinition/qicore-recorded",
        "valueDateTime": "2013-12-04T13:35:00.000+00:00"
      } ],
      "status": "completed",
      "code": {
        "coding": [ {
          "system": "http://www.cms.gov/Medicare/Coding/ICD10",
          "code": "0W910ZZ",
          "display": "Drainage of Cranial Cavity, Open Approach"
        } ]
      },
      "subject": {
        "reference": "Patient/3c35a3b2-736b-43e8-8514-43f5caa382ac"
      },
      "performedPeriod": {
        "start": "2026-09-02T20:00:00.000+00:00",
        "end": "2026-09-02T23:10:00.000+00:00"
      }
    },
    "request": {
      "method": "PUT",
      "url": "Procedure/0d0e3774-e877-47eb-86e2-b4fc7b0af183"
    }
  }, {
    "fullUrl": "https://madie.cms.gov/Organization/9e8a593a-b6f8-4005-a266-436c12c401cc",
    "resource": {
      "resourceType": "Organization",
      "id": "9e8a593a-b6f8-4005-a266-436c12c401cc",
      "meta": {
        "profile": [ "http://hl7.org/fhir/us/qicore/StructureDefinition/qicore-organization" ]
      },
      "identifier": [ {
        "use": "temp",
        "system": "urn:oid:2.16.840.1.113883.4.4",
        "value": "21-3259825"
      } ],
      "active": true,
      "type": [ {
        "coding": [ {
          "system": "http://terminology.hl7.org/CodeSystem/organization-type",
          "code": "pay",
          "display": "Payer"
        } ]
      } ],
      "name": "Blue Cross Blue Shield of Texas",
      "telecom": [ {
        "system": "phone",
        "value": "(+1) 972-766-6900"
      } ],
      "address": [ {
        "use": "billing",
        "type": "postal",
        "line": [ "P.O. Box 660044" ],
        "city": "Dallas",
        "state": "TX",
        "postalCode": "75266-0044",
        "country": "USA"
      } ]
    },
    "request": {
      "method": "PUT",
      "url": "Organization/9e8a593a-b6f8-4005-a266-436c12c401cc"
    }
  }, {
    "fullUrl": "https://madie.cms.gov/Practitioner/cfbe720a-45bd-4afc-87f7-5475d9f7f944",
    "resource": {
      "resourceType": "Practitioner",
      "id": "cfbe720a-45bd-4afc-87f7-5475d9f7f944",
      "identifier": [ {
        "system": "http://hl7.org/fhir/sid/us-npi",
        "value": "123456"
      } ],
      "name": [ {
        "family": "Evil",
        "prefix": [ "Dr" ]
      } ]
    },
    "request": {
      "method": "PUT",
      "url": "Practitioner/cfbe720a-45bd-4afc-87f7-5475d9f7f944"
    }
  }, {
    "fullUrl": "https://madie.cms.gov/MeasureReport/535cab93-7ff1-44cc-ade1-beb1c501bb55",
    "resource": {
      "resourceType": "MeasureReport",
      "id": "535cab93-7ff1-44cc-ade1-beb1c501bb55",
      "meta": {
        "profile": [ "http://hl7.org/fhir/us/cqfmeasures/StructureDefinition/test-case-cqfm" ]
      },
      "contained": [ {
        "resourceType": "Parameters",
        "id": "a519187f-5dc6-429c-b6eb-996f7baf9dd1-parameters",
        "parameter": [ {
          "name": "subject",
          "valueString": "3c35a3b2-736b-43e8-8514-43f5caa382ac"
        } ]
      } ],
      "extension": [ {
        "url": "http://hl7.org/fhir/StructureDefinition/cqf-inputParameters",
        "valueReference": {
          "reference": "#a519187f-5dc6-429c-b6eb-996f7baf9dd1-parameters"
        }
      }, {
        "url": "http://hl7.org/fhir/us/cqfmeasures/StructureDefinition/cqfm-testCaseDescription",
        "valueMarkdown": "Patient had SCIP -Neuro during Encounter with Rank is 2 (No rank is not allowed due to QIcroe)\n"
      } ],
      "modifierExtension": [ {
        "url": "http://hl7.org/fhir/us/cqfmeasures/StructureDefinition/cqfm-isTestCase",
        "valueBoolean": true
      } ],
      "status": "complete",
      "type": "individual",
      "measure": "https://madie.cms.gov/Measure/CMS108FHIRVTEProphylaxis",
      "period": {
        "start": "2026-01-01",
        "end": "2026-12-31"
      },
      "group": [ {
        "id": "Group_1",
        "population": [ {
          "id": "InitialPopulation_1",
          "code": {
            "coding": [ {
              "system": "http://terminology.hl7.org/CodeSystem/measure-population",
              "code": "initial-population",
              "display": "Initial Population"
            } ]
          },
          "count": 1
        }, {
          "id": "Denominator_1",
          "code": {
            "coding": [ {
              "system": "http://terminology.hl7.org/CodeSystem/measure-population",
              "code": "denominator",
              "display": "Denominator"
            } ]
          },
          "count": 1
        }, {
          "id": "DenominatorExclusion_1",
          "code": {
            "coding": [ {
              "system": "http://terminology.hl7.org/CodeSystem/measure-population",
              "code": "denominator-exclusion",
              "display": "Denominator Exclusion"
            } ]
          },
          "count": 0
        }, {
          "id": "Numerator_1",
          "code": {
            "coding": [ {
              "system": "http://terminology.hl7.org/CodeSystem/measure-population",
              "code": "numerator",
              "display": "Numerator"
            } ]
          },
          "count": 0
        } ],
        "measureScore": {
          "value": 0.0
        }
      } ],
      "evaluatedResource": [ {
        "reference": "Patient/3c35a3b2-736b-43e8-8514-43f5caa382ac"
      }, {
        "reference": "Encounter/ca3f1ccc-bbf8-441b-b7b9-930c7eb2a4ec"
      }, {
        "reference": "Claim/5ca62962b8484628b8de1ec5"
      }, {
        "reference": "Coverage/b672f7e1-56fe-48fb-b92c-4a41fca37480"
      }, {
        "reference": "Procedure/0d0e3774-e877-47eb-86e2-b4fc7b0af183"
      }, {
        "reference": "Organization/9e8a593a-b6f8-4005-a266-436c12c401cc"
      }, {
        "reference": "Practitioner/cfbe720a-45bd-4afc-87f7-5475d9f7f944"
      } ]
    },
    "request": {
      "method": "PUT",
      "url": "MeasureReport/535cab93-7ff1-44cc-ade1-beb1c501bb55"
    }
  } ]
}