{
  "resourceType": "Bundle",
  "id": "tests-ddb3bc0c-5130-433b-af9c-a8af106aecab-bundle",
  "type": "transaction",
  "entry": [ {
    "fullUrl": "https://madie.cms.gov/Patient/ddb3bc0c-5130-433b-af9c-a8af106aecab",
    "resource": {
      "resourceType": "Patient",
      "id": "ddb3bc0c-5130-433b-af9c-a8af106aecab",
      "meta": {
        "profile": [ "http://hl7.org/fhir/us/qicore/StructureDefinition/qicore-patient" ]
      },
      "extension": [ {
        "url": "http://hl7.org/fhir/us/core/StructureDefinition/us-core-race",
        "extension": [ {
          "url": "ombCategory",
          "valueCoding": {
            "system": "urn:oid:2.16.840.1.113883.6.238",
            "code": "2028-9",
            "display": "Asian",
            "userSelected": true
          }
        }, {
          "url": "text",
          "valueString": "Asian"
        } ]
      }, {
        "url": "http://hl7.org/fhir/us/core/StructureDefinition/us-core-ethnicity",
        "extension": [ {
          "url": "ombCategory",
          "valueCoding": {
            "system": "urn:oid:2.16.840.1.113883.6.238",
            "code": "2186-5",
            "display": "Not Hispanic or Latino",
            "userSelected": true
          }
        }, {
          "url": "text",
          "valueString": "Not Hispanic or Latino"
        } ]
      } ],
      "identifier": [ {
        "type": {
          "coding": [ {
            "system": "http://terminology.hl7.org/CodeSystem/v2-0203",
            "code": "MR"
          } ]
        },
        "system": "https://bonnie-fhir.healthit.gov/",
        "value": "61152a3b98086b7a79cbd7c1"
      } ],
      "active": true,
      "name": [ {
        "use": "usual",
        "family": "IPPFail",
        "given": [ "EncHasNoElectiveClassAttr" ]
      } ],
      "gender": "female",
      "birthDate": "1966-04-09"
    },
    "request": {
      "method": "PUT",
      "url": "Patient/ddb3bc0c-5130-433b-af9c-a8af106aecab"
    }
  }, {
    "fullUrl": "https://madie.cms.gov/Encounter/a319f9e2-6358-4c3d-8455-d2b69687b847",
    "resource": {
      "resourceType": "Encounter",
      "id": "a319f9e2-6358-4c3d-8455-d2b69687b847",
      "meta": {
        "profile": [ "http://hl7.org/fhir/us/qicore/StructureDefinition/qicore-encounter" ]
      },
      "status": "finished",
      "class": {
        "system": "http://terminology.hl7.org/CodeSystem/v3-ActCode",
        "code": "PRENC",
        "display": "pre-admission"
      },
      "type": [ {
        "coding": [ {
          "system": "http://snomed.info/sct",
          "code": "112689000"
        } ]
      } ],
      "priority": {
        "coding": [ {
          "system": "http://snomed.info/sct",
          "version": "2023-09",
          "code": "15584006",
          "display": "Hospital admission, elective, with partial pre-admission work-up (procedure)"
        } ]
      },
      "subject": {
        "reference": "Patient/ddb3bc0c-5130-433b-af9c-a8af106aecab"
      },
      "period": {
        "start": "2026-02-02T08:00:00.000+00:00",
        "end": "2026-02-09T10:15:00.000+00:00"
      }
    },
    "request": {
      "method": "PUT",
      "url": "Encounter/a319f9e2-6358-4c3d-8455-d2b69687b847"
    }
  }, {
    "fullUrl": "https://madie.cms.gov/Procedure/8e0dffa7-cb8d-49c9-a0cd-a13bb2ef9452",
    "resource": {
      "resourceType": "Procedure",
      "id": "8e0dffa7-cb8d-49c9-a0cd-a13bb2ef9452",
      "meta": {
        "profile": [ "http://hl7.org/fhir/us/qicore/StructureDefinition/qicore-procedure" ]
      },
      "extension": [ {
        "url": "http://hl7.org/fhir/us/qicore/StructureDefinition/qicore-recorded",
        "valueDateTime": "2026-04-11T10:30:00.000+00:00"
      } ],
      "status": "completed",
      "category": {
        "coding": [ {
          "system": "http://snomed.info/sct",
          "code": "18286008",
          "display": "General or neuraxial anesthesia"
        } ]
      },
      "code": {
        "coding": [ {
          "system": "http://snomed.info/sct",
          "code": "112943005",
          "display": "Epidural injection of anesthetic substance, diagnostic, caudal, continuous"
        } ]
      },
      "subject": {
        "reference": "Patient/ddb3bc0c-5130-433b-af9c-a8af106aecab"
      },
      "performedPeriod": {
        "start": "2026-02-03T08:00:00.000+00:00",
        "end": "2026-02-03T10:15:00.000+00:00"
      }
    },
    "request": {
      "method": "PUT",
      "url": "Procedure/8e0dffa7-cb8d-49c9-a0cd-a13bb2ef9452"
    }
  }, {
    "fullUrl": "https://madie.cms.gov/MeasureReport/e62c323b-5b84-476b-848d-b6c12f59ed06",
    "resource": {
      "resourceType": "MeasureReport",
      "id": "e62c323b-5b84-476b-848d-b6c12f59ed06",
      "meta": {
        "profile": [ "http://hl7.org/fhir/us/cqfmeasures/StructureDefinition/test-case-cqfm" ]
      },
      "contained": [ {
        "resourceType": "Parameters",
        "id": "e0c78994-52ee-4a63-bd4b-c62a78ba55c3-parameters",
        "parameter": [ {
          "name": "subject",
          "valueString": "ddb3bc0c-5130-433b-af9c-a8af106aecab"
        } ]
      } ],
      "extension": [ {
        "url": "http://hl7.org/fhir/StructureDefinition/cqf-inputParameters",
        "valueReference": {
          "reference": "#e0c78994-52ee-4a63-bd4b-c62a78ba55c3-parameters"
        }
      }, {
        "url": "http://hl7.org/fhir/us/cqfmeasures/StructureDefinition/cqfm-testCaseDescription",
        "valueMarkdown": "Inpatient encounter w/surgery on day #2. IPP Fails because not elective. (There is no 'elective' class attribute in the Encounter Performed data element.) "
      } ],
      "modifierExtension": [ {
        "url": "http://hl7.org/fhir/us/cqfmeasures/StructureDefinition/cqfm-isTestCase",
        "valueBoolean": true
      } ],
      "status": "complete",
      "type": "individual",
      "measure": "https://madie.cms.gov/Measure/CMS1218FHIRHHRF",
      "period": {
        "start": "2026-01-01",
        "end": "2026-12-31"
      },
      "group": [ {
        "id": "Group_1",
        "population": [ {
          "id": "InitialPopulation_1",
          "code": {
            "coding": [ {
              "system": "http://terminology.hl7.org/CodeSystem/measure-population",
              "code": "initial-population",
              "display": "Initial Population"
            } ]
          },
          "count": 0
        }, {
          "id": "Denominator_1",
          "code": {
            "coding": [ {
              "system": "http://terminology.hl7.org/CodeSystem/measure-population",
              "code": "denominator",
              "display": "Denominator"
            } ]
          },
          "count": 0
        }, {
          "id": "DenominatorExclusion_1",
          "code": {
            "coding": [ {
              "system": "http://terminology.hl7.org/CodeSystem/measure-population",
              "code": "denominator-exclusion",
              "display": "Denominator Exclusion"
            } ]
          },
          "count": 0
        }, {
          "id": "Numerator_1",
          "code": {
            "coding": [ {
              "system": "http://terminology.hl7.org/CodeSystem/measure-population",
              "code": "numerator",
              "display": "Numerator"
            } ]
          },
          "count": 0
        } ],
        "measureScore": {
          "value": 0.0
        }
      } ],
      "evaluatedResource": [ {
        "reference": "Patient/ddb3bc0c-5130-433b-af9c-a8af106aecab"
      }, {
        "reference": "Encounter/a319f9e2-6358-4c3d-8455-d2b69687b847"
      }, {
        "reference": "Procedure/8e0dffa7-cb8d-49c9-a0cd-a13bb2ef9452"
      } ]
    },
    "request": {
      "method": "PUT",
      "url": "MeasureReport/e62c323b-5b84-476b-848d-b6c12f59ed06"
    }
  } ]
}