{
  "resourceType": "Bundle",
  "id": "4613103634163131",
  "type": "transaction",
  "entry": [ {
    "fullUrl": "https://madie.cms.gov/Patient/b786e9d7-b4ae-4cd1-b7eb-a6d4f789424e",
    "resource": {
      "resourceType": "Patient",
      "id": "b786e9d7-b4ae-4cd1-b7eb-a6d4f789424e",
      "meta": {
        "profile": [ "http://hl7.org/fhir/us/qicore/StructureDefinition/qicore-patient" ]
      },
      "extension": [ {
        "url": "http://hl7.org/fhir/us/core/StructureDefinition/us-core-race",
        "extension": [ {
          "url": "ombCategory",
          "valueCoding": {
            "system": "urn:oid:2.16.840.1.113883.6.238",
            "code": "2076-8",
            "display": "Native Hawaiian or Other Pacific Islander"
          }
        }, {
          "url": "text",
          "valueString": "Native Hawaiian or Other Pacific Islander"
        } ]
      }, {
        "url": "http://hl7.org/fhir/us/core/StructureDefinition/us-core-ethnicity",
        "extension": [ {
          "url": "ombCategory",
          "valueCoding": {
            "system": "urn:oid:2.16.840.1.113883.6.238",
            "code": "2186-5",
            "display": "Not Hispanic or Latino"
          }
        }, {
          "url": "text",
          "valueString": "Not Hispanic or Latino"
        } ]
      } ],
      "identifier": [ {
        "type": {
          "coding": [ {
            "system": "http://terminology.hl7.org/CodeSystem/v2-0203",
            "code": "MR"
          } ]
        },
        "system": "https://bonnie-fhir.healthit.gov/",
        "value": "7843135463165262"
      } ],
      "name": [ {
        "family": "DENEXPass",
        "given": [ "AcuteTBWithStaging" ]
      } ],
      "gender": "female",
      "birthDate": "1947-11-03"
    },
    "request": {
      "method": "PUT",
      "url": "Patient/b786e9d7-b4ae-4cd1-b7eb-a6d4f789424e"
    }
  }, {
    "fullUrl": "https://madie.cms.gov/Encounter/1af6997a-2364-4677-bbbf-1e152631d159",
    "resource": {
      "resourceType": "Encounter",
      "id": "1af6997a-2364-4677-bbbf-1e152631d159",
      "meta": {
        "profile": [ "http://hl7.org/fhir/us/qicore/StructureDefinition/qicore-encounter" ]
      },
      "status": "finished",
      "class": {
        "system": "http://terminology.hl7.org/CodeSystem/v3-ActCode",
        "code": "AMB",
        "display": "ambulatory"
      },
      "type": [ {
        "coding": [ {
          "system": "http://snomed.info/sct",
          "version": "http://snomed.info/sct/731000124108/version/20240301",
          "code": "185463005",
          "display": "Visit out of hours (procedure)"
        } ]
      } ],
      "subject": {
        "reference": "Patient/b786e9d7-b4ae-4cd1-b7eb-a6d4f789424e"
      },
      "period": {
        "start": "2026-04-06T08:00:00.000+00:00",
        "end": "2026-04-06T09:15:00.000+00:00"
      }
    },
    "request": {
      "method": "PUT",
      "url": "Encounter/1af6997a-2364-4677-bbbf-1e152631d159"
    }
  }, {
    "fullUrl": "https://madie.cms.gov/Condition/63a68951-7dc8-4077-a991-a6e5eb791536",
    "resource": {
      "resourceType": "Condition",
      "id": "63a68951-7dc8-4077-a991-a6e5eb791536",
      "meta": {
        "profile": [ "http://hl7.org/fhir/us/qicore/StructureDefinition/qicore-condition-problems-health-concerns" ]
      },
      "clinicalStatus": {
        "coding": [ {
          "system": "http://terminology.hl7.org/CodeSystem/condition-clinical",
          "code": "active",
          "display": "Active"
        } ]
      },
      "verificationStatus": {
        "coding": [ {
          "system": "http://terminology.hl7.org/CodeSystem/condition-ver-status",
          "code": "confirmed",
          "display": "Confirmed"
        } ]
      },
      "category": [ {
        "coding": [ {
          "system": "http://terminology.hl7.org/CodeSystem/condition-category",
          "code": "problem-list-item",
          "display": "Problem List Item"
        } ]
      } ],
      "code": {
        "coding": [ {
          "system": "http://hl7.org/fhir/sid/icd-10-cm",
          "version": "2024",
          "code": "C67.1",
          "display": "Malignant neoplasm of dome of bladder"
        } ]
      },
      "subject": {
        "reference": "Patient/b786e9d7-b4ae-4cd1-b7eb-a6d4f789424e"
      },
      "onsetPeriod": {
        "start": "2026-04-06T08:00:00.000+00:00"
      }
    },
    "request": {
      "method": "PUT",
      "url": "Condition/63a68951-7dc8-4077-a991-a6e5eb791536"
    }
  }, {
    "fullUrl": "https://madie.cms.gov/Condition/068766fc-fa2c-4162-bcd3-329a9e555e3d",
    "resource": {
      "resourceType": "Condition",
      "id": "068766fc-fa2c-4162-bcd3-329a9e555e3d",
      "meta": {
        "profile": [ "http://hl7.org/fhir/us/qicore/StructureDefinition/qicore-condition-problems-health-concerns" ]
      },
      "clinicalStatus": {
        "coding": [ {
          "system": "http://terminology.hl7.org/CodeSystem/condition-clinical",
          "code": "active",
          "display": "Active"
        } ]
      },
      "verificationStatus": {
        "coding": [ {
          "system": "http://terminology.hl7.org/CodeSystem/condition-ver-status",
          "code": "confirmed",
          "display": "Confirmed"
        } ]
      },
      "category": [ {
        "coding": [ {
          "system": "http://terminology.hl7.org/CodeSystem/condition-category",
          "code": "problem-list-item",
          "display": "Problem List Item"
        } ]
      } ],
      "code": {
        "coding": [ {
          "system": "http://snomed.info/sct",
          "version": "http://snomed.info/sct/731000124108/version/20240301",
          "code": "25629007",
          "display": "Acute tuberculosis (disorder)"
        } ]
      },
      "subject": {
        "reference": "Patient/b786e9d7-b4ae-4cd1-b7eb-a6d4f789424e"
      },
      "onsetPeriod": {
        "start": "2026-04-06T08:00:00.000+00:00"
      }
    },
    "request": {
      "method": "PUT",
      "url": "Condition/068766fc-fa2c-4162-bcd3-329a9e555e3d"
    }
  }, {
    "fullUrl": "https://madie.cms.gov/Procedure/895671fc-1be7-418a-aaf4-95e5ff0bd039",
    "resource": {
      "resourceType": "Procedure",
      "id": "895671fc-1be7-418a-aaf4-95e5ff0bd039",
      "meta": {
        "profile": [ "http://hl7.org/fhir/us/qicore/StructureDefinition/qicore-procedure" ]
      },
      "extension": [ {
        "url": "http://hl7.org/fhir/us/qicore/StructureDefinition/qicore-recorded",
        "valueDateTime": "2026-04-06T08:00:00.000+00:00"
      } ],
      "status": "completed",
      "code": {
        "coding": [ {
          "system": "http://snomed.info/sct",
          "version": "http://snomed.info/sct/731000124108/version/20240301",
          "code": "254292007",
          "display": "Tumor staging"
        } ]
      },
      "subject": {
        "reference": "Patient/b786e9d7-b4ae-4cd1-b7eb-a6d4f789424e"
      },
      "performedDateTime": "2026-04-06T08:00:00.000+00:00"
    },
    "request": {
      "method": "PUT",
      "url": "Procedure/895671fc-1be7-418a-aaf4-95e5ff0bd039"
    }
  }, {
    "fullUrl": "https://madie.cms.gov/Observation/3ae3237b-eafd-4263-8c87-cd9f05ea8b72",
    "resource": {
      "resourceType": "Observation",
      "id": "3ae3237b-eafd-4263-8c87-cd9f05ea8b72",
      "meta": {
        "profile": [ "http://hl7.org/fhir/us/qicore/StructureDefinition/qicore-observation-lab" ]
      },
      "partOf": [ {
        "reference": "Procedure/895671fc-1be7-418a-aaf4-95e5ff0bd039"
      } ],
      "status": "final",
      "category": [ {
        "coding": [ {
          "system": "http://terminology.hl7.org/CodeSystem/observation-category",
          "code": "procedure",
          "display": "Procedure"
        } ]
      } ],
      "code": {
        "coding": [ {
          "system": "http://loinc.org",
          "version": "2.76",
          "code": "21902-2",
          "display": "Stage group.pathology Cancer"
        } ]
      },
      "subject": {
        "reference": "Patient/b786e9d7-b4ae-4cd1-b7eb-a6d4f789424e"
      },
      "effectiveDateTime": "2026-04-06T08:00:00.000+00:00",
      "issued": "2026-04-06T08:10:00.000+00:00",
      "valueCodeableConcept": {
        "coding": [ {
          "system": "http://snomed.info/sct",
          "version": "http://snomed.info/sct/731000124108/version/20240301",
          "code": "1228883000",
          "display": "American Joint Committee on Cancer cTa (qualifier value)"
        } ]
      }
    },
    "request": {
      "method": "PUT",
      "url": "Observation/3ae3237b-eafd-4263-8c87-cd9f05ea8b72"
    }
  }, {
    "fullUrl": "https://madie.cms.gov/MeasureReport/b97fc868-2503-48f5-8497-6c28afb2cd68",
    "resource": {
      "resourceType": "MeasureReport",
      "id": "b97fc868-2503-48f5-8497-6c28afb2cd68",
      "meta": {
        "profile": [ "http://hl7.org/fhir/us/cqfmeasures/StructureDefinition/test-case-cqfm" ]
      },
      "contained": [ {
        "resourceType": "Parameters",
        "id": "ea84913b-69e8-4d04-99ec-862f0907cfae-parameters",
        "parameter": [ {
          "name": "subject",
          "valueString": "b786e9d7-b4ae-4cd1-b7eb-a6d4f789424e"
        } ]
      } ],
      "extension": [ {
        "url": "http://hl7.org/fhir/StructureDefinition/cqf-inputParameters",
        "valueReference": {
          "reference": "#ea84913b-69e8-4d04-99ec-862f0907cfae-parameters"
        }
      }, {
        "url": "http://hl7.org/fhir/us/cqfmeasures/StructureDefinition/cqfm-testCaseDescription",
        "valueMarkdown": "Male patient with OV in MP. Bladder cancer diagnosis and cancer staging in MP.  Pt has Active TB dx and should be excluded. Performed as expected. Test of relevantDatetime in staging with TB."
      } ],
      "modifierExtension": [ {
        "url": "http://hl7.org/fhir/us/cqfmeasures/StructureDefinition/cqfm-isTestCase",
        "valueBoolean": true
      } ],
      "status": "complete",
      "type": "individual",
      "measure": "https://madie.cms.gov/Measure/CMS646FHIRIntravesicalBacillusCalmetteGuerinForBladderCancer",
      "period": {
        "start": "2026-01-01",
        "end": "2026-12-31"
      },
      "group": [ {
        "id": "Group_1",
        "population": [ {
          "id": "InitialPopulation_1",
          "code": {
            "coding": [ {
              "system": "http://terminology.hl7.org/CodeSystem/measure-population",
              "code": "initial-population",
              "display": "Initial Population"
            } ]
          },
          "count": 1
        }, {
          "id": "Denominator_1",
          "code": {
            "coding": [ {
              "system": "http://terminology.hl7.org/CodeSystem/measure-population",
              "code": "denominator",
              "display": "Denominator"
            } ]
          },
          "count": 1
        }, {
          "id": "DenominatorExclusion_1",
          "code": {
            "coding": [ {
              "system": "http://terminology.hl7.org/CodeSystem/measure-population",
              "code": "denominator-exclusion",
              "display": "Denominator Exclusion"
            } ]
          },
          "count": 1
        }, {
          "id": "Numerator_1",
          "code": {
            "coding": [ {
              "system": "http://terminology.hl7.org/CodeSystem/measure-population",
              "code": "numerator",
              "display": "Numerator"
            } ]
          },
          "count": 0
        }, {
          "id": "DenominatorException_1",
          "code": {
            "coding": [ {
              "system": "http://terminology.hl7.org/CodeSystem/measure-population",
              "code": "denominator-exception",
              "display": "Denominator Exception"
            } ]
          },
          "count": 0
        } ],
        "measureScore": {
          "value": 1.0
        }
      } ],
      "evaluatedResource": [ {
        "reference": "Patient/b786e9d7-b4ae-4cd1-b7eb-a6d4f789424e"
      }, {
        "reference": "Encounter/1af6997a-2364-4677-bbbf-1e152631d159"
      }, {
        "reference": "Condition/63a68951-7dc8-4077-a991-a6e5eb791536"
      }, {
        "reference": "Condition/068766fc-fa2c-4162-bcd3-329a9e555e3d"
      }, {
        "reference": "Procedure/895671fc-1be7-418a-aaf4-95e5ff0bd039"
      }, {
        "reference": "Observation/3ae3237b-eafd-4263-8c87-cd9f05ea8b72"
      } ]
    },
    "request": {
      "method": "PUT",
      "url": "MeasureReport/b97fc868-2503-48f5-8497-6c28afb2cd68"
    }
  } ]
}