{"resourceType":"Bundle","id":"tests-bc28b32e-1c2f-457c-8c60-f36041a2519b-bundle","type":"transaction","entry":[{"resource":{"resourceType":"Encounter","id":"2eba992d-7235-4cdf-9f58-1243b3ee82e3","meta":{"profile":["http://hl7.org/fhir/us/qicore/StructureDefinition/qicore-encounter"]},"status":"finished","class":{"system":"http://terminology.hl7.org/CodeSystem/v3-ActCode","code":"EMER","display":"emergency"},"type":[{"coding":[{"system":"http://snomed.info/sct","version":"2022-09","code":"4525004","display":"Emergency department patient visit (procedure)","userSelected":true}]}],"subject":{"reference":"Patient/bc28b32e-1c2f-457c-8c60-f36041a2519b"},"period":{"start":"2026-01-31T08:00:00.000+00:00","end":"2026-02-01T08:15:00.000+00:00"}},"request":{"method":"PUT","url":"Encounter/2eba992d-7235-4cdf-9f58-1243b3ee82e3"}},{"resource":{"resourceType":"Claim","id":"0fbec636-034f-4633-b51f-acf306b969f8","meta":{"profile":["http://hl7.org/fhir/us/qicore/StructureDefinition/qicore-claim"]},"status":"active","type":{"coding":[{"system":"http://terminology.hl7.org/CodeSystem/claim-type","code":"professional"}]},"use":"claim","patient":{"reference":"Patient/bc28b32e-1c2f-457c-8c60-f36041a2519b"},"created":"2026-05-16","priority":{"coding":[{"system":"http://terminology.hl7.org/CodeSystem/processpriority","code":"normal"}]},"diagnosis":[{"sequence":1,"diagnosisCodeableConcept":{"coding":[{"system":"http://hl7.org/fhir/sid/icd-10-cm","code":"L89.000","display":"Pressure ulcer of unspecified elbow, unstageable"}]},"type":[{"coding":[{"system":"http://terminology.hl7.org/CodeSystem/ex-diagnosistype","code":"principal"}]}],"onAdmission":{"coding":[{"system":"https://www.cms.gov/Medicare/Medicare-Fee-for-Service-Payment/HospitalAcqCond/Coding","code":"N"}]}}],"item":[{"sequence":1,"diagnosisSequence":[1,5,7],"productOrService":{"coding":[{"system":"http://example.org/fhir/CodeSystem/ex-professionalservice","code":"anesthesia"}]},"servicedDate":"2026-04-11","encounter":[{"reference":"Encounter/ccf49478-a0f2-4658-a637-5e293ea3cd86"}]}]},"request":{"method":"PUT","url":"Claim/0fbec636-034f-4633-b51f-acf306b969f8"}},{"resource":{"resourceType":"Encounter","id":"ccf49478-a0f2-4658-a637-5e293ea3cd86","meta":{"profile":["http://hl7.org/fhir/us/qicore/StructureDefinition/qicore-encounter"]},"status":"finished","class":{"system":"http://terminology.hl7.org/CodeSystem/v3-ActCode","code":"IMP","display":"inpatient encounter"},"type":[{"coding":[{"system":"http://snomed.info/sct","version":"2022-09","code":"183452005","display":"Emergency hospital admission (procedure)","userSelected":true}]}],"subject":{"reference":"Patient/bc28b32e-1c2f-457c-8c60-f36041a2519b"},"period":{"start":"2026-02-01T08:30:00.000+00:00","end":"2026-02-06T08:15:00.000+00:00"}},"request":{"method":"PUT","url":"Encounter/ccf49478-a0f2-4658-a637-5e293ea3cd86"}},{"resource":{"resourceType":"Bundle","id":"tests-NUMERPass-NewUnstageableInjuryPOAisN-bundle","type":"transaction","entry":[{"fullUrl":"https://madie.cms.gov/Claim/0fbec636-034f-4633-b51f-acf306b969f8","resource":{"resourceType":"Claim","id":"0fbec636-034f-4633-b51f-acf306b969f8","meta":{"profile":["http://hl7.org/fhir/us/qicore/StructureDefinition/qicore-claim"]},"status":"active","type":{"coding":[{"system":"http://terminology.hl7.org/CodeSystem/claim-type","code":"professional"}]},"use":"claim","patient":{"reference":"Patient/bc28b32e-1c2f-457c-8c60-f36041a2519b"},"created":"2026-05-16","priority":{"coding":[{"system":"http://terminology.hl7.org/CodeSystem/processpriority","code":"normal"}]},"diagnosis":[{"sequence":1,"diagnosisCodeableConcept":{"coding":[{"system":"http://hl7.org/fhir/sid/icd-10-cm","code":"L89.000","display":"Pressure ulcer of unspecified elbow, unstageable"}]},"type":[{"coding":[{"system":"http://terminology.hl7.org/CodeSystem/ex-diagnosistype","code":"principal"}]}],"onAdmission":{"coding":[{"system":"https://www.cms.gov/Medicare/Medicare-Fee-for-Service-Payment/HospitalAcqCond/Coding","code":"N"}]}}],"item":[{"sequence":1,"diagnosisSequence":[1,5,7],"productOrService":{"coding":[{"system":"http://example.org/fhir/CodeSystem/ex-professionalservice","code":"anesthesia"}]},"servicedDate":"2026-04-11","encounter":[{"reference":"Encounter/ccf49478-a0f2-4658-a637-5e293ea3cd86"}]}]},"request":{"method":"PUT","url":"Claim/0fbec636-034f-4633-b51f-acf306b969f8"}},{"fullUrl":"https://madie.cms.gov/Encounter/ccf49478-a0f2-4658-a637-5e293ea3cd86","resource":{"resourceType":"Encounter","id":"ccf49478-a0f2-4658-a637-5e293ea3cd86","meta":{"profile":["http://hl7.org/fhir/us/qicore/StructureDefinition/qicore-encounter"]},"status":"finished","class":{"system":"http://terminology.hl7.org/CodeSystem/v3-ActCode","code":"IMP","display":"inpatient encounter"},"type":[{"coding":[{"system":"http://snomed.info/sct","version":"2022-09","code":"183452005","display":"Emergency hospital admission (procedure)","userSelected":true}]}],"subject":{"reference":"Patient/bc28b32e-1c2f-457c-8c60-f36041a2519b"},"period":{"start":"2026-02-01T08:30:00.000+00:00","end":"2026-02-06T08:15:00.000+00:00"}},"request":{"method":"PUT","url":"Encounter/ccf49478-a0f2-4658-a637-5e293ea3cd86"}},{"fullUrl":"https://madie.cms.gov/Encounter/2eba992d-7235-4cdf-9f58-1243b3ee82e3","resource":{"resourceType":"Encounter","id":"2eba992d-7235-4cdf-9f58-1243b3ee82e3","meta":{"profile":["http://hl7.org/fhir/us/qicore/StructureDefinition/qicore-encounter"]},"status":"finished","class":{"system":"http://terminology.hl7.org/CodeSystem/v3-ActCode","code":"EMER","display":"emergency"},"type":[{"coding":[{"system":"http://snomed.info/sct","version":"2022-09","code":"4525004","display":"Emergency department patient visit (procedure)","userSelected":true}]}],"subject":{"reference":"Patient/bc28b32e-1c2f-457c-8c60-f36041a2519b"},"period":{"start":"2026-01-31T08:00:00.000+00:00","end":"2026-02-01T08:15:00.000+00:00"}},"request":{"method":"PUT","url":"Encounter/2eba992d-7235-4cdf-9f58-1243b3ee82e3"}},{"fullUrl":"https://madie.cms.gov/Patient/bc28b32e-1c2f-457c-8c60-f36041a2519b","resource":{"resourceType":"Patient","id":"bc28b32e-1c2f-457c-8c60-f36041a2519b","meta":{"profile":["http://hl7.org/fhir/us/qicore/StructureDefinition/qicore-patient"]},"extension":[{"url":"http://hl7.org/fhir/us/core/StructureDefinition/us-core-race","extension":[{"url":"ombCategory","valueCoding":{"system":"urn:oid:2.16.840.1.113883.6.238","code":"2028-9","display":"Asian","userSelected":true}},{"url":"text","valueString":"Asian"}]},{"url":"http://hl7.org/fhir/us/core/StructureDefinition/us-core-ethnicity","extension":[{"url":"ombCategory","valueCoding":{"system":"urn:oid:2.16.840.1.113883.6.238","code":"2186-5","display":"Not Hispanic or Latino","userSelected":true}},{"url":"text","valueString":"Not Hispanic or Latino"}]}],"identifier":[{"type":{"coding":[{"system":"http://terminology.hl7.org/CodeSystem/v2-0203","code":"MR"}]},"system":"https://bonnie-fhir.healthit.gov/","value":"647f51ab5e6d159b6e36ee31"}],"name":[{"family":"NUMERPass","given":["IPEncounterWithNewUnstageableNotPOAIndicator"]}],"gender":"other","birthDate":"2006-02-01"},"request":{"method":"PUT","url":"Patient/bc28b32e-1c2f-457c-8c60-f36041a2519b"}},{"fullUrl":"https://madie.cms.gov/MeasureReport/63399e40-a4c1-4778-a836-1154f0dbab8c","resource":{"resourceType":"MeasureReport","id":"63399e40-a4c1-4778-a836-1154f0dbab8c","meta":{"profile":["http://hl7.org/fhir/us/cqfmeasures/StructureDefinition/test-case-cqfm"]},"contained":[{"resourceType":"Parameters","id":"03c1f00c-3e26-4727-ad84-1e993499a0a9-parameters","parameter":[{"name":"subject","valueString":"bc28b32e-1c2f-457c-8c60-f36041a2519b"}]}],"extension":[{"url":"http://hl7.org/fhir/StructureDefinition/cqf-inputParameters","valueReference":{"reference":"#03c1f00c-3e26-4727-ad84-1e993499a0a9-parameters"}},{"url":"http://hl7.org/fhir/us/cqfmeasures/StructureDefinition/cqfm-testCaseDescription","valueMarkdown":"Inpatient encounter during MP.  New unstageable PI by encounter diagnosis with POA indicator = N. Numerator Pass."}],"modifierExtension":[{"url":"http://hl7.org/fhir/us/cqfmeasures/StructureDefinition/cqfm-isTestCase","valueBoolean":true}],"status":"complete","type":"individual","measure":"https://madie.cms.gov/Measure/CMS826FHIRHHPI","period":{"start":"2026-01-01","end":"2026-12-31"},"group":[{"id":"Group_1","population":[{"id":"InitialPopulation_1","code":{"coding":[{"system":"http://terminology.hl7.org/CodeSystem/measure-population","code":"initial-population","display":"Initial Population"}]},"count":1},{"id":"Denominator_1","code":{"coding":[{"system":"http://terminology.hl7.org/CodeSystem/measure-population","code":"denominator","display":"Denominator"}]},"count":1},{"id":"DenominatorExclusion_1","code":{"coding":[{"system":"http://terminology.hl7.org/CodeSystem/measure-population","code":"denominator-exclusion","display":"Denominator Exclusion"}]},"count":0},{"id":"Numerator_1","code":{"coding":[{"system":"http://terminology.hl7.org/CodeSystem/measure-population","code":"numerator","display":"Numerator"}]},"count":1}],"measureScore":{"value":0.0}}],"evaluatedResource":[{"reference":"Claim/0fbec636-034f-4633-b51f-acf306b969f8"},{"reference":"Encounter/ccf49478-a0f2-4658-a637-5e293ea3cd86"},{"reference":"Encounter/2eba992d-7235-4cdf-9f58-1243b3ee82e3"},{"reference":"Patient/bc28b32e-1c2f-457c-8c60-f36041a2519b"}]},"request":{"method":"PUT","url":"MeasureReport/63399e40-a4c1-4778-a836-1154f0dbab8c"}}]},"request":{"method":"PUT","url":"Bundle/tests-NUMERPass-NewUnstageableInjuryPOAisN-bundle"}},{"resource":{"resourceType":"MeasureReport","id":"63399e40-a4c1-4778-a836-1154f0dbab8c","meta":{"profile":["http://hl7.org/fhir/us/cqfmeasures/StructureDefinition/test-case-cqfm"]},"contained":[{"resourceType":"Parameters","id":"03c1f00c-3e26-4727-ad84-1e993499a0a9-parameters","parameter":[{"name":"subject","valueString":"bc28b32e-1c2f-457c-8c60-f36041a2519b"}]}],"extension":[{"url":"http://hl7.org/fhir/StructureDefinition/cqf-inputParameters","valueReference":{"reference":"#03c1f00c-3e26-4727-ad84-1e993499a0a9-parameters"}},{"url":"http://hl7.org/fhir/us/cqfmeasures/StructureDefinition/cqfm-testCaseDescription","valueMarkdown":"Inpatient encounter during MP.  New unstageable PI by encounter diagnosis with POA indicator = N. Numerator Pass."}],"modifierExtension":[{"url":"http://hl7.org/fhir/us/cqfmeasures/StructureDefinition/cqfm-isTestCase","valueBoolean":true}],"status":"complete","type":"individual","measure":"https://madie.cms.gov/Measure/CMS826FHIRHHPI","period":{"start":"2026-01-01","end":"2026-12-31"},"group":[{"id":"Group_1","population":[{"id":"InitialPopulation_1","code":{"coding":[{"system":"http://terminology.hl7.org/CodeSystem/measure-population","code":"initial-population","display":"Initial Population"}]},"count":1},{"id":"Denominator_1","code":{"coding":[{"system":"http://terminology.hl7.org/CodeSystem/measure-population","code":"denominator","display":"Denominator"}]},"count":1},{"id":"DenominatorExclusion_1","code":{"coding":[{"system":"http://terminology.hl7.org/CodeSystem/measure-population","code":"denominator-exclusion","display":"Denominator Exclusion"}]},"count":0},{"id":"Numerator_1","code":{"coding":[{"system":"http://terminology.hl7.org/CodeSystem/measure-population","code":"numerator","display":"Numerator"}]},"count":1}],"measureScore":{"value":0.0}}],"evaluatedResource":[{"reference":"Claim/0fbec636-034f-4633-b51f-acf306b969f8"},{"reference":"Encounter/ccf49478-a0f2-4658-a637-5e293ea3cd86"},{"reference":"Encounter/2eba992d-7235-4cdf-9f58-1243b3ee82e3"},{"reference":"Patient/bc28b32e-1c2f-457c-8c60-f36041a2519b"}]},"request":{"method":"PUT","url":"MeasureReport/63399e40-a4c1-4778-a836-1154f0dbab8c"}},{"resource":{"resourceType":"Patient","id":"bc28b32e-1c2f-457c-8c60-f36041a2519b","meta":{"profile":["http://hl7.org/fhir/us/qicore/StructureDefinition/qicore-patient"]},"extension":[{"url":"http://hl7.org/fhir/us/core/StructureDefinition/us-core-race","extension":[{"url":"ombCategory","valueCoding":{"system":"urn:oid:2.16.840.1.113883.6.238","code":"2028-9","display":"Asian","userSelected":true}},{"url":"text","valueString":"Asian"}]},{"url":"http://hl7.org/fhir/us/core/StructureDefinition/us-core-ethnicity","extension":[{"url":"ombCategory","valueCoding":{"system":"urn:oid:2.16.840.1.113883.6.238","code":"2186-5","display":"Not Hispanic or Latino","userSelected":true}},{"url":"text","valueString":"Not Hispanic or Latino"}]}],"identifier":[{"type":{"coding":[{"system":"http://terminology.hl7.org/CodeSystem/v2-0203","code":"MR"}]},"system":"https://bonnie-fhir.healthit.gov/","value":"647f51ab5e6d159b6e36ee31"}],"name":[{"family":"NUMERPass","given":["IPEncounterWithNewUnstageableNotPOAIndicator"]}],"gender":"other","birthDate":"2006-02-01"},"request":{"method":"PUT","url":"Patient/bc28b32e-1c2f-457c-8c60-f36041a2519b"}}]}