{"resourceType":"Bundle","id":"tests-7f0a0909-3618-4bea-899e-0a12c8aed445-bundle","type":"transaction","entry":[{"fullUrl":"Bundle/tests-DENOMPass-verifiedSDEElements-bundle","resource":{"resourceType":"Bundle","id":"tests-DENOMPass-verifiedSDEElements-bundle","type":"transaction","entry":[{"fullUrl":"https://madie.cms.gov/Patient/7f0a0909-3618-4bea-899e-0a12c8aed445","resource":{"resourceType":"Patient","id":"7f0a0909-3618-4bea-899e-0a12c8aed445","meta":{"profile":["http://hl7.org/fhir/us/qicore/StructureDefinition/qicore-patient"]},"extension":[{"url":"http://hl7.org/fhir/us/core/StructureDefinition/us-core-race","extension":[{"url":"ombCategory","valueCoding":{"system":"urn:oid:2.16.840.1.113883.6.238","code":"2106-3","display":"White"}},{"url":"detailed","valueCoding":{"system":"urn:oid:2.16.840.1.113883.6.238","code":"1586-7","display":"Shoshone"}},{"url":"text","valueString":"White"}]},{"url":"http://hl7.org/fhir/us/core/StructureDefinition/us-core-ethnicity","extension":[{"url":"ombCategory","valueCoding":{"system":"urn:oid:2.16.840.1.113883.6.238","code":"2135-2","display":"Hispanic or Latino"}},{"url":"detailed","valueCoding":{"system":"urn:oid:2.16.840.1.113883.6.238","code":"1586-7","display":"Shoshone"}},{"url":"text","valueString":"Hispanic or Latino"}]},{"url":"http://hl7.org/fhir/us/core/StructureDefinition/us-core-sex","valueCode":"248153007"}],"identifier":[{"type":{"coding":[{"system":"http://terminology.hl7.org/CodeSystem/v2-0203","code":"MR"}]},"system":"https://bonnie-fhir.healthit.gov/","value":"63d963937a195f4975f0062a"}],"name":[{"family":"DENOMPass","given":["Age17inEDAge18DayOfAdmitToIP"]}],"birthDate":"2008-02-01"},"request":{"method":"PUT","url":"Patient/7f0a0909-3618-4bea-899e-0a12c8aed445"}},{"fullUrl":"https://madie.cms.gov/Encounter/ed611f2d-0a89-4e5d-a9ad-73704e1ca23f","resource":{"resourceType":"Encounter","id":"ed611f2d-0a89-4e5d-a9ad-73704e1ca23f","meta":{"profile":["http://hl7.org/fhir/us/qicore/StructureDefinition/qicore-encounter"]},"status":"finished","class":{"system":"http://terminology.hl7.org/CodeSystem/v3-ActCode","code":"IMP","display":"inpatient encounter"},"type":[{"coding":[{"system":"http://snomed.info/sct","version":"2022-09","code":"183452005","display":"Emergency hospital admission (procedure)","userSelected":true}]}],"subject":{"reference":"Patient/7f0a0909-3618-4bea-899e-0a12c8aed445"},"period":{"start":"2026-02-01T08:30:00.000+00:00","end":"2026-02-06T08:15:00.000+00:00"}},"request":{"method":"PUT","url":"Encounter/ed611f2d-0a89-4e5d-a9ad-73704e1ca23f"}},{"fullUrl":"https://madie.cms.gov/Encounter/44f09e60-ddb1-48dc-a051-7392fa3d7810","resource":{"resourceType":"Encounter","id":"44f09e60-ddb1-48dc-a051-7392fa3d7810","meta":{"profile":["http://hl7.org/fhir/us/qicore/StructureDefinition/qicore-encounter"]},"status":"finished","class":{"system":"http://terminology.hl7.org/CodeSystem/v3-ActCode","code":"EMER","display":"emergency"},"type":[{"coding":[{"system":"http://snomed.info/sct","version":"2022-09","code":"4525004","display":"Emergency department patient visit (procedure)","userSelected":true}]}],"subject":{"reference":"Patient/7f0a0909-3618-4bea-899e-0a12c8aed445"},"period":{"start":"2026-01-31T08:00:00.000+00:00","end":"2026-02-01T08:15:00.000+00:00"}},"request":{"method":"PUT","url":"Encounter/44f09e60-ddb1-48dc-a051-7392fa3d7810"}},{"fullUrl":"https://madie.cms.gov/MeasureReport/42d69a27-7e11-49f3-904d-6b8baae7d84b","resource":{"resourceType":"MeasureReport","id":"42d69a27-7e11-49f3-904d-6b8baae7d84b","meta":{"profile":["http://hl7.org/fhir/us/cqfmeasures/StructureDefinition/test-case-cqfm"]},"contained":[{"resourceType":"Parameters","id":"58091101-882f-4748-81fb-6e9489cf04fb-parameters","parameter":[{"name":"subject","valueString":"7f0a0909-3618-4bea-899e-0a12c8aed445"}]}],"extension":[{"url":"http://hl7.org/fhir/StructureDefinition/cqf-inputParameters","valueReference":{"reference":"#58091101-882f-4748-81fb-6e9489cf04fb-parameters"}},{"url":"http://hl7.org/fhir/us/cqfmeasures/StructureDefinition/cqfm-testCaseDescription","valueMarkdown":"Denom Pass test with more complete data for SDE elements, race, ethnicity, etc."}],"modifierExtension":[{"url":"http://hl7.org/fhir/us/cqfmeasures/StructureDefinition/cqfm-isTestCase","valueBoolean":true}],"status":"complete","type":"individual","measure":"https://madie.cms.gov/Measure/CMS826FHIRHHPI","period":{"start":"2026-01-01","end":"2026-12-31"},"group":[{"id":"Group_1","population":[{"id":"InitialPopulation_1","code":{"coding":[{"system":"http://terminology.hl7.org/CodeSystem/measure-population","code":"initial-population","display":"Initial Population"}]},"count":1},{"id":"Denominator_1","code":{"coding":[{"system":"http://terminology.hl7.org/CodeSystem/measure-population","code":"denominator","display":"Denominator"}]},"count":1},{"id":"DenominatorExclusion_1","code":{"coding":[{"system":"http://terminology.hl7.org/CodeSystem/measure-population","code":"denominator-exclusion","display":"Denominator Exclusion"}]},"count":0},{"id":"Numerator_1","code":{"coding":[{"system":"http://terminology.hl7.org/CodeSystem/measure-population","code":"numerator","display":"Numerator"}]},"count":0}],"measureScore":{"value":0.0}}],"evaluatedResource":[{"reference":"Patient/7f0a0909-3618-4bea-899e-0a12c8aed445"},{"reference":"Encounter/ed611f2d-0a89-4e5d-a9ad-73704e1ca23f"},{"reference":"Encounter/44f09e60-ddb1-48dc-a051-7392fa3d7810"}]},"request":{"method":"PUT","url":"MeasureReport/42d69a27-7e11-49f3-904d-6b8baae7d84b"}}]},"request":{"method":"PUT","url":"Bundle/tests-DENOMPass-verifiedSDEElements-bundle"}},{"fullUrl":"Patient/7f0a0909-3618-4bea-899e-0a12c8aed445","resource":{"resourceType":"Patient","id":"7f0a0909-3618-4bea-899e-0a12c8aed445","meta":{"profile":["http://hl7.org/fhir/us/qicore/StructureDefinition/qicore-patient"]},"extension":[{"url":"http://hl7.org/fhir/us/core/StructureDefinition/us-core-race","extension":[{"url":"ombCategory","valueCoding":{"system":"urn:oid:2.16.840.1.113883.6.238","code":"2106-3","display":"White"}},{"url":"detailed","valueCoding":{"system":"urn:oid:2.16.840.1.113883.6.238","code":"1586-7","display":"Shoshone"}},{"url":"text","valueString":"White"}]},{"url":"http://hl7.org/fhir/us/core/StructureDefinition/us-core-ethnicity","extension":[{"url":"ombCategory","valueCoding":{"system":"urn:oid:2.16.840.1.113883.6.238","code":"2135-2","display":"Hispanic or Latino"}},{"url":"detailed","valueCoding":{"system":"urn:oid:2.16.840.1.113883.6.238","code":"1586-7","display":"Shoshone"}},{"url":"text","valueString":"Hispanic or Latino"}]},{"url":"http://hl7.org/fhir/us/core/StructureDefinition/us-core-sex","valueCode":"248153007"}],"identifier":[{"type":{"coding":[{"system":"http://terminology.hl7.org/CodeSystem/v2-0203","code":"MR"}]},"system":"https://bonnie-fhir.healthit.gov/","value":"63d963937a195f4975f0062a"}],"name":[{"family":"DENOMPass","given":["Age17inEDAge18DayOfAdmitToIP"]}],"birthDate":"2008-02-01"},"request":{"method":"PUT","url":"Patient/7f0a0909-3618-4bea-899e-0a12c8aed445"}},{"fullUrl":"Encounter/ed611f2d-0a89-4e5d-a9ad-73704e1ca23f","resource":{"resourceType":"Encounter","id":"ed611f2d-0a89-4e5d-a9ad-73704e1ca23f","meta":{"profile":["http://hl7.org/fhir/us/qicore/StructureDefinition/qicore-encounter"]},"status":"finished","class":{"system":"http://terminology.hl7.org/CodeSystem/v3-ActCode","code":"IMP","display":"inpatient encounter"},"type":[{"coding":[{"system":"http://snomed.info/sct","version":"2022-09","code":"183452005","display":"Emergency hospital admission (procedure)","userSelected":true}]}],"subject":{"reference":"Patient/7f0a0909-3618-4bea-899e-0a12c8aed445"},"period":{"start":"2026-02-01T08:30:00.000+00:00","end":"2026-02-06T08:15:00.000+00:00"}},"request":{"method":"PUT","url":"Encounter/ed611f2d-0a89-4e5d-a9ad-73704e1ca23f"}},{"fullUrl":"MeasureReport/42d69a27-7e11-49f3-904d-6b8baae7d84b","resource":{"resourceType":"MeasureReport","id":"42d69a27-7e11-49f3-904d-6b8baae7d84b","meta":{"profile":["http://hl7.org/fhir/us/cqfmeasures/StructureDefinition/test-case-cqfm"]},"contained":[{"resourceType":"Parameters","id":"58091101-882f-4748-81fb-6e9489cf04fb-parameters","parameter":[{"name":"subject","valueString":"7f0a0909-3618-4bea-899e-0a12c8aed445"}]}],"extension":[{"url":"http://hl7.org/fhir/StructureDefinition/cqf-inputParameters","valueReference":{"reference":"#58091101-882f-4748-81fb-6e9489cf04fb-parameters"}},{"url":"http://hl7.org/fhir/us/cqfmeasures/StructureDefinition/cqfm-testCaseDescription","valueMarkdown":"Denom Pass test with more complete data for SDE elements, race, ethnicity, etc."}],"modifierExtension":[{"url":"http://hl7.org/fhir/us/cqfmeasures/StructureDefinition/cqfm-isTestCase","valueBoolean":true}],"status":"complete","type":"individual","measure":"https://madie.cms.gov/Measure/CMS826FHIRHHPI","period":{"start":"2026-01-01","end":"2026-12-31"},"group":[{"id":"Group_1","population":[{"id":"InitialPopulation_1","code":{"coding":[{"system":"http://terminology.hl7.org/CodeSystem/measure-population","code":"initial-population","display":"Initial Population"}]},"count":1},{"id":"Denominator_1","code":{"coding":[{"system":"http://terminology.hl7.org/CodeSystem/measure-population","code":"denominator","display":"Denominator"}]},"count":1},{"id":"DenominatorExclusion_1","code":{"coding":[{"system":"http://terminology.hl7.org/CodeSystem/measure-population","code":"denominator-exclusion","display":"Denominator Exclusion"}]},"count":0},{"id":"Numerator_1","code":{"coding":[{"system":"http://terminology.hl7.org/CodeSystem/measure-population","code":"numerator","display":"Numerator"}]},"count":0}],"measureScore":{"value":0.0}}],"evaluatedResource":[{"reference":"Patient/7f0a0909-3618-4bea-899e-0a12c8aed445"},{"reference":"Encounter/ed611f2d-0a89-4e5d-a9ad-73704e1ca23f"},{"reference":"Encounter/44f09e60-ddb1-48dc-a051-7392fa3d7810"}]},"request":{"method":"PUT","url":"MeasureReport/42d69a27-7e11-49f3-904d-6b8baae7d84b"}},{"fullUrl":"Encounter/44f09e60-ddb1-48dc-a051-7392fa3d7810","resource":{"resourceType":"Encounter","id":"44f09e60-ddb1-48dc-a051-7392fa3d7810","meta":{"profile":["http://hl7.org/fhir/us/qicore/StructureDefinition/qicore-encounter"]},"status":"finished","class":{"system":"http://terminology.hl7.org/CodeSystem/v3-ActCode","code":"EMER","display":"emergency"},"type":[{"coding":[{"system":"http://snomed.info/sct","version":"2022-09","code":"4525004","display":"Emergency department patient visit (procedure)","userSelected":true}]}],"subject":{"reference":"Patient/7f0a0909-3618-4bea-899e-0a12c8aed445"},"period":{"start":"2026-01-31T08:00:00.000+00:00","end":"2026-02-01T08:15:00.000+00:00"}},"request":{"method":"PUT","url":"Encounter/44f09e60-ddb1-48dc-a051-7392fa3d7810"}}]}