{"resourceType":"Bundle","id":"tests-599d4177-ae6e-4448-8b7d-9cfcdbdd9dc9-bundle","type":"transaction","entry":[{"resource":{"resourceType":"Patient","id":"599d4177-ae6e-4448-8b7d-9cfcdbdd9dc9","meta":{"profile":["http://hl7.org/fhir/us/qicore/StructureDefinition/qicore-patient"]},"extension":[{"url":"http://hl7.org/fhir/us/core/StructureDefinition/us-core-race","extension":[{"url":"ombCategory","valueCoding":{"system":"urn:oid:2.16.840.1.113883.6.238","code":"2054-5","display":"Black or African American","userSelected":true}},{"url":"text","valueString":"Black or African American"}]},{"url":"http://hl7.org/fhir/us/core/StructureDefinition/us-core-ethnicity","extension":[{"url":"ombCategory","valueCoding":{"system":"urn:oid:2.16.840.1.113883.6.238","code":"2135-2","display":"Hispanic or Latino","userSelected":true}},{"url":"text","valueString":"Hispanic or Latino"}]},{"url":"http://hl7.org/fhir/us/core/StructureDefinition/us-core-sex","valueCode":"248152002"}],"identifier":[{"type":{"coding":[{"system":"http://terminology.hl7.org/CodeSystem/v2-0203","code":"MR"}]},"system":"https://bonnie-fhir.healthit.gov/","value":"64121f8a0c4b751dfe4ccb65"}],"name":[{"family":"NUMERPass","given":["NewDTInjuryByExamGT72Hrs"]}],"birthDate":"1962-09-08"},"request":{"method":"PUT","url":"Patient/599d4177-ae6e-4448-8b7d-9cfcdbdd9dc9"}},{"resource":{"resourceType":"MeasureReport","id":"7531fce2-6380-47df-b847-a218ff1f0e61","meta":{"profile":["http://hl7.org/fhir/us/cqfmeasures/StructureDefinition/test-case-cqfm"]},"contained":[{"resourceType":"Parameters","id":"3d6604f0-57e0-465d-94c6-3044d4846223-parameters","parameter":[{"name":"subject","valueString":"599d4177-ae6e-4448-8b7d-9cfcdbdd9dc9"}]}],"extension":[{"url":"http://hl7.org/fhir/StructureDefinition/cqf-inputParameters","valueReference":{"reference":"#3d6604f0-57e0-465d-94c6-3044d4846223-parameters"}},{"url":"http://hl7.org/fhir/us/cqfmeasures/StructureDefinition/cqfm-testCaseDescription","valueMarkdown":"Inpatient encounter during MP, unstageable injury present within 24 hrs from start of hospitalization:  DENEX pass."}],"modifierExtension":[{"url":"http://hl7.org/fhir/us/cqfmeasures/StructureDefinition/cqfm-isTestCase","valueBoolean":true}],"status":"complete","type":"individual","measure":"https://madie.cms.gov/Measure/CMS826FHIRHHPI","period":{"start":"2026-01-01","end":"2026-12-31"},"group":[{"id":"Group_1","population":[{"id":"InitialPopulation_1","code":{"coding":[{"system":"http://terminology.hl7.org/CodeSystem/measure-population","code":"initial-population","display":"Initial Population"}]},"count":1},{"id":"Denominator_1","code":{"coding":[{"system":"http://terminology.hl7.org/CodeSystem/measure-population","code":"denominator","display":"Denominator"}]},"count":1},{"id":"DenominatorExclusion_1","code":{"coding":[{"system":"http://terminology.hl7.org/CodeSystem/measure-population","code":"denominator-exclusion","display":"Denominator Exclusion"}]},"count":1},{"id":"Numerator_1","code":{"coding":[{"system":"http://terminology.hl7.org/CodeSystem/measure-population","code":"numerator","display":"Numerator"}]},"count":0}],"measureScore":{"value":0.0}}],"evaluatedResource":[{"reference":"Encounter/51bfe56b-4590-45de-ac4d-8ed8bf3d0093"},{"reference":"Patient/599d4177-ae6e-4448-8b7d-9cfcdbdd9dc9"},{"reference":"Encounter/e2fad579-dbf5-4b9f-b79c-5ccec8f383cf"},{"reference":"Observation/1a9eaec1-5903-439b-aa31-c22639f87bbb"}]},"request":{"method":"PUT","url":"MeasureReport/7531fce2-6380-47df-b847-a218ff1f0e61"}},{"resource":{"resourceType":"Observation","id":"1a9eaec1-5903-439b-aa31-c22639f87bbb","meta":{"profile":["http://hl7.org/fhir/us/qicore/StructureDefinition/qicore-simple-observation"]},"status":"final","category":[{"coding":[{"system":"http://terminology.hl7.org/CodeSystem/observation-category","code":"exam","display":"Exam"}]}],"code":{"coding":[{"system":"http://loinc.org","code":"8709-8","display":"Physical findings of Skin","userSelected":true}]},"subject":{"reference":"Patient/599d4177-ae6e-4448-8b7d-9cfcdbdd9dc9"},"effectiveDateTime":"2026-03-16T08:00:00.000+00:00","valueCodeableConcept":{"coding":[{"system":"http://loinc.org","version":"2.76","code":"54579-8","display":"Pressure injuries - unstageable due to non-removable dressing"}]}},"request":{"method":"PUT","url":"Observation/1a9eaec1-5903-439b-aa31-c22639f87bbb"}},{"resource":{"resourceType":"Encounter","id":"51bfe56b-4590-45de-ac4d-8ed8bf3d0093","meta":{"profile":["http://hl7.org/fhir/us/qicore/StructureDefinition/qicore-encounter"]},"status":"finished","class":{"system":"http://terminology.hl7.org/CodeSystem/v3-ActCode","code":"IMP","display":"inpatient encounter"},"type":[{"coding":[{"system":"http://snomed.info/sct","version":"2022-09","code":"183452005","display":"Emergency hospital admission (procedure)","userSelected":true}]}],"subject":{"reference":"Patient/599d4177-ae6e-4448-8b7d-9cfcdbdd9dc9"},"period":{"start":"2026-03-15T11:00:00.000+00:00","end":"2026-03-22T08:15:00.000+00:00"}},"request":{"method":"PUT","url":"Encounter/51bfe56b-4590-45de-ac4d-8ed8bf3d0093"}},{"resource":{"resourceType":"Encounter","id":"e2fad579-dbf5-4b9f-b79c-5ccec8f383cf","meta":{"profile":["http://hl7.org/fhir/us/qicore/StructureDefinition/qicore-encounter"]},"status":"finished","class":{"system":"http://terminology.hl7.org/CodeSystem/v3-ActCode","code":"EMER","display":"emergency"},"type":[{"coding":[{"system":"http://snomed.info/sct","version":"2022-09","code":"4525004","display":"Emergency department patient visit (procedure)","userSelected":true}]}],"subject":{"reference":"Patient/599d4177-ae6e-4448-8b7d-9cfcdbdd9dc9"},"period":{"start":"2026-03-15T08:00:00.000+00:00","end":"2026-03-15T10:15:00.000+00:00"}},"request":{"method":"PUT","url":"Encounter/e2fad579-dbf5-4b9f-b79c-5ccec8f383cf"}},{"resource":{"resourceType":"Bundle","id":"tests-DENEXPass-UnstageableInjuryByExamWithin24Hrs-bundle","type":"transaction","entry":[{"fullUrl":"https://madie.cms.gov/Encounter/51bfe56b-4590-45de-ac4d-8ed8bf3d0093","resource":{"resourceType":"Encounter","id":"51bfe56b-4590-45de-ac4d-8ed8bf3d0093","meta":{"profile":["http://hl7.org/fhir/us/qicore/StructureDefinition/qicore-encounter"]},"status":"finished","class":{"system":"http://terminology.hl7.org/CodeSystem/v3-ActCode","code":"IMP","display":"inpatient encounter"},"type":[{"coding":[{"system":"http://snomed.info/sct","version":"2022-09","code":"183452005","display":"Emergency hospital admission (procedure)","userSelected":true}]}],"subject":{"reference":"Patient/599d4177-ae6e-4448-8b7d-9cfcdbdd9dc9"},"period":{"start":"2026-03-15T11:00:00.000+00:00","end":"2026-03-22T08:15:00.000+00:00"}},"request":{"method":"PUT","url":"Encounter/51bfe56b-4590-45de-ac4d-8ed8bf3d0093"}},{"fullUrl":"https://madie.cms.gov/Patient/599d4177-ae6e-4448-8b7d-9cfcdbdd9dc9","resource":{"resourceType":"Patient","id":"599d4177-ae6e-4448-8b7d-9cfcdbdd9dc9","meta":{"profile":["http://hl7.org/fhir/us/qicore/StructureDefinition/qicore-patient"]},"extension":[{"url":"http://hl7.org/fhir/us/core/StructureDefinition/us-core-race","extension":[{"url":"ombCategory","valueCoding":{"system":"urn:oid:2.16.840.1.113883.6.238","code":"2054-5","display":"Black or African American","userSelected":true}},{"url":"text","valueString":"Black or African American"}]},{"url":"http://hl7.org/fhir/us/core/StructureDefinition/us-core-ethnicity","extension":[{"url":"ombCategory","valueCoding":{"system":"urn:oid:2.16.840.1.113883.6.238","code":"2135-2","display":"Hispanic or Latino","userSelected":true}},{"url":"text","valueString":"Hispanic or Latino"}]},{"url":"http://hl7.org/fhir/us/core/StructureDefinition/us-core-sex","valueCode":"248152002"}],"identifier":[{"type":{"coding":[{"system":"http://terminology.hl7.org/CodeSystem/v2-0203","code":"MR"}]},"system":"https://bonnie-fhir.healthit.gov/","value":"64121f8a0c4b751dfe4ccb65"}],"name":[{"family":"NUMERPass","given":["NewDTInjuryByExamGT72Hrs"]}],"birthDate":"1962-09-08"},"request":{"method":"PUT","url":"Patient/599d4177-ae6e-4448-8b7d-9cfcdbdd9dc9"}},{"fullUrl":"https://madie.cms.gov/Encounter/e2fad579-dbf5-4b9f-b79c-5ccec8f383cf","resource":{"resourceType":"Encounter","id":"e2fad579-dbf5-4b9f-b79c-5ccec8f383cf","meta":{"profile":["http://hl7.org/fhir/us/qicore/StructureDefinition/qicore-encounter"]},"status":"finished","class":{"system":"http://terminology.hl7.org/CodeSystem/v3-ActCode","code":"EMER","display":"emergency"},"type":[{"coding":[{"system":"http://snomed.info/sct","version":"2022-09","code":"4525004","display":"Emergency department patient visit (procedure)","userSelected":true}]}],"subject":{"reference":"Patient/599d4177-ae6e-4448-8b7d-9cfcdbdd9dc9"},"period":{"start":"2026-03-15T08:00:00.000+00:00","end":"2026-03-15T10:15:00.000+00:00"}},"request":{"method":"PUT","url":"Encounter/e2fad579-dbf5-4b9f-b79c-5ccec8f383cf"}},{"fullUrl":"https://madie.cms.gov/Observation/1a9eaec1-5903-439b-aa31-c22639f87bbb","resource":{"resourceType":"Observation","id":"1a9eaec1-5903-439b-aa31-c22639f87bbb","meta":{"profile":["http://hl7.org/fhir/us/qicore/StructureDefinition/qicore-simple-observation"]},"status":"final","category":[{"coding":[{"system":"http://terminology.hl7.org/CodeSystem/observation-category","code":"exam","display":"Exam"}]}],"code":{"coding":[{"system":"http://loinc.org","code":"8709-8","display":"Physical findings of Skin","userSelected":true}]},"subject":{"reference":"Patient/599d4177-ae6e-4448-8b7d-9cfcdbdd9dc9"},"effectiveDateTime":"2026-03-16T08:00:00.000+00:00","valueCodeableConcept":{"coding":[{"system":"http://loinc.org","version":"2.76","code":"54579-8","display":"Pressure injuries - unstageable due to non-removable dressing"}]}},"request":{"method":"PUT","url":"Observation/1a9eaec1-5903-439b-aa31-c22639f87bbb"}},{"fullUrl":"https://madie.cms.gov/MeasureReport/7531fce2-6380-47df-b847-a218ff1f0e61","resource":{"resourceType":"MeasureReport","id":"7531fce2-6380-47df-b847-a218ff1f0e61","meta":{"profile":["http://hl7.org/fhir/us/cqfmeasures/StructureDefinition/test-case-cqfm"]},"contained":[{"resourceType":"Parameters","id":"3d6604f0-57e0-465d-94c6-3044d4846223-parameters","parameter":[{"name":"subject","valueString":"599d4177-ae6e-4448-8b7d-9cfcdbdd9dc9"}]}],"extension":[{"url":"http://hl7.org/fhir/StructureDefinition/cqf-inputParameters","valueReference":{"reference":"#3d6604f0-57e0-465d-94c6-3044d4846223-parameters"}},{"url":"http://hl7.org/fhir/us/cqfmeasures/StructureDefinition/cqfm-testCaseDescription","valueMarkdown":"Inpatient encounter during MP, unstageable injury present within 24 hrs from start of hospitalization:  DENEX pass."}],"modifierExtension":[{"url":"http://hl7.org/fhir/us/cqfmeasures/StructureDefinition/cqfm-isTestCase","valueBoolean":true}],"status":"complete","type":"individual","measure":"https://madie.cms.gov/Measure/CMS826FHIRHHPI","period":{"start":"2026-01-01","end":"2026-12-31"},"group":[{"id":"Group_1","population":[{"id":"InitialPopulation_1","code":{"coding":[{"system":"http://terminology.hl7.org/CodeSystem/measure-population","code":"initial-population","display":"Initial Population"}]},"count":1},{"id":"Denominator_1","code":{"coding":[{"system":"http://terminology.hl7.org/CodeSystem/measure-population","code":"denominator","display":"Denominator"}]},"count":1},{"id":"DenominatorExclusion_1","code":{"coding":[{"system":"http://terminology.hl7.org/CodeSystem/measure-population","code":"denominator-exclusion","display":"Denominator Exclusion"}]},"count":1},{"id":"Numerator_1","code":{"coding":[{"system":"http://terminology.hl7.org/CodeSystem/measure-population","code":"numerator","display":"Numerator"}]},"count":0}],"measureScore":{"value":0.0}}],"evaluatedResource":[{"reference":"Encounter/51bfe56b-4590-45de-ac4d-8ed8bf3d0093"},{"reference":"Patient/599d4177-ae6e-4448-8b7d-9cfcdbdd9dc9"},{"reference":"Encounter/e2fad579-dbf5-4b9f-b79c-5ccec8f383cf"},{"reference":"Observation/1a9eaec1-5903-439b-aa31-c22639f87bbb"}]},"request":{"method":"PUT","url":"MeasureReport/7531fce2-6380-47df-b847-a218ff1f0e61"}}]},"request":{"method":"PUT","url":"Bundle/tests-DENEXPass-UnstageableInjuryByExamWithin24Hrs-bundle"}}]}