{"resourceType":"Bundle","id":"tests-39fd854c-e5c0-440e-a88d-1585af66cb1c-bundle","type":"transaction","entry":[{"fullUrl":"MeasureReport/50864fe8-ce6b-4170-a4b3-2a0d8d6c07a4","resource":{"resourceType":"MeasureReport","id":"50864fe8-ce6b-4170-a4b3-2a0d8d6c07a4","meta":{"profile":["http://hl7.org/fhir/us/cqfmeasures/StructureDefinition/test-case-cqfm"]},"contained":[{"resourceType":"Parameters","id":"92bf7fb4-0ed7-4c27-98c6-c1edab038af1-parameters","parameter":[{"name":"subject","valueString":"39fd854c-e5c0-440e-a88d-1585af66cb1c"}]}],"extension":[{"url":"http://hl7.org/fhir/StructureDefinition/cqf-inputParameters","valueReference":{"reference":"#92bf7fb4-0ed7-4c27-98c6-c1edab038af1-parameters"}},{"url":"http://hl7.org/fhir/us/cqfmeasures/StructureDefinition/cqfm-testCaseDescription","valueMarkdown":"Inpatient encounter during MP.  Age is 17 when in ED. Turns 18 on day of inpatient admit. Meets IPP / Denom. "}],"modifierExtension":[{"url":"http://hl7.org/fhir/us/cqfmeasures/StructureDefinition/cqfm-isTestCase","valueBoolean":true}],"status":"complete","type":"individual","measure":"https://madie.cms.gov/Measure/CMS826FHIRHHPI","period":{"start":"2026-01-01","end":"2026-12-31"},"group":[{"id":"Group_1","population":[{"id":"InitialPopulation_1","code":{"coding":[{"system":"http://terminology.hl7.org/CodeSystem/measure-population","code":"initial-population","display":"Initial Population"}]},"count":1},{"id":"Denominator_1","code":{"coding":[{"system":"http://terminology.hl7.org/CodeSystem/measure-population","code":"denominator","display":"Denominator"}]},"count":1},{"id":"DenominatorExclusion_1","code":{"coding":[{"system":"http://terminology.hl7.org/CodeSystem/measure-population","code":"denominator-exclusion","display":"Denominator Exclusion"}]},"count":0},{"id":"Numerator_1","code":{"coding":[{"system":"http://terminology.hl7.org/CodeSystem/measure-population","code":"numerator","display":"Numerator"}]},"count":0}],"measureScore":{"value":0.0}}],"evaluatedResource":[{"reference":"Encounter/fbb56806-e609-48ba-af2f-b7d204f29467"},{"reference":"Encounter/7de9f2dd-b206-4c7a-aec9-16f780abd10f"},{"reference":"Patient/39fd854c-e5c0-440e-a88d-1585af66cb1c"}]},"request":{"method":"PUT","url":"MeasureReport/50864fe8-ce6b-4170-a4b3-2a0d8d6c07a4"}},{"fullUrl":"Encounter/7de9f2dd-b206-4c7a-aec9-16f780abd10f","resource":{"resourceType":"Encounter","id":"7de9f2dd-b206-4c7a-aec9-16f780abd10f","meta":{"profile":["http://hl7.org/fhir/us/qicore/StructureDefinition/qicore-encounter"]},"status":"finished","class":{"system":"http://terminology.hl7.org/CodeSystem/v3-ActCode","code":"EMER","display":"emergency"},"type":[{"coding":[{"system":"http://snomed.info/sct","version":"2022-09","code":"4525004","display":"Emergency department patient visit (procedure)","userSelected":true}]}],"subject":{"reference":"Patient/39fd854c-e5c0-440e-a88d-1585af66cb1c"},"period":{"start":"2026-01-31T08:00:00.000+00:00","end":"2026-02-01T08:15:00.000+00:00"}},"request":{"method":"PUT","url":"Encounter/7de9f2dd-b206-4c7a-aec9-16f780abd10f"}},{"fullUrl":"Patient/39fd854c-e5c0-440e-a88d-1585af66cb1c","resource":{"resourceType":"Patient","id":"39fd854c-e5c0-440e-a88d-1585af66cb1c","meta":{"profile":["http://hl7.org/fhir/us/qicore/StructureDefinition/qicore-patient"]},"extension":[{"url":"http://hl7.org/fhir/us/core/StructureDefinition/us-core-race","extension":[{"url":"ombCategory","valueCoding":{"system":"urn:oid:2.16.840.1.113883.6.238","code":"2028-9","display":"Asian","userSelected":true}},{"url":"text","valueString":"Asian"}]},{"url":"http://hl7.org/fhir/us/core/StructureDefinition/us-core-ethnicity","extension":[{"url":"ombCategory","valueCoding":{"system":"urn:oid:2.16.840.1.113883.6.238","code":"2186-5","display":"Not Hispanic or Latino","userSelected":true}},{"url":"text","valueString":"Not Hispanic or Latino"}]}],"identifier":[{"type":{"coding":[{"system":"http://terminology.hl7.org/CodeSystem/v2-0203","code":"MR"}]},"system":"https://bonnie-fhir.healthit.gov/","value":"63d963937a195f4975f0062a"}],"name":[{"family":"DENOMPass","given":["Age17inEDAge18DayOfAdmitToIP"]}],"gender":"female","birthDate":"2008-02-01"},"request":{"method":"PUT","url":"Patient/39fd854c-e5c0-440e-a88d-1585af66cb1c"}},{"fullUrl":"Encounter/fbb56806-e609-48ba-af2f-b7d204f29467","resource":{"resourceType":"Encounter","id":"fbb56806-e609-48ba-af2f-b7d204f29467","meta":{"profile":["http://hl7.org/fhir/us/qicore/StructureDefinition/qicore-encounter"]},"status":"finished","class":{"system":"http://terminology.hl7.org/CodeSystem/v3-ActCode","code":"IMP","display":"inpatient encounter"},"type":[{"coding":[{"system":"http://snomed.info/sct","version":"2022-09","code":"183452005","display":"Emergency hospital admission (procedure)","userSelected":true}]}],"subject":{"reference":"Patient/39fd854c-e5c0-440e-a88d-1585af66cb1c"},"period":{"start":"2026-02-01T08:30:00.000+00:00","end":"2026-02-06T08:15:00.000+00:00"}},"request":{"method":"PUT","url":"Encounter/fbb56806-e609-48ba-af2f-b7d204f29467"}},{"fullUrl":"Bundle/tests-DENOMPass-Age17inEDAge18DayOfAdmitToIP-bundle","resource":{"resourceType":"Bundle","id":"tests-DENOMPass-Age17inEDAge18DayOfAdmitToIP-bundle","type":"transaction","entry":[{"fullUrl":"https://madie.cms.gov/Encounter/fbb56806-e609-48ba-af2f-b7d204f29467","resource":{"resourceType":"Encounter","id":"fbb56806-e609-48ba-af2f-b7d204f29467","meta":{"profile":["http://hl7.org/fhir/us/qicore/StructureDefinition/qicore-encounter"]},"status":"finished","class":{"system":"http://terminology.hl7.org/CodeSystem/v3-ActCode","code":"IMP","display":"inpatient encounter"},"type":[{"coding":[{"system":"http://snomed.info/sct","version":"2022-09","code":"183452005","display":"Emergency hospital admission (procedure)","userSelected":true}]}],"subject":{"reference":"Patient/39fd854c-e5c0-440e-a88d-1585af66cb1c"},"period":{"start":"2026-02-01T08:30:00.000+00:00","end":"2026-02-06T08:15:00.000+00:00"}},"request":{"method":"PUT","url":"Encounter/fbb56806-e609-48ba-af2f-b7d204f29467"}},{"fullUrl":"https://madie.cms.gov/Encounter/7de9f2dd-b206-4c7a-aec9-16f780abd10f","resource":{"resourceType":"Encounter","id":"7de9f2dd-b206-4c7a-aec9-16f780abd10f","meta":{"profile":["http://hl7.org/fhir/us/qicore/StructureDefinition/qicore-encounter"]},"status":"finished","class":{"system":"http://terminology.hl7.org/CodeSystem/v3-ActCode","code":"EMER","display":"emergency"},"type":[{"coding":[{"system":"http://snomed.info/sct","version":"2022-09","code":"4525004","display":"Emergency department patient visit (procedure)","userSelected":true}]}],"subject":{"reference":"Patient/39fd854c-e5c0-440e-a88d-1585af66cb1c"},"period":{"start":"2026-01-31T08:00:00.000+00:00","end":"2026-02-01T08:15:00.000+00:00"}},"request":{"method":"PUT","url":"Encounter/7de9f2dd-b206-4c7a-aec9-16f780abd10f"}},{"fullUrl":"https://madie.cms.gov/Patient/39fd854c-e5c0-440e-a88d-1585af66cb1c","resource":{"resourceType":"Patient","id":"39fd854c-e5c0-440e-a88d-1585af66cb1c","meta":{"profile":["http://hl7.org/fhir/us/qicore/StructureDefinition/qicore-patient"]},"extension":[{"url":"http://hl7.org/fhir/us/core/StructureDefinition/us-core-race","extension":[{"url":"ombCategory","valueCoding":{"system":"urn:oid:2.16.840.1.113883.6.238","code":"2028-9","display":"Asian","userSelected":true}},{"url":"text","valueString":"Asian"}]},{"url":"http://hl7.org/fhir/us/core/StructureDefinition/us-core-ethnicity","extension":[{"url":"ombCategory","valueCoding":{"system":"urn:oid:2.16.840.1.113883.6.238","code":"2186-5","display":"Not Hispanic or Latino","userSelected":true}},{"url":"text","valueString":"Not Hispanic or Latino"}]}],"identifier":[{"type":{"coding":[{"system":"http://terminology.hl7.org/CodeSystem/v2-0203","code":"MR"}]},"system":"https://bonnie-fhir.healthit.gov/","value":"63d963937a195f4975f0062a"}],"name":[{"family":"DENOMPass","given":["Age17inEDAge18DayOfAdmitToIP"]}],"gender":"female","birthDate":"2008-02-01"},"request":{"method":"PUT","url":"Patient/39fd854c-e5c0-440e-a88d-1585af66cb1c"}},{"fullUrl":"https://madie.cms.gov/MeasureReport/50864fe8-ce6b-4170-a4b3-2a0d8d6c07a4","resource":{"resourceType":"MeasureReport","id":"50864fe8-ce6b-4170-a4b3-2a0d8d6c07a4","meta":{"profile":["http://hl7.org/fhir/us/cqfmeasures/StructureDefinition/test-case-cqfm"]},"contained":[{"resourceType":"Parameters","id":"92bf7fb4-0ed7-4c27-98c6-c1edab038af1-parameters","parameter":[{"name":"subject","valueString":"39fd854c-e5c0-440e-a88d-1585af66cb1c"}]}],"extension":[{"url":"http://hl7.org/fhir/StructureDefinition/cqf-inputParameters","valueReference":{"reference":"#92bf7fb4-0ed7-4c27-98c6-c1edab038af1-parameters"}},{"url":"http://hl7.org/fhir/us/cqfmeasures/StructureDefinition/cqfm-testCaseDescription","valueMarkdown":"Inpatient encounter during MP.  Age is 17 when in ED. Turns 18 on day of inpatient admit. Meets IPP / Denom. "}],"modifierExtension":[{"url":"http://hl7.org/fhir/us/cqfmeasures/StructureDefinition/cqfm-isTestCase","valueBoolean":true}],"status":"complete","type":"individual","measure":"https://madie.cms.gov/Measure/CMS826FHIRHHPI","period":{"start":"2026-01-01","end":"2026-12-31"},"group":[{"id":"Group_1","population":[{"id":"InitialPopulation_1","code":{"coding":[{"system":"http://terminology.hl7.org/CodeSystem/measure-population","code":"initial-population","display":"Initial Population"}]},"count":1},{"id":"Denominator_1","code":{"coding":[{"system":"http://terminology.hl7.org/CodeSystem/measure-population","code":"denominator","display":"Denominator"}]},"count":1},{"id":"DenominatorExclusion_1","code":{"coding":[{"system":"http://terminology.hl7.org/CodeSystem/measure-population","code":"denominator-exclusion","display":"Denominator Exclusion"}]},"count":0},{"id":"Numerator_1","code":{"coding":[{"system":"http://terminology.hl7.org/CodeSystem/measure-population","code":"numerator","display":"Numerator"}]},"count":0}],"measureScore":{"value":0.0}}],"evaluatedResource":[{"reference":"Encounter/fbb56806-e609-48ba-af2f-b7d204f29467"},{"reference":"Encounter/7de9f2dd-b206-4c7a-aec9-16f780abd10f"},{"reference":"Patient/39fd854c-e5c0-440e-a88d-1585af66cb1c"}]},"request":{"method":"PUT","url":"MeasureReport/50864fe8-ce6b-4170-a4b3-2a0d8d6c07a4"}}]},"request":{"method":"PUT","url":"Bundle/tests-DENOMPass-Age17inEDAge18DayOfAdmitToIP-bundle"}}]}